t_ms,accel_x_g,accel_y_g,accel_z_g,gyro_x_dps,gyro_y_dps,gyro_z_dps,imu_temp_c
3273,0.2607,-0.0509,0.8691,-6.15,7.47,-0.03,24.29
3283,0.241,-0.0516,0.8881,-6.15,6.4,-0.02,24.3
3293,0.2289,-0.051,0.8832,-6.2,8.84,0.02,24.29
3303,0.2361,-0.0452,0.877,-6.2,7.74,0.02,24.29
3313,0.2321,-0.0446,0.8832,-6.18,7.62,0.0,24.31
3323,0.2245,-0.0444,0.894,-6.09,8.31,-0.06,24.35
3333,0.234,-0.0438,0.8805,-6.23,8.5,-0.06,24.3
3343,0.2485,-0.0487,0.8706,-6.14,6.49,-0.09,24.31
3353,0.2122,-0.0557,0.9022,-6.11,7.86,-0.11,24.3
3363,0.2325,-0.0562,0.8746,-6.15,8.99,-0.08,24.31
3373,0.2496,-0.0527,0.8558,-6.08,6.43,0.0,24.31
3383,0.2328,-0.0587,0.8802,-6.08,6.9,-0.11,24.32
3393,0.2416,-0.0469,0.8777,-6.15,8.12,0.0,24.31
3403,0.2451,-0.0397,0.8765,-6.27,7.44,-0.09,24.29
3413,0.2439,-0.0431,0.8759,-6.27,6.96,-0.14,24.3
3423,0.231,-0.0474,0.8915,-6.17,7.34,-0.14,24.31
3433,0.234,-0.0465,0.9016,-6.17,8.14,-0.09,24.33
3443,0.2343,-0.0483,0.9032,-6.2,8.37,-0.15,24.3
3453,0.2322,-0.0562,0.8947,-6.15,8.96,-0.12,24.33
3463,0.2487,-0.0569,0.8679,-6.06,8.26,-0.18,24.32
3473,0.2462,-0.053,0.8646,-6.02,6.9,-0.17,24.29
3483,0.2343,-0.0486,0.8713,-5.97,6.78,-0.23,24.36
3493,0.2074,-0.0468,0.8914,-6.15,8.11,-0.32,24.32
3503,0.2283,-0.0458,0.8743,-6.14,9.45,-0.37,24.32
3513,0.2557,-0.0356,0.8645,-6.29,6.26,-0.26,24.32
3523,0.2439,-0.0397,0.902,-6.15,6.23,-0.37,24.32
3533,0.225,-0.0505,0.9139,-6.34,8.27,-0.47,24.35
3543,0.2333,-0.0626,0.8912,-6.24,9.44,-0.56,24.34
3553,0.2529,-0.0662,0.8478,-6.18,7.15,-0.53,24.33
3563,0.2115,-0.0615,0.8912,-6.11,6.9,-0.55,24.32
3573,0.2272,-0.0526,0.8867,-6.2,9.79,-0.66,24.31
3583,0.2633,-0.0508,0.8596,-6.29,5.97,-0.64,24.32
3593,0.2131,-0.0498,0.9105,-6.35,7.59,-0.52,24.33
3603,0.2314,-0.051,0.8993,-6.37,10.89,-0.49,24.32
3613,0.2869,-0.0574,0.8384,-6.14,5.13,-0.47,24.32
3623,0.204,-0.062,0.894,-6.12,5.86,-0.37,24.31
3633,0.2185,-0.0541,0.8949,-6.09,11.31,-0.2,24.31
3643,0.262,-0.0413,0.8621,-6.14,6.37,-0.23,24.34
3653,0.222,-0.0315,0.8943,-6.21,6.67,-0.17,24.33
3663,0.2043,-0.0238,0.9045,-6.18,10.29,-0.12,24.33
3673,0.25,-0.0168,0.8807,-6.24,8.76,-0.18,24.33
3683,0.2668,-0.0222,0.8696,-6.06,5.56,-0.18,24.35
3693,0.2058,-0.0367,0.9127,-6.15,7.85,-0.09,24.33
3703,0.2173,-0.0438,0.8776,-6.0,9.85,-0.06,24.34
3713,0.2542,-0.0415,0.8468,-6.06,6.7,-0.14,24.34
3723,0.2394,-0.0443,0.8907,-6.09,5.89,-0.03,24.35
3733,0.2198,-0.041,0.9183,-6.24,8.47,0.06,24.36
3743,0.2377,-0.0457,0.8837,-6.24,9.91,0.06,24.35
3753,0.2671,-0.0536,0.8466,-6.23,5.79,0.12,24.34
3763,0.2046,-0.0553,0.9028,-6.18,7.36,0.12,24.35
3773,0.2344,-0.0623,0.8862,-6.09,10.06,0.18,24.35
3783,0.2703,-0.0621,0.8469,-6.18,5.19,0.17,24.36
3793,0.2081,-0.0563,0.9021,-6.18,7.36,0.18,24.32
3803,0.2339,-0.0432,0.8944,-6.18,9.92,0.12,24.34
3813,0.2761,-0.0511,0.858,-6.06,5.89,0.18,24.34
3823,0.2068,-0.0542,0.9108,-6.18,7.16,0.17,24.31
3833,0.2242,-0.0535,0.8928,-6.15,10.66,0.18,24.34
3843,0.2719,-0.0533,0.8503,-6.09,6.31,0.03,24.33
3853,0.2323,-0.0582,0.8871,-6.15,5.79,-0.05,24.33
3863,0.2018,-0.0558,0.9194,-6.23,10.03,-0.05,24.32
3873,0.248,-0.0513,0.875,-6.17,9.13,-0.12,24.34
3883,0.26,-0.0483,0.8621,-6.15,5.88,-0.09,24.32
3893,0.2155,-0.059,0.8918,-6.12,7.28,-0.06,24.34
3903,0.2068,-0.0496,0.8916,-6.12,10.09,-0.06,24.35
3913,0.27,-0.0454,0.8442,-5.95,6.98,-0.2,24.36
3923,0.2246,-0.0386,0.8964,-6.17,5.3,-0.18,24.36
3933,0.215,-0.0381,0.9244,-6.32,11.07,-0.11,24.35
3943,0.276,-0.0441,0.844,-6.27,6.61,-0.21,24.35
3953,0.2177,-0.0455,0.8805,-6.14,6.21,-0.23,24.35
3963,0.2028,-0.0488,0.8995,-6.12,10.2,-0.17,24.33
3973,0.2667,-0.0422,0.8496,-5.98,7.25,-0.12,24.34
3983,0.2341,-0.0424,0.886,-6.15,5.22,-0.21,24.35
3993,0.1987,-0.0364,0.9185,-6.35,9.31,-0.11,24.34
4003,0.2505,-0.0317,0.8843,-6.17,9.83,-0.06,24.35
4013,0.2593,-0.0426,0.8562,-6.21,5.02,0.03,24.35
4023,0.2009,-0.0514,0.902,-6.17,8.55,-0.05,24.34
4033,0.2306,-0.0471,0.8656,-6.18,9.16,0.0,24.34
4043,0.2522,-0.0448,0.855,-6.12,7.73,0.08,24.34
4053,0.2206,-0.0422,0.9011,-6.18,7.07,0.05,24.37
4063,0.2175,-0.0422,0.9065,-6.24,9.77,-0.03,24.34
4073,0.2574,-0.0441,0.8685,-6.21,7.79,-0.02,24.34
4083,0.2404,-0.049,0.8938,-6.23,6.2,-0.06,24.33
4093,0.2113,-0.0542,0.9143,-6.31,9.83,-0.03,24.35
4103,0.2356,-0.0629,0.88,-6.2,9.97,-0.02,24.37
4113,0.2314,-0.068,0.8656,-6.02,5.68,-0.02,24.34
4123,0.2097,-0.067,0.8854,-6.12,7.16,-0.05,24.33
4133,0.2333,-0.0565,0.8839,-6.06,9.25,-0.09,24.35
4143,0.2545,-0.0477,0.8727,-6.24,6.78,-0.12,24.37
4153,0.2344,-0.0513,0.8937,-6.23,7.71,-0.15,24.36
4163,0.2406,-0.0563,0.8879,-6.24,8.55,-0.08,24.36
4173,0.2573,-0.0562,0.8759,-6.15,6.76,-0.03,24.35
4183,0.2189,-0.061,0.9053,-6.14,8.2,0.05,24.35
4193,0.2343,-0.0646,0.8849,-6.02,10.47,0.12,24.36
4203,0.2645,-0.0616,0.8453,-5.97,6.09,0.03,24.39
4213,0.2177,-0.0513,0.875,-6.12,6.23,-0.03,24.37
4223,0.2098,-0.0347,0.8966,-6.05,9.73,0.0,24.36
4233,0.2616,-0.0217,0.8563,-6.17,7.08,0.03,24.35
4243,0.2385,-0.0209,0.8905,-6.17,6.06,-0.11,24.36
4253,0.217,-0.0254,0.9091,-6.26,9.01,-0.17,24.35
4263,0.2552,-0.0349,0.8706,-6.18,8.17,-0.17,24.34
4273,0.2444,-0.0447,0.8767,-6.12,6.12,-0.15,24.34
4283,0.2142,-0.0476,0.908,-6.17,8.49,-0.11,24.35
4293,0.2411,-0.0483,0.8831,-6.18,9.21,-0.09,24.37
4303,0.2576,-0.049,0.8696,-6.14,6.27,-0.06,24.37
4313,0.2159,-0.0481,0.9027,-6.06,7.89,0.0,24.37
4323,0.2335,-0.0497,0.8732,-6.17,9.53,0.08,24.36
4333,0.2561,-0.0481,0.843,-6.08,6.14,0.05,24.36
4343,0.2229,-0.0491,0.8846,-6.11,6.43,0.0,24.36
4353,0.2244,-0.0491,0.8901,-6.06,8.93,0.0,24.37
4363,0.2479,-0.049,0.8713,-6.2,7.66,0.02,24.35
4373,0.2417,-0.0547,0.8706,-6.21,6.84,-0.05,24.38
4383,0.2292,-0.0538,0.8873,-6.14,7.27,0.05,24.37
4393,0.2227,-0.0496,0.8989,-6.15,8.85,0.0,24.37
4403,0.2529,-0.0494,0.8804,-6.23,8.17,-0.03,24.37
4413,0.2528,-0.0503,0.8745,-6.26,5.83,-0.12,24.36
4423,0.2123,-0.0536,0.9099,-6.2,7.94,-0.05,24.36
4433,0.2344,-0.0529,0.8929,-6.18,9.73,-0.03,24.36
4443,0.2601,-0.0538,0.8696,-6.18,6.76,-0.09,24.37
4453,0.2261,-0.0549,0.8903,-6.23,7.15,0.02,24.36
4463,0.22,-0.0541,0.8901,-6.15,8.67,-0.06,24.38
4473,0.2365,-0.0513,0.8822,-6.08,8.43,-0.02,24.38
4483,0.2445,-0.0498,0.8721,-6.0,7.5,-0.06,24.37
4493,0.2354,-0.0435,0.8706,-6.2,6.99,-0.08,24.39
4503,0.2273,-0.0472,0.8784,-6.11,7.82,-0.12,24.37
4513,0.2365,-0.0394,0.8751,-6.06,7.25,-0.15,24.37
4523,0.233,-0.0468,0.8794,-6.12,7.5,-0.18,24.36
4533,0.2406,-0.0408,0.8854,-6.17,7.6,-0.18,24.37
4543,0.2329,-0.048,0.8866,-6.21,7.33,-0.23,24.37
4553,0.2244,-0.0511,0.8989,-6.2,8.84,-0.24,24.39
4563,0.2545,-0.0549,0.8694,-6.09,8.0,-0.2,24.37
4573,0.2465,-0.0535,0.8879,-6.24,6.26,-0.12,24.38
4583,0.2218,-0.0591,0.9117,-6.2,8.89,-0.06,24.39
4593,0.2521,-0.0573,0.879,-6.15,8.72,-0.12,24.39
4603,0.2535,-0.0593,0.8696,-6.15,6.55,-0.15,24.39
4613,0.2246,-0.0565,0.8959,-6.08,7.79,-0.12,24.37
4623,0.231,-0.0516,0.8895,-6.2,9.44,0.02,24.39
4633,0.2571,-0.0504,0.8645,-6.02,7.54,0.08,24.41
4643,0.2344,-0.0465,0.8698,-6.05,6.69,0.11,24.39
4653,0.2107,-0.0389,0.8964,-6.03,8.67,0.05,24.39
4663,0.236,-0.0352,0.8805,-6.11,8.67,0.06,24.39
4673,0.2418,-0.0294,0.8823,-6.05,7.37,0.12,24.39
4683,0.2246,-0.0317,0.8887,-6.21,7.89,0.06,24.39
4693,0.2275,-0.0323,0.8853,-6.24,8.06,0.0,24.38
4703,0.2336,-0.0385,0.8888,-6.27,8.37,0.02,24.39
4713,0.2449,-0.0411,0.8749,-6.21,7.5,-0.09,24.4
4723,0.2244,-0.0452,0.8876,-6.31,7.85,-0.08,24.39
4733,0.2395,-0.0519,0.8794,-6.24,8.41,0.0,24.39
4743,0.2432,-0.0568,0.8793,-6.17,6.98,-0.12,24.37
4753,0.2222,-0.0635,0.8921,-6.09,8.31,-0.2,24.37
4763,0.228,-0.0641,0.8845,-6.14,8.79,-0.02,24.38
4773,0.2457,-0.0648,0.8623,-6.17,7.56,-0.03,24.38
4783,0.2419,-0.0658,0.8551,-6.11,6.79,0.11,24.38
4793,0.222,-0.0555,0.8777,-6.11,6.85,0.08,24.39
4803,0.2219,-0.0494,0.8876,-6.26,8.67,0.08,24.41
4813,0.2488,-0.0443,0.8713,-6.12,8.09,0.02,24.41
4823,0.2471,-0.0428,0.8767,-6.17,6.35,0.0,24.38
4833,0.2244,-0.0436,0.901,-6.26,7.73,-0.05,24.37
4843,0.2307,-0.0398,0.9026,-6.29,8.87,0.08,24.38
4853,0.2421,-0.0408,0.8894,-6.17,8.46,-0.11,24.39
4863,0.2465,-0.0479,0.8807,-6.21,7.94,-0.05,24.37
4873,0.241,-0.0483,0.8732,-6.05,6.98,-0.11,24.39
4883,0.2157,-0.0469,0.89,-6.06,7.65,-0.18,24.39
4893,0.2233,-0.0388,0.887,-6.02,9.18,0.02,24.37
4903,0.2402,-0.041,0.8771,-6.21,7.8,-0.15,24.4
4913,0.2333,-0.0361,0.8801,-6.24,6.98,-0.11,24.42
4923,0.2275,-0.0394,0.8944,-6.11,7.95,-0.12,24.41
4933,0.2302,-0.0422,0.8962,-6.21,8.67,-0.12,24.4
4943,0.2498,-0.0469,0.8695,-6.17,7.59,-0.14,24.39
4953,0.2347,-0.0503,0.8774,-6.09,6.76,-0.09,24.42
4963,0.2224,-0.051,0.8916,-6.14,8.08,-0.03,24.41
4973,0.2284,-0.0496,0.8827,-6.18,8.6,-0.05,24.42
4983,0.2416,-0.0406,0.8684,-6.09,7.69,0.0,24.4
4993,0.2377,-0.0376,0.87,-6.12,6.93,0.02,24.4
5003,0.2339,-0.0345,0.8792,-6.21,7.3,0.0,24.4
5013,0.2458,-0.0374,0.8893,-6.29,7.8,-0.05,24.41
5023,0.2466,-0.047,0.8911,-6.29,6.9,0.02,24.39
5033,0.2203,-0.0557,0.9072,-6.26,8.44,-0.05,24.39
5043,0.2388,-0.0594,0.8816,-6.14,9.28,0.11,24.42
5053,0.2587,-0.0597,0.8555,-6.11,6.78,0.0,24.4
5063,0.2335,-0.0575,0.876,-6.09,6.34,-0.18,24.38
5073,0.2106,-0.0586,0.8965,-6.23,8.73,-0.15,24.38
5083,0.2322,-0.0536,0.8768,-6.17,9.21,-0.17,24.4
5093,0.2517,-0.049,0.8679,-6.14,7.08,-0.17,24.42
5103,0.2366,-0.0516,0.8865,-6.29,6.93,-0.17,24.42
5113,0.2266,-0.057,0.8929,-6.18,8.44,-0.06,24.41
5123,0.2313,-0.0619,0.8823,-6.18,7.8,-0.05,24.4
5133,0.2284,-0.0604,0.8905,-6.15,8.47,0.09,24.4
5143,0.2413,-0.0486,0.8805,-6.06,7.56,-0.05,24.4
5153,0.2338,-0.0388,0.8839,-6.26,7.31,0.06,24.4
5163,0.2231,-0.0361,0.889,-6.15,8.72,-0.03,24.4
5173,0.2423,-0.0316,0.8647,-6.24,8.09,-0.05,24.39
5183,0.239,-0.0311,0.8654,-6.06,6.52,-0.08,24.39
5193,0.2131,-0.0303,0.8927,-6.21,7.63,-0.12,24.39
5203,0.2317,-0.0367,0.8842,-6.2,8.99,-0.12,24.4
5213,0.2465,-0.0392,0.8663,-6.32,6.98,-0.05,24.39
5223,0.2356,-0.0443,0.8806,-6.18,6.76,-0.14,24.42
5233,0.2283,-0.0535,0.8982,-6.14,7.5,-0.14,24.42
5243,0.2407,-0.0496,0.8905,-6.14,7.65,-0.08,24.42
5253,0.2333,-0.0592,0.8917,-6.12,7.39,0.14,24.39
5263,0.2328,-0.059,0.8922,-6.24,8.31,0.0,24.39
5273,0.2374,-0.0581,0.8807,-6.08,8.31,0.0,24.39
5283,0.2432,-0.054,0.8715,-6.18,7.51,0.06,24.39
5293,0.2386,-0.0538,0.8752,-6.11,7.28,0.06,24.4
5303,0.2365,-0.0497,0.8817,-6.11,7.4,0.11,24.39
5313,0.2318,-0.0463,0.8784,-6.2,7.88,0.0,24.42
5323,0.2295,-0.0452,0.8782,-6.14,8.2,-0.02,24.42
5333,0.2507,-0.0396,0.8682,-6.15,7.31,-0.08,24.42
5343,0.2438,-0.0387,0.8893,-6.15,6.41,-0.18,24.42
5353,0.2258,-0.0433,0.9094,-6.23,8.44,-0.12,24.4
5363,0.2418,-0.0486,0.8883,-6.26,8.76,-0.15,24.43
5373,0.249,-0.0573,0.8711,-6.14,6.73,-0.12,24.4
5383,0.2274,-0.0587,0.8964,-6.12,7.36,-0.12,24.4
5393,0.2224,-0.0544,0.8933,-6.12,9.53,-0.08,24.4
5403,0.2496,-0.0516,0.865,-6.15,7.85,0.0,24.42
5413,0.246,-0.0537,0.8727,-6.11,7.54,-0.11,24.4
5423,0.2327,-0.0498,0.8783,-6.18,7.4,-0.12,24.42
5433,0.229,-0.0458,0.8788,-6.18,8.11,-0.11,24.42
5443,0.2795,-0.0422,0.833,-6.12,6.27,-0.03,24.42
5453,0.2407,-0.0583,0.8771,-6.06,3.85,-0.06,24.42
5463,0.2181,-0.0415,0.8977,-6.17,8.55,-0.02,24.42
5473,0.2518,-0.0321,0.8708,-6.03,7.97,-0.08,24.42
5483,0.2245,-0.0343,0.8907,-6.23,6.05,-0.08,24.42
5493,0.2159,-0.0316,0.9128,-6.31,10.17,0.0,24.41
5503,0.274,-0.0393,0.8641,-6.21,7.27,-0.21,24.41
5513,0.2224,-0.0441,0.902,-6.12,6.08,-0.14,24.39
5524,0.199,-0.0526,0.9166,-6.18,9.13,-0.14,24.42
5534,0.235,-0.0514,0.8773,-6.11,9.21,-0.06,24.41
5544,0.2433,-0.0525,0.8563,-6.0,6.35,-0.08,24.43
5554,0.2144,-0.0524,0.895,-6.12,7.86,-0.05,24.42
5564,0.2445,-0.0485,0.8707,-6.14,7.92,-0.02,24.42
5574,0.2499,-0.0443,0.8696,-6.24,6.14,-0.05,24.44
5584,0.2146,-0.043,0.9052,-6.31,8.46,0.02,24.41
5594,0.2529,-0.0454,0.8821,-6.29,9.69,0.03,24.41
5604,0.2709,-0.0529,0.8583,-6.17,4.85,-0.02,24.4
5615,0.2448,-0.0544,0.8817,-6.17,5.66,-0.09,24.44
5625,0.2036,-0.0548,0.9071,-6.26,8.69,0.05,24.44
5635,0.2399,-0.0504,0.8722,-6.21,9.73,0.05,24.44
5645,0.2604,-0.0476,0.8596,-6.2,5.98,-0.11,24.42
5655,0.2367,-0.047,0.8843,-6.17,6.03,-0.05,24.42
5665,0.2013,-0.0471,0.9175,-6.27,9.5,-0.08,24.42
5675,0.2424,-0.0483,0.8706,-6.35,9.27,-0.03,24.42
5685,0.2474,-0.0548,0.8635,-6.14,6.23,-0.15,24.44
5695,0.2052,-0.0566,0.9001,-6.14,8.76,-0.06,24.42
5705,0.2461,-0.0518,0.8704,-6.12,9.07,-0.03,24.42
5715,0.2571,-0.0487,0.8616,-6.17,4.72,0.03,24.42
5725,0.1959,-0.0402,0.9294,-6.29,9.28,0.09,24.44
5735,0.2606,-0.042,0.8781,-6.17,9.68,-0.06,24.43
5745,0.2566,-0.0454,0.8673,-6.26,5.18,-0.11,24.41
5755,0.2063,-0.0519,0.9065,-6.18,8.85,-0.02,24.44
5765,0.2468,-0.0518,0.8585,-6.12,8.64,-0.09,24.43
5775,0.2555,-0.0494,0.8596,-5.98,4.69,-0.12,24.44
5785,0.2083,-0.0461,0.9165,-6.23,7.89,-0.18,24.44
5795,0.2412,-0.0399,0.8901,-6.2,9.74,-0.08,24.43
5805,0.274,-0.0487,0.8568,-6.14,4.96,-0.05,24.42
5815,0.219,-0.0554,0.8885,-6.06,7.13,-0.14,24.4
5825,0.2334,-0.0557,0.87,-6.06,7.79,-0.06,24.45
5835,0.2386,-0.0548,0.8689,-6.11,6.17,0.0,24.44
5845,0.222,-0.0504,0.9033,-6.18,7.37,-0.09,24.42
5855,0.2354,-0.0409,0.9011,-6.27,7.31,-0.12,24.44
5865,0.2339,-0.0552,0.8807,-6.14,6.7,0.03,24.44
5875,0.1979,-0.05,0.9136,-6.12,8.82,-0.05,24.43
5885,0.2284,-0.0476,0.8846,-6.06,9.92,0.03,24.44
5895,0.2545,-0.046,0.8635,-6.02,6.09,-0.09,24.44
5905,0.2057,-0.0419,0.9088,-6.18,7.68,0.0,24.43
5915,0.2239,-0.0419,0.8949,-6.2,10.21,-0.03,24.44
5925,0.2539,-0.0564,0.8531,-6.12,5.94,-0.05,24.44
5935,0.1904,-0.0575,0.9265,-6.2,8.99,-0.11,24.44
5945,0.2269,-0.0481,0.8944,-6.14,10.24,-0.06,24.45
5955,0.2441,-0.0476,0.8711,-6.18,7.24,-0.08,24.44
5965,0.214,-0.0511,0.8926,-6.14,7.91,-0.06,24.42
5975,0.2266,-0.0446,0.9059,-6.26,9.94,-0.05,24.42
5985,0.2766,-0.0461,0.8707,-6.23,6.55,0.05,24.42
5995,0.2247,-0.0599,0.8884,-6.21,6.26,0.0,24.43
6005,0.2028,-0.059,0.897,-6.21,10.67,0.02,24.44
6015,0.2612,-0.0529,0.838,-6.08,7.15,-0.03,24.44
6025,0.2498,-0.0522,0.8784,-6.05,5.25,-0.02,24.43
6035,0.2212,-0.0405,0.9033,-6.12,6.56,-0.03,24.41
6045,0.2539,-0.0383,0.8806,-6.17,9.33,0.0,24.43
6055,0.2477,-0.0425,0.8723,-6.24,5.53,0.0,24.44
6065,0.2035,-0.0414,0.9084,-6.26,9.76,0.05,24.45
6075,0.2231,-0.0437,0.89,-6.18,10.78,0.06,24.44
6085,0.2419,-0.0488,0.8718,-6.18,4.05,-0.05,24.42
6095,0.1979,-0.0493,0.9098,-6.17,7.24,-0.11,24.46
6105,0.224,-0.0425,0.8972,-6.34,10.6,-0.09,24.44
6115,0.2728,-0.0424,0.8506,-6.02,5.79,-0.14,24.44
6125,0.2166,-0.0494,0.9021,-6.08,6.92,-0.08,24.43
6135,0.2245,-0.0477,0.8948,-6.18,9.56,-0.05,24.43
6145,0.2583,-0.0502,0.8553,-6.15,7.16,0.06,24.44
6155,0.2346,-0.0468,0.8846,-6.26,5.54,-0.17,24.45
6165,0.2096,-0.0496,0.9148,-6.31,10.5,-0.06,24.44
6175,0.2811,-0.0504,0.8428,-6.2,6.43,-0.15,24.46
6185,0.2092,-0.0588,0.8955,-6.18,6.43,-0.05,24.44
6195,0.2209,-0.0518,0.8937,-6.24,10.75,-0.02,24.44
6205,0.2626,-0.0494,0.8536,-6.09,5.97,0.02,24.45
6215,0.2269,-0.0459,0.8937,-6.08,6.12,-0.03,24.45
6225,0.208,-0.0381,0.9216,-6.32,9.88,-0.08,24.44
6235,0.2581,-0.0415,0.8741,-6.35,9.24,-0.09,24.45
6245,0.2545,-0.051,0.8651,-6.2,5.19,-0.11,24.44
6255,0.1967,-0.0559,0.9091,-6.24,9.97,-0.05,24.44
6265,0.2549,-0.0491,0.8522,-6.05,8.7,-0.14,24.43
6275,0.2482,-0.0496,0.8748,-6.08,4.85,-0.15,24.43
6285,0.1996,-0.0433,0.9293,-6.27,10.03,-0.11,24.44
6295,0.2493,-0.0358,0.8767,-6.31,9.22,-0.03,24.42
6305,0.2625,-0.0425,0.8617,-6.32,5.94,-0.12,24.42
6315,0.2113,-0.043,0.9023,-6.32,7.5,-0.12,24.43
6325,0.2324,-0.0541,0.8813,-6.18,10.06,-0.02,24.45
6335,0.2572,-0.0593,0.8496,-6.17,5.31,-0.09,24.46
6345,0.2014,-0.0552,0.9053,-6.09,7.94,0.03,24.44
6355,0.2296,-0.0447,0.889,-6.14,9.83,-0.08,24.4
6365,0.2665,-0.0386,0.8676,-6.15,6.63,-0.03,24.45
6375,0.2268,-0.0437,0.8945,-6.17,6.96,-0.09,24.42
6385,0.2217,-0.0465,0.895,-6.17,9.95,-0.09,24.44
6395,0.2742,-0.0488,0.8381,-6.08,6.03,-0.06,24.46
6405,0.2208,-0.0551,0.8989,-6.14,5.89,-0.09,24.47
6415,0.2147,-0.0531,0.9098,-6.34,10.69,-0.11,24.43
6425,0.2687,-0.0476,0.8586,-6.23,7.91,0.02,24.44
6435,0.2482,-0.0496,0.8717,-6.06,5.36,-0.05,24.44
6450,0.1981,-0.0511,0.9108,-6.17,8.63,-0.29,24.42
6460,0.2617,-0.0388,0.8741,-6.26,7.88,-0.08,24.46
6470,0.2533,-0.0433,0.8772,-6.2,5.73,-0.06,24.46
6480,0.2112,-0.0525,0.9008,-6.15,7.94,-0.02,24.44
6490,0.2139,-0.0542,0.8864,-6.03,10.6,-0.08,24.45
6500,0.2648,-0.0482,0.845,-6.11,6.55,-0.11,24.44
6510,0.2325,-0.0452,0.8861,-6.09,5.8,-0.17,24.45
6520,0.2092,-0.04,0.917,-6.27,9.83,-0.11,24.45
6530,0.2546,-0.0355,0.8792,-6.34,8.95,-0.2,24.43
6540,0.2573,-0.0437,0.8666,-6.17,6.09,-0.17,24.45
6551,0.2397,-0.0487,0.8741,-6.14,6.32,-0.14,24.44
6561,0.2097,-0.0496,0.9001,-6.18,8.52,-0.11,24.41
6571,0.2297,-0.0535,0.8806,-6.17,9.37,-0.06,24.42
6581,0.2643,-0.0559,0.8516,-6.08,6.32,-0.11,24.44
6591,0.2306,-0.0493,0.8934,-6.17,5.8,-0.05,24.45
6601,0.2115,-0.049,0.9126,-6.17,10.61,0.03,24.48
6611,0.2688,-0.0459,0.8579,-6.32,7.69,-0.05,24.43
6621,0.2406,-0.0536,0.873,-6.24,6.21,-0.03,24.46
6631,0.1989,-0.0463,0.908,-6.26,9.62,0.09,24.45
6641,0.2587,-0.0457,0.8606,-6.14,8.49,0.08,24.47
6651,0.2455,-0.0474,0.8811,-6.23,4.89,-0.08,24.45
6661,0.2045,-0.0447,0.9164,-6.24,9.66,-0.02,24.44
6671,0.2445,-0.0446,0.8644,-6.18,9.22,0.03,24.44
6681,0.2616,-0.0433,0.858,-6.12,5.1,-0.06,24.46
6691,0.2073,-0.0411,0.9121,-6.12,8.18,-0.03,24.45
6701,0.2389,-0.0476,0.8784,-6.14,9.86,0.06,24.47
6711,0.2666,-0.0494,0.8484,-6.11,6.05,-0.05,24.45
6721,0.2258,-0.0521,0.8934,-6.14,6.64,-0.08,24.45
6731,0.2095,-0.0509,0.9224,-6.26,8.47,-0.03,24.43
6741,0.2714,-0.0516,0.8647,-6.27,7.56,-0.02,24.44
6751,0.261,-0.0499,0.8561,-6.18,6.14,0.0,24.46
6761,0.2134,-0.0547,0.8956,-6.14,6.9,-0.03,24.44
6771,0.2137,-0.0612,0.9,-6.11,9.56,-0.02,24.45
6781,0.2469,-0.0557,0.8693,-6.21,7.95,-0.05,24.43
6791,0.2429,-0.0548,0.8707,-6.15,6.41,0.03,24.46
6801,0.2233,-0.0514,0.8993,-6.23,7.45,-0.03,24.45
6811,0.2272,-0.0449,0.9042,-6.21,9.53,-0.11,24.45
6821,0.252,-0.0383,0.8776,-6.26,8.23,-0.03,24.48
6831,0.2581,-0.0481,0.8704,-6.24,6.24,-0.05,24.46
6841,0.219,-0.0563,0.8931,-6.17,8.03,0.0,24.47
6851,0.2247,-0.0591,0.8812,-6.21,9.07,-0.09,24.46
6861,0.2356,-0.0559,0.8712,-6.12,7.98,-0.06,24.47
6871,0.239,-0.0486,0.8717,-6.17,6.7,-0.12,24.46
6881,0.2194,-0.0437,0.8971,-6.14,7.04,-0.02,24.46
6891,0.2107,-0.036,0.9087,-6.32,9.4,-0.08,24.45
6901,0.2472,-0.0378,0.8794,-6.26,8.99,-0.05,24.48
6911,0.2552,-0.0449,0.864,-6.26,6.41,-0.21,24.47
6921,0.2192,-0.0531,0.891,-6.08,6.9,-0.05,24.47
6931,0.2141,-0.0531,0.8906,-6.15,9.71,-0.02,24.47
6941,0.2271,-0.0492,0.8896,-6.17,9.91,0.0,24.49
6951,0.271,-0.0433,0.8462,-6.09,5.73,-0.02,24.46
6961,0.1976,-0.0298,0.9193,-6.29,9.28,-0.09,24.49
6971,0.2395,-0.0284,0.8875,-6.26,9.82,-0.03,24.49
6981,0.2588,-0.0355,0.8627,-6.24,6.35,-0.11,24.49
6992,0.25,-0.0471,0.8679,-6.17,6.35,-0.05,24.47
7002,0.2102,-0.0537,0.8892,-6.23,7.31,-0.11,24.45
7012,0.2152,-0.0571,0.8951,-6.21,9.48,0.0,24.44
7022,0.2543,-0.0562,0.8644,-6.15,7.16,-0.03,24.46
7032,0.2246,-0.0552,0.8931,-6.15,6.72,0.0,24.47
7042,0.2159,-0.0476,0.9026,-6.15,9.48,0.0,24.47
7052,0.2279,-0.0466,0.8945,-6.23,9.28,-0.05,24.45
7062,0.2535,-0.0522,0.8789,-6.12,6.46,-0.12,24.5
7072,0.2183,-0.0586,0.9075,-6.17,8.23,-0.09,24.47
7082,0.2317,-0.0599,0.8826,-6.11,10.0,-0.05,24.48
7092,0.2617,-0.0598,0.8527,-6.09,7.05,-0.03,24.47
7102,0.2437,-0.0581,0.8619,-6.03,6.43,-0.15,24.47
7112,0.2321,-0.0504,0.8766,-6.11,6.5,-0.08,24.48
7122,0.2089,-0.0402,0.9009,-6.2,9.24,0.02,24.47
7132,0.2593,-0.0333,0.8579,-6.21,7.94,-0.12,24.48
7142,0.2308,-0.0341,0.8794,-6.18,6.02,-0.09,24.49
7152,0.2148,-0.0377,0.9004,-6.18,7.71,-0.05,24.45
7162,0.2405,-0.0414,0.873,-6.2,7.76,-0.17,24.47
7172,0.2313,-0.0482,0.8889,-6.11,7.65,-0.21,24.48
7182,0.2168,-0.046,0.9082,-6.17,8.84,0.0,24.49
7192,0.2356,-0.0464,0.8883,-6.14,9.53,-0.03,24.48
7202,0.2517,-0.049,0.8615,-6.17,7.77,0.0,24.49
7212,0.2368,-0.0446,0.8695,-6.14,6.98,0.03,24.49
7222,0.2267,-0.042,0.8843,-6.12,7.15,0.02,24.46
7232,0.2076,-0.0377,0.9073,-6.24,9.48,0.09,24.46
7242,0.2438,-0.04,0.8684,-6.27,8.82,0.0,24.49
7253,0.2428,-0.0465,0.8582,-6.17,7.59,0.03,24.49
7263,0.2303,-0.045,0.8862,-6.2,6.11,-0.03,24.48
7273,0.2153,-0.042,0.9152,-6.21,8.72,-0.09,24.48
7286,0.2333,-0.0444,0.8818,-6.14,7.08,-0.09,24.48
7296,0.2438,-0.0427,0.892,-6.31,8.55,-0.09,24.48
7306,0.2507,-0.0532,0.8767,-6.35,7.5,-0.05,24.47
7316,0.2477,-0.0583,0.8906,-6.26,7.33,0.02,24.48
7326,0.2324,-0.0651,0.8956,-6.26,8.84,-0.06,24.48
7336,0.2443,-0.0702,0.8846,-6.18,8.5,-0.03,24.49
7346,0.2355,-0.0601,0.8813,-6.17,7.95,-0.06,24.49
7356,0.2292,-0.0527,0.8855,-6.05,8.92,-0.08,24.47
7366,0.2402,-0.0496,0.8763,-6.09,7.4,0.09,24.48
7376,0.2213,-0.0421,0.886,-6.17,7.59,0.12,24.49
7386,0.2264,-0.0464,0.879,-6.14,8.64,0.03,24.5
7396,0.2393,-0.0402,0.8617,-6.09,7.47,0.03,24.5
7406,0.214,-0.0413,0.8868,-6.18,7.18,-0.06,24.5
7416,0.2158,-0.038,0.8927,-6.05,7.39,0.0,24.5
7426,0.2262,-0.03,0.8927,-6.12,9.07,0.03,24.51
7436,0.2572,-0.0277,0.8691,-6.31,6.55,-0.05,24.51
7446,0.2277,-0.032,0.8981,-6.2,6.67,-0.05,24.49
7456,0.2209,-0.0309,0.9028,-6.24,8.26,-0.08,24.51
7466,0.2295,-0.0408,0.9005,-6.24,8.64,-0.05,24.49
7476,0.2429,-0.0507,0.8773,-6.26,7.31,-0.05,24.49
7486,0.2202,-0.0612,0.892,-6.23,7.94,-0.12,24.48
7496,0.2313,-0.0619,0.8701,-6.31,8.47,-0.11,24.48
7506,0.2379,-0.0599,0.8612,-6.11,7.07,-0.15,24.49
7517,0.2275,-0.0604,0.8848,-6.14,8.29,-0.09,24.47
7527,0.2407,-0.0582,0.8717,-6.09,7.89,-0.12,24.49
7537,0.2373,-0.0576,0.871,-6.11,6.52,-0.08,24.48
7547,0.2068,-0.0602,0.8926,-6.23,9.18,-0.06,24.51
7557,0.2438,-0.0535,0.8682,-6.18,8.67,-0.09,24.49
7567,0.2449,-0.0509,0.8743,-6.09,6.5,-0.08,24.49
7577,0.2196,-0.0493,0.8936,-6.18,8.21,0.0,24.47
7587,0.2343,-0.0455,0.8801,-6.14,8.27,-0.08,24.49
7597,0.2423,-0.0389,0.8856,-6.17,7.89,-0.17,24.47
7607,0.2361,-0.0388,0.899,-6.18,7.47,-0.2,24.5
7617,0.2173,-0.036,0.9113,-6.14,10.09,-0.06,24.5
7627,0.2721,-0.0457,0.8486,-6.05,7.4,0.02,24.51
7637,0.2249,-0.0432,0.889,-6.17,5.94,-0.11,24.5
7647,0.2174,-0.0419,0.9019,-6.15,10.2,-0.09,24.49
7657,0.2627,-0.0376,0.8494,-6.26,6.61,-0.06,24.49
7667,0.2129,-0.0426,0.9004,-6.12,7.04,-0.05,24.48
7677,0.2186,-0.0463,0.8961,-6.12,9.59,-0.02,24.52
7687,0.2477,-0.038,0.8645,-6.15,7.74,0.05,24.5
7697,0.2375,-0.0437,0.8806,-6.23,7.07,0.05,24.5
7707,0.2152,-0.0449,0.9038,-6.34,9.07,0.11,24.49
7717,0.2349,-0.0449,0.8893,-6.29,9.51,0.18,24.51
7727,0.2426,-0.0476,0.8937,-6.18,8.11,0.11,24.49
7737,0.24,-0.0466,0.8812,-6.2,8.27,0.12,24.49
7747,0.2395,-0.0504,0.8751,-6.12,7.85,0.06,24.5
7757,0.24,-0.0498,0.8778,-6.08,7.45,0.06,24.49
7767,0.2366,-0.0585,0.8943,-6.05,8.0,0.02,24.5
7777,0.2375,-0.0575,0.8945,-6.2,8.67,0.06,24.52
7787,0.2467,-0.0571,0.8718,-6.15,8.5,0.0,24.52
7797,0.2465,-0.0607,0.858,-6.23,6.78,-0.03,24.51
7807,0.2272,-0.0645,0.8795,-6.17,6.89,-0.05,24.51
7817,0.2092,-0.0638,0.897,-6.15,8.63,-0.08,24.5
7827,0.236,-0.0566,0.8778,-6.2,8.95,-0.08,24.52
7837,0.2474,-0.0557,0.8693,-6.21,6.4,-0.2,24.52
7847,0.2195,-0.0544,0.903,-6.23,7.89,-0.18,24.51
7857,0.2261,-0.0503,0.8979,-6.21,9.11,-0.09,24.51
7867,0.2496,-0.0491,0.8789,-6.27,8.2,-0.18,24.51
7877,0.2494,-0.0405,0.8705,-6.17,6.95,-0.12,24.5
7887,0.2291,-0.041,0.8868,-6.17,7.83,-0.12,24.49
7897,0.2408,-0.0348,0.8792,-6.21,8.17,-0.26,24.46
7907,0.2415,-0.0319,0.8766,-6.27,7.54,-0.23,24.49
7917,0.2418,-0.0359,0.8779,-6.09,6.99,-0.18,24.52
7927,0.2223,-0.038,0.8971,-6.18,7.3,-0.27,24.51
7937,0.2258,-0.0316,0.8993,-6.17,8.93,-0.24,24.5
7947,0.2509,-0.0371,0.8752,-6.23,7.77,-0.21,24.51
7957,0.2407,-0.0486,0.8746,-6.18,6.6,-0.11,24.51
7967,0.2133,-0.0514,0.8977,-6.21,7.66,-0.09,24.51
7977,0.2263,-0.0491,0.8895,-6.23,8.7,-0.03,24.49
7987,0.2415,-0.0509,0.8756,-6.26,7.98,-0.03,24.51
7997,0.2461,-0.0533,0.8741,-6.17,7.77,0.11,24.5
8007,0.2262,-0.0515,0.8811,-6.12,7.48,0.15,24.53
8017,0.2205,-0.0529,0.887,-6.09,8.58,0.14,24.52
8027,0.2354,-0.0439,0.8776,-6.14,8.38,0.17,24.5
8037,0.2422,-0.041,0.8806,-6.15,7.24,0.21,24.51
8047,0.2197,-0.0439,0.8993,-6.15,7.97,0.12,24.5
8057,0.2214,-0.0455,0.889,-6.24,8.49,0.12,24.51
8067,0.2249,-0.0466,0.8857,-6.24,8.4,0.12,24.51
8077,0.2297,-0.0504,0.8905,-6.17,8.15,-0.09,24.51
8087,0.2406,-0.0483,0.8774,-6.21,7.42,0.06,24.49
8097,0.2321,-0.0526,0.8804,-6.2,7.02,-0.02,24.51
8107,0.2213,-0.0498,0.8896,-6.14,8.26,-0.06,24.5
8117,0.2346,-0.0543,0.8859,-6.23,8.24,-0.08,24.49
8127,0.2476,-0.0471,0.8748,-6.27,7.69,-0.12,24.49
8137,0.244,-0.0542,0.8831,-6.29,7.02,-0.02,24.49
8147,0.2319,-0.0546,0.8916,-6.29,7.1,-0.12,24.5
8157,0.2216,-0.0585,0.8962,-6.31,8.7,-0.11,24.49
8167,0.2396,-0.0591,0.8771,-6.2,8.73,-0.12,24.5
8177,0.2484,-0.0117,0.854,-6.24,7.08,-0.17,24.49
8187,0.2678,-0.0421,0.9169,-6.11,6.99,-0.34,24.48
8197,0.2531,-0.0847,0.9344,-6.03,9.15,-0.18,24.48
8207,0.2637,-0.0336,0.871,-6.4,4.58,-0.43,24.5
8217,0.1982,-0.0693,0.8896,-6.11,9.94,-0.31,24.49
8227,0.2693,-0.0574,0.8395,-6.24,6.0,-0.2,24.5
8237,0.2437,-0.0702,0.9115,-6.21,7.08,-0.2,24.51
8247,0.236,-0.0546,0.8781,-6.15,8.02,-0.11,24.51
8257,0.2484,-0.0408,0.8663,-6.09,7.01,0.02,24.51
8267,0.2429,-0.0558,0.8984,-6.12,6.43,0.02,24.49
8277,0.2233,-0.0499,0.9028,-6.34,8.18,0.18,24.51
8287,0.2217,-0.0436,0.903,-6.2,9.53,0.24,24.51
8297,0.2532,-0.0427,0.8463,-6.08,7.97,0.11,24.49
8307,0.2384,-0.036,0.8663,-6.0,5.33,-0.02,24.5
8317,0.2153,-0.0343,0.9034,-6.05,8.38,-0.08,24.5
8327,0.2278,-0.0222,0.8728,-6.08,8.66,-0.15,24.51
8337,0.2401,-0.0234,0.8785,-6.29,7.59,-0.08,24.51
8347,0.234,-0.0425,0.8967,-6.21,7.91,-0.08,24.5
8357,0.2412,-0.0526,0.889,-6.35,7.85,-0.17,24.53
8367,0.2438,-0.0599,0.8705,-6.24,7.6,-0.17,24.51
8377,0.2242,-0.0623,0.8861,-6.2,7.37,-0.11,24.5
8387,0.224,-0.0737,0.8992,-6.23,9.04,0.0,24.54
8397,0.239,-0.0664,0.8829,-6.2,7.68,0.03,24.53
8407,0.229,-0.0533,0.8815,-6.09,8.49,0.05,24.52
8417,0.2501,-0.0464,0.8627,-6.11,7.5,0.05,24.51
8427,0.241,-0.0433,0.8801,-6.05,6.85,0.05,24.48
8437,0.2268,-0.0458,0.8978,-6.15,7.98,0.05,24.51
8447,0.2235,-0.0508,0.8898,-6.18,9.37,0.09,24.51
8457,0.2529,-0.0491,0.8523,-6.08,7.77,0.0,24.51
8467,0.2229,-0.0455,0.8793,-6.09,6.61,-0.05,24.51
8477,0.2084,-0.042,0.8971,-6.06,9.6,0.02,24.53
8487,0.2534,-0.0284,0.8728,-6.14,7.44,-0.03,24.52
8497,0.2435,-0.0361,0.8914,-6.2,7.11,-0.11,24.51
8507,0.2467,-0.0457,0.8765,-6.26,6.21,-0.18,24.53
8517,0.2108,-0.0496,0.9034,-6.27,7.45,-0.11,24.53
8527,0.2249,-0.0544,0.8905,-6.23,9.97,-0.05,24.5
8537,0.2581,-0.056,0.8665,-6.27,7.45,-0.02,24.53
8547,0.2406,-0.0554,0.8854,-6.23,6.52,-0.08,24.51
8557,0.2184,-0.0516,0.8977,-6.14,8.63,-0.15,24.5
8567,0.2465,-0.038,0.8707,-6.21,8.24,-0.14,24.49
8577,0.2451,-0.0459,0.879,-6.11,7.98,-0.05,24.52
8587,0.2256,-0.0504,0.8807,-6.15,7.91,-0.11,24.48
8597,0.2184,-0.0524,0.8826,-6.18,8.55,-0.12,24.52
8607,0.2416,-0.0446,0.8569,-6.24,7.27,-0.06,24.51
8617,0.2231,-0.0437,0.8888,-6.15,7.37,-0.15,24.49
8627,0.2369,-0.0439,0.8862,-6.15,8.98,-0.08,24.5
8637,0.2582,-0.0459,0.86,-6.24,6.14,-0.08,24.5
8647,0.2126,-0.043,0.9036,-6.18,7.44,-0.08,24.52
8657,0.2345,-0.0435,0.8973,-6.12,8.79,-0.03,24.51
8667,0.2433,-0.0457,0.8889,-6.15,7.63,-0.12,24.51
8677,0.228,-0.052,0.8961,-6.18,8.66,0.0,24.53
8687,0.2479,-0.0491,0.8694,-6.09,8.11,-0.02,24.51
8697,0.2428,-0.0474,0.8669,-6.09,6.75,0.15,24.54
8707,0.2349,-0.0492,0.8696,-6.2,7.34,0.08,24.54
8717,0.2296,-0.0472,0.8867,-6.14,7.4,0.0,24.52
8727,0.241,-0.0398,0.8643,-6.18,8.0,-0.08,24.52
8737,0.2446,-0.0479,0.8602,-6.2,7.85,-0.08,24.52
8747,0.2308,-0.0426,0.8907,-6.24,6.99,-0.03,24.53
8757,0.2264,-0.0452,0.8951,-6.24,8.67,0.05,24.52
8767,0.2451,-0.0488,0.8699,-6.24,7.22,-0.05,24.52
8777,0.2314,-0.0497,0.8953,-6.21,7.28,-0.11,24.53
8787,0.2363,-0.0505,0.9003,-6.12,8.85,-0.06,24.52
8797,0.2522,-0.0492,0.8889,-6.24,7.63,-0.11,24.52
8807,0.2399,-0.0505,0.8884,-6.34,7.82,-0.02,24.53
8817,0.2377,-0.0554,0.8861,-6.15,8.09,-0.06,24.52
8827,0.2413,-0.0597,0.8729,-6.09,7.97,-0.05,24.49
8837,0.2264,-0.0541,0.8772,-6.12,7.68,-0.09,24.53
8847,0.2185,-0.0458,0.8855,-6.18,9.01,-0.05,24.51
8857,0.2443,-0.0494,0.8695,-6.26,7.76,-0.05,24.52
8867,0.2313,-0.0431,0.8915,-6.2,7.33,-0.14,24.52
8877,0.2299,-0.0404,0.8866,-6.17,8.11,-0.14,24.52
8887,0.2336,-0.0431,0.8818,-6.26,7.1,-0.15,24.52
8897,0.2242,-0.0494,0.8971,-6.23,8.14,-0.11,24.53
8907,0.2268,-0.0519,0.8853,-6.18,8.82,-0.11,24.52
8917,0.2477,-0.0494,0.8662,-6.06,7.48,-0.08,24.52
8927,0.2322,-0.0503,0.8788,-6.08,6.79,-0.03,24.54
8937,0.2201,-0.042,0.8854,-6.08,9.04,-0.09,24.53
8947,0.2473,-0.036,0.8685,-6.12,7.27,-0.06,24.53
8957,0.2343,-0.0334,0.8876,-6.18,7.07,-0.15,24.53
8967,0.238,-0.0371,0.8958,-6.31,8.05,-0.09,24.54
8977,0.2505,-0.041,0.8784,-6.15,7.28,-0.03,24.5
8987,0.2278,-0.0515,0.8955,-6.18,7.01,-0.03,24.52
8997,0.2214,-0.0532,0.9005,-6.21,9.73,0.03,24.53
9007,0.2646,-0.0557,0.858,-6.21,7.47,-0.03,24.51
9017,0.2365,-0.052,0.8785,-6.18,5.5,0.09,24.54
9027,0.2086,-0.0505,0.8939,-6.08,8.95,0.08,24.54
9037,0.24,-0.0433,0.8523,-6.12,8.14,0.09,24.53
9047,0.2411,-0.0454,0.8647,-6.11,6.02,0.0,24.52
9057,0.2095,-0.0417,0.905,-6.29,8.09,0.03,24.54
9067,0.2379,-0.0441,0.8927,-6.2,8.84,-0.05,24.5
9077,0.2561,-0.0482,0.8763,-6.35,6.81,-0.02,24.5
9087,0.2344,-0.0557,0.8901,-6.24,6.85,-0.03,24.51
9097,0.2202,-0.0609,0.9098,-6.26,9.25,-0.02,24.54
9107,0.2371,-0.0597,0.8799,-6.18,8.82,-0.02,24.52
9117,0.2445,-0.0574,0.8711,-6.11,7.73,0.03,24.51
9127,0.235,-0.052,0.8722,-6.09,7.11,-0.03,24.55
9137,0.2163,-0.041,0.8904,-6.18,8.02,0.02,24.52
9147,0.2305,-0.0363,0.8831,-6.17,8.38,0.03,24.55
9157,0.2356,-0.0359,0.8822,-6.23,7.76,-0.02,24.52
9167,0.2272,-0.0415,0.8889,-6.17,8.27,-0.02,24.53
9177,0.2382,-0.0437,0.8655,-6.18,7.68,-0.15,24.53
9187,0.2327,-0.0487,0.8811,-6.2,7.63,-0.2,24.52
9197,0.2317,-0.053,0.8917,-6.18,8.24,-0.24,24.52
9207,0.2467,-0.0594,0.8909,-6.26,7.05,-0.26,24.54
9217,0.2274,-0.0569,0.8964,-6.21,7.8,-0.23,24.52
9227,0.2251,-0.0591,0.8995,-6.15,9.36,-0.06,24.52
9237,0.2534,-0.0602,0.8685,-6.09,7.94,-0.05,24.52
9247,0.2484,-0.0667,0.8705,-6.11,6.78,-0.03,24.52
9257,0.2201,-0.0565,0.8802,-6.08,7.44,0.06,24.57
9267,0.2299,-0.0502,0.8756,-5.98,8.81,0.08,24.54
9277,0.2527,-0.0386,0.856,-5.88,6.15,0.11,24.54
9287,0.223,-0.0314,0.892,-6.03,6.47,0.09,24.53
9297,0.2209,-0.0303,0.8966,-6.14,8.47,0.09,24.55
9307,0.2384,-0.0261,0.89,-6.23,7.85,0.0,24.52
9317,0.2393,-0.0276,0.887,-6.24,7.11,-0.03,24.53
9327,0.2285,-0.04,0.8876,-6.27,7.65,-0.06,24.52
9337,0.2332,-0.048,0.8829,-6.2,8.03,0.05,24.56
9347,0.2427,-0.0433,0.8801,-6.26,6.87,-0.08,24.56
9357,0.2325,-0.0492,0.8958,-6.14,7.54,0.05,24.54
9367,0.2255,-0.046,0.9062,-6.18,8.92,0.0,24.54
9377,0.2471,-0.0432,0.8821,-6.17,8.56,-0.02,24.54
9387,0.2529,-0.0491,0.8636,-6.21,6.29,0.05,24.54
9397,0.2192,-0.0601,0.8948,-6.18,7.86,0.15,24.55
9407,0.2284,-0.0609,0.8755,-6.27,7.6,0.02,24.54
9417,0.2168,-0.0641,0.8809,-6.11,8.85,-0.02,24.55
9427,0.2338,-0.0614,0.871,-6.08,9.05,0.06,24.54
9437,0.2526,-0.0482,0.8633,-6.02,6.67,-0.02,24.55
9447,0.2413,-0.0391,0.8815,-6.05,6.31,0.06,24.54
9457,0.2311,-0.0411,0.9054,-6.21,7.42,0.08,24.53
9467,0.2217,-0.046,0.9121,-6.26,8.6,-0.03,24.53
9477,0.2378,-0.0475,0.8993,-6.32,9.54,0.0,24.54
9487,0.2601,-0.0587,0.864,-6.24,6.53,-0.08,24.53
9498,0.252,-0.0549,0.8719,-6.15,5.74,-0.08,24.55
9508,0.2208,-0.0577,0.8949,-6.06,8.26,-0.05,24.54
9518,0.2218,-0.0519,0.8904,-5.97,9.39,-0.02,24.54
9528,0.2543,-0.0413,0.8557,-6.05,8.06,-0.14,24.53
9538,0.2439,-0.0419,0.8623,-6.15,5.53,-0.09,24.51
9548,0.2052,-0.0393,0.9154,-6.24,8.73,-0.15,24.53
9558,0.2485,-0.0403,0.8702,-6.31,8.98,-0.15,24.54
9568,0.2539,-0.0422,0.8668,-6.23,6.18,-0.06,24.54
9578,0.2223,-0.0592,0.8959,-6.18,7.22,-0.05,24.54
9588,0.2178,-0.0603,0.9025,-6.14,9.45,0.0,24.52
9599,0.214,-0.0507,0.897,-6.11,9.69,0.0,24.52
9609,0.2507,-0.0442,0.8706,-6.03,8.2,-0.06,24.54
9619,0.2531,-0.0398,0.8788,-6.18,5.85,-0.03,24.53
9629,0.2126,-0.0344,0.9222,-6.23,8.47,0.05,24.52
9639,0.231,-0.0399,0.8875,-6.4,9.71,0.02,24.53
9649,0.2462,-0.0464,0.8616,-6.23,7.65,-0.06,24.52
9659,0.2391,-0.0463,0.861,-6.02,6.64,-0.14,24.52
9669,0.229,-0.0516,0.8771,-6.08,7.07,-0.14,24.52
9679,0.2222,-0.0518,0.8916,-6.21,8.61,-0.12,24.54
9689,0.24,-0.0514,0.8842,-6.12,8.15,-0.11,24.54
9699,0.2457,-0.0487,0.875,-6.27,6.11,-0.2,24.54
9709,0.2192,-0.0543,0.9167,-6.34,7.88,-0.11,24.55
9719,0.2349,-0.0543,0.8964,-6.37,9.19,0.06,24.54
9729,0.2411,-0.064,0.8843,-6.24,7.86,0.05,24.56
9739,0.2362,-0.0665,0.8798,-6.15,8.0,0.05,24.55
9749,0.2418,-0.0587,0.8639,-6.03,7.16,0.03,24.56
9759,0.2251,-0.0463,0.8881,-6.15,6.92,-0.02,24.55
9769,0.2195,-0.0378,0.8848,-6.11,8.64,-0.03,24.54
9779,0.2316,-0.0315,0.8885,-6.21,8.34,-0.05,24.55
9789,0.2358,-0.0291,0.8768,-6.2,7.97,-0.03,24.51
9799,0.2383,-0.0392,0.8688,-6.2,6.63,-0.11,24.52
9809,0.2134,-0.0453,0.8953,-6.34,6.92,-0.11,24.53
9819,0.2162,-0.0531,0.9015,-6.18,9.44,-0.12,24.52
9829,0.2421,-0.0563,0.8845,-6.24,8.14,-0.14,24.55
9839,0.2429,-0.0505,0.8958,-6.24,7.01,-0.14,24.54
9849,0.2338,-0.056,0.8948,-6.23,8.35,0.02,24.54
9859,0.2341,-0.0548,0.874,-6.11,7.8,-0.06,24.53
9869,0.2264,-0.0558,0.8721,-6.11,8.44,-0.02,24.54
9879,0.2531,-0.0466,0.8461,-6.05,6.41,0.12,24.55
9889,0.2123,-0.045,0.9001,-6.15,6.69,0.02,24.54
9899,0.2147,-0.0338,0.9023,-6.26,10.35,0.12,24.52
9909,0.2551,-0.0345,0.8685,-6.29,8.18,0.0,24.55
9919,0.2502,-0.0372,0.8752,-6.14,6.38,0.0,24.55
9929,0.2279,-0.0488,0.8955,-6.17,7.15,-0.02,24.53
9939,0.2144,-0.0502,0.9114,-6.21,9.51,-0.06,24.52
9949,0.2474,-0.05,0.8824,-6.23,8.75,-0.06,24.51
9959,0.2544,-0.0546,0.8759,-6.09,6.29,0.05,24.54
9969,0.2258,-0.0526,0.8912,-6.15,7.57,0.02,24.53
9979,0.2307,-0.0562,0.8727,-6.02,8.93,-0.05,24.53
9989,0.2351,-0.0577,0.8687,-6.18,8.49,-0.02,24.54
9999,0.2343,-0.0513,0.8831,-6.17,6.44,0.0,24.57
10009,0.2164,-0.049,0.8976,-6.34,8.75,0.02,24.55
10019,0.2573,-0.0565,0.8639,-6.2,8.05,-0.06,24.54
10029,0.2484,-0.0469,0.8693,-6.03,4.58,-0.17,24.57
10039,0.2004,-0.0443,0.9281,-6.21,9.31,-0.02,24.57
10049,0.2175,-0.0446,0.9132,-6.26,10.02,0.0,24.52
10059,0.2615,-0.0499,0.8726,-6.27,8.53,-0.12,24.56
10069,0.218,-0.0557,0.9016,-6.17,6.66,0.0,24.56
10079,0.1986,-0.0573,0.9142,-6.2,8.96,-0.08,24.56
10089,0.2418,-0.0475,0.8691,-6.14,9.79,-0.06,24.55
10099,0.2661,-0.0491,0.8466,-6.12,5.65,-0.12,24.54
10109,0.2114,-0.0476,0.8983,-6.34,6.69,-0.12,24.58
10119,0.2122,-0.0427,0.9003,-6.11,9.98,-0.11,24.54
10129,0.2532,-0.0387,0.8638,-6.15,7.5,-0.09,24.55
10139,0.2526,-0.0397,0.8729,-6.05,6.44,-0.08,24.54
10149,0.2233,-0.0425,0.8951,-6.15,7.04,-0.14,24.55
10159,0.2205,-0.0447,0.9015,-6.24,9.79,-0.03,24.55
10169,0.2588,-0.0513,0.8682,-6.14,7.42,-0.15,24.55
10179,0.2433,-0.0518,0.8654,-6.15,6.61,-0.08,24.54
10189,0.217,-0.0487,0.8868,-6.14,7.71,0.0,24.53
10199,0.2206,-0.0461,0.8979,-6.24,9.19,-0.12,24.52
10209,0.25,-0.0414,0.8778,-6.17,8.32,0.0,24.54
10219,0.2513,-0.0411,0.8691,-6.14,5.97,-0.05,24.55
10229,0.2174,-0.0435,0.8962,-6.14,7.51,0.02,24.52
10239,0.2174,-0.0508,0.8979,-6.17,9.31,0.05,24.53
10249,0.2375,-0.0487,0.88,-6.24,8.67,0.12,24.51
10259,0.2559,-0.052,0.8512,-6.14,6.64,0.11,24.55
10269,0.224,-0.0524,0.8915,-6.21,5.82,-0.02,24.54
10279,0.2058,-0.0438,0.916,-6.27,10.72,-0.08,24.55
10289,0.267,-0.0442,0.8604,-6.17,8.0,-0.06,24.54
10299,0.2429,-0.053,0.8713,-6.18,5.91,-0.08,24.56
10309,0.2042,-0.0612,0.8988,-6.12,9.04,-0.03,24.58
10319,0.2418,-0.0532,0.8719,-6.21,8.84,-0.09,24.54
10329,0.2593,-0.0569,0.8647,-6.15,5.98,-0.06,24.57
10339,0.2219,-0.0537,0.9043,-6.17,7.08,-0.09,24.55
10349,0.2152,-0.048,0.8987,-6.18,10.11,-0.09,24.54
10359,0.2542,-0.0499,0.863,-6.17,7.63,-0.09,24.56
10369,0.2434,-0.0516,0.8643,-6.11,5.6,-0.17,24.57
10379,0.2157,-0.0269,0.92,-6.23,8.79,-0.05,24.56
10389,0.2355,-0.0492,0.8729,-6.15,10.66,-0.06,24.57
10399,0.2606,-0.0441,0.8566,-6.11,5.42,-0.05,24.54
10409,0.2224,-0.0215,0.8903,-6.12,6.2,-0.11,24.56
10419,0.1936,-0.0413,0.9207,-6.4,9.85,-0.15,24.57
10429,0.2474,-0.0415,0.8735,-6.32,8.98,-0.14,24.56
10439,0.2341,-0.0542,0.8652,-6.14,5.22,-0.23,24.55
10449,0.1848,-0.0471,0.9132,-6.11,9.56,-0.15,24.54
10459,0.2383,-0.043,0.8754,-6.06,10.26,-0.14,24.55
10469,0.2786,-0.0508,0.8644,-6.17,6.24,0.05,24.55
10479,0.2395,-0.0461,0.8984,-6.29,6.35,0.06,24.55
10489,0.2306,-0.0472,0.9005,-6.27,9.77,0.12,24.54
10499,0.2748,-0.0583,0.8418,-6.18,6.85,0.11,24.57
10509,0.2418,-0.0555,0.8894,-6.18,5.4,0.05,24.56
10519,0.2019,-0.0494,0.8956,-6.18,9.45,0.11,24.54
10529,0.2338,-0.0393,0.8718,-6.08,9.45,0.14,24.56
10539,0.2509,-0.0397,0.8542,-6.03,5.71,0.02,24.56
10549,0.2128,-0.0432,0.917,-6.35,7.18,-0.08,24.56
10559,0.226,-0.0341,0.9033,-6.21,9.71,-0.06,24.54
10569,0.2516,-0.0468,0.8594,-6.24,7.33,-0.08,24.56
10579,0.2347,-0.0527,0.882,-6.14,6.21,-0.05,24.54
10589,0.2264,-0.0583,0.9009,-6.18,7.37,0.02,24.56
10599,0.2526,-0.0615,0.8676,-6.2,8.56,-0.03,24.55
10609,0.2657,-0.0586,0.8464,-6.14,6.02,-0.08,24.56
10619,0.2526,-0.0542,0.8505,-6.0,5.76,-0.09,24.54
10629,0.2192,-0.048,0.9169,-6.26,9.07,-0.09,24.55
10639,0.2653,-0.0441,0.8864,-6.24,8.58,-0.15,24.57
10649,0.2803,-0.0472,0.8615,-6.27,6.43,-0.18,24.56
10659,0.1976,-0.0616,0.905,-6.2,8.9,-0.12,24.54
10669,0.2335,-0.0651,0.8621,-6.03,9.28,-0.08,24.55
10679,0.2507,-0.0547,0.8539,-6.03,6.03,-0.12,24.56
10689,0.2192,-0.0454,0.8923,-6.05,6.66,-0.06,24.58
10699,0.2129,-0.0363,0.908,-6.21,9.56,-0.11,24.56
10709,0.2562,-0.0278,0.88,-6.27,8.4,-0.09,24.55
10719,0.2587,-0.0289,0.8756,-6.32,7.19,-0.11,24.56
10729,0.2266,-0.0414,0.8918,-6.24,8.05,-0.2,24.55
10739,0.2253,-0.0551,0.8817,-6.17,8.82,-0.08,24.56
10749,0.2357,-0.0482,0.8732,-6.05,8.15,-0.14,24.55
10759,0.2347,-0.0482,0.8809,-6.15,7.11,-0.14,24.58
10769,0.2131,-0.0472,0.8953,-6.17,8.0,-0.08,24.57
10779,0.2208,-0.0411,0.8918,-6.09,9.22,-0.11,24.55
10789,0.2413,-0.0244,0.8673,-6.09,7.56,-0.09,24.56
10799,0.2317,-0.0233,0.88,-6.21,7.25,-0.12,24.56
10809,0.2343,-0.0262,0.8823,-6.31,7.65,-0.21,24.56
10819,0.2283,-0.0295,0.8903,-6.44,7.92,-0.24,24.55
10829,0.2379,-0.0397,0.8931,-6.32,8.46,-0.24,24.56
10839,0.2565,-0.0531,0.8735,-6.32,7.63,-0.29,24.57
10849,0.2375,-0.062,0.8906,-6.26,6.92,-0.24,24.55
10859,0.2118,-0.0693,0.903,-6.2,9.83,-0.05,24.55
10869,0.2418,-0.0756,0.8711,-6.17,8.92,0.03,24.55
10879,0.2568,-0.0691,0.8613,-6.12,6.81,0.08,24.55
10889,0.2424,-0.0647,0.8831,-6.17,6.49,0.17,24.54
10899,0.2493,-0.057,0.8622,-6.06,6.98,0.18,24.55
10909,0.2546,-0.0504,0.8477,-6.17,5.4,0.23,24.54
10919,0.2172,-0.0471,0.8898,-6.18,7.36,0.23,24.56
10929,0.244,-0.0441,0.8745,-6.11,8.09,0.09,24.54
10939,0.2461,-0.0348,0.8828,-6.23,6.63,0.0,24.57
10949,0.2368,-0.0422,0.8926,-6.17,7.89,0.0,24.57
10959,0.2421,-0.048,0.8958,-6.18,7.57,-0.08,24.57
10969,0.24,-0.0491,0.8947,-6.21,7.92,-0.02,24.55
10979,0.2384,-0.0638,0.894,-6.2,8.03,-0.09,24.58
10989,0.2369,-0.0604,0.8826,-6.2,7.62,-0.2,24.57
10999,0.2285,-0.0605,0.8865,-6.17,8.05,-0.05,24.56
11009,0.2263,-0.0643,0.8723,-6.08,8.37,-0.06,24.58
11019,0.2273,-0.0581,0.8707,-6.11,7.92,-0.08,24.57
11029,0.2306,-0.0437,0.8802,-6.14,7.86,-0.03,24.56
11039,0.2477,-0.0344,0.8672,-6.05,7.59,0.0,24.54
11049,0.2505,-0.0271,0.8729,-6.18,6.52,-0.12,24.56
11059,0.2358,-0.0309,0.8986,-6.38,7.08,-0.11,24.58
11069,0.2277,-0.0458,0.9056,-6.27,8.34,-0.06,24.58
11079,0.2393,-0.0536,0.8888,-6.21,8.84,-0.17,24.55
11089,0.248,-0.0537,0.8602,-6.18,7.33,-0.08,24.57
11099,0.2317,-0.054,0.8755,-6.12,7.1,-0.17,24.57
11109,0.2235,-0.0508,0.8788,-6.14,8.08,-0.11,24.57
11119,0.2336,-0.0438,0.879,-6.11,7.94,-0.15,24.56
11129,0.2401,-0.0345,0.8818,-6.18,6.87,-0.08,24.54
11139,0.2286,-0.031,0.8959,-6.29,7.85,0.09,24.57
11149,0.2423,-0.0327,0.884,-6.27,8.44,0.05,24.57
11159,0.2552,-0.0405,0.8663,-6.26,6.38,0.0,24.55
11169,0.2235,-0.0503,0.8937,-6.17,6.81,0.09,24.55
11179,0.2246,-0.0468,0.8943,-6.21,9.02,0.03,24.57
11189,0.229,-0.0463,0.8866,-6.17,8.61,0.0,24.56
11199,0.252,-0.0386,0.8689,-6.15,6.89,0.06,24.56
11209,0.2479,-0.0447,0.8873,-6.26,8.12,0.02,24.59
11219,0.2605,-0.0389,0.8625,-6.14,7.56,0.06,24.56
11231,0.2202,-0.051,0.8987,-6.27,10.4,0.02,24.56
11241,0.2623,-0.0524,0.8623,-6.11,8.27,0.03,24.54
11251,0.2598,-0.0548,0.854,-6.17,5.08,0.02,24.56
11261,0.2202,-0.0575,0.9049,-6.21,7.92,0.08,24.56
11271,0.2343,-0.0542,0.8795,-6.15,9.08,0.08,24.57
11281,0.25,-0.0454,0.8666,-6.03,7.01,0.03,24.56
11291,0.2285,-0.0452,0.8794,-6.12,6.46,0.06,24.55
11301,0.2231,-0.0488,0.8915,-6.27,8.43,0.06,24.56
11311,0.2452,-0.0491,0.8759,-6.29,8.23,-0.06,24.58
11321,0.2577,-0.053,0.8646,-6.24,6.61,-0.06,24.56
11331,0.2352,-0.054,0.8768,-6.18,6.21,-0.12,24.55
11341,0.2245,-0.0586,0.8901,-6.09,8.21,-0.11,24.53
11351,0.2271,-0.0527,0.8782,-6.15,9.04,-0.11,24.58
11361,0.2513,-0.0519,0.8663,-6.21,7.42,-0.11,24.56
11371,0.2386,-0.0513,0.8739,-6.11,6.18,-0.24,24.54
11381,0.2083,-0.048,0.9095,-6.26,8.55,-0.2,24.55
11391,0.2422,-0.0494,0.8727,-6.14,9.51,-0.17,24.58
11401,0.2521,-0.0472,0.8662,-6.31,8.15,-0.12,24.54
11411,0.2372,-0.0492,0.8822,-6.23,6.92,-0.17,24.57
11421,0.2288,-0.046,0.8953,-6.24,8.53,-0.21,24.55
11431,0.2546,-0.043,0.8849,-6.12,8.18,-0.26,24.55
11441,0.2496,-0.0452,0.8833,-6.18,7.08,-0.24,24.57
11451,0.2371,-0.0446,0.8883,-6.2,8.12,-0.21,24.55
11461,0.2482,-0.0488,0.8788,-6.09,7.48,-0.15,24.56
11471,0.2405,-0.0433,0.8845,-6.14,7.15,-0.09,24.59
11481,0.2361,-0.0433,0.8818,-6.06,7.6,-0.12,24.59
11491,0.2188,-0.0446,0.887,-6.2,8.47,-0.06,24.56
11501,0.2372,-0.0415,0.8763,-6.18,8.93,0.03,24.57
11511,0.2518,-0.0403,0.8534,-6.14,6.24,0.0,24.55
11521,0.2281,-0.0409,0.886,-6.11,6.98,0.03,24.56
11531,0.2236,-0.0344,0.8975,-6.18,8.15,0.08,24.57
11541,0.2483,-0.0388,0.8745,-6.15,7.97,0.12,24.57
11551,0.2487,-0.0465,0.8694,-6.23,5.77,0.0,24.57
11561,0.21,-0.0485,0.9036,-6.15,8.14,0.06,24.55
11571,0.2336,-0.0406,0.8843,-6.18,9.56,0.11,24.57
11581,0.2577,-0.0441,0.86,-6.2,6.6,0.0,24.6
11591,0.2275,-0.0427,0.8901,-6.17,6.66,0.02,24.56
11601,0.2231,-0.0431,0.8981,-6.18,8.56,0.09,24.57
11611,0.2401,-0.0474,0.8785,-6.26,8.0,0.0,24.55
11621,0.2451,-0.0459,0.8754,-6.17,7.1,-0.09,24.57
11631,0.2379,-0.0525,0.8882,-6.29,6.6,-0.05,24.55
11641,0.2126,-0.0558,0.9121,-6.26,8.64,0.06,24.56
11651,0.2357,-0.0552,0.8856,-6.27,9.71,-0.08,24.58
11661,0.2588,-0.0564,0.8585,-6.17,6.73,-0.06,24.58
11671,0.2253,-0.0609,0.8811,-6.06,7.02,-0.03,24.57
11681,0.2245,-0.0549,0.8805,-6.03,8.44,-0.11,24.59
11691,0.2357,-0.0486,0.8724,-6.06,8.82,-0.08,24.59
11701,0.2543,-0.0488,0.8563,-6.17,6.46,-0.12,24.6
11711,0.217,-0.045,0.891,-6.17,7.27,-0.08,24.58
11721,0.2279,-0.0442,0.8851,-6.18,9.08,-0.05,24.57
11731,0.2472,-0.0433,0.875,-6.32,6.95,-0.14,24.58
11741,0.2279,-0.0457,0.8956,-6.2,7.82,-0.09,24.58
11751,0.233,-0.0425,0.894,-6.27,8.58,-0.17,24.6
11761,0.2424,-0.0468,0.8813,-6.06,8.34,-0.17,24.58
11771,0.2434,-0.0461,0.8821,-6.2,6.85,-0.11,24.59
11781,0.2163,-0.0468,0.8989,-6.2,8.31,-0.17,24.57
11791,0.23,-0.0509,0.8802,-6.27,9.16,-0.09,24.58
11801,0.2461,-0.0533,0.8671,-6.17,7.73,-0.06,24.58
11811,0.2343,-0.0481,0.8683,-6.12,6.72,-0.02,24.57
11821,0.2201,-0.047,0.8873,-6.24,7.95,-0.11,24.58
11831,0.2339,-0.0411,0.8873,-6.18,8.52,-0.05,24.58
11842,0.2375,-0.041,0.8827,-6.17,8.73,-0.05,24.55
11852,0.2538,-0.036,0.8671,-6.24,6.72,0.02,24.57
11862,0.2297,-0.0415,0.9004,-6.2,7.28,-0.08,24.56
11873,0.2295,-0.0399,0.9088,-6.31,8.6,0.0,24.58
11883,0.2512,-0.049,0.8887,-6.27,7.69,-0.11,24.58
11893,0.2291,-0.0587,0.8912,-6.09,7.79,-0.02,24.58
11903,0.2251,-0.0634,0.8889,-6.14,9.25,0.02,24.59
11913,0.2506,-0.0559,0.8602,-6.11,7.85,-0.02,24.59
11923,0.2478,-0.048,0.8722,-6.0,6.85,-0.05,24.57
11933,0.2357,-0.0508,0.8676,-6.15,7.31,-0.02,24.59
11943,0.2267,-0.046,0.8696,-6.09,7.22,0.02,24.6
11953,0.2307,-0.0405,0.8781,-6.23,7.53,0.0,24.62
11963,0.2306,-0.0419,0.8927,-6.34,8.06,-0.02,24.6
11973,0.2438,-0.0416,0.8787,-6.34,7.82,0.02,24.6
11983,0.2366,-0.0483,0.8854,-6.32,7.69,0.03,24.59
11993,0.2448,-0.0529,0.8831,-6.26,7.74,-0.06,24.6
12003,0.2371,-0.0513,0.8846,-6.08,7.59,-0.03,24.58
12013,0.2351,-0.0503,0.892,-6.2,8.26,-0.17,24.6
12023,0.2494,-0.0444,0.8723,-6.11,7.74,-0.02,24.58
12033,0.2404,-0.0464,0.8821,-6.2,7.04,-0.03,24.57
12043,0.2344,-0.0487,0.8865,-6.18,7.86,0.0,24.57
12053,0.2339,-0.0509,0.8783,-6.24,8.47,-0.06,24.6
12063,0.2428,-0.0505,0.8578,-6.18,6.29,-0.11,24.59
12073,0.2159,-0.0481,0.8949,-6.21,7.21,-0.08,24.57
12083,0.2229,-0.0466,0.8895,-6.18,7.85,-0.06,24.59
12093,0.2295,-0.0426,0.8877,-6.2,8.23,-0.15,24.57
12103,0.243,-0.0402,0.8816,-6.32,7.62,0.0,24.59
12113,0.2379,-0.0403,0.8953,-6.37,7.74,-0.05,24.56
12123,0.2471,-0.0449,0.8911,-6.24,7.44,-0.11,24.59
12133,0.2322,-0.0515,0.8926,-6.23,7.73,-0.05,24.59
12143,0.2413,-0.0509,0.8801,-6.15,7.94,-0.02,24.6
12153,0.2383,-0.0521,0.8756,-6.2,7.59,-0.03,24.58
12163,0.2334,-0.0459,0.8918,-6.12,7.4,-0.06,24.6
12173,0.236,-0.0497,0.8853,-6.06,7.98,-0.05,24.58
12183,0.2368,-0.0504,0.8682,-6.14,6.31,0.06,24.58
12193,0.1846,-0.0552,0.9113,-6.2,9.27,0.05,24.56
12203,0.2352,-0.0457,0.8602,-6.09,8.85,-0.02,24.6
12213,0.2396,-0.0394,0.8749,-6.24,6.12,-0.06,24.59
12223,0.2188,-0.0409,0.9115,-6.34,8.37,-0.02,24.59
12233,0.2439,-0.0458,0.889,-6.24,8.2,-0.02,24.59
12243,0.2303,-0.0479,0.8997,-6.17,8.0,-0.06,24.57
12253,0.2323,-0.0518,0.8876,-6.11,8.75,-0.03,24.58
12263,0.2354,-0.0537,0.8816,-6.09,8.09,-0.08,24.59
12273,0.244,-0.0547,0.8766,-6.09,8.06,0.02,24.59
12283,0.2416,-0.0547,0.8718,-6.2,6.78,-0.05,24.59
12293,0.21,-0.054,0.8948,-6.06,8.87,0.02,24.62
12303,0.2391,-0.048,0.8617,-6.2,8.37,0.03,24.59
12313,0.244,-0.0396,0.865,-6.17,6.02,-0.05,24.58
12323,0.2194,-0.0369,0.9095,-6.35,7.92,0.02,24.57
12333,0.2428,-0.038,0.8973,-6.26,8.4,-0.08,24.59
12343,0.2441,-0.0531,0.8842,-6.21,6.78,-0.11,24.58
12353,0.2056,-0.0588,0.9073,-6.21,8.4,-0.14,24.6
12363,0.2374,-0.0565,0.8806,-6.05,9.71,0.02,24.57
12373,0.2632,-0.0547,0.8547,-6.14,5.68,-0.08,24.57
12383,0.2128,-0.0532,0.8867,-6.11,7.45,-0.09,24.58
12393,0.2174,-0.0492,0.8743,-6.17,8.89,-0.03,24.6
12403,0.2355,-0.0419,0.8743,-6.11,8.14,-0.06,24.6
12413,0.2509,-0.031,0.8727,-6.26,6.41,-0.15,24.59
12423,0.2258,-0.0375,0.9072,-6.24,7.62,0.02,24.59
12433,0.2397,-0.0397,0.8865,-6.34,8.11,-0.08,24.59
12443,0.2349,-0.0541,0.8916,-6.17,7.54,-0.06,24.58
12453,0.23,-0.0503,0.8921,-6.18,8.06,-0.06,24.59
12463,0.2366,-0.0588,0.8784,-6.14,8.24,-0.03,24.6
12473,0.2362,-0.0531,0.8674,-6.11,7.1,0.02,24.62
12483,0.2274,-0.048,0.8765,-6.12,7.57,0.02,24.61
12493,0.2211,-0.0391,0.892,-6.21,8.43,0.0,24.6
12503,0.2393,-0.0341,0.881,-6.26,8.7,0.03,24.58
12513,0.2566,-0.0432,0.8665,-6.27,6.2,-0.11,24.58
12523,0.2097,-0.0472,0.9077,-6.29,7.76,-0.05,24.57
12533,0.2269,-0.0527,0.8934,-6.31,9.68,0.03,24.62
12543,0.2614,-0.0521,0.8613,-6.21,6.7,0.03,24.62
12553,0.2294,-0.0511,0.8859,-6.05,6.6,0.02,24.61
12563,0.2137,-0.0475,0.8972,-6.23,9.08,0.05,24.59
12573,0.2421,-0.0469,0.8756,-6.12,9.25,0.08,24.62
12583,0.2621,-0.0398,0.853,-6.17,5.34,-0.05,24.58
12593,0.2019,-0.0414,0.9169,-6.23,7.86,-0.06,24.58
12603,0.2357,-0.0409,0.8871,-6.32,9.88,-0.09,24.62
12613,0.2668,-0.0514,0.8582,-6.18,6.27,-0.06,24.59
12623,0.2244,-0.0582,0.8927,-6.14,6.76,-0.05,24.59
12633,0.2222,-0.0597,0.8955,-6.21,9.45,-0.02,24.57
12643,0.2527,-0.0593,0.8658,-6.18,8.6,-0.02,24.59
12653,0.2589,-0.0509,0.8524,-6.11,5.36,-0.06,24.59
12663,0.2084,-0.0491,0.9143,-6.14,7.04,-0.14,24.57
12673,0.2157,-0.0405,0.9135,-6.31,10.55,-0.05,24.58
12683,0.2708,-0.041,0.865,-6.32,7.44,-0.05,24.58
12693,0.2452,-0.0485,0.8708,-6.14,5.28,-0.11,24.6
12703,0.1953,-0.0598,0.9066,-6.17,9.44,-0.15,24.59
12713,0.2029,-0.0555,0.9006,-6.09,10.27,-0.11,24.61
12723,0.2562,-0.0557,0.8545,-6.05,8.23,-0.15,24.58
12733,0.2478,-0.0461,0.8687,-6.12,4.93,-0.21,24.59
12743,0.2111,-0.0468,0.9138,-6.09,7.98,-0.11,24.59
12753,0.2137,-0.0461,0.9095,-6.32,10.26,-0.12,24.6
12763,0.2587,-0.0392,0.8644,-6.24,8.79,-0.12,24.6
12773,0.265,-0.0492,0.861,-6.09,5.13,-0.12,24.6
12783,0.2128,-0.0553,0.8962,-6.18,7.47,-0.15,24.61
12793,0.2194,-0.0548,0.8864,-6.17,10.08,-0.08,24.6
12803,0.2679,-0.0457,0.8412,-6.05,6.29,-0.12,24.59
12813,0.2272,-0.0425,0.9028,-6.09,5.53,-0.06,24.57
12823,0.2041,-0.0383,0.9241,-6.32,10.47,-0.06,24.59
12833,0.2684,-0.0437,0.8502,-6.24,7.77,0.05,24.59
12843,0.2305,-0.0438,0.8712,-6.15,5.01,-0.15,24.61
12853,0.1962,-0.0457,0.9113,-6.12,9.86,0.0,24.59
12863,0.262,-0.0444,0.8519,-6.23,7.98,-0.09,24.59
12873,0.2366,-0.0446,0.8771,-6.31,5.11,-0.12,24.6
12883,0.2028,-0.0415,0.9152,-6.24,9.54,-0.08,24.6
12893,0.2488,-0.0428,0.8752,-6.31,9.48,-0.05,24.58
12903,0.2617,-0.0452,0.8639,-6.24,5.6,0.02,24.6
12913,0.1978,-0.0516,0.9166,-6.17,8.56,0.05,24.64
12923,0.2216,-0.0536,0.8834,-6.18,10.72,0.02,24.63
12933,0.2651,-0.0532,0.8451,-6.08,5.79,0.08,24.6
12943,0.213,-0.0511,0.9127,-6.26,6.79,0.02,24.59
12953,0.212,-0.0458,0.9083,-6.34,10.64,0.05,24.57
12963,0.2485,-0.049,0.877,-6.23,8.95,0.02,24.59
12973,0.2499,-0.0507,0.861,-6.18,6.52,-0.11,24.57
12983,0.2063,-0.0563,0.9039,-6.15,7.8,-0.03,24.62
12993,0.2244,-0.0544,0.8873,-6.23,10.44,-0.05,24.58
13003,0.2552,-0.0468,0.8633,-6.14,6.84,-0.08,24.58
13013,0.2271,-0.049,0.8949,-6.23,6.61,-0.08,24.59
13023,0.2076,-0.046,0.9193,-6.32,9.34,-0.14,24.59
13033,0.2538,-0.0452,0.8723,-6.29,9.1,-0.02,24.6
13043,0.2544,-0.0524,0.8683,-6.27,5.95,-0.11,24.62
13053,0.2057,-0.0559,0.8927,-6.23,8.32,-0.06,24.59
13063,0.2332,-0.0562,0.8721,-6.06,10.29,-0.12,24.61
13073,0.2684,-0.0504,0.8423,-6.06,4.76,-0.05,24.61
13083,0.2123,-0.0414,0.92,-6.32,7.39,-0.11,24.61
13093,0.228,-0.0374,0.906,-6.44,10.98,-0.12,24.64
13103,0.2708,-0.0398,0.8513,-6.27,6.43,-0.12,24.59
13113,0.2155,-0.0557,0.8944,-6.17,6.6,-0.14,24.6
13123,0.2098,-0.0543,0.8944,-6.17,9.83,-0.15,24.6
13133,0.2542,-0.0529,0.8611,-6.21,7.45,-0.21,24.58
13143,0.2334,-0.0547,0.8766,-6.18,5.3,-0.12,24.6
13153,0.1992,-0.0482,0.9218,-6.17,9.71,-0.03,24.6
13163,0.2445,-0.0443,0.8765,-6.17,9.27,-0.11,24.61
13173,0.2605,-0.0443,0.8669,-6.21,5.8,-0.06,24.61
13183,0.2113,-0.049,0.9026,-6.14,7.27,-0.11,24.6
13193,0.2174,-0.0488,0.8973,-6.24,10.66,0.0,24.61
13203,0.2745,-0.0468,0.8416,-6.15,6.72,0.08,24.61
13213,0.2373,-0.0485,0.8807,-6.15,5.25,0.0,24.62
13223,0.2028,-0.048,0.9236,-6.14,9.63,0.08,24.62
13233,0.2433,-0.0404,0.8839,-6.26,9.57,0.0,24.63
13243,0.2582,-0.0416,0.8595,-6.18,5.76,-0.08,24.61
13253,0.1971,-0.0482,0.9066,-6.11,7.45,-0.03,24.62
13263,0.2131,-0.0425,0.8889,-6.03,11.19,0.08,24.62
13274,0.2627,-0.0469,0.8549,-6.09,8.5,-0.02,24.63
13284,0.2578,-0.0417,0.8691,-6.14,3.65,-0.11,24.6
13294,0.2074,-0.0411,0.9313,-6.38,9.15,-0.03,24.61
13304,0.2469,-0.0421,0.8942,-6.47,10.17,-0.06,24.6
13314,0.2749,-0.0574,0.8463,-6.21,5.77,-0.06,24.62
13324,0.2137,-0.0618,0.8848,-6.12,6.87,-0.03,24.6
13334,0.219,-0.0575,0.8872,-6.02,9.82,-0.14,24.6
13344,0.259,-0.0511,0.8706,-6.12,7.27,-0.08,24.6
13354,0.251,-0.0558,0.8701,-6.17,6.66,-0.14,24.59
13364,0.2091,-0.0538,0.9078,-6.23,8.93,-0.05,24.62
13374,0.2419,-0.051,0.8723,-6.18,8.75,0.0,24.63
13384,0.2517,-0.058,0.8711,-6.2,5.74,-0.06,24.64
13394,0.2303,-0.0543,0.89,-6.14,6.26,0.0,24.62
13404,0.2192,-0.0463,0.8934,-6.2,8.72,0.0,24.63
13414,0.236,-0.0432,0.8762,-6.05,9.01,0.0,24.62
13424,0.2609,-0.0348,0.8607,-6.06,6.67,0.02,24.61
13434,0.2434,-0.0289,0.8856,-6.27,5.85,-0.09,24.61
13444,0.2045,-0.0269,0.9185,-6.35,9.25,0.02,24.6
13454,0.2406,-0.0256,0.8837,-6.32,9.94,-0.18,24.61
13464,0.2666,-0.0353,0.8573,-6.17,5.71,-0.17,24.62
13474,0.2202,-0.053,0.8907,-6.26,6.9,-0.06,24.61
13484,0.2084,-0.0569,0.8903,-6.23,10.52,-0.06,24.6
13494,0.2745,-0.0574,0.8292,-6.15,5.89,-0.08,24.63
13504,0.2263,-0.0602,0.896,-6.15,5.47,-0.14,24.64
13514,0.2134,-0.0492,0.9222,-6.27,10.24,-0.15,24.61
13524,0.2716,-0.0463,0.8621,-6.23,8.15,-0.06,24.6
13534,0.2517,-0.0536,0.8671,-6.23,5.05,-0.03,24.61
13544,0.2069,-0.0597,0.8999,-6.21,8.98,-0.06,24.63
13554,0.2361,-0.0559,0.8772,-6.11,9.24,-0.02,24.63
13564,0.2643,-0.0532,0.8518,-6.14,5.97,-0.06,24.6
13574,0.2524,-0.0461,0.8669,-6.11,5.1,-0.08,24.63
13584,0.2115,-0.0394,0.9053,-6.23,10.17,-0.26,24.6
13595,0.2241,-0.0385,0.895,-6.29,9.68,-0.17,24.63
13605,0.2621,-0.0352,0.865,-6.18,7.79,-0.09,24.61
13615,0.2501,-0.0427,0.8787,-6.18,5.83,-0.14,24.64
13625,0.209,-0.0527,0.903,-6.18,8.46,-0.12,24.61
13635,0.2256,-0.0544,0.8772,-6.23,10.32,0.03,24.61
13645,0.2653,-0.0476,0.8429,-6.0,6.12,-0.08,24.61
13655,0.2313,-0.0431,0.8859,-6.09,5.8,-0.05,24.64
13665,0.2085,-0.0376,0.9276,-6.23,9.95,0.0,24.61
13675,0.2632,-0.0348,0.8678,-6.32,8.63,0.03,24.61
13685,0.2542,-0.0391,0.8715,-6.23,5.21,0.05,24.62
13695,0.2035,-0.0499,0.9056,-6.2,8.96,0.06,24.62
13705,0.2374,-0.0542,0.8796,-6.15,9.45,0.06,24.59
13715,0.246,-0.0551,0.8657,-6.18,6.82,0.02,24.6
13725,0.2122,-0.0524,0.8887,-6.14,8.31,0.06,24.6
13735,0.2299,-0.0388,0.89,-6.2,8.12,-0.08,24.6
13745,0.2316,-0.0372,0.8958,-6.23,8.49,0.03,24.61
13755,0.2427,-0.0363,0.8865,-6.26,8.08,0.05,24.59
13765,0.2491,-0.0448,0.8672,-6.27,6.89,0.08,24.62
13775,0.2179,-0.0558,0.891,-6.18,7.16,0.08,24.62
13785,0.2164,-0.0525,0.8931,-6.15,9.98,-0.03,24.61
13795,0.2612,-0.0562,0.8525,-6.21,7.25,-0.03,24.63
13805,0.2366,-0.0486,0.8723,-6.26,5.27,-0.06,24.6
13815,0.2062,-0.0457,0.9119,-6.2,9.59,0.02,24.64
13825,0.2417,-0.0411,0.8885,-6.2,9.02,-0.12,24.64
13835,0.2559,-0.0421,0.8844,-6.23,8.53,0.0,24.62
13845,0.2242,-0.0599,0.8876,-6.21,6.67,-0.06,24.61
13855,0.2052,-0.064,0.8925,-6.09,9.92,-0.06,24.61
13865,0.2507,-0.0599,0.8621,-6.15,8.49,-0.08,24.62
13875,0.2675,-0.0598,0.8499,-6.05,7.21,-0.02,24.61
13885,0.2113,-0.0518,0.9108,-6.18,7.63,-0.18,24.6
13895,0.2222,-0.0433,0.8994,-6.34,9.86,-0.15,24.63
13905,0.26,-0.0427,0.8706,-6.21,7.95,-0.08,24.61
13915,0.2595,-0.0513,0.8685,-6.09,5.44,-0.09,24.62
13925,0.2015,-0.0559,0.9078,-6.18,7.77,-0.12,24.63
13935,0.2198,-0.0585,0.8801,-6.15,10.37,-0.17,24.63
13945,0.2661,-0.0548,0.8403,-6.03,5.91,-0.08,24.61
13955,0.2169,-0.0499,0.9009,-6.06,6.27,-0.05,24.62
13965,0.2085,-0.0415,0.9164,-6.18,10.0,-0.05,24.61
13975,0.2509,-0.038,0.8782,-6.12,8.47,-0.02,24.61
13985,0.25,-0.0382,0.8704,-6.23,6.09,-0.03,24.63
13995,0.2039,-0.043,0.9089,-6.17,8.2,0.03,24.62
14005,0.2313,-0.0464,0.8782,-6.15,10.21,0.08,24.61
14015,0.2549,-0.0503,0.856,-6.26,8.29,-0.06,24.6
14025,0.2208,-0.0476,0.8888,-6.26,6.5,-0.11,24.6
14035,0.2096,-0.0419,0.9152,-6.2,9.89,-0.03,24.62
14045,0.261,-0.0385,0.8647,-6.21,8.29,0.0,24.64
14055,0.2672,-0.0363,0.8655,-6.17,6.49,-0.06,24.62
14065,0.2313,-0.0468,0.8906,-6.21,6.15,-0.15,24.61
14075,0.2057,-0.0568,0.9008,-6.23,9.47,-0.03,24.64
14085,0.2463,-0.0581,0.854,-6.17,8.7,-0.02,24.64
14095,0.2484,-0.0541,0.8627,-6.14,5.76,-0.06,24.62
14105,0.2205,-0.0492,0.902,-6.24,7.53,0.02,24.62
14115,0.2294,-0.0422,0.9015,-6.27,9.15,-0.03,24.6
14125,0.2512,-0.0391,0.8759,-6.26,8.44,-0.02,24.63
14135,0.2568,-0.0479,0.8723,-6.17,6.4,0.03,24.61
14145,0.2223,-0.0536,0.8992,-6.17,7.3,-0.08,24.62
14155,0.2202,-0.0553,0.892,-6.11,9.31,-0.02,24.63
14165,0.2427,-0.0593,0.865,-6.17,7.79,-0.06,24.61
14175,0.241,-0.0519,0.8677,-6.11,6.6,-0.08,24.62
14185,0.2214,-0.0454,0.8929,-6.12,7.22,-0.06,24.61
14195,0.222,-0.0427,0.9036,-6.34,8.78,-0.02,24.61
14205,0.2421,-0.041,0.8882,-6.29,8.32,0.0,24.59
14215,0.2489,-0.0443,0.8792,-6.21,7.05,0.03,24.63
14225,0.2397,-0.0519,0.8755,-6.24,6.87,-0.09,24.62
14235,0.2139,-0.0563,0.8949,-6.09,8.4,0.03,24.63
14245,0.2285,-0.0542,0.8781,-6.09,9.15,-0.08,24.65
14255,0.2494,-0.0469,0.8634,-6.03,7.3,-0.06,24.64
14265,0.239,-0.0396,0.8815,-6.24,6.44,-0.12,24.64
14277,0.2455,-0.0471,0.8694,-6.05,7.5,-0.03,24.6
14287,0.2328,-0.0325,0.8879,-6.31,7.19,0.0,24.62
14297,0.2238,-0.0348,0.902,-6.23,8.76,-0.08,24.61
14307,0.2494,-0.0375,0.8783,-6.26,7.79,-0.12,24.61
14317,0.2422,-0.0458,0.8824,-6.17,6.81,-0.05,24.62
14327,0.2216,-0.0569,0.8873,-6.15,7.79,-0.11,24.62
14337,0.2249,-0.0598,0.8712,-6.06,8.49,-0.03,24.58
14347,0.2404,-0.0581,0.8601,-6.05,6.98,0.03,24.65
14357,0.2277,-0.0424,0.886,-6.11,6.9,-0.05,24.64
14367,0.2231,-0.0325,0.8988,-6.24,9.04,0.03,24.64
14377,0.255,-0.0311,0.8708,-6.23,7.76,0.03,24.63
14387,0.2598,-0.038,0.8661,-6.29,6.18,-0.05,24.64
14397,0.2079,-0.0497,0.9144,-6.21,9.18,-0.05,24.62
14407,0.2422,-0.0544,0.879,-6.31,9.54,-0.05,24.63
14417,0.2537,-0.0607,0.8615,-6.18,6.29,-0.02,24.61
14427,0.2161,-0.0573,0.8885,-6.18,7.4,0.0,24.62
14437,0.2195,-0.0502,0.8864,-6.09,9.39,0.02,24.63
14447,0.2344,-0.0493,0.8728,-6.08,8.5,0.0,24.61
14457,0.2286,-0.0403,0.8875,-6.31,6.96,-0.06,24.62
14467,0.2229,-0.0345,0.9083,-6.31,8.85,-0.02,24.64
14477,0.2476,-0.0442,0.8816,-6.24,8.69,-0.03,24.61
14488,0.2499,-0.0485,0.8768,-6.15,7.53,-0.08,24.64
14498,0.2285,-0.0576,0.8844,-6.17,7.18,-0.11,24.65
14508,0.2292,-0.0643,0.8821,-6.06,8.09,0.08,24.61
14519,0.2292,-0.0565,0.8843,-6.11,7.5,-0.05,24.62
14529,0.2218,-0.0558,0.8982,-6.26,8.82,-0.06,24.63
14539,0.2522,-0.0508,0.8641,-6.27,7.77,-0.09,24.62
14549,0.2394,-0.0474,0.8766,-6.2,6.18,-0.05,24.62
14559,0.207,-0.0389,0.9108,-6.21,8.81,-0.12,24.61
14569,0.2413,-0.0419,0.8815,-6.21,9.27,-0.08,24.62
14579,0.2461,-0.0522,0.8712,-6.21,6.08,-0.15,24.61
14589,0.2097,-0.0587,0.9033,-6.21,8.52,-0.15,24.64
14599,0.2336,-0.0593,0.877,-6.21,8.78,-0.03,24.62
14609,0.2396,-0.0582,0.8618,-6.18,7.13,-0.08,24.62
14619,0.2329,-0.0481,0.8813,-6.09,7.04,-0.08,24.64
14629,0.2245,-0.0377,0.9,-6.14,8.18,-0.05,24.64
14639,0.2202,-0.0392,0.9088,-6.24,9.37,-0.12,24.62
14649,0.2592,-0.0386,0.8688,-6.21,6.38,-0.15,24.63
14659,0.2233,-0.0477,0.8923,-6.26,7.34,-0.17,24.63
14669,0.2151,-0.0576,0.8945,-6.21,9.44,-0.14,24.61
14679,0.2469,-0.0542,0.8665,-6.11,8.5,-0.11,24.65
14689,0.2589,-0.0487,0.8536,-6.06,7.4,-0.12,24.65
14699,0.2222,-0.0468,0.8984,-6.18,7.11,-0.02,24.62
14709,0.2235,-0.0414,0.8967,-6.29,9.13,-0.06,24.64
14719,0.2374,-0.0414,0.8884,-6.29,8.81,-0.05,24.61
14729,0.2568,-0.0498,0.8707,-6.26,7.07,-0.14,24.6
14739,0.2269,-0.0548,0.8889,-6.06,6.5,-0.11,24.63
14749,0.2058,-0.0533,0.9053,-6.14,7.68,-0.06,24.65
14759,0.2231,-0.057,0.8862,-6.2,10.03,0.09,24.63
14769,0.2535,-0.0564,0.8579,-6.17,7.18,-0.03,24.63
14779,0.2405,-0.0487,0.8722,-6.05,5.97,0.02,24.63
14789,0.2134,-0.0458,0.9036,-6.21,8.11,-0.05,24.62
14799,0.2356,-0.0378,0.8978,-6.35,9.3,0.0,24.63
14809,0.2639,-0.0414,0.8798,-6.23,7.19,0.08,24.63
14819,0.233,-0.0488,0.8896,-6.29,7.01,-0.02,24.63
14829,0.2211,-0.0608,0.8873,-6.06,8.56,0.08,24.62
14839,0.2273,-0.0602,0.8771,-5.98,8.18,0.03,24.64
14849,0.231,-0.0519,0.8682,-6.02,7.95,-0.08,24.6
14859,0.2374,-0.0457,0.8785,-6.11,7.04,0.03,24.62
14869,0.2281,-0.0337,0.9011,-6.23,8.02,-0.03,24.63
14879,0.2269,-0.0337,0.8981,-6.35,8.52,0.03,24.62
14889,0.2389,-0.0367,0.8816,-6.35,8.87,-0.02,24.64
14899,0.255,-0.0455,0.8624,-6.17,6.56,-0.06,24.63
14909,0.2141,-0.0547,0.8882,-6.2,6.81,-0.06,24.62
14919,0.2124,-0.0583,0.8951,-6.11,10.12,-0.06,24.64
14929,0.2677,-0.0521,0.8577,-6.2,7.05,-0.02,24.61
14939,0.2336,-0.0476,0.896,-6.12,5.86,-0.03,24.63
14949,0.2024,-0.0377,0.9208,-6.37,10.12,-0.03,24.62
14959,0.261,-0.0437,0.86,-6.08,8.89,0.0,24.65
14969,0.2513,-0.0472,0.8715,-6.18,4.09,-0.05,24.64
14979,0.2039,-0.0576,0.9076,-6.15,9.22,0.03,24.6
14989,0.2366,-0.0616,0.866,-6.18,8.4,0.03,24.65
14999,0.2406,-0.0546,0.8567,-6.06,6.06,0.06,24.6
15009,0.2159,-0.049,0.9069,-6.09,7.13,0.02,24.63
15019,0.2246,-0.0377,0.9135,-6.27,9.45,-0.05,24.64
15029,0.2609,-0.0405,0.874,-6.23,8.52,-0.08,24.65
15039,0.2529,-0.0443,0.8652,-6.26,5.39,-0.11,24.65
15049,0.2091,-0.0542,0.9017,-6.15,8.84,-0.14,24.64
15059,0.2418,-0.057,0.8738,-6.26,8.92,-0.09,24.63
15069,0.2654,-0.0549,0.8499,-6.08,5.83,-0.09,24.64
15079,0.2166,-0.0515,0.892,-6.17,5.88,-0.14,24.63
15089,0.2014,-0.0453,0.9165,-6.24,10.67,-0.15,24.64
15099,0.2308,-0.0417,0.8999,-6.29,10.26,-0.08,24.62
15109,0.2404,-0.0521,0.8756,-6.26,5.47,-0.06,24.62
15119,0.2002,-0.0609,0.9025,-6.18,8.95,-0.06,24.63
15129,0.2229,-0.0497,0.8824,-6.24,10.02,-0.08,24.64
15139,0.2715,-0.047,0.8452,-6.08,6.0,0.08,24.64
15149,0.2191,-0.0439,0.9023,-6.2,5.98,-0.06,24.65
15159,0.2144,-0.0322,0.9163,-6.41,10.5,-0.02,24.64
15169,0.2722,-0.0321,0.8667,-6.26,7.66,0.02,24.66
15179,0.2465,-0.0439,0.8746,-6.15,5.5,-0.23,24.67
15189,0.199,-0.0458,0.9015,-6.27,9.27,-0.15,24.65
15199,0.2544,-0.0496,0.8522,-6.2,8.82,-0.08,24.64
15209,0.2532,-0.0529,0.86,-6.09,4.14,-0.02,24.63
15219,0.2003,-0.0448,0.9293,-6.21,9.5,0.02,24.61
15229,0.2576,-0.0396,0.8721,-6.27,9.16,0.12,24.62
15239,0.2587,-0.0487,0.8605,-6.21,4.82,0.02,24.65
15249,0.2058,-0.0533,0.9033,-6.26,8.05,0.06,24.64
15259,0.2192,-0.0524,0.894,-6.18,10.06,0.18,24.64
15269,0.2646,-0.049,0.8485,-6.11,7.24,0.03,24.62
15284,0.2477,-0.041,0.8762,-6.14,5.44,-0.06,24.65
15294,0.2189,-0.048,0.9019,-6.15,9.92,0.05,24.64
15304,0.2542,-0.0514,0.8552,-6.14,8.15,0.0,24.63
15314,0.2638,-0.0513,0.8574,-6.14,4.9,-0.06,24.64
15324,0.2117,-0.0513,0.9019,-6.17,6.75,0.03,24.63
15335,0.1995,-0.0499,0.9237,-6.38,8.24,-0.03,24.64
15345,0.2377,-0.0499,0.8859,-6.21,10.35,-0.03,24.65
15355,0.2635,-0.05,0.8584,-6.17,5.37,0.02,24.62
15365,0.204,-0.0582,0.9004,-6.05,8.14,0.0,24.63
15375,0.2152,-0.0544,0.8903,-6.2,9.88,-0.03,24.64
15385,0.244,-0.0509,0.8763,-6.08,9.5,0.0,24.65
15395,0.2659,-0.0524,0.8527,-6.14,4.92,0.0,24.64
15405,0.201,-0.0471,0.9197,-6.26,8.05,-0.08,24.64
15415,0.2452,-0.0424,0.8805,-6.2,10.18,-0.11,24.63
15425,0.2625,-0.0502,0.8528,-6.14,4.82,-0.02,24.63
15435,0.1997,-0.0499,0.9025,-6.15,8.61,-0.05,24.63
15445,0.2303,-0.0508,0.8805,-6.23,9.68,-0.12,24.63
15455,0.265,-0.0518,0.8496,-6.11,5.94,-0.11,24.64
15465,0.214,-0.0448,0.8989,-6.27,6.34,-0.12,24.64
15475,0.2097,-0.0393,0.9082,-6.24,10.7,-0.02,24.63
15485,0.2567,-0.0408,0.8695,-6.24,7.63,-0.06,24.65
15495,0.2422,-0.0464,0.8895,-6.18,6.15,-0.03,24.64
15505,0.2036,-0.0504,0.9028,-6.24,9.42,-0.02,24.64
15515,0.2472,-0.0505,0.8568,-6.18,9.36,-0.09,24.64
15525,0.2577,-0.0547,0.8522,-6.05,4.43,0.0,24.65
15535,0.193,-0.0425,0.9314,-6.2,8.89,-0.08,24.64
15545,0.25,-0.0381,0.8895,-6.17,10.24,-0.03,24.66
15555,0.2651,-0.0482,0.8606,-6.2,4.82,-0.06,24.65
15565,0.2025,-0.0494,0.9061,-6.24,8.27,-0.06,24.65
15575,0.2231,-0.0537,0.8792,-6.23,9.56,-0.02,24.63
15585,0.2518,-0.0529,0.8641,-6.21,7.37,-0.02,24.64
15595,0.2411,-0.0511,0.8868,-6.21,6.17,0.02,24.66
15605,0.2078,-0.0396,0.9211,-6.38,10.09,-0.06,24.66
15615,0.2699,-0.0461,0.8507,-6.26,8.12,0.02,24.64
15625,0.2338,-0.0516,0.8767,-6.18,5.16,-0.05,24.64
15635,0.2007,-0.0498,0.9167,-6.18,11.33,-0.06,24.64
15645,0.2791,-0.0483,0.8483,-6.03,6.61,0.0,24.69
15655,0.2264,-0.0581,0.89,-6.2,5.28,-0.05,24.65
15665,0.1991,-0.0488,0.9176,-6.23,10.23,-0.08,24.64
15675,0.2563,-0.0488,0.8691,-6.14,9.19,-0.02,24.63
15685,0.2512,-0.0521,0.8673,-6.21,4.72,0.03,24.64
15695,0.1899,-0.0496,0.9196,-6.24,10.27,-0.05,24.65
15705,0.2571,-0.0436,0.8566,-6.08,8.35,0.03,24.65
15715,0.246,-0.0455,0.8665,-6.09,5.28,-0.02,24.64
15725,0.199,-0.0437,0.9191,-6.27,8.52,0.0,24.65
15735,0.2413,-0.0446,0.8889,-6.24,10.02,0.02,24.65
15745,0.2662,-0.0513,0.8586,-6.18,5.56,-0.15,24.63
15755,0.1975,-0.0514,0.91,-6.26,8.32,-0.02,24.62
15765,0.2361,-0.0507,0.8741,-6.18,10.06,-0.02,24.63
15775,0.2639,-0.0514,0.854,-6.02,5.22,-0.08,24.64
15785,0.1973,-0.0493,0.9233,-6.24,8.35,-0.08,24.65
15795,0.2504,-0.0419,0.8771,-6.18,10.27,-0.11,24.64
15805,0.257,-0.0483,0.8649,-6.12,4.2,-0.03,24.64
15815,0.194,-0.0514,0.9177,-6.26,9.77,-0.02,24.65
15825,0.2526,-0.0464,0.8671,-6.21,9.39,0.06,24.64
15835,0.2582,-0.0546,0.8562,-6.11,4.09,-0.06,24.63
15845,0.193,-0.0483,0.9241,-6.27,9.02,-0.05,24.64
15855,0.2471,-0.0437,0.8765,-6.15,10.0,-0.03,24.67
15865,0.2649,-0.0474,0.8583,-6.11,4.58,-0.05,24.62
15875,0.2031,-0.0508,0.9078,-6.12,8.11,-0.17,24.65
15885,0.2299,-0.0444,0.8899,-6.18,10.32,-0.15,24.65
15895,0.2676,-0.0479,0.8524,-6.08,5.74,-0.08,24.64
15905,0.2104,-0.0471,0.9034,-6.23,6.72,-0.18,24.65
15915,0.1954,-0.049,0.9132,-6.14,9.53,-0.17,24.64
15925,0.2666,-0.048,0.8561,-6.17,6.35,-0.14,24.66
15935,0.2179,-0.0526,0.8976,-6.2,6.49,-0.15,24.64
15945,0.2119,-0.0492,0.902,-6.17,10.79,-0.15,24.62
15955,0.2725,-0.0459,0.8381,-6.12,6.08,-0.05,24.63
15965,0.217,-0.048,0.8997,-6.18,6.4,-0.12,24.62
15975,0.2146,-0.0389,0.9106,-6.34,10.47,-0.02,24.65
15985,0.2703,-0.0417,0.8599,-6.11,7.4,0.06,24.65
15995,0.2659,-0.0468,0.8546,-6.15,5.08,-0.08,24.64
16005,0.2092,-0.0419,0.9023,-6.32,10.78,-0.03,24.64
16015,0.2714,-0.0458,0.842,-6.11,6.43,-0.12,24.63
16025,0.2518,-0.051,0.8634,-6.14,5.16,-0.05,24.63
16035,0.2137,-0.0432,0.9077,-6.32,10.44,-0.03,24.64
16045,0.2439,-0.043,0.8749,-6.17,9.63,0.12,24.62
16055,0.2548,-0.0498,0.868,-6.2,5.62,-0.03,24.67
16065,0.1925,-0.0475,0.9156,-6.29,9.31,0.08,24.67
16075,0.2471,-0.0469,0.8639,-6.18,9.73,0.08,24.67
16085,0.2531,-0.0516,0.859,-6.21,5.45,0.12,24.64
16095,0.2017,-0.0488,0.9027,-6.18,8.29,-0.09,24.66
16105,0.2306,-0.0438,0.8873,-6.15,9.66,0.02,24.65
16115,0.254,-0.0469,0.8685,-6.17,6.79,-0.11,24.68
16125,0.226,-0.05,0.9001,-6.2,7.79,-0.09,24.66
16135,0.2405,-0.0527,0.877,-6.12,8.73,-0.12,24.64
16145,0.2607,-0.0549,0.8585,-6.18,6.14,-0.06,24.64
16155,0.2135,-0.0497,0.9053,-6.23,8.14,-0.05,24.65
16165,0.2469,-0.0525,0.8867,-6.18,9.63,-0.17,24.66
16175,0.2637,-0.0603,0.8657,-6.23,5.83,-0.12,24.66
16185,0.2091,-0.0558,0.9017,-6.15,8.23,-0.14,24.65
16195,0.2528,-0.0569,0.8608,-6.03,8.23,-0.11,24.63
16205,0.2367,-0.0562,0.8818,-6.11,4.69,-0.14,24.65
16215,0.2015,-0.0499,0.915,-6.27,11.28,-0.2,24.67
16226,0.2452,-0.0461,0.8773,-6.18,9.68,-0.12,24.64
16236,0.2577,-0.0488,0.8629,-6.14,5.16,-0.11,24.65
16246,0.2028,-0.0482,0.9127,-6.29,8.72,-0.12,24.66
16256,0.245,-0.0416,0.876,-6.2,9.76,-0.11,24.67
16266,0.255,-0.0424,0.8564,-6.11,5.07,-0.02,24.67
16276,0.2238,-0.0421,0.891,-6.18,5.59,-0.15,24.65
16286,0.2404,-0.0338,0.882,-6.15,9.95,0.0,24.67
16296,0.261,-0.0372,0.8512,-6.2,5.4,-0.02,24.64
16307,0.2269,-0.0474,0.8834,-6.15,5.98,-0.11,24.67
16317,0.2074,-0.0476,0.9011,-6.21,10.15,-0.06,24.67
16327,0.2719,-0.0488,0.847,-6.26,6.67,0.03,24.66
16337,0.2234,-0.0497,0.8973,-6.17,5.8,0.06,24.67
16347,0.2123,-0.0389,0.9146,-6.24,10.69,0.08,24.64
16357,0.274,-0.0428,0.8555,-6.09,7.16,0.02,24.64
16367,0.2286,-0.0514,0.8868,-6.06,5.44,-0.08,24.67
16377,0.208,-0.0481,0.9045,-6.2,10.49,-0.02,24.68
16387,0.2684,-0.0475,0.849,-6.21,6.82,0.02,24.67
16397,0.2225,-0.0493,0.8942,-6.23,5.77,-0.02,24.64
16407,0.2081,-0.0475,0.9122,-6.2,10.61,0.0,24.65
16417,0.2672,-0.0505,0.8569,-6.18,7.44,-0.08,24.66
16427,0.2319,-0.058,0.8878,-6.2,5.51,-0.06,24.67
16437,0.203,-0.057,0.9022,-6.21,10.95,-0.02,24.65
16447,0.2651,-0.0491,0.8524,-6.11,7.28,0.06,24.65
16457,0.2404,-0.056,0.8721,-6.14,5.22,-0.03,24.64
16467,0.2012,-0.047,0.9231,-6.34,9.94,-0.03,24.66
16477,0.2661,-0.0464,0.8667,-6.27,8.58,0.0,24.64
16487,0.2483,-0.0566,0.8766,-6.14,5.53,-0.03,24.64
16497,0.1986,-0.0536,0.9054,-6.24,9.63,-0.02,24.66
16507,0.2505,-0.0487,0.8563,-6.12,9.08,-0.09,24.69
16517,0.255,-0.0487,0.8655,-6.08,4.5,-0.11,24.63
16527,0.2203,-0.0461,0.9028,-6.12,6.23,-0.17,24.66
16537,0.2437,-0.0381,0.8861,-6.24,9.73,-0.11,24.66
16547,0.272,-0.0432,0.8617,-6.21,7.51,-0.02,24.67
16557,0.2036,-0.0519,0.8997,-6.32,7.85,-0.09,24.64
16567,0.2267,-0.0457,0.874,-6.08,10.0,-0.02,24.67
16577,0.2687,-0.0432,0.8475,-6.02,5.25,-0.08,24.63
16587,0.2073,-0.0413,0.9171,-6.27,7.08,-0.06,24.66
16597,0.2264,-0.0389,0.9099,-6.26,11.13,0.02,24.67
16607,0.2758,-0.0403,0.8495,-6.11,6.32,0.02,24.68
16617,0.222,-0.0508,0.8859,-6.12,6.2,-0.03,24.67
16627,0.21,-0.0438,0.9039,-6.26,10.69,0.0,24.66
16637,0.2739,-0.0433,0.8451,-6.15,6.58,0.0,24.66
16647,0.2224,-0.0479,0.8951,-6.32,5.91,-0.08,24.64
16657,0.2037,-0.0414,0.9186,-6.2,10.58,-0.08,24.64
16667,0.2596,-0.047,0.8571,-6.14,8.47,-0.15,24.62
16677,0.2404,-0.0544,0.8713,-6.15,5.13,-0.12,24.65
16687,0.1976,-0.0536,0.9138,-6.24,10.27,0.0,24.65
16697,0.2291,-0.0485,0.8933,-6.23,10.61,0.02,24.64
16707,0.2478,-0.0526,0.8757,-6.2,4.75,0.03,24.67
16717,0.2042,-0.0497,0.9108,-6.32,6.99,0.02,24.63
16727,0.2263,-0.0414,0.8993,-6.32,10.96,0.0,24.66
16737,0.2709,-0.0494,0.8502,-6.23,6.55,0.02,24.68
16747,0.2177,-0.052,0.8882,-6.11,6.03,-0.05,24.65
16757,0.2081,-0.0486,0.8942,-6.27,11.01,-0.08,24.65
16767,0.2675,-0.0444,0.848,-6.14,5.91,-0.12,24.64
16777,0.2168,-0.0453,0.8976,-6.21,6.75,-0.09,24.68
16787,0.2123,-0.0432,0.9135,-6.34,10.92,-0.08,24.66
16797,0.2683,-0.0479,0.8553,-6.2,7.24,0.02,24.65
16807,0.2255,-0.051,0.8859,-6.24,6.29,-0.08,24.64
16817,0.2119,-0.0508,0.9023,-6.31,10.15,0.0,24.66
16827,0.2715,-0.0544,0.8486,-5.98,6.85,-0.05,24.64
16837,0.2334,-0.0559,0.8829,-6.11,5.33,-0.08,24.64
16847,0.2029,-0.0452,0.9152,-6.18,10.05,0.02,24.64
16857,0.2576,-0.042,0.8748,-6.21,8.87,0.06,24.67
16867,0.2631,-0.0459,0.8646,-6.14,5.25,-0.08,24.66
16877,0.202,-0.0461,0.9141,-6.32,8.6,0.02,24.67
16887,0.2484,-0.0472,0.8668,-6.29,9.8,0.08,24.63
16897,0.2616,-0.0565,0.8516,-6.06,4.41,-0.03,24.65
16907,0.1973,-0.0542,0.9188,-6.11,8.55,-0.17,24.67
16917,0.2438,-0.0436,0.8861,-6.09,9.97,-0.08,24.67
16927,0.2673,-0.0472,0.8573,-6.12,5.01,-0.09,24.65
16937,0.2068,-0.0537,0.9137,-6.14,7.71,-0.11,24.64
16947,0.2233,-0.0466,0.8909,-6.26,10.2,0.0,24.67
16957,0.2665,-0.0487,0.847,-6.05,6.2,0.02,24.69
16967,0.2153,-0.0466,0.8975,-6.2,6.06,0.02,24.67
16977,0.2129,-0.0431,0.9067,-6.2,10.99,-0.03,24.67
16987,0.272,-0.0422,0.856,-6.12,6.29,-0.05,24.68
16997,0.2251,-0.0443,0.8861,-6.18,6.11,-0.11,24.66
17007,0.2046,-0.0435,0.9031,-6.11,10.03,-0.05,24.67
17017,0.2577,-0.0422,0.8549,-6.09,8.38,-0.09,24.65
17027,0.2466,-0.0482,0.8717,-6.11,5.07,-0.06,24.67
17037,0.204,-0.0485,0.9137,-6.29,8.37,-0.09,24.65
17047,0.2272,-0.047,0.8951,-6.37,10.38,0.05,24.66
17057,0.2643,-0.0461,0.8521,-6.29,6.64,-0.09,24.67
17067,0.2147,-0.0522,0.892,-6.21,7.33,-0.06,24.65
17077,0.2156,-0.0509,0.8877,-6.32,10.18,-0.08,24.64
17087,0.2594,-0.0531,0.8474,-6.15,6.67,-0.08,24.66
17097,0.2241,-0.0485,0.8975,-6.18,6.31,-0.03,24.64
17107,0.212,-0.0381,0.9159,-6.24,10.66,-0.08,24.67
17117,0.2673,-0.0479,0.8606,-6.06,7.97,-0.06,24.67
17127,0.2415,-0.0515,0.8716,-6.06,4.99,-0.03,24.68
17137,0.1985,-0.0516,0.9053,-6.18,9.39,-0.08,24.66
17147,0.24,-0.0479,0.8713,-6.18,9.24,-0.06,24.67
17157,0.2584,-0.0441,0.8562,-6.11,5.69,-0.11,24.65
17167,0.2115,-0.0474,0.9014,-6.15,6.9,-0.12,24.68
17177,0.2158,-0.0409,0.902,-6.32,10.11,-0.02,24.68
17187,0.2616,-0.0437,0.8682,-6.12,7.63,-0.06,24.68
17197,0.2393,-0.0465,0.8795,-6.17,5.98,-0.08,24.66
17207,0.2019,-0.0515,0.903,-6.2,9.76,-0.05,24.68
17217,0.2456,-0.0487,0.8616,-6.11,8.89,0.05,24.67
17227,0.2622,-0.0498,0.8573,-6.08,5.05,0.02,24.69
17237,0.2119,-0.0441,0.9288,-6.35,8.08,-0.03,24.67
17247,0.2377,-0.0383,0.8953,-6.32,10.49,-0.09,24.67
17257,0.2662,-0.043,0.8551,-6.23,6.49,-0.08,24.69
17267,0.2244,-0.0514,0.889,-6.18,6.47,-0.06,24.66
17280,0.2588,-0.0365,0.8704,-6.26,8.38,0.0,24.67
17291,0.2433,-0.0476,0.8641,-6.2,5.51,-0.09,24.66
17301,0.1887,-0.0552,0.901,-6.18,9.13,-0.12,24.65
17311,0.2397,-0.0547,0.8656,-6.11,9.37,-0.08,24.68
17321,0.2615,-0.049,0.8627,-6.03,4.98,-0.14,24.67
17331,0.2128,-0.0465,0.9175,-6.2,7.86,-0.12,24.67
17341,0.243,-0.0442,0.894,-6.24,10.24,-0.02,24.69
17351,0.2649,-0.0472,0.8724,-6.23,8.85,-0.05,24.66
17361,0.2296,-0.0549,0.8949,-6.26,6.72,-0.11,24.66
17371,0.2097,-0.0614,0.9003,-6.18,8.5,-0.02,24.66
17381,0.2292,-0.0527,0.8698,-6.2,9.8,-0.09,24.69
17391,0.2426,-0.0525,0.8621,-6.03,4.81,-0.06,24.67
17401,0.2181,-0.0426,0.8926,-6.15,5.73,-0.14,24.67
17411,0.2006,-0.0377,0.9307,-6.26,10.37,-0.09,24.66
17421,0.2627,-0.0356,0.868,-6.24,8.0,-0.09,24.67
17431,0.2391,-0.0469,0.8806,-6.2,5.59,-0.17,24.65
17441,0.2046,-0.0533,0.8982,-6.17,8.76,-0.15,24.67
17451,0.2288,-0.0537,0.8688,-6.09,9.5,-0.05,24.67
17461,0.2592,-0.049,0.8591,-6.14,5.59,-0.06,24.69
17471,0.2136,-0.0454,0.9116,-6.08,7.57,-0.08,24.67
17481,0.2261,-0.0405,0.8982,-6.34,10.12,-0.02,24.67
17491,0.2666,-0.033,0.8582,-6.15,7.31,-0.14,24.69
17501,0.2379,-0.0437,0.8839,-6.09,5.65,0.03,24.67
17511,0.1995,-0.0426,0.9102,-6.24,9.54,0.03,24.68
17521,0.2424,-0.0491,0.8682,-6.14,9.28,0.12,24.68
17531,0.2537,-0.0454,0.8577,-6.11,4.75,-0.09,24.66
17541,0.1917,-0.0457,0.931,-6.27,8.78,-0.02,24.67
17551,0.2457,-0.0385,0.8817,-6.34,10.08,0.08,24.67
17561,0.2715,-0.0453,0.8544,-6.15,5.31,-0.03,24.66
17571,0.2085,-0.0474,0.9008,-6.21,7.66,-0.03,24.68
17581,0.2273,-0.0487,0.886,-6.17,10.24,0.02,24.65
17591,0.2717,-0.0497,0.849,-6.0,6.2,0.05,24.67
17601,0.2274,-0.0521,0.8854,-6.15,5.51,-0.08,24.69
17611,0.202,-0.0496,0.916,-6.26,10.02,0.05,24.67
17621,0.2528,-0.0468,0.8787,-6.31,9.18,0.14,24.69
17631,0.2534,-0.0507,0.8633,-6.12,5.74,-0.05,24.66
17641,0.1963,-0.0544,0.911,-6.23,9.13,-0.08,24.65
17651,0.2491,-0.0483,0.853,-6.18,9.44,-0.02,24.68
17661,0.2546,-0.0519,0.8591,-6.15,5.25,-0.06,24.67
17671,0.2181,-0.049,0.9076,-6.17,7.34,0.0,24.67
17681,0.2236,-0.0437,0.9099,-6.26,9.86,0.0,24.67
17691,0.2673,-0.045,0.8596,-6.31,7.54,-0.09,24.69
17701,0.2327,-0.0519,0.8794,-6.18,5.6,-0.11,24.67
17711,0.2009,-0.0576,0.9001,-6.14,9.82,-0.08,24.69
17721,0.2542,-0.0497,0.8611,-6.08,8.26,-0.06,24.69
17731,0.2515,-0.0479,0.8656,-6.2,4.75,-0.06,24.68
17741,0.2047,-0.0393,0.9133,-6.15,8.32,-0.05,24.68
17751,0.2031,-0.0405,0.9208,-6.35,9.48,-0.09,24.69
17761,0.2751,-0.0465,0.8558,-6.31,6.7,-0.12,24.67
17771,0.2284,-0.053,0.8872,-6.11,6.06,-0.11,24.63
17781,0.2069,-0.054,0.8949,-6.2,10.23,-0.09,24.67
17791,0.2635,-0.054,0.8495,-6.18,7.5,-0.09,24.67
17801,0.2433,-0.0453,0.8718,-6.11,5.15,0.03,24.69
17811,0.2222,-0.0409,0.9066,-6.23,8.23,0.02,24.68
17821,0.2659,-0.038,0.8651,-6.15,6.75,-0.02,24.66
17831,0.2476,-0.0387,0.8796,-6.24,5.11,0.09,24.68
17841,0.2051,-0.0385,0.9053,-6.23,8.61,0.0,24.68
17851,0.223,-0.0426,0.8879,-6.23,10.29,0.06,24.69
17861,0.2628,-0.0448,0.8464,-6.21,6.6,-0.03,24.67
17871,0.2256,-0.049,0.882,-6.17,5.59,-0.15,24.65
17881,0.2046,-0.0454,0.9089,-6.14,9.4,-0.03,24.67
17891,0.2579,-0.0454,0.8727,-6.08,8.26,-0.15,24.69
17901,0.2498,-0.0504,0.8802,-6.21,5.63,-0.17,24.65
17911,0.2059,-0.0597,0.9156,-6.23,9.04,-0.14,24.69
17921,0.2462,-0.0585,0.869,-6.24,9.44,-0.08,24.67
17931,0.2637,-0.0613,0.8477,-6.17,5.15,-0.06,24.65
17941,0.2075,-0.0615,0.9034,-6.32,7.39,-0.05,24.65
17951,0.2301,-0.0543,0.8896,-6.23,10.26,-0.06,24.66
17961,0.2769,-0.0464,0.8556,-6.24,5.73,-0.06,24.68
17971,0.2251,-0.0468,0.8947,-6.17,6.38,-0.12,24.67
17981,0.2002,-0.042,0.9059,-6.12,10.41,-0.09,24.66
17991,0.2649,-0.0382,0.8486,-6.11,7.63,-0.08,24.66
18001,0.2313,-0.0408,0.8845,-6.17,4.66,-0.08,24.67
18011,0.1942,-0.0367,0.924,-6.34,10.5,-0.17,24.67
18021,0.2562,-0.0372,0.8605,-6.17,8.17,-0.11,24.65
18031,0.2671,-0.0385,0.8505,-6.09,5.34,-0.14,24.66
18041,0.2018,-0.0397,0.9169,-6.18,9.98,-0.06,24.66
18051,0.2175,-0.0413,0.9017,-6.05,10.31,-0.15,24.69
18061,0.2675,-0.0399,0.8446,-6.14,7.07,-0.02,24.67
18071,0.2285,-0.0409,0.8875,-6.2,4.76,-0.05,24.67
18081,0.2147,-0.0408,0.9076,-6.2,9.77,0.03,24.66
18091,0.2679,-0.0435,0.8524,-6.27,6.98,0.03,24.67
18101,0.2316,-0.0535,0.8824,-6.12,5.54,-0.03,24.67
18111,0.1993,-0.0533,0.9108,-6.24,10.37,-0.02,24.7
18121,0.2576,-0.0475,0.8615,-5.94,8.35,0.03,24.69
18131,0.2528,-0.0465,0.8625,-6.12,4.5,-0.02,24.67
18141,0.1971,-0.0446,0.9246,-6.34,9.73,-0.02,24.65
18151,0.2531,-0.045,0.8776,-6.24,9.3,-0.03,24.67
18161,0.2549,-0.0568,0.8682,-6.12,5.86,-0.09,24.67
18171,0.2026,-0.0546,0.9043,-6.2,8.31,0.0,24.7
18181,0.2346,-0.054,0.8766,-6.09,10.14,-0.08,24.69
18191,0.2612,-0.0486,0.854,-6.06,4.98,-0.02,24.69
18201,0.1998,-0.0505,0.9272,-6.32,8.81,0.05,24.67
18211,0.2534,-0.043,0.8754,-6.17,9.8,-0.08,24.67
18221,0.2614,-0.0471,0.8617,-6.15,4.95,-0.05,24.68
18231,0.209,-0.0504,0.9016,-6.18,8.11,-0.08,24.67
18241,0.2314,-0.0503,0.884,-6.15,10.03,-0.17,24.69
18251,0.2676,-0.0437,0.8513,-6.05,5.83,-0.14,24.69
18261,0.2242,-0.0463,0.8998,-6.21,6.82,-0.06,24.69
18271,0.2266,-0.045,0.8966,-6.34,9.86,-0.11,24.69
18281,0.2643,-0.0536,0.8577,-6.24,7.15,-0.11,24.67
18291,0.2261,-0.0536,0.8865,-6.23,6.63,-0.08,24.66
18301,0.2266,-0.0524,0.8839,-6.18,9.62,-0.12,24.68
18311,0.2611,-0.0573,0.8499,-6.11,5.48,-0.09,24.68
18321,0.204,-0.0453,0.9071,-6.24,7.39,-0.18,24.66
18331,0.2487,-0.0416,0.884,-6.17,9.88,-0.06,24.66
18341,0.2637,-0.0388,0.8615,-6.23,3.83,-0.05,24.69
18351,0.2004,-0.0419,0.9193,-6.35,10.21,-0.05,24.64
18361,0.2635,-0.0398,0.8608,-6.15,8.5,-0.06,24.65
18371,0.2422,-0.0464,0.87,-6.23,5.24,-0.06,24.68
18381,0.1948,-0.042,0.9281,-6.24,9.92,-0.18,24.68
18391,0.2539,-0.0442,0.8611,-6.08,8.64,-0.09,24.69
18401,0.2346,-0.053,0.8756,-6.11,5.33,-0.08,24.68
18411,0.193,-0.0536,0.9084,-6.12,9.31,0.09,24.69
18421,0.2373,-0.0491,0.8717,-6.08,9.27,0.03,24.68
18431,0.2594,-0.0413,0.8661,-6.08,5.62,-0.02,24.69
18441,0.2389,-0.0364,0.8986,-6.23,6.15,0.02,24.69
18451,0.2739,-0.0393,0.8634,-6.12,6.2,0.12,24.7
18461,0.2352,-0.0317,0.9066,-6.63,6.53,0.11,24.67
18471,0.2469,-0.0388,0.8701,-6.2,12.67,0.06,24.68
18481,0.2642,-0.0452,0.8601,-6.0,6.55,0.12,24.67
18491,0.2635,-0.047,0.8737,-6.08,6.32,0.05,24.67
18501,0.2405,-0.0413,0.8853,-6.17,6.76,0.03,24.66
18511,0.2378,-0.0435,0.8773,-6.06,8.15,-0.02,24.67
18521,0.2427,-0.0563,0.8724,-6.14,6.52,-0.15,24.67
18531,0.2139,-0.0543,0.899,-6.11,8.46,-0.15,24.69
18541,0.2434,-0.0575,0.8718,-5.98,8.47,-0.15,24.67
18551,0.2395,-0.0631,0.8721,-6.24,5.04,-0.14,24.69
18561,0.2091,-0.0587,0.9154,-6.38,9.88,-0.15,24.68
18571,0.2632,-0.0558,0.8732,-6.21,8.66,-0.15,24.67
18581,0.261,-0.057,0.8748,-6.26,5.63,-0.11,24.67
18591,0.2092,-0.0588,0.9022,-6.2,9.36,-0.11,24.68
18601,0.2543,-0.0513,0.8527,-6.12,8.69,-0.12,24.7
18611,0.2395,-0.0502,0.8673,-6.09,4.78,-0.24,24.69
18621,0.1962,-0.0394,0.9188,-6.24,10.06,-0.14,24.65
18631,0.2601,-0.0347,0.8656,-6.24,8.43,-0.14,24.68
18641,0.2416,-0.0415,0.8826,-6.18,5.37,-0.15,24.68
18651,0.1969,-0.0437,0.9147,-6.24,9.74,-0.17,24.69
18661,0.252,-0.0426,0.8575,-6.11,9.31,-0.2,24.67
18671,0.2579,-0.0452,0.8594,-6.03,4.21,-0.15,24.69
18681,0.2019,-0.0476,0.9176,-6.27,8.76,-0.06,24.68
18691,0.243,-0.0378,0.8895,-6.15,10.06,0.0,24.7
18701,0.2686,-0.0367,0.8593,-6.14,7.74,0.06,24.68
18711,0.238,-0.0461,0.8868,-6.11,5.42,0.08,24.7
18721,0.2024,-0.0402,0.9049,-6.2,10.02,0.12,24.66
18731,0.2572,-0.0447,0.8545,-6.12,7.92,0.18,24.69
18741,0.2347,-0.0441,0.8762,-6.14,4.93,0.03,24.68
18751,0.2031,-0.0439,0.9167,-6.21,9.97,0.03,24.69
18761,0.2545,-0.04,0.864,-6.15,8.43,0.05,24.69
18771,0.2452,-0.0487,0.8724,-6.2,5.36,0.08,24.7
18781,0.1986,-0.0476,0.9131,-6.2,9.45,0.03,24.69
18791,0.2522,-0.0477,0.8624,-6.21,8.58,0.05,24.68
18801,0.2449,-0.0487,0.8672,-6.14,5.04,0.05,24.71
18811,0.2034,-0.0439,0.915,-6.34,9.24,0.02,24.72
18821,0.2479,-0.0441,0.8839,-6.24,9.77,-0.06,24.71
18831,0.262,-0.052,0.8596,-6.18,5.66,0.0,24.71
18841,0.1984,-0.0558,0.9052,-6.27,8.52,0.02,24.71
18851,0.2351,-0.0515,0.8737,-6.17,9.76,-0.06,24.72
18861,0.2568,-0.0544,0.8586,-6.17,5.36,-0.12,24.71
18871,0.1982,-0.0515,0.9258,-6.34,8.46,-0.05,24.69
18881,0.2458,-0.0477,0.8806,-6.31,10.18,-0.05,24.7
18891,0.2607,-0.0483,0.8663,-6.26,5.68,-0.09,24.68
18901,0.2101,-0.0537,0.901,-6.26,7.94,-0.06,24.7
18911,0.2227,-0.054,0.8887,-6.23,10.27,-0.11,24.7
18921,0.272,-0.0504,0.8463,-6.14,6.06,-0.09,24.69
18931,0.2151,-0.051,0.9014,-6.21,6.53,-0.15,24.68
18941,0.2179,-0.0454,0.912,-6.37,11.02,0.0,24.71
18951,0.274,-0.0459,0.8607,-6.29,6.87,-0.15,24.7
18961,0.2273,-0.0479,0.8881,-6.2,6.27,-0.08,24.71
18971,0.2073,-0.0498,0.8973,-6.26,10.99,-0.05,24.69
18981,0.2661,-0.0488,0.8409,-6.08,6.82,-0.08,24.71
18991,0.2325,-0.0518,0.8835,-6.24,5.65,-0.14,24.72
19001,0.21,-0.0427,0.9167,-6.37,9.76,-0.14,24.69
19011,0.2617,-0.0402,0.8702,-6.29,8.78,-0.06,24.69
19021,0.2559,-0.052,0.8657,-6.06,5.25,-0.03,24.71
19031,0.2085,-0.0566,0.9064,-6.15,8.17,-0.05,24.68
19041,0.2327,-0.0494,0.8794,-6.02,9.82,0.03,24.7
19051,0.2684,-0.0497,0.8466,-6.05,5.3,-0.02,24.72
19061,0.2108,-0.0502,0.9111,-6.23,7.11,0.02,24.69
19071,0.2194,-0.0381,0.9132,-6.29,9.83,0.03,24.69
19082,0.2339,-0.036,0.8939,-6.29,9.98,0.06,24.69
19092,0.269,-0.0375,0.8607,-6.21,6.24,-0.05,24.69
19103,0.2543,-0.0436,0.8636,-6.08,5.56,0.03,24.68
19113,0.204,-0.0498,0.9,-6.14,8.03,-0.09,24.72
19123,0.2316,-0.0487,0.87,-6.05,10.03,-0.05,24.69
19133,0.2646,-0.0463,0.8551,-6.08,5.37,-0.09,24.7
19143,0.2218,-0.0461,0.9095,-6.2,6.89,-0.08,24.69
19153,0.2183,-0.046,0.9174,-6.43,10.67,-0.02,24.69
19163,0.2775,-0.0505,0.8492,-6.17,7.18,-0.11,24.71
19173,0.2257,-0.0577,0.8835,-6.27,5.56,-0.03,24.72
19183,0.2073,-0.0551,0.8962,-6.15,10.81,0.05,24.71
19193,0.2703,-0.0538,0.8467,-6.12,6.73,-0.02,24.7
19203,0.231,-0.0524,0.8884,-6.15,5.6,-0.06,24.69
19213,0.2065,-0.0505,0.9211,-6.24,9.82,-0.08,24.69
19223,0.2549,-0.0479,0.876,-6.21,8.98,-0.03,24.7
19233,0.2545,-0.0537,0.8658,-6.09,5.44,-0.09,24.71
19243,0.1982,-0.0515,0.9055,-6.11,8.89,-0.08,24.7
19253,0.2452,-0.0521,0.8639,-6.11,8.82,0.03,24.68
19263,0.2496,-0.0465,0.8656,-6.12,5.08,-0.06,24.7
19273,0.196,-0.0389,0.9332,-6.24,9.66,-0.14,24.71
19283,0.2605,-0.0392,0.8657,-6.23,9.13,-0.06,24.7
19293,0.2478,-0.047,0.8705,-6.09,4.85,-0.12,24.72
19303,0.1957,-0.0475,0.9041,-6.15,9.92,-0.03,24.69
19313,0.2479,-0.0474,0.8671,-6.14,8.81,-0.12,24.72
19323,0.2505,-0.0452,0.8632,-6.12,4.76,-0.08,24.71
19333,0.1929,-0.0406,0.9286,-6.26,9.95,-0.14,24.69
19343,0.2588,-0.0382,0.8704,-6.24,9.33,-0.03,24.69
19353,0.2573,-0.0469,0.8573,-6.08,4.79,-0.12,24.68
19363,0.1998,-0.0499,0.907,-6.12,8.46,-0.18,24.72
19373,0.2079,-0.0448,0.9032,-6.17,9.85,-0.05,24.7
19383,0.2637,-0.0466,0.8567,-6.14,7.8,-0.09,24.68
19393,0.2351,-0.0443,0.8818,-6.18,5.22,-0.05,24.72
19403,0.2067,-0.0424,0.9141,-6.26,9.59,0.06,24.68
19413,0.2625,-0.0421,0.8726,-6.21,8.49,-0.03,24.69
19423,0.2511,-0.0453,0.8822,-6.17,5.36,-0.03,24.71
19433,0.2026,-0.0457,0.9104,-6.31,9.82,0.02,24.71
19443,0.2521,-0.0449,0.8516,-6.09,8.6,0.05,24.71
19453,0.2435,-0.0486,0.8613,-6.12,4.79,-0.09,24.72
19463,0.1989,-0.0463,0.9198,-6.2,9.22,0.08,24.72
19473,0.2416,-0.0416,0.8914,-6.37,9.5,-0.02,24.7
19483,0.2632,-0.0421,0.8658,-6.29,6.55,-0.02,24.69
19493,0.2184,-0.053,0.8932,-6.31,6.69,-0.08,24.71
19503,0.208,-0.0587,0.8977,-6.21,10.15,-0.14,24.71
19513,0.255,-0.0618,0.851,-6.14,7.95,0.03,24.68
19523,0.2488,-0.058,0.8615,-6.09,5.07,-0.06,24.7
19533,0.2062,-0.0555,0.9121,-6.18,8.09,-0.08,24.7
19543,0.2263,-0.045,0.8997,-6.32,10.38,-0.05,24.71
19553,0.2698,-0.0433,0.8596,-6.15,6.95,-0.09,24.72
19563,0.2239,-0.0516,0.8885,-6.14,6.2,-0.02,24.69
19573,0.2089,-0.0515,0.897,-6.26,10.6,0.02,24.71
19583,0.265,-0.0485,0.8488,-6.24,6.89,-0.15,24.7
19593,0.2328,-0.0485,0.8776,-6.15,5.47,-0.08,24.7
19603,0.2019,-0.0461,0.9227,-6.26,9.51,-0.14,24.71
19613,0.2572,-0.0394,0.8728,-6.15,9.11,-0.12,24.72
19623,0.2582,-0.0466,0.8684,-6.14,5.3,-0.18,24.69
19633,0.2035,-0.0491,0.9117,-6.26,8.15,-0.06,24.7
19643,0.2242,-0.0499,0.8842,-6.12,10.46,-0.08,24.73
19653,0.2695,-0.0524,0.8416,-6.05,5.63,-0.03,24.69
19663,0.2131,-0.0513,0.9003,-6.12,6.43,-0.05,24.7
19673,0.2148,-0.0428,0.9133,-6.29,10.72,0.02,24.69
19683,0.2737,-0.0404,0.8563,-6.17,7.27,0.0,24.7
19693,0.2399,-0.0475,0.8787,-6.21,5.31,0.05,24.69
19703,0.2039,-0.0459,0.9069,-6.2,9.34,0.02,24.69
19713,0.2393,-0.0474,0.8718,-6.14,9.53,0.05,24.7
19723,0.2612,-0.0487,0.8556,-6.09,5.5,-0.05,24.72
19733,0.218,-0.0458,0.9061,-6.18,6.7,-0.09,24.69
19743,0.2164,-0.0436,0.9153,-6.21,10.6,-0.02,24.67
19753,0.2721,-0.0458,0.8607,-6.15,7.33,-0.02,24.7
19763,0.2435,-0.052,0.8798,-6.14,5.57,-0.12,24.7
19773,0.2031,-0.0594,0.9033,-6.21,9.39,-0.02,24.71
19783,0.2507,-0.0576,0.8595,-6.11,8.73,-0.02,24.69
19793,0.249,-0.0582,0.8651,-6.05,5.28,0.0,24.71
19803,0.2068,-0.0468,0.9188,-6.24,8.46,-0.06,24.68
19813,0.2397,-0.0454,0.8827,-6.17,9.82,0.11,24.69
19823,0.2537,-0.0464,0.8596,-6.23,5.57,-0.05,24.67
19833,0.1936,-0.0469,0.9131,-6.18,8.89,0.0,24.68
19843,0.2354,-0.0435,0.8771,-6.26,9.54,0.05,24.7
19853,0.2576,-0.0446,0.8627,-6.23,5.27,-0.05,24.71
19863,0.1968,-0.0474,0.915,-6.24,8.29,-0.05,24.68
19873,0.2343,-0.0472,0.8812,-6.08,10.14,-0.03,24.69
19883,0.262,-0.0458,0.8601,-6.11,5.86,-0.06,24.71
19893,0.2139,-0.0493,0.9097,-6.15,7.3,-0.12,24.68
19903,0.2255,-0.0507,0.8882,-6.15,10.72,0.0,24.69
19913,0.2581,-0.0482,0.854,-6.17,8.5,-0.05,24.71
19923,0.2184,-0.0504,0.8956,-6.08,6.43,-0.09,24.69
19933,0.2151,-0.0468,0.9138,-6.37,10.67,-0.08,24.7
19943,0.2733,-0.0448,0.8552,-6.18,7.1,-0.02,24.69
19953,0.2219,-0.049,0.8904,-6.18,5.79,-0.06,24.67
19963,0.2035,-0.0428,0.9055,-6.18,10.64,-0.05,24.69
19973,0.2672,-0.0435,0.847,-5.95,6.99,-0.03,24.69
19983,0.2279,-0.0494,0.8895,-6.05,5.27,-0.12,24.68
19993,0.2015,-0.0463,0.9207,-6.26,10.29,-0.06,24.7
20003,0.2633,-0.0446,0.864,-6.17,8.26,-0.08,24.72
20013,0.2487,-0.0503,0.8782,-6.12,5.1,-0.15,24.69
20023,0.2075,-0.0488,0.9094,-6.15,9.48,-0.05,24.71
20033,0.2141,-0.0504,0.8917,-6.27,10.15,-0.06,24.68
20043,0.2695,-0.0457,0.844,-6.05,6.81,-0.02,24.69
20053,0.2275,-0.0441,0.8905,-6.15,5.48,-0.05,24.7
20063,0.2074,-0.0399,0.9197,-6.4,10.84,-0.06,24.71
20073,0.2701,-0.0469,0.8572,-6.09,7.63,-0.14,24.72
20083,0.2354,-0.0547,0.8727,-6.09,5.16,-0.11,24.71
20093,0.192,-0.0566,0.9125,-6.2,10.35,-0.12,24.7
20103,0.2552,-0.0553,0.8569,-6.18,8.2,-0.03,24.71
20113,0.246,-0.0532,0.8651,-6.11,5.25,-0.05,24.72
20123,0.1958,-0.0511,0.9202,-6.35,8.76,-0.02,24.71
20133,0.2365,-0.0426,0.8853,-6.23,10.08,-0.06,24.7
20143,0.2638,-0.0406,0.8612,-6.24,5.83,-0.15,24.7
20153,0.2126,-0.048,0.897,-6.21,7.08,-0.14,24.71
20163,0.2102,-0.0483,0.8927,-6.37,10.92,-0.05,24.7
20173,0.2651,-0.0455,0.8447,-6.14,7.16,-0.11,24.71
20183,0.2344,-0.0465,0.8792,-6.09,5.3,-0.03,24.71
20194,0.2029,-0.0511,0.9097,-6.2,7.15,-0.08,24.69
20204,0.2196,-0.0447,0.9015,-6.26,10.89,-0.18,24.69
20214,0.2717,-0.0446,0.8564,-6.12,6.43,-0.06,24.7
20225,0.2578,-0.0516,0.8599,-6.03,4.66,-0.12,24.69
20235,0.1956,-0.0548,0.9082,-6.27,8.98,-0.17,24.69
20245,0.2365,-0.0466,0.8646,-6.26,9.8,-0.03,24.71
20255,0.2646,-0.0494,0.8505,-6.09,4.96,0.0,24.73
20265,0.205,-0.0446,0.9214,-6.32,8.08,-0.02,24.71
20275,0.2429,-0.0387,0.8895,-6.23,10.58,0.03,24.69
20285,0.2692,-0.0479,0.8488,-6.2,4.76,0.06,24.71
20295,0.1965,-0.0487,0.907,-6.24,8.64,0.02,24.72
20305,0.2413,-0.0388,0.8752,-6.17,10.06,0.09,24.73
20315,0.2681,-0.0419,0.8499,-6.09,4.32,0.09,24.71
20325,0.2001,-0.0446,0.9148,-6.29,8.09,-0.06,24.71
20335,0.2247,-0.0358,0.8961,-6.27,10.67,-0.03,24.72
20345,0.2738,-0.0436,0.8533,-6.2,6.0,0.0,24.69
20355,0.217,-0.057,0.8953,-6.21,6.56,0.0,24.7
20365,0.214,-0.0549,0.901,-6.21,10.9,0.05,24.7
20375,0.2722,-0.0527,0.8408,-6.03,6.37,0.03,24.7
20385,0.222,-0.0551,0.8939,-6.21,5.89,0.0,24.69
20395,0.2145,-0.0446,0.9177,-6.23,11.79,0.0,24.69
20405,0.2848,-0.0441,0.8557,-6.2,6.03,0.08,24.7
20415,0.2185,-0.056,0.8976,-6.29,6.35,-0.05,24.7
20425,0.2098,-0.0509,0.8934,-6.34,10.73,-0.09,24.71
20435,0.2634,-0.052,0.8439,-6.08,7.07,-0.06,24.69
20445,0.2346,-0.0549,0.8774,-6.15,5.27,-0.15,24.71
20455,0.2051,-0.0487,0.9126,-6.35,9.1,-0.08,24.7
20465,0.2397,-0.0414,0.8872,-6.31,9.65,-0.15,24.71
20475,0.2705,-0.0483,0.8606,-6.15,5.39,-0.15,24.7
20485,0.2152,-0.0507,0.9094,-6.23,7.39,-0.18,24.71
20495,0.2246,-0.0518,0.8893,-6.31,10.03,-0.11,24.72
20505,0.2668,-0.0553,0.8483,-6.14,6.81,-0.03,24.71
20515,0.231,-0.0592,0.875,-6.23,5.48,-0.21,24.69
20525,0.203,-0.0457,0.9081,-6.21,9.39,-0.08,24.72
20535,0.2483,-0.0364,0.8821,-6.12,9.3,-0.12,24.74
20545,0.2701,-0.0337,0.8645,-6.05,5.19,-0.17,24.69
20555,0.2058,-0.0385,0.9176,-6.34,8.06,-0.12,24.71
20565,0.2296,-0.0455,0.8839,-6.26,10.2,-0.09,24.71
20575,0.264,-0.051,0.8547,-6.23,6.2,-0.08,24.72
20585,0.2554,-0.0553,0.8574,-6.21,4.82,-0.14,24.7
20595,0.2069,-0.0513,0.9095,-6.31,10.7,0.0,24.7
20605,0.2698,-0.051,0.8588,-6.14,7.22,0.0,24.71
20615,0.2311,-0.0513,0.885,-6.02,5.8,-0.02,24.72
20625,0.2014,-0.0441,0.9158,-6.09,10.37,-0.03,24.72
20635,0.2612,-0.0378,0.8575,-6.06,7.74,0.09,24.72
20645,0.2365,-0.0391,0.884,-6.17,5.63,0.05,24.71
20655,0.1998,-0.0389,0.9186,-6.31,9.42,0.03,24.7
20665,0.243,-0.0422,0.8755,-6.24,9.8,-0.02,24.72
20675,0.2646,-0.0441,0.8462,-6.15,4.95,-0.03,24.72
20685,0.2307,-0.0471,0.8832,-6.11,5.18,-0.05,24.71
20695,0.205,-0.0488,0.9073,-6.15,10.66,-0.05,24.68
20705,0.2626,-0.0494,0.8624,-6.11,8.15,-0.05,24.7
20715,0.2462,-0.0503,0.8687,-6.14,4.67,0.03,24.72
20725,0.2008,-0.0559,0.9186,-6.29,9.82,0.05,24.71
20735,0.2444,-0.0485,0.8788,-6.37,9.66,0.09,24.73
20745,0.266,-0.0502,0.8617,-6.24,5.92,0.06,24.73
20755,0.2057,-0.0597,0.897,-6.21,7.28,-0.02,24.73
20765,0.2222,-0.0541,0.8853,-6.15,10.76,0.02,24.74
20775,0.2692,-0.0444,0.8412,-5.94,5.53,-0.03,24.7
20785,0.2117,-0.0457,0.9089,-6.15,7.02,-0.06,24.72
20795,0.2219,-0.0366,0.9076,-6.27,10.09,-0.02,24.73
20807,0.2101,-0.0419,0.9115,-6.26,9.82,-0.02,24.72
20817,0.2545,-0.0443,0.8746,-6.27,8.81,-0.02,24.74
20827,0.261,-0.0508,0.866,-6.21,5.66,-0.06,24.71
20837,0.2119,-0.056,0.8999,-6.18,7.65,-0.08,24.71
20847,0.2194,-0.0598,0.8921,-6.11,10.23,-0.03,24.71
20857,0.2617,-0.0562,0.8479,-6.09,6.95,-0.05,24.71
20867,0.238,-0.0503,0.8746,-6.02,5.98,-0.14,24.72
20877,0.2111,-0.045,0.9088,-6.26,8.5,-0.05,24.73
20887,0.2399,-0.0376,0.8923,-6.18,9.95,0.03,24.72
20897,0.2706,-0.0377,0.8607,-6.27,5.85,0.0,24.74
20907,0.2122,-0.0496,0.8903,-6.18,6.81,-0.03,24.72
20917,0.2028,-0.0485,0.8945,-6.23,10.89,0.0,24.73
20927,0.2672,-0.0433,0.8398,-6.03,6.31,-0.08,24.7
20937,0.2166,-0.0411,0.9034,-6.09,5.8,-0.17,24.71
20947,0.2089,-0.0364,0.9171,-6.29,10.09,-0.08,24.71
20957,0.2585,-0.0336,0.8651,-6.24,8.23,-0.17,24.7
20967,0.2469,-0.04,0.8728,-6.24,5.42,-0.17,24.73
20977,0.2063,-0.047,0.9099,-6.17,9.01,-0.03,24.71
20987,0.2474,-0.0522,0.8721,-6.18,9.42,-0.05,24.72
20997,0.2643,-0.052,0.8551,-6.08,5.59,-0.05,24.72
21007,0.2201,-0.0535,0.8966,-6.2,7.11,0.06,24.72
21017,0.2261,-0.0479,0.9001,-6.23,10.27,0.11,24.72
21027,0.2729,-0.0471,0.86,-6.26,6.44,0.15,24.71
21037,0.2092,-0.0537,0.901,-6.09,6.69,0.06,24.74
21047,0.2087,-0.0479,0.892,-6.26,11.13,0.2,24.7
21057,0.2585,-0.047,0.8422,-6.14,6.23,0.09,24.73
21067,0.2107,-0.0449,0.8958,-6.21,5.79,0.09,24.72
21077,0.2094,-0.0397,0.916,-6.23,11.27,0.05,24.73
21087,0.2709,-0.0405,0.859,-6.24,6.55,0.06,24.71
21097,0.2247,-0.0504,0.8896,-6.17,6.31,0.05,24.72
21107,0.2097,-0.0519,0.9005,-6.2,10.63,0.03,24.72
21117,0.2662,-0.05,0.8503,-6.08,7.45,-0.02,24.71
21127,0.246,-0.0508,0.8766,-6.17,5.15,-0.08,24.7
21137,0.207,-0.0524,0.9198,-6.32,9.1,-0.05,24.71
21147,0.2452,-0.0461,0.8851,-6.38,10.08,-0.03,24.75
21157,0.2634,-0.052,0.8531,-6.17,5.07,-0.09,24.72
21167,0.1925,-0.0574,0.9039,-6.34,8.78,-0.2,24.72
21177,0.2444,-0.057,0.8593,-6.0,9.11,-0.26,24.71
21187,0.2491,-0.0569,0.8628,-6.05,4.15,-0.14,24.72
21197,0.1926,-0.0496,0.933,-6.2,10.09,-0.27,24.72
21207,0.2625,-0.0463,0.8715,-6.21,8.79,-0.27,24.72
21217,0.2566,-0.0516,0.8719,-6.15,5.42,-0.27,24.71
21227,0.2052,-0.0563,0.9027,-6.21,8.85,-0.31,24.72
21237,0.241,-0.0542,0.8739,-6.2,9.66,-0.2,24.75
21247,0.2629,-0.0518,0.8569,-6.05,4.89,-0.23,24.71
21257,0.2075,-0.0477,0.9211,-6.18,7.92,-0.26,24.7
21267,0.2356,-0.0432,0.8967,-6.31,10.52,-0.2,24.72
21278,0.2277,-0.0403,0.8976,-6.29,10.9,-0.2,24.76
21288,0.2476,-0.0458,0.8708,-6.02,4.58,-0.21,24.73
21298,0.1919,-0.0409,0.9147,-6.17,9.66,-0.17,24.71
21308,0.2496,-0.0338,0.8669,-6.2,9.33,-0.15,24.72
21318,0.2709,-0.0381,0.8467,-6.14,6.43,-0.02,24.73
21328,0.2012,-0.0404,0.9169,-6.38,8.46,-0.03,24.72
21338,0.2415,-0.0317,0.8828,-6.21,10.05,-0.06,24.72
21348,0.2703,-0.0334,0.8571,-6.08,7.42,-0.03,24.73
21358,0.2083,-0.0417,0.9081,-6.15,7.82,-0.03,24.72
21368,0.1997,-0.041,0.9115,-6.27,9.65,0.08,24.72
21378,0.2518,-0.0408,0.8632,-6.11,8.89,0.12,24.72
21388,0.2156,-0.049,0.8927,-6.06,6.11,0.15,24.71
21398,0.2052,-0.0438,0.9128,-6.14,7.69,0.24,24.73
21408,0.2172,-0.0414,0.8994,-6.23,10.29,0.38,24.71
21418,0.2644,-0.04,0.8617,-6.24,7.16,0.18,24.73
21428,0.2413,-0.0464,0.882,-6.24,5.27,0.11,24.71
21438,0.1982,-0.0485,0.9187,-6.29,10.0,0.14,24.74
21449,0.2166,-0.0477,0.8964,-6.27,10.52,0.11,24.73
21459,0.2606,-0.0564,0.8514,-6.12,7.04,0.14,24.76
21469,0.2279,-0.064,0.8781,-6.12,5.4,0.05,24.75
21479,0.2051,-0.0609,0.9202,-6.21,9.36,0.06,24.75
21489,0.2593,-0.0504,0.8851,-6.26,9.4,0.03,24.75
21499,0.2737,-0.049,0.8618,-6.23,5.63,0.02,24.74
21509,0.1997,-0.0607,0.9061,-6.21,8.14,-0.02,24.74
21519,0.2278,-0.062,0.8733,-6.17,10.72,-0.08,24.72
21529,0.269,-0.0571,0.8525,-6.0,4.99,-0.11,24.74
21539,0.1992,-0.051,0.9185,-6.18,7.22,-0.15,24.71
21549,0.2189,-0.0453,0.9022,-6.37,11.19,-0.06,24.73
21559,0.2699,-0.05,0.8459,-6.31,6.12,-0.12,24.75
21569,0.2191,-0.0598,0.894,-6.11,6.5,-0.15,24.74
21579,0.2168,-0.047,0.9039,-6.24,10.46,-0.2,24.73
21589,0.2825,-0.042,0.8384,-6.02,5.83,-0.14,24.74
21599,0.215,-0.0483,0.8882,-6.23,6.14,-0.17,24.72
21609,0.2159,-0.0415,0.9069,-6.29,10.56,-0.18,24.72
21619,0.2723,-0.0397,0.8585,-6.14,7.22,-0.06,24.71
21629,0.2335,-0.0437,0.89,-6.08,5.19,-0.24,24.73
21639,0.2061,-0.0419,0.9048,-6.23,10.08,-0.18,24.73
21649,0.2527,-0.0428,0.8534,-6.17,8.27,-0.15,24.74
21659,0.2479,-0.046,0.8619,-6.15,4.6,-0.03,24.74
21669,0.1948,-0.0433,0.9222,-6.17,9.19,-0.02,24.75
21679,0.2479,-0.0336,0.8784,-6.21,9.47,-0.09,24.74
21689,0.2616,-0.0321,0.8645,-6.2,4.76,-0.02,24.76
21699,0.2057,-0.0397,0.9084,-6.23,8.08,0.09,24.75
21709,0.2219,-0.0365,0.891,-6.2,10.35,0.15,24.74
21719,0.2695,-0.0405,0.8452,-6.12,6.0,0.06,24.74
21729,0.2249,-0.0408,0.8881,-6.17,6.0,0.0,24.72
21739,0.2067,-0.036,0.9128,-6.29,10.03,0.08,24.74
21749,0.261,-0.035,0.87,-6.34,8.55,0.11,24.74
21759,0.2605,-0.0394,0.8673,-6.2,5.28,0.09,24.75
21769,0.2065,-0.0465,0.902,-6.37,7.98,0.09,24.73
21779,0.226,-0.0479,0.8851,-6.15,10.12,0.06,24.74
21789,0.2667,-0.0458,0.8463,-6.21,5.44,-0.05,24.72
21799,0.2103,-0.0503,0.9119,-6.31,7.24,-0.08,24.77
21809,0.2222,-0.0503,0.9081,-6.35,10.44,-0.03,24.74
21819,0.2656,-0.0616,0.8508,-6.27,6.98,0.0,24.7
21829,0.2163,-0.0677,0.8892,-6.11,6.38,-0.06,24.74
21839,0.21,-0.0576,0.8945,-6.12,10.53,-0.03,24.74
21849,0.2629,-0.0575,0.86,-6.11,7.88,-0.03,24.76
21859,0.2479,-0.0612,0.8708,-6.27,5.5,-0.06,24.74
21869,0.1981,-0.0492,0.9196,-6.27,8.93,-0.09,24.76
21879,0.2533,-0.0447,0.8799,-6.23,9.6,-0.09,24.75
21889,0.2621,-0.0486,0.8733,-6.2,5.79,-0.02,24.73
21899,0.2148,-0.0554,0.9064,-6.2,8.05,-0.06,24.74
21909,0.2249,-0.0577,0.8872,-6.18,9.63,-0.14,24.75
21919,0.2605,-0.0525,0.8472,-6.02,7.16,-0.08,24.75
21929,0.2576,-0.0507,0.8491,-6.05,6.53,-0.08,24.73
21939,0.2122,-0.0472,0.9015,-6.23,7.65,-0.08,24.74
21949,0.2162,-0.0369,0.9042,-6.34,10.29,-0.08,24.74
21959,0.267,-0.0334,0.8634,-6.31,7.24,-0.18,24.73
21969,0.2394,-0.0387,0.886,-6.17,6.27,-0.18,24.74
21979,0.2175,-0.0476,0.8977,-6.21,8.09,-0.06,24.74
21989,0.2212,-0.0499,0.8943,-6.26,8.73,-0.08,24.74
21999,0.2495,-0.0509,0.8546,-6.09,7.1,-0.05,24.76
22009,0.2393,-0.0518,0.8656,-6.12,5.3,0.02,24.74
22019,0.2065,-0.0437,0.9111,-6.06,8.38,-0.02,24.74
22029,0.2119,-0.0387,0.9099,-6.2,9.91,0.06,24.73
22039,0.2626,-0.0283,0.865,-6.37,5.98,-0.09,24.73
22049,0.2483,-0.038,0.8739,-6.17,5.89,-0.05,24.73
22059,0.2067,-0.0475,0.8992,-6.27,9.83,0.0,24.72
22069,0.2169,-0.0499,0.8839,-6.27,9.74,-0.05,24.77
22079,0.2605,-0.0513,0.8555,-6.05,6.66,-0.05,24.75
22089,0.2383,-0.053,0.8894,-6.08,5.31,0.02,24.74
22099,0.2007,-0.0487,0.9247,-6.32,10.15,-0.03,24.72
22109,0.2543,-0.0475,0.8721,-6.26,9.01,0.02,24.75
22119,0.2516,-0.0519,0.8688,-6.14,5.34,-0.05,24.76
22129,0.2004,-0.0546,0.9158,-6.29,8.9,0.03,24.72
22139,0.2374,-0.0522,0.8806,-6.18,10.12,0.02,24.73
22149,0.2605,-0.0519,0.8558,-6.21,5.44,-0.02,24.75
22159,0.2028,-0.0532,0.9077,-6.21,7.86,-0.05,24.77
22169,0.2279,-0.0419,0.9012,-6.24,10.66,0.0,24.73
22179,0.2838,-0.0452,0.8496,-6.14,5.56,0.0,24.73
22189,0.2155,-0.0536,0.8999,-6.05,6.64,-0.11,24.72
22199,0.2153,-0.0452,0.8832,-6.21,10.37,-0.09,24.75
22209,0.2672,-0.0497,0.8442,-6.03,6.34,-0.06,24.75
22219,0.228,-0.0474,0.8981,-6.08,5.66,-0.17,24.74
22229,0.2065,-0.0417,0.9215,-6.34,10.75,-0.17,24.77
22239,0.2761,-0.0437,0.8553,-6.18,7.36,-0.05,24.74
22249,0.2362,-0.048,0.8722,-6.14,5.42,-0.08,24.73
22259,0.1965,-0.0515,0.9084,-6.17,10.26,-0.05,24.76
22269,0.2727,-0.043,0.8466,-6.14,7.42,0.02,24.74
22279,0.2306,-0.0502,0.8907,-6.14,5.53,-0.17,24.76
22289,0.2083,-0.0415,0.9124,-6.34,9.51,0.03,24.75
22299,0.2511,-0.0448,0.8625,-6.12,9.04,-0.06,24.74
22309,0.2529,-0.0485,0.8735,-6.11,5.37,-0.08,24.73
22319,0.2152,-0.0486,0.8997,-6.27,8.53,-0.06,24.74
22329,0.2343,-0.0475,0.8763,-6.21,9.97,-0.03,24.72
22339,0.2656,-0.0499,0.8407,-6.17,5.07,-0.03,24.77
22349,0.2007,-0.0441,0.9158,-6.34,7.94,0.03,24.76
22359,0.2407,-0.0448,0.8943,-6.32,10.03,0.03,24.75
22369,0.2581,-0.0596,0.8508,-6.23,6.05,-0.05,24.75
22379,0.1971,-0.0576,0.8955,-6.14,7.39,-0.09,24.75
22389,0.2266,-0.0399,0.8883,-6.09,10.38,0.03,24.76
22399,0.2737,-0.0309,0.865,-6.18,6.99,-0.11,24.74
22409,0.243,-0.0494,0.8821,-6.26,5.68,-0.15,24.74
22419,0.1973,-0.0529,0.9154,-6.38,9.65,-0.08,24.75
22429,0.2441,-0.0433,0.8683,-6.4,9.05,-0.06,24.77
22439,0.2544,-0.0469,0.858,-6.24,6.41,-0.08,24.77
22449,0.2201,-0.0591,0.889,-6.21,6.67,-0.11,24.74
22459,0.1993,-0.0586,0.9058,-6.24,10.18,-0.18,24.74
22469,0.2473,-0.0511,0.8606,-6.11,8.52,-0.15,24.76
22479,0.2605,-0.0458,0.8569,-6.21,5.48,-0.09,24.72
22489,0.2134,-0.0464,0.9128,-6.29,7.71,-0.05,24.77
22499,0.2245,-0.0464,0.9047,-6.44,10.66,-0.11,24.75
22509,0.2715,-0.0426,0.8575,-6.32,7.44,-0.12,24.75
22519,0.2424,-0.0491,0.8699,-6.31,5.83,-0.14,24.74
22529,0.2078,-0.0557,0.9031,-6.17,8.96,0.0,24.74
22539,0.2399,-0.0514,0.8733,-6.15,9.1,-0.09,24.74
22549,0.2512,-0.0464,0.8606,-5.91,6.35,-0.18,24.77
22559,0.2173,-0.0415,0.8925,-6.11,7.37,-0.06,24.73
22569,0.2299,-0.0383,0.8875,-6.18,8.85,-0.08,24.74
22579,0.2529,-0.0321,0.885,-6.37,6.9,0.05,24.73
22589,0.2341,-0.0361,0.8969,-6.31,7.1,-0.08,24.74
22599,0.2164,-0.0475,0.8966,-6.32,9.21,0.03,24.74
22609,0.2521,-0.0593,0.8617,-6.14,8.21,-0.06,24.74
22619,0.2465,-0.0593,0.8604,-6.0,5.74,-0.06,24.74
22629,0.2129,-0.0514,0.8907,-6.11,7.51,0.08,24.75
22639,0.2184,-0.0475,0.8947,-6.17,9.85,0.02,24.75
22649,0.239,-0.0453,0.8783,-6.2,8.92,-0.05,24.76
22659,0.2461,-0.036,0.8865,-6.35,6.12,0.02,24.74
22669,0.2112,-0.041,0.9194,-6.41,8.53,-0.05,24.76
22679,0.2115,-0.0482,0.906,-6.32,9.8,0.06,24.73
22689,0.248,-0.0553,0.8751,-6.31,8.75,-0.05,24.74
22699,0.2604,-0.0574,0.8605,-6.14,6.17,0.0,24.74
22709,0.2245,-0.0574,0.8989,-6.2,6.92,-0.06,24.74
22719,0.2227,-0.0623,0.8966,-6.17,9.69,0.06,24.76
22729,0.2532,-0.0542,0.859,-6.18,7.77,0.0,24.75
22739,0.2466,-0.0458,0.8607,-6.06,5.79,0.02,24.77
22749,0.2114,-0.0399,0.9031,-6.17,7.85,0.0,24.75
22759,0.2295,-0.0438,0.8992,-6.32,9.94,-0.09,24.75
22769,0.2714,-0.0459,0.8534,-6.24,6.05,-0.08,24.76
22779,0.22,-0.0526,0.8978,-6.18,6.66,-0.08,24.77
22789,0.2134,-0.057,0.9017,-6.17,9.63,-0.14,24.74
22799,0.2461,-0.0568,0.8669,-6.15,8.05,-0.11,24.76
22809,0.2382,-0.052,0.8745,-6.08,6.7,-0.12,24.77
22819,0.2172,-0.0458,0.8987,-6.2,7.79,-0.05,24.76
22829,0.2247,-0.0375,0.8949,-6.26,9.73,-0.08,24.75
22839,0.261,-0.0374,0.868,-6.23,6.81,-0.12,24.79
22849,0.2195,-0.0363,0.8983,-6.35,7.6,-0.14,24.77
22859,0.2351,-0.0437,0.8876,-6.15,9.25,-0.09,24.76
22869,0.2487,-0.0526,0.8695,-6.18,7.1,0.02,24.74
22879,0.2144,-0.0573,0.8906,-6.11,8.14,-0.05,24.74
22889,0.2225,-0.057,0.8783,-6.02,9.19,-0.03,24.78
22899,0.2286,-0.0454,0.8799,-6.05,8.46,-0.02,24.77
22909,0.2451,-0.0392,0.8721,-6.31,7.44,-0.08,24.79
22919,0.2286,-0.0411,0.8943,-6.23,7.19,-0.08,24.77
22929,0.2256,-0.037,0.9015,-6.38,8.95,-0.06,24.78
22939,0.2451,-0.0441,0.8834,-6.15,8.26,-0.08,24.76
22949,0.2395,-0.049,0.8831,-6.2,6.89,0.05,24.77
22959,0.2264,-0.0577,0.8837,-6.06,8.14,0.02,24.77
22969,0.2318,-0.0569,0.8751,-6.15,7.85,0.02,24.74
22979,0.2322,-0.052,0.8779,-6.17,7.66,0.03,24.77
22989,0.2369,-0.046,0.8818,-6.23,7.39,-0.03,24.77
22999,0.2294,-0.0408,0.8917,-6.24,8.06,-0.08,24.76
23009,0.2344,-0.0404,0.8862,-6.35,8.49,-0.14,24.76
23019,0.2576,-0.0444,0.8654,-6.23,6.89,-0.09,24.74
23029,0.2233,-0.0538,0.9011,-6.27,6.9,-0.11,24.76
23039,0.2146,-0.0576,0.8947,-6.15,9.88,-0.02,24.76
23049,0.2555,-0.0563,0.8544,-6.09,8.15,-0.08,24.72
23059,0.2531,-0.0531,0.8624,-6.08,4.69,-0.14,24.75
23069,0.1984,-0.0505,0.9279,-6.21,9.02,-0.11,24.74
23079,0.2417,-0.0428,0.8859,-6.23,10.24,-0.08,24.77
23089,0.2635,-0.0448,0.8531,-6.11,6.2,-0.11,24.76
23099,0.2111,-0.0479,0.8917,-6.15,6.81,-0.14,24.77
23109,0.2152,-0.0514,0.8934,-6.2,10.24,-0.06,24.75
23119,0.2589,-0.0503,0.8685,-6.2,7.08,-0.11,24.79
23129,0.2274,-0.0466,0.8972,-6.27,6.64,-0.06,24.77
23139,0.2053,-0.0477,0.915,-6.31,10.52,-0.09,24.75
23149,0.2567,-0.0457,0.8654,-6.24,8.23,-0.06,24.77
23159,0.243,-0.0465,0.8812,-6.14,6.2,-0.11,24.75
23169,0.2164,-0.0488,0.8973,-6.26,7.82,0.0,24.77
23179,0.2209,-0.0529,0.8862,-6.21,10.32,-0.02,24.79
23189,0.2607,-0.0428,0.8435,-6.15,6.52,-0.05,24.76
23199,0.2351,-0.0431,0.8867,-6.12,6.06,-0.11,24.77
23209,0.2253,-0.0424,0.9083,-6.31,8.0,0.0,24.76
23219,0.2385,-0.0422,0.8966,-6.29,9.22,-0.05,24.75
23229,0.2449,-0.0474,0.8746,-6.27,7.48,0.03,24.76
23239,0.2377,-0.0482,0.8696,-6.17,7.08,0.0,24.76
23249,0.2294,-0.0498,0.8805,-6.15,7.65,-0.08,24.77
23259,0.2422,-0.05,0.8767,-6.17,7.24,0.02,24.76
23269,0.2205,-0.056,0.8871,-6.09,7.53,0.05,24.77
23279,0.2247,-0.0438,0.8829,-6.29,8.52,0.03,24.78
23289,0.245,-0.043,0.8715,-6.15,7.94,-0.02,24.77
23299,0.2542,-0.0425,0.8705,-6.23,5.8,-0.06,24.78
23309,0.2212,-0.0433,0.9114,-6.21,7.88,-0.11,24.76
23319,0.2354,-0.047,0.9011,-6.27,8.46,-0.02,24.73
23329,0.2362,-0.0591,0.8938,-6.26,8.29,-0.03,24.75
23339,0.2397,-0.0591,0.8804,-6.2,7.83,-0.11,24.75
23349,0.2371,-0.0602,0.8643,-6.08,7.24,-0.03,24.77
23359,0.2407,-0.0598,0.8601,-6.06,6.37,-0.05,24.79
23369,0.212,-0.0551,0.8932,-6.12,7.57,0.11,24.77
23379,0.245,-0.0358,0.8718,-6.15,8.81,-0.08,24.76
23389,0.2598,-0.0333,0.8632,-6.17,7.63,-0.05,24.76
23399,0.2498,-0.0314,0.8749,-6.29,5.66,-0.12,24.76
23409,0.214,-0.0431,0.9108,-6.24,8.12,-0.06,24.77
23419,0.2198,-0.0526,0.8995,-6.29,10.14,-0.12,24.77
23429,0.2576,-0.0563,0.859,-6.08,7.36,-0.05,24.77
23439,0.2281,-0.0533,0.8877,-6.15,6.61,-0.14,24.77
23449,0.2137,-0.052,0.8989,-6.14,9.5,0.0,24.77
23459,0.2461,-0.046,0.8654,-6.2,8.17,-0.08,24.78
23469,0.2393,-0.0394,0.873,-6.11,6.84,-0.09,24.8
23479,0.2251,-0.0359,0.8904,-6.23,7.62,-0.06,24.78
23489,0.2262,-0.0369,0.8917,-6.32,9.02,-0.05,24.77
23499,0.2562,-0.0439,0.8667,-6.2,7.27,-0.03,24.74
23509,0.2267,-0.0479,0.8944,-6.32,6.87,0.02,24.74
23519,0.2245,-0.0522,0.9076,-6.29,9.39,-0.02,24.74
23529,0.2587,-0.0486,0.8688,-6.17,7.62,0.02,24.78
23539,0.2384,-0.0488,0.8846,-6.2,6.18,-0.02,24.74
23549,0.2081,-0.0474,0.9008,-6.09,8.85,-0.02,24.75
23559,0.2458,-0.0452,0.8646,-6.14,8.41,0.03,24.75
23569,0.2345,-0.0428,0.8688,-6.29,5.94,-0.06,24.75
23579,0.2106,-0.0458,0.8976,-6.14,8.81,-0.03,24.75
23589,0.245,-0.0421,0.877,-6.27,8.06,-0.08,24.77
23599,0.2523,-0.0421,0.8755,-6.18,6.4,-0.03,24.76
23609,0.2356,-0.0481,0.8975,-6.29,6.4,-0.11,24.78
23619,0.2203,-0.0494,0.9086,-6.29,8.93,-0.02,24.76
23629,0.2374,-0.0531,0.8954,-6.26,9.16,-0.02,24.76
23639,0.2582,-0.0486,0.863,-6.14,7.65,0.02,24.75
23649,0.2372,-0.0547,0.8833,-6.06,6.9,0.09,24.79
23659,0.2198,-0.0497,0.8853,-6.18,8.27,0.05,24.77
23669,0.2297,-0.0466,0.8788,-6.03,8.73,0.02,24.77
23679,0.2411,-0.0409,0.8674,-6.17,7.91,-0.06,24.76
23689,0.2477,-0.0392,0.8762,-6.18,6.14,-0.17,24.78
23699,0.2256,-0.04,0.8998,-6.21,7.68,-0.02,24.77
23709,0.2365,-0.0471,0.8871,-6.24,8.27,-0.08,24.77
23719,0.2406,-0.0531,0.8835,-6.12,7.36,-0.08,24.77
23729,0.2402,-0.0543,0.897,-6.26,7.88,-0.12,24.77
23739,0.2468,-0.0548,0.8937,-6.37,7.73,-0.06,24.78
23749,0.2305,-0.0537,0.8936,-6.15,8.23,-0.05,24.79
23759,0.2386,-0.0518,0.8752,-6.18,8.49,0.06,24.77
23769,0.2427,-0.0511,0.8542,-6.08,6.81,-0.08,24.76
23779,0.2203,-0.0475,0.8815,-6.11,7.28,-0.05,24.78
23789,0.2332,-0.0399,0.8761,-6.14,9.04,0.05,24.77
23799,0.2549,-0.0376,0.8652,-6.26,6.41,-0.11,24.78
23809,0.2281,-0.0396,0.8931,-6.21,6.78,-0.15,24.76
23819,0.2291,-0.0408,0.9008,-6.34,8.18,-0.11,24.74
23829,0.2352,-0.0472,0.8888,-6.17,8.29,-0.02,24.77
23839,0.2283,-0.0563,0.8994,-6.17,8.12,0.03,24.77
23849,0.2295,-0.0538,0.8998,-6.21,8.44,-0.03,24.75
23859,0.2444,-0.0557,0.8685,-6.11,7.08,-0.06,24.77
23869,0.213,-0.0493,0.8918,-6.11,8.0,-0.02,24.75
23879,0.2339,-0.0443,0.8801,-6.14,9.19,-0.03,24.77
23889,0.2473,-0.0453,0.8663,-6.24,7.04,0.03,24.75
23899,0.2233,-0.0419,0.8888,-6.27,7.24,-0.06,24.78
23909,0.2261,-0.0465,0.8802,-6.17,9.01,-0.11,24.77
23919,0.2505,-0.0449,0.8662,-6.06,7.39,-0.14,24.76
23929,0.2308,-0.0488,0.89,-6.18,6.96,-0.11,24.77
23939,0.2257,-0.0479,0.9012,-6.15,8.55,-0.03,24.77
23949,0.243,-0.0466,0.8828,-6.11,8.02,-0.06,24.77
23959,0.2458,-0.0485,0.8861,-6.2,7.21,-0.05,24.76
23969,0.2438,-0.0488,0.8872,-6.27,7.25,-0.05,24.78
23979,0.23,-0.0469,0.899,-6.31,8.44,-0.12,24.79
23989,0.2411,-0.0531,0.8796,-6.23,8.93,-0.05,24.78
23999,0.2529,-0.0553,0.8533,-6.09,6.46,-0.06,24.76
24009,0.225,-0.0531,0.8754,-6.06,6.98,-0.11,24.74
24019,0.2279,-0.0486,0.881,-6.09,8.03,-0.02,24.75
24029,0.23,-0.0487,0.8844,-6.14,8.35,-0.03,24.75
24039,0.2504,-0.0424,0.8661,-6.09,6.49,-0.05,24.75
24049,0.2197,-0.0437,0.8914,-6.18,6.98,0.02,24.78
24059,0.2102,-0.0458,0.8961,-6.26,8.34,0.06,24.75
24071,0.2134,-0.0474,0.8838,-6.12,8.21,0.05,24.77
24081,0.2358,-0.0464,0.8722,-6.11,8.11,-0.06,24.78
24091,0.236,-0.0435,0.8788,-6.11,7.1,-0.11,24.77
24101,0.2295,-0.038,0.8914,-6.24,8.18,-0.15,24.77
24111,0.2484,-0.0376,0.8813,-6.21,7.59,-0.08,24.76
24121,0.2426,-0.0437,0.8865,-6.37,6.87,-0.09,24.75
24131,0.2334,-0.0466,0.8989,-6.2,7.91,-0.15,24.78
24141,0.2318,-0.0538,0.8835,-6.15,8.56,-0.03,24.78
24151,0.2402,-0.0574,0.8682,-6.17,7.19,-0.09,24.79
24161,0.233,-0.0503,0.8794,-6.06,7.71,-0.11,24.78
24171,0.2319,-0.0453,0.8849,-6.2,8.38,-0.06,24.78
24181,0.2473,-0.0458,0.8621,-6.2,7.86,0.0,24.77
24191,0.2358,-0.0441,0.8644,-6.17,6.4,0.02,24.78
24201,0.2239,-0.0432,0.8789,-6.18,7.68,-0.03,24.78
24211,0.2334,-0.0398,0.8885,-6.23,7.82,-0.05,24.78
24221,0.2362,-0.0461,0.8901,-6.32,7.94,-0.02,24.76
24231,0.2411,-0.0468,0.8802,-6.26,7.62,-0.08,24.77
24241,0.2394,-0.0509,0.879,-6.29,7.37,-0.17,24.77
24251,0.2321,-0.0507,0.8888,-6.21,7.56,0.05,24.78
24261,0.229,-0.0487,0.8975,-6.26,8.38,-0.15,24.75
24271,0.243,-0.046,0.8864,-6.23,8.12,-0.12,24.75
24281,0.2402,-0.0497,0.8821,-6.21,7.15,-0.06,24.75
24291,0.2312,-0.0476,0.8899,-6.2,7.97,-0.12,24.76
24301,0.2329,-0.0463,0.8871,-6.17,8.34,-0.02,24.76
24311,0.2395,-0.052,0.8768,-6.17,8.34,-0.03,24.78
24321,0.2455,-0.053,0.856,-6.15,6.87,0.05,24.77
24331,0.2213,-0.0479,0.8802,-6.09,6.9,-0.05,24.78
24341,0.2137,-0.0448,0.9036,-6.2,9.02,-0.05,24.79
24351,0.2515,-0.0365,0.8779,-6.4,8.41,-0.08,24.8
24361,0.2548,-0.0371,0.8792,-6.34,6.26,-0.09,24.78
24371,0.2314,-0.046,0.8966,-6.32,7.11,-0.09,24.77
24381,0.2269,-0.0488,0.9105,-6.29,8.75,-0.03,24.78
24391,0.2446,-0.0557,0.8967,-6.24,8.89,-0.05,24.77
24401,0.2441,-0.0575,0.8762,-6.17,8.21,-0.03,24.76
24411,0.2495,-0.0613,0.8607,-6.0,7.22,0.06,24.75
24421,0.2351,-0.0544,0.8685,-5.98,6.29,-0.08,24.77
24431,0.2003,-0.0496,0.9021,-6.12,8.96,-0.03,24.78
24441,0.2404,-0.0455,0.8683,-6.08,9.36,0.0,24.77
24451,0.2585,-0.0385,0.8508,-6.27,5.86,0.02,24.77
24461,0.223,-0.0387,0.8889,-6.21,6.73,0.02,24.78
24471,0.2305,-0.0455,0.8972,-6.37,8.08,0.02,24.75
24481,0.2384,-0.0502,0.9021,-6.34,8.11,-0.03,24.79
24491,0.236,-0.0493,0.8926,-6.23,8.37,-0.02,24.79
24501,0.2498,-0.056,0.8732,-6.09,7.51,-0.09,24.77
24511,0.2313,-0.0513,0.885,-6.2,6.92,0.03,24.79
24521,0.2206,-0.0519,0.896,-6.03,8.98,-0.11,24.81
24531,0.2411,-0.0482,0.8667,-6.2,8.23,-0.06,24.78
24541,0.2412,-0.0521,0.8632,-6.15,6.89,-0.05,24.77
24551,0.2272,-0.0427,0.8712,-6.14,7.33,-0.08,24.79
24561,0.2249,-0.0388,0.8872,-6.17,8.31,-0.09,24.79
24571,0.2421,-0.0422,0.8777,-6.2,7.91,-0.24,24.8
24581,0.2479,-0.0444,0.8805,-6.26,6.44,-0.09,24.81
24591,0.2233,-0.0428,0.9036,-6.27,7.47,-0.08,24.79
24601,0.2264,-0.0487,0.9083,-6.21,9.34,-0.05,24.82
24611,0.254,-0.0511,0.8878,-6.24,8.03,-0.06,24.81
24621,0.2502,-0.0566,0.8744,-6.21,7.05,-0.12,24.78
24631,0.2269,-0.0619,0.8806,-6.05,7.77,-0.17,24.8
24641,0.223,-0.0562,0.8741,-6.05,8.47,-0.09,24.8
24651,0.2306,-0.0453,0.8727,-6.14,7.94,-0.05,24.8
24661,0.2306,-0.0372,0.8804,-6.18,7.91,-0.06,24.77
24671,0.239,-0.0356,0.8809,-6.23,7.71,-0.05,24.77
24681,0.2388,-0.0312,0.8735,-6.18,7.44,-0.02,24.79
24691,0.2417,-0.0348,0.887,-6.35,6.66,-0.09,24.79
24701,0.223,-0.0405,0.9097,-6.26,7.8,-0.12,24.8
24711,0.23,-0.0439,0.9078,-6.29,9.21,0.03,24.79
24721,0.2545,-0.0522,0.876,-6.18,7.65,0.02,24.79
24731,0.2313,-0.0596,0.8794,-6.21,6.85,0.08,24.77
24741,0.2108,-0.0596,0.8936,-6.14,8.85,0.08,24.77
24751,0.2305,-0.0531,0.8739,-6.12,8.87,-0.02,24.79
24761,0.238,-0.0431,0.8722,-6.14,7.19,-0.05,24.8
24771,0.2303,-0.035,0.8881,-6.2,7.68,0.0,24.79
24781,0.2396,-0.0319,0.8881,-6.37,8.03,-0.06,24.78
24791,0.2369,-0.0413,0.8955,-6.4,7.65,0.03,24.81
24801,0.2424,-0.0457,0.8881,-6.26,8.08,0.05,24.8
24811,0.2424,-0.0548,0.8807,-6.17,7.3,-0.08,24.79
24821,0.2295,-0.0573,0.88,-6.17,7.91,-0.05,24.8
24831,0.2386,-0.064,0.8633,-6.09,7.86,-0.06,24.8
24841,0.2365,-0.0549,0.8729,-6.09,6.23,-0.08,24.8
24851,0.2217,-0.041,0.8994,-6.23,8.43,-0.05,24.8
24861,0.249,-0.0364,0.8861,-6.37,8.17,-0.14,24.8
24871,0.2448,-0.0461,0.8792,-6.38,6.9,-0.12,24.81
24881,0.2234,-0.057,0.8951,-6.24,8.27,-0.08,24.79
24891,0.2354,-0.0602,0.8735,-6.17,8.44,-0.06,24.79
24901,0.238,-0.0598,0.8719,-6.21,7.28,-0.08,24.78
24911,0.2264,-0.0576,0.8788,-6.06,7.68,-0.12,24.79
24921,0.2375,-0.0463,0.875,-6.17,8.2,-0.14,24.79
24931,0.2369,-0.0374,0.8844,-6.23,6.47,-0.08,24.8
24941,0.2058,-0.0339,0.9169,-6.35,9.05,-0.05,24.79
24951,0.2438,-0.0398,0.8815,-6.24,9.54,-0.12,24.79
24961,0.2642,-0.0511,0.8546,-6.17,4.93,-0.11,24.79
24971,0.1926,-0.0574,0.9114,-6.17,8.52,-0.17,24.79
24981,0.2228,-0.0549,0.8756,-6.18,10.18,0.0,24.79
24991,0.2677,-0.0459,0.8505,-6.14,5.47,-0.08,24.79
25001,0.2477,-0.0433,0.8746,-6.15,4.78,-0.05,24.77
25011,0.2162,-0.0359,0.9163,-6.31,10.98,-0.03,24.81
25021,0.2681,-0.0358,0.8619,-6.2,7.92,-0.02,24.77
25031,0.2549,-0.043,0.8699,-6.17,5.18,-0.11,24.79
25041,0.2096,-0.0497,0.9084,-6.2,8.67,-0.02,24.79
25051,0.2476,-0.05,0.8639,-6.17,9.45,0.0,24.79
25061,0.2562,-0.0498,0.8499,-6.12,5.76,-0.03,24.78
25071,0.2246,-0.045,0.8899,-6.2,7.13,-0.03,24.78
25081,0.2216,-0.0392,0.916,-6.37,9.24,-0.02,24.77
25091,0.2299,-0.04,0.9098,-6.4,10.66,0.05,24.79
25101,0.261,-0.049,0.8604,-6.24,4.87,0.0,24.77
25111,0.2015,-0.0585,0.9066,-6.27,8.24,-0.03,24.8
25121,0.2261,-0.053,0.882,-6.17,10.26,-0.06,24.78
25131,0.2648,-0.054,0.8541,-6.05,6.52,0.0,24.79
25141,0.234,-0.0518,0.8813,-6.17,5.79,-0.03,24.77
25151,0.2069,-0.0458,0.9124,-6.11,9.42,0.0,24.78
25161,0.2488,-0.0355,0.8706,-6.29,9.07,0.02,24.76
25171,0.2638,-0.0394,0.8651,-6.18,5.94,-0.02,24.78
25181,0.2188,-0.0464,0.9027,-6.31,6.75,-0.08,24.78
25191,0.213,-0.052,0.8959,-6.26,10.84,-0.03,24.79
25201,0.259,-0.0498,0.8407,-6.14,6.84,-0.02,24.79
25211,0.2366,-0.0502,0.8794,-6.05,5.04,-0.05,24.79
25221,0.2045,-0.0447,0.9254,-6.2,8.84,-0.14,24.78
25231,0.2495,-0.043,0.8916,-6.31,9.86,-0.06,24.8
25241,0.2704,-0.051,0.8514,-6.2,6.06,-0.21,24.79
25251,0.2186,-0.0547,0.8898,-6.2,6.12,-0.03,24.78
25261,0.2131,-0.0521,0.9011,-6.08,10.47,0.0,24.77
25271,0.2688,-0.0565,0.85,-6.17,7.36,0.08,24.75
25281,0.2373,-0.054,0.8679,-6.11,4.9,-0.06,24.78
25291,0.2007,-0.0555,0.9125,-6.11,9.36,0.0,24.78
25301,0.2117,-0.0492,0.9083,-6.21,9.48,0.02,24.78
25311,0.264,-0.0396,0.8621,-6.11,7.16,-0.06,24.78
25321,0.2385,-0.0414,0.8821,-6.2,5.42,-0.05,24.81
25331,0.2024,-0.0508,0.9023,-6.27,9.56,-0.08,24.79
25341,0.2513,-0.05,0.866,-6.06,8.89,-0.05,24.8
25351,0.2611,-0.0502,0.8572,-6.12,5.42,-0.08,24.79
25361,0.2053,-0.0494,0.9156,-6.2,7.82,-0.03,24.78
25371,0.1934,-0.049,0.9174,-6.27,10.12,-0.06,24.81
25381,0.2555,-0.0416,0.8717,-6.2,8.95,-0.14,24.79
25391,0.2581,-0.0461,0.8635,-6.17,5.51,-0.12,24.8
25401,0.1982,-0.0492,0.9146,-6.14,8.56,-0.09,24.79
25411,0.2339,-0.0449,0.8708,-6.08,10.12,-0.06,24.8
25421,0.259,-0.0472,0.8502,-6.18,5.68,-0.02,24.78
25431,0.2246,-0.0428,0.89,-6.23,6.64,-0.09,24.79
25441,0.213,-0.043,0.913,-6.27,9.01,-0.09,24.8
25451,0.2426,-0.0439,0.8807,-6.26,9.54,-0.06,24.79
25461,0.2622,-0.0452,0.8527,-6.12,5.4,-0.05,24.8
25471,0.1974,-0.047,0.9131,-6.09,8.2,-0.05,24.79
25481,0.2393,-0.0459,0.8779,-6.17,10.23,0.02,24.79
25491,0.2661,-0.0479,0.8513,-6.2,5.27,-0.03,24.79
25502,0.2405,-0.0499,0.8702,-6.14,5.34,0.0,24.81
25512,0.2023,-0.0491,0.9083,-6.21,9.31,-0.03,24.8
25522,0.2494,-0.0399,0.8826,-6.23,8.85,0.0,24.79
25532,0.2577,-0.0425,0.8822,-6.21,6.37,-0.14,24.78
25542,0.2156,-0.0546,0.9017,-6.21,7.19,-0.06,24.81
25552,0.2074,-0.0552,0.8903,-6.21,10.46,-0.03,24.79
25562,0.2577,-0.0525,0.8495,-6.17,7.51,0.03,24.8
25572,0.2355,-0.0482,0.8839,-6.21,5.57,-0.02,24.79
25582,0.2062,-0.0433,0.9174,-6.17,9.4,0.02,24.77
25592,0.2397,-0.0394,0.8837,-6.2,9.31,-0.02,24.79
25602,0.2563,-0.0394,0.8611,-6.26,6.64,-0.14,24.8
25612,0.2234,-0.0465,0.896,-6.15,6.75,-0.06,24.81
25622,0.2119,-0.0514,0.9027,-6.17,9.53,-0.08,24.79
25632,0.2379,-0.0559,0.873,-6.17,8.89,-0.06,24.8
25642,0.2548,-0.0548,0.8541,-6.11,6.23,-0.05,24.82
25652,0.2124,-0.0544,0.8958,-6.09,7.02,-0.12,24.79
25662,0.219,-0.0433,0.9045,-6.31,9.76,-0.05,24.8
25672,0.2549,-0.0438,0.8712,-6.17,8.2,-0.15,24.8
25682,0.2515,-0.0458,0.8748,-6.23,5.89,-0.17,24.79
25692,0.2054,-0.0555,0.9075,-6.18,8.02,-0.11,24.8
25703,0.1989,-0.0566,0.9124,-6.31,9.44,-0.09,24.81
25713,0.2416,-0.0569,0.8662,-6.11,9.45,0.02,24.82
25723,0.2571,-0.0551,0.8562,-6.11,5.3,-0.02,24.78
25733,0.2137,-0.0497,0.9036,-6.14,7.25,-0.06,24.79
25743,0.2198,-0.0494,0.9049,-6.24,9.66,0.02,24.79
25753,0.2482,-0.0417,0.8799,-6.2,8.2,-0.03,24.79
25763,0.2469,-0.0433,0.8835,-6.23,6.75,0.0,24.8
25773,0.2224,-0.0482,0.8975,-6.18,7.8,-0.12,24.78
25783,0.2251,-0.0514,0.8879,-6.18,9.37,-0.02,24.79
25793,0.2496,-0.0514,0.8562,-6.11,7.4,-0.05,24.8
25803,0.2423,-0.0475,0.8683,-6.06,5.97,-0.08,24.8
25813,0.2175,-0.0431,0.9043,-6.2,7.65,-0.09,24.78
25823,0.2202,-0.0385,0.9103,-6.24,9.8,-0.14,24.78
25833,0.2614,-0.0398,0.8668,-6.21,7.98,0.02,24.8
25843,0.249,-0.0454,0.8662,-6.18,5.33,-0.12,24.8
25853,0.2039,-0.0537,0.906,-6.15,8.15,0.05,24.79
25863,0.2261,-0.0515,0.8812,-6.12,9.51,0.08,24.8
25873,0.2584,-0.0505,0.8667,-6.17,7.4,-0.06,24.79
25883,0.2402,-0.0487,0.8793,-6.26,5.53,-0.05,24.77
25893,0.2007,-0.0444,0.9169,-6.26,9.4,0.02,24.78
25903,0.2498,-0.0425,0.8779,-6.2,9.24,0.03,24.79
25913,0.251,-0.0416,0.8955,-6.29,6.37,-0.05,24.81
25923,0.2155,-0.0499,0.9026,-6.31,9.24,-0.02,24.81
25933,0.2332,-0.0605,0.8616,-6.23,8.93,0.02,24.77
25943,0.2441,-0.0542,0.8563,-6.06,6.53,0.02,24.8
25953,0.2245,-0.0448,0.8977,-6.06,8.09,0.09,24.78
25963,0.2523,-0.0444,0.8745,-6.2,7.77,0.03,24.8
25973,0.2322,-0.0426,0.8837,-6.23,6.56,-0.03,24.79
25983,0.2128,-0.04,0.9053,-6.14,9.63,0.05,24.81
25993,0.2651,-0.0413,0.8722,-6.18,8.0,-0.02,24.79
26003,0.2423,-0.0486,0.8809,-6.18,6.03,-0.11,24.78
26013,0.1985,-0.0573,0.8964,-6.18,9.33,-0.06,24.79
26023,0.2461,-0.0522,0.8632,-6.14,9.01,-0.06,24.75
26033,0.264,-0.0447,0.8674,-6.06,5.68,-0.09,24.79
26043,0.233,-0.0399,0.903,-6.12,6.95,-0.15,24.79
26053,0.2145,-0.0428,0.9119,-6.37,8.49,-0.12,24.78
26063,0.234,-0.0438,0.8866,-6.27,9.83,-0.11,24.81
26073,0.2649,-0.0432,0.8597,-6.26,5.91,-0.02,24.79
26083,0.212,-0.0555,0.9061,-6.09,7.37,-0.03,24.79
26093,0.2186,-0.0582,0.8951,-6.17,10.27,0.06,24.8
26103,0.251,-0.054,0.8478,-6.15,7.85,0.05,24.79
26113,0.243,-0.052,0.8676,-6.05,5.21,0.06,24.81
26123,0.2078,-0.0397,0.9106,-6.08,8.38,-0.02,24.79
26133,0.2385,-0.0342,0.9,-6.15,9.82,-0.08,24.81
26143,0.27,-0.0343,0.8571,-6.32,5.88,-0.03,24.8
26153,0.2167,-0.0463,0.9031,-6.18,7.07,-0.03,24.8
26163,0.2175,-0.0481,0.8848,-6.23,9.98,-0.06,24.79
26173,0.2582,-0.0546,0.8569,-6.05,7.37,-0.02,24.78
26183,0.2413,-0.0551,0.8621,-6.11,5.07,-0.03,24.79
26193,0.2012,-0.0481,0.9153,-6.17,8.49,-0.14,24.79
26203,0.2369,-0.0406,0.9008,-6.17,9.82,-0.03,24.8
26213,0.2712,-0.0393,0.8701,-6.21,6.37,-0.17,24.79
26223,0.2172,-0.0514,0.9054,-6.2,7.24,-0.12,24.79
26233,0.224,-0.0527,0.8827,-6.15,9.71,-0.08,24.78
26243,0.2538,-0.0566,0.8507,-6.11,7.08,-0.12,24.81
26253,0.2295,-0.0514,0.8895,-6.2,6.78,0.03,24.79
26263,0.2327,-0.0483,0.8878,-6.2,8.61,-0.03,24.78
26273,0.2379,-0.0443,0.8827,-6.26,6.87,-0.02,24.77
26283,0.2181,-0.038,0.9044,-6.26,8.99,-0.12,24.78
26293,0.2472,-0.0416,0.8787,-6.2,8.73,-0.12,24.79
26304,0.2587,-0.0428,0.8691,-6.32,7.5,-0.02,24.81
26314,0.2347,-0.0565,0.8859,-6.12,6.81,-0.08,24.82
26324,0.2155,-0.0585,0.887,-6.14,8.61,-0.05,24.8
26334,0.2366,-0.0592,0.8644,-6.18,8.69,-0.12,24.81
26344,0.2511,-0.0469,0.8641,-6.2,5.71,-0.06,24.81
26354,0.222,-0.0426,0.9092,-6.21,7.76,-0.03,24.79
26364,0.2379,-0.0392,0.8929,-6.34,8.75,-0.05,24.78
26375,0.239,-0.0399,0.8835,-6.23,8.09,0.03,24.79
26385,0.2323,-0.0402,0.8928,-6.24,7.83,-0.05,24.8
26395,0.2324,-0.045,0.8923,-6.21,8.79,-0.11,24.8
26405,0.2435,-0.0573,0.8701,-6.21,7.92,-0.05,24.78
26415,0.2343,-0.057,0.866,-6.12,6.84,-0.05,24.79
26425,0.2202,-0.0519,0.8875,-6.12,7.69,-0.02,24.79
26435,0.2205,-0.047,0.8923,-6.2,8.27,0.02,24.81
26445,0.2211,-0.0435,0.8889,-6.17,9.13,0.05,24.82
26455,0.245,-0.0421,0.8708,-6.21,7.63,0.09,24.8
26465,0.2329,-0.0422,0.8861,-6.14,6.92,-0.05,24.8
26475,0.2186,-0.045,0.9042,-6.29,8.81,-0.06,24.79
26485,0.241,-0.0524,0.8824,-6.17,8.44,-0.06,24.8
26495,0.2415,-0.0529,0.8818,-6.24,7.33,-0.06,24.8
26505,0.2339,-0.0585,0.8947,-6.17,8.14,-0.05,24.78
26515,0.2374,-0.0542,0.8884,-6.18,8.02,0.05,24.82
26525,0.2271,-0.0574,0.8896,-6.12,8.76,-0.09,24.79
26535,0.2467,-0.0542,0.8584,-5.97,7.88,-0.06,24.82
26545,0.2371,-0.0461,0.8707,-6.03,7.1,0.0,24.81
26555,0.2318,-0.0422,0.879,-6.11,7.68,-0.03,24.82
26565,0.2355,-0.0417,0.8719,-6.15,7.65,-0.06,24.79
26575,0.2441,-0.0387,0.8718,-6.2,7.1,-0.11,24.8
26585,0.2415,-0.0404,0.8796,-6.18,6.23,-0.17,24.79
26595,0.2152,-0.046,0.9075,-6.18,8.08,-0.08,24.81
26605,0.2291,-0.0476,0.8953,-6.31,8.93,-0.03,24.79
26615,0.2496,-0.0551,0.87,-6.21,7.3,-0.11,24.78
26625,0.2365,-0.0527,0.8921,-6.21,6.58,-0.06,24.8
26635,0.2169,-0.0498,0.9076,-6.27,9.34,-0.08,24.78
26645,0.2538,-0.0518,0.8676,-6.18,7.5,-0.03,24.77
26655,0.2209,-0.0492,0.8918,-6.11,7.16,-0.08,24.76
26665,0.2167,-0.0502,0.9062,-6.17,10.18,0.03,24.8
26675,0.2654,-0.0448,0.8518,-6.2,7.04,-0.06,24.77
26685,0.2515,-0.049,0.87,-6.24,5.74,-0.12,24.78
26695,0.2134,-0.049,0.9019,-6.2,7.22,-0.15,24.78
26705,0.2146,-0.0426,0.9078,-6.15,10.18,-0.11,24.79
26715,0.2626,-0.0436,0.8655,-6.17,7.62,-0.09,24.82
26725,0.2347,-0.0493,0.8831,-6.15,6.18,-0.06,24.82
26735,0.2109,-0.0504,0.9023,-6.21,8.75,-0.06,24.8
26745,0.2357,-0.0515,0.8811,-6.12,8.63,-0.06,24.8
26755,0.2438,-0.0508,0.8684,-6.14,7.57,-0.03,24.77
26765,0.239,-0.0513,0.8638,-6.17,6.64,-0.06,24.77
26775,0.2177,-0.0494,0.8823,-6.18,7.3,-0.03,24.79
26785,0.2152,-0.0408,0.8931,-6.12,9.15,0.0,24.79
26795,0.2551,-0.0374,0.8608,-6.11,7.54,-0.02,24.78
26805,0.2441,-0.0355,0.8855,-6.24,5.47,-0.09,24.8
26815,0.2212,-0.041,0.9132,-6.26,7.86,-0.03,24.8
26825,0.2299,-0.0483,0.9008,-6.32,8.93,-0.11,24.77
26835,0.2512,-0.0493,0.8823,-6.21,7.68,0.02,24.81
26845,0.2341,-0.0575,0.8875,-6.12,7.1,-0.09,24.81
26855,0.2185,-0.059,0.8956,-6.18,8.84,-0.15,24.8
26865,0.2356,-0.0559,0.8695,-6.06,8.72,-0.06,24.8
26875,0.2445,-0.0487,0.8621,-6.05,6.76,-0.06,24.82
26885,0.2256,-0.0454,0.8813,-6.06,7.36,-0.06,24.8
26895,0.2222,-0.043,0.8857,-6.21,8.4,-0.03,24.8
26905,0.2465,-0.0375,0.8682,-6.27,7.97,0.05,24.8
26915,0.2498,-0.0425,0.8683,-6.18,5.92,-0.05,24.83
26925,0.2096,-0.0444,0.9064,-6.38,7.62,-0.03,24.82
26935,0.2336,-0.0432,0.8943,-6.34,9.79,-0.06,24.79
26945,0.2603,-0.0443,0.8718,-6.23,6.63,-0.02,24.81
26955,0.2233,-0.0547,0.8906,-6.08,7.34,-0.03,24.82
26965,0.2196,-0.0558,0.9005,-6.21,9.22,-0.08,24.8
26975,0.2544,-0.0476,0.866,-6.11,8.08,0.03,24.82
26985,0.2448,-0.047,0.8815,-6.27,6.61,-0.11,24.81
26995,0.2301,-0.0471,0.8821,-6.2,7.65,-0.05,24.81
27005,0.2214,-0.0464,0.903,-6.2,8.89,-0.06,24.81
27015,0.254,-0.0414,0.8658,-6.17,8.27,-0.02,24.82
27025,0.2556,-0.0459,0.861,-6.26,7.53,0.03,24.79
27035,0.2393,-0.0507,0.868,-6.17,6.6,-0.05,24.8
27045,0.2174,-0.0557,0.8903,-6.15,8.84,-0.02,24.81
27055,0.2452,-0.0452,0.8754,-6.17,8.06,-0.08,24.83
27065,0.2506,-0.0443,0.8806,-6.17,6.99,-0.02,24.82
27075,0.2357,-0.0424,0.9048,-6.26,7.19,-0.14,24.83
27085,0.2336,-0.0398,0.9022,-6.31,8.43,-0.06,24.81
27095,0.2397,-0.0481,0.8931,-6.29,8.64,-0.08,24.82
27105,0.2501,-0.057,0.8759,-6.31,7.82,-0.02,24.79
27115,0.2347,-0.0631,0.8875,-6.12,7.21,0.08,24.8
27125,0.2217,-0.0627,0.8837,-6.09,8.63,0.03,24.81
27135,0.2385,-0.0536,0.8705,-6.05,8.06,-0.06,24.83
27145,0.2397,-0.0466,0.874,-5.97,6.96,-0.02,24.81
27155,0.2303,-0.0361,0.8877,-6.2,7.8,-0.09,24.84
27165,0.2379,-0.0378,0.877,-6.21,7.79,-0.06,24.82
27175,0.2368,-0.0404,0.8735,-6.27,7.24,-0.09,24.84
27185,0.2372,-0.0448,0.8766,-6.21,7.04,-0.03,24.83
27195,0.2247,-0.0494,0.8956,-6.15,7.79,-0.14,24.8
27205,0.2374,-0.0497,0.879,-6.21,8.44,-0.05,24.84
27215,0.2418,-0.0508,0.8826,-6.14,7.16,-0.11,24.81
27225,0.23,-0.0479,0.8983,-6.26,7.97,-0.03,24.8
27235,0.2335,-0.0463,0.8981,-6.2,8.73,-0.06,24.81
27245,0.2432,-0.0481,0.8691,-6.24,7.66,-0.08,24.84
27255,0.23,-0.0502,0.8757,-6.2,7.27,-0.11,24.8
27265,0.226,-0.0492,0.8829,-6.17,7.79,-0.06,24.81
27275,0.2325,-0.0494,0.8918,-6.26,7.97,0.0,24.83
27285,0.2394,-0.043,0.8846,-6.26,7.63,-0.15,24.79
27295,0.2328,-0.0516,0.8856,-6.14,7.91,-0.03,24.81
27305,0.2399,-0.0511,0.8795,-6.17,7.44,-0.05,24.81
27315,0.2301,-0.0479,0.8986,-6.09,7.85,-0.08,24.81
27325,0.2336,-0.0483,0.8944,-6.23,8.69,0.0,24.8
27335,0.2408,-0.0514,0.8823,-6.14,8.0,0.11,24.82
27345,0.2267,-0.0537,0.884,-6.09,7.76,0.05,24.82
27355,0.2192,-0.0505,0.8849,-6.05,8.4,0.03,24.79
27365,0.2301,-0.0453,0.8801,-6.05,8.53,-0.06,24.81
27375,0.2507,-0.0453,0.8694,-6.02,7.73,-0.02,24.83
