t_ms,accel_x_g,accel_y_g,accel_z_g,gyro_x_dps,gyro_y_dps,gyro_z_dps,imu_temp_c
4164,0.2245,-0.0604,0.8848,-6.06,7.69,0.15,22.72
4215,0.2194,-0.0631,0.8833,-5.92,8.78,0.12,22.73
4225,0.2214,-0.0658,0.8853,-5.91,8.24,0.0,22.72
4235,0.2194,-0.0553,0.8871,-5.92,7.4,-0.06,22.72
4245,0.2289,-0.054,0.8821,-6.17,6.82,-0.06,22.72
4255,0.2273,-0.0503,0.8788,-6.14,7.21,-0.05,22.75
4265,0.2278,-0.0551,0.8804,-6.11,8.09,0.08,22.73
4275,0.2239,-0.0565,0.8801,-5.97,8.67,0.08,22.73
4285,0.2179,-0.0593,0.8885,-5.88,8.49,0.17,22.72
4295,0.2192,-0.0569,0.8853,-5.86,7.71,0.14,22.73
4305,0.2218,-0.0525,0.8839,-5.74,7.6,0.24,22.72
4315,0.2118,-0.0498,0.8834,-5.85,8.14,0.35,22.71
4325,0.2117,-0.031,0.884,-5.63,8.02,0.37,22.71
4335,0.2183,-0.0289,0.8842,-5.82,6.81,0.46,22.72
4345,0.2106,-0.0406,0.8887,-6.43,7.28,0.58,22.69
4355,0.2236,-0.0624,0.8817,-6.98,8.64,0.49,22.71
4365,0.2305,-0.0734,0.8651,-6.72,9.1,0.49,22.72
4375,0.2222,-0.0729,0.8944,-5.85,7.89,0.4,22.72
4385,0.2106,-0.0648,0.9039,-5.83,6.78,0.29,22.72
4395,0.2224,-0.0677,0.8848,-6.31,6.17,0.06,22.72
4405,0.2332,-0.0745,0.8693,-6.44,6.55,0.03,22.73
4415,0.2307,-0.071,0.8663,-5.95,7.95,0.03,22.74
4425,0.2246,-0.0614,0.8785,-5.71,8.85,-0.02,22.72
4435,0.2206,-0.0596,0.894,-5.85,8.82,-0.05,22.74
4445,0.2161,-0.069,0.8884,-6.43,8.44,-0.05,22.75
4455,0.2192,-0.077,0.8824,-6.49,8.18,-0.15,22.71
4465,0.2252,-0.0756,0.875,-6.17,8.08,-0.21,22.72
4475,0.2234,-0.0691,0.8843,-5.88,8.02,-0.21,22.72
4485,0.2183,-0.061,0.8885,-5.88,7.65,-0.27,22.72
4495,0.2222,-0.0559,0.8864,-6.03,7.28,-0.41,22.72
4505,0.2249,-0.0546,0.879,-6.06,7.28,-0.29,22.74
4515,0.2247,-0.051,0.8796,-5.95,7.76,-0.27,22.74
4525,0.2229,-0.0475,0.884,-5.91,8.11,-0.18,22.72
4535,0.2211,-0.0459,0.8882,-6.0,8.14,-0.18,22.72
4545,0.218,-0.0424,0.8835,-6.12,7.95,-0.08,22.75
4555,0.2126,-0.0446,0.8837,-6.21,7.98,-0.11,22.76
4565,0.2136,-0.0448,0.884,-6.06,8.0,-0.11,22.72
4575,0.2152,-0.0455,0.8884,-6.05,7.82,0.02,22.74
4585,0.2202,-0.0442,0.8834,-6.12,7.54,0.02,22.75
4595,0.2277,-0.0477,0.8812,-6.18,7.39,0.0,22.74
4605,0.2253,-0.0531,0.884,-6.11,7.65,0.12,22.74
4615,0.2244,-0.0563,0.8838,-6.05,7.89,0.09,22.72
4625,0.2231,-0.0547,0.8853,-6.06,7.82,0.11,22.73
4635,0.2214,-0.0582,0.8807,-6.2,7.54,0.14,22.74
4645,0.2212,-0.0621,0.8846,-6.27,7.48,0.12,22.74
4655,0.2236,-0.0656,0.8773,-6.12,7.66,0.11,22.76
4665,0.2258,-0.0638,0.8865,-6.06,8.08,0.09,22.77
4675,0.2281,-0.0641,0.8811,-6.09,8.2,0.06,22.75
4685,0.2214,-0.0645,0.8822,-6.02,8.09,0.09,22.74
4695,0.2201,-0.0613,0.8835,-6.12,7.86,0.03,22.74
4705,0.2218,-0.0592,0.8802,-6.2,7.74,0.06,22.74
4715,0.2249,-0.0615,0.879,-6.15,7.76,-0.05,22.75
4725,0.2247,-0.0638,0.8834,-6.08,7.95,0.08,22.76
4735,0.2214,-0.063,0.8861,-6.03,7.95,0.02,22.74
4745,0.22,-0.0625,0.8853,-6.0,7.86,0.02,22.74
4755,0.2217,-0.0575,0.8855,-6.03,7.11,-0.05,22.75
4765,0.2205,-0.0554,0.8822,-6.14,6.98,-0.14,22.77
4775,0.2202,-0.0553,0.8813,-6.11,7.36,-0.18,22.77
4785,0.223,-0.0594,0.8739,-6.14,7.98,-0.17,22.77
4795,0.225,-0.0679,0.8843,-6.14,7.89,-0.06,22.76
4805,0.2311,-0.0554,0.8694,-5.79,8.47,-0.08,22.77
4815,0.2394,-0.0597,0.8867,-5.71,6.38,0.03,22.76
4825,0.2079,-0.0504,0.9032,-6.35,7.04,-0.03,22.76
4835,0.219,-0.0573,0.8793,-6.38,8.34,-0.14,22.77
4845,0.2273,-0.0653,0.8563,-6.09,7.47,-0.03,22.78
4855,0.205,-0.0582,0.8889,-5.76,8.69,-0.11,22.77
4865,0.2158,-0.0496,0.9052,-5.79,8.6,-0.21,22.77
4875,0.2378,-0.0391,0.8868,-6.03,6.0,-0.24,22.75
4885,0.243,-0.0493,0.8783,-6.55,5.48,-0.15,22.78
4895,0.2324,-0.0631,0.8647,-6.76,8.29,-0.14,22.78
4905,0.2258,-0.0535,0.8727,-5.85,10.05,-0.08,22.78
4915,0.2083,-0.052,0.8906,-5.63,9.37,-0.02,22.76
4925,0.217,-0.063,0.9006,-6.02,7.68,-0.02,22.78
4935,0.2198,-0.0665,0.8861,-6.76,7.21,-0.09,22.79
4945,0.2284,-0.0664,0.8734,-6.37,7.82,0.03,22.77
4955,0.2322,-0.0548,0.8754,-5.65,8.02,0.05,22.8
4965,0.2194,-0.0496,0.8879,-5.65,8.26,0.03,22.78
4975,0.2129,-0.0494,0.8901,-6.11,7.88,0.06,22.79
4985,0.2164,-0.0586,0.8796,-6.14,7.18,0.17,22.79
4995,0.2225,-0.058,0.8817,-6.11,6.75,0.15,22.78
5005,0.2169,-0.052,0.884,-6.0,6.84,0.09,22.8
5015,0.2239,-0.0522,0.8876,-6.02,6.63,0.05,22.78
5025,0.2258,-0.0553,0.8727,-6.31,6.7,0.02,22.78
5035,0.2275,-0.062,0.8738,-6.18,7.62,0.14,22.79
5045,0.219,-0.0608,0.8778,-5.88,8.52,0.14,22.77
5055,0.2157,-0.0511,0.8926,-5.59,8.03,0.14,22.78
5065,0.2169,-0.0535,0.8956,-5.95,6.75,0.0,22.77
5075,0.2217,-0.0566,0.8802,-6.52,6.96,-0.09,22.78
5085,0.2225,-0.0605,0.8678,-6.55,8.34,0.03,22.78
5095,0.2299,-0.0609,0.8761,-5.91,8.93,-0.03,22.79
5105,0.2249,-0.0544,0.8861,-5.74,8.27,-0.03,22.77
5115,0.2185,-0.0566,0.9004,-6.06,7.71,-0.09,22.77
5125,0.2266,-0.0607,0.8798,-6.5,7.21,-0.15,22.79
5135,0.23,-0.067,0.8718,-6.4,7.45,-0.18,22.8
5145,0.226,-0.0663,0.8752,-6.11,8.17,-0.12,22.79
5155,0.2198,-0.0621,0.8915,-5.85,8.84,-0.15,22.8
5166,0.2133,-0.0615,0.8915,-5.97,8.35,-0.32,22.81
5176,0.2217,-0.0618,0.879,-6.23,7.56,-0.31,22.8
5186,0.2255,-0.0636,0.8839,-6.24,7.47,-0.31,22.79
5196,0.2249,-0.0612,0.8772,-6.14,8.0,-0.27,22.79
5206,0.2241,-0.0597,0.8867,-6.02,8.44,-0.2,22.8
5216,0.2223,-0.059,0.8788,-6.06,8.15,-0.24,22.8
5226,0.2191,-0.0603,0.8842,-6.11,7.92,-0.23,22.8
5236,0.2129,-0.0546,0.8871,-6.02,7.65,-0.17,22.8
5246,0.2168,-0.0547,0.8855,-6.02,7.33,-0.18,22.82
5256,0.2201,-0.0536,0.8821,-6.11,6.92,-0.24,22.82
5267,0.2217,-0.0558,0.8802,-5.98,6.89,-0.18,22.84
5277,0.2263,-0.0548,0.8835,-6.06,7.3,-0.15,22.82
5287,0.225,-0.0547,0.8832,-6.12,7.48,-0.24,22.82
5297,0.2233,-0.0547,0.8861,-6.11,7.59,-0.14,22.81
5307,0.2206,-0.0541,0.8883,-6.05,7.28,-0.09,22.81
5317,0.2164,-0.0538,0.8817,-6.06,7.27,-0.14,22.79
5327,0.2227,-0.052,0.8828,-6.15,7.31,-0.06,22.82
5337,0.2208,-0.0562,0.8774,-6.08,7.69,-0.09,22.8
5347,0.2196,-0.0565,0.8811,-6.09,7.91,-0.03,22.82
5357,0.2214,-0.0555,0.8859,-6.05,7.74,-0.08,22.82
5367,0.2169,-0.0576,0.8876,-6.11,7.57,-0.06,22.83
5377,0.2203,-0.059,0.8828,-6.17,7.42,-0.14,22.82
5387,0.2225,-0.0601,0.8818,-6.15,7.5,-0.09,22.8
5397,0.2229,-0.0614,0.8855,-6.11,7.73,-0.08,22.82
5407,0.2257,-0.0603,0.8812,-6.11,7.77,-0.14,22.81
5417,0.2222,-0.0632,0.8833,-6.12,7.79,-0.14,22.8
5427,0.2233,-0.0619,0.8824,-6.08,7.74,-0.2,22.83
5437,0.2209,-0.0627,0.8827,-6.06,7.79,-0.14,22.82
5447,0.2275,-0.0642,0.8829,-6.11,7.51,-0.23,22.8
5457,0.2227,-0.0612,0.8831,-6.0,7.63,-0.21,22.81
5467,0.2195,-0.0651,0.8839,-6.14,7.65,-0.27,22.81
5477,0.2186,-0.0601,0.8867,-6.02,8.06,-0.17,22.81
5487,0.2262,-0.062,0.8798,-6.18,7.6,-0.23,22.8
5497,0.2251,-0.0575,0.8784,-5.95,7.68,-0.12,22.82
5507,0.2181,-0.0554,0.8887,-5.92,7.65,-0.23,22.82
5517,0.2179,-0.0531,0.8813,-5.95,8.38,-0.21,22.82
5527,0.2244,-0.0511,0.8826,-6.06,7.21,-0.32,22.83
5537,0.2242,-0.0527,0.8782,-6.09,7.05,-0.34,22.84
5547,0.2244,-0.0508,0.8861,-6.18,7.54,-0.27,22.84
5557,0.2172,-0.0537,0.8871,-6.14,8.44,-0.24,22.84
5567,0.2247,-0.0575,0.885,-6.03,8.26,-0.18,22.82
5577,0.2212,-0.0568,0.8826,-6.17,7.56,-0.31,22.84
5587,0.2213,-0.0574,0.8837,-6.14,7.82,-0.2,22.82
5597,0.2234,-0.063,0.8795,-6.17,7.8,-0.26,22.82
5607,0.2278,-0.0663,0.8839,-6.03,7.53,-0.29,22.84
5617,0.2139,-0.0542,0.8802,-6.05,7.33,-0.17,22.83
5627,0.2261,-0.0609,0.887,-6.08,7.69,-0.08,22.83
5637,0.2346,-0.0468,0.8518,-6.27,6.5,-0.12,22.81
5647,0.2437,-0.0605,0.8844,-5.95,7.19,-0.17,22.83
5657,0.1959,-0.052,0.8756,-6.02,8.15,-0.02,22.82
5667,0.2069,-0.063,0.9299,-5.82,9.25,0.02,22.8
5677,0.2279,-0.0498,0.8658,-6.15,6.82,0.03,22.81
5687,0.2417,-0.0522,0.8975,-6.2,6.82,0.0,22.81
5697,0.2448,-0.0654,0.851,-6.49,6.41,-0.02,22.82
5707,0.2346,-0.053,0.8801,-5.56,7.86,0.11,22.83
5717,0.2122,-0.0638,0.8905,-6.23,7.51,-0.05,22.83
5727,0.2089,-0.0447,0.8876,-5.62,8.85,0.06,22.85
5737,0.2386,-0.0643,0.8905,-6.67,6.2,-0.08,22.83
5747,0.2155,-0.051,0.8562,-6.08,7.57,0.03,22.82
5757,0.2338,-0.0625,0.9001,-6.29,7.63,-0.08,22.82
5767,0.2133,-0.0531,0.8577,-5.88,8.66,-0.02,22.81
5777,0.2312,-0.0614,0.9152,-5.86,7.82,-0.09,22.81
5787,0.2073,-0.0581,0.8716,-6.41,7.98,-0.09,22.83
5797,0.2363,-0.064,0.8979,-6.06,8.05,-0.12,22.83
5807,0.2229,-0.0587,0.861,-6.38,7.25,-0.17,22.82
5817,0.2297,-0.0621,0.8932,-5.79,8.84,-0.06,22.85
5827,0.218,-0.066,0.8798,-6.38,8.02,-0.18,22.83
5837,0.2214,-0.0652,0.8806,-5.91,8.78,-0.05,22.84
5847,0.2153,-0.0662,0.8907,-6.18,6.98,-0.26,22.85
5857,0.2139,-0.0599,0.8845,-5.85,7.94,-0.21,22.84
5867,0.229,-0.0621,0.8916,-6.18,6.66,-0.18,22.86
5877,0.2238,-0.0498,0.8643,-6.0,7.3,-0.15,22.84
5887,0.2384,-0.0554,0.886,-6.12,6.75,-0.08,22.83
5897,0.2155,-0.0465,0.8751,-5.92,7.91,-0.03,22.84
5908,0.2274,-0.0513,0.8988,-5.94,7.95,0.02,22.84
5918,0.2129,-0.0431,0.8759,-6.17,8.31,-0.05,22.82
5928,0.2255,-0.0516,0.8835,-6.18,8.53,-0.03,22.85
5939,0.2177,-0.0503,0.8751,-6.31,8.43,-0.06,22.85
5949,0.2205,-0.0503,0.8883,-6.0,8.82,-0.05,22.83
5959,0.2175,-0.0529,0.8914,-6.31,8.14,-0.09,22.84
5969,0.2252,-0.0547,0.8827,-6.17,7.95,-0.17,22.84
5979,0.228,-0.0641,0.8789,-6.31,7.44,-0.12,22.84
5989,0.2214,-0.0634,0.8744,-6.08,8.47,-0.02,22.84
5999,0.2211,-0.0638,0.8865,-6.03,8.6,0.03,22.87
6009,0.2184,-0.0614,0.8865,-5.95,8.43,0.0,22.84
6019,0.2189,-0.0635,0.8907,-6.12,7.19,0.06,22.84
6029,0.2192,-0.0591,0.8813,-6.29,7.02,-0.02,22.82
6039,0.2297,-0.0649,0.8771,-6.27,7.3,0.0,22.84
6049,0.2231,-0.0631,0.8761,-5.98,8.17,0.11,22.85
6059,0.2217,-0.0618,0.8871,-5.97,8.46,0.06,22.85
6069,0.2123,-0.0554,0.887,-5.97,8.08,-0.05,22.84
6079,0.2189,-0.0544,0.8929,-6.12,7.47,-0.11,22.85
6089,0.2258,-0.0551,0.8771,-6.21,7.31,-0.09,22.85
6099,0.2262,-0.0565,0.8774,-6.15,7.83,-0.08,22.83
6109,0.2257,-0.0563,0.8785,-5.97,8.05,-0.06,22.84
6119,0.217,-0.052,0.8848,-5.97,8.09,-0.11,22.86
6129,0.2228,-0.0543,0.8882,-6.14,7.66,-0.06,22.85
6139,0.2202,-0.0592,0.8832,-6.12,7.4,-0.17,22.86
6149,0.2216,-0.0608,0.8806,-6.15,7.27,-0.15,22.84
6159,0.2153,-0.0581,0.8807,-6.08,7.74,-0.14,22.83
6169,0.2186,-0.056,0.8883,-6.02,8.08,-0.05,22.82
6179,0.2202,-0.0531,0.8811,-6.23,8.06,-0.14,22.85
6189,0.2231,-0.0569,0.8893,-6.17,8.17,-0.14,22.84
6199,0.22,-0.0602,0.8821,-6.35,8.34,-0.08,22.85
6209,0.2262,-0.0616,0.8767,-6.09,8.23,-0.14,22.84
6219,0.223,-0.0574,0.8867,-6.08,7.91,-0.15,22.87
6229,0.2207,-0.0613,0.8877,-6.02,8.47,-0.08,22.84
6239,0.2277,-0.0552,0.8872,-6.02,8.11,-0.14,22.82
6249,0.2202,-0.0514,0.882,-6.08,7.68,-0.08,22.85
6259,0.2159,-0.053,0.8783,-6.03,7.39,-0.02,22.84
6269,0.2166,-0.0502,0.8824,-6.15,7.54,-0.02,22.84
6279,0.2177,-0.0518,0.8865,-6.2,7.79,-0.05,22.84
6289,0.2227,-0.0536,0.8805,-6.2,8.05,-0.03,22.85
6299,0.2253,-0.0577,0.8799,-6.06,7.85,-0.02,22.83
6309,0.2238,-0.0559,0.8824,-6.06,7.48,-0.06,22.84
6319,0.2157,-0.0559,0.8917,-5.98,7.57,-0.06,22.87
6329,0.2234,-0.0522,0.8861,-6.03,7.22,-0.09,22.85
6339,0.2173,-0.0516,0.8817,-6.18,7.21,-0.08,22.84
6349,0.2183,-0.0544,0.885,-6.18,7.82,-0.2,22.87
6359,0.2174,-0.0547,0.8815,-6.09,8.46,-0.09,22.86
6369,0.2274,-0.0623,0.8854,-6.08,7.88,-0.06,22.85
6379,0.2269,-0.0623,0.8783,-6.18,7.18,-0.11,22.89
6389,0.2211,-0.0641,0.8885,-6.27,7.33,-0.05,22.84
6399,0.2183,-0.0636,0.8778,-6.11,7.68,-0.05,22.86
6409,0.2235,-0.0613,0.884,-6.02,8.06,0.02,22.87
6419,0.2222,-0.059,0.8833,-6.08,8.08,-0.03,22.86
6429,0.2213,-0.0549,0.8849,-5.86,7.92,0.03,22.87
6439,0.2173,-0.0553,0.8838,-6.11,7.62,-0.05,22.86
6449,0.2174,-0.0558,0.8794,-6.05,7.6,0.05,22.87
6459,0.2213,-0.0525,0.8827,-6.09,7.71,-0.08,22.85
6469,0.2184,-0.054,0.8788,-6.15,7.89,-0.05,22.89
6479,0.2214,-0.0575,0.8818,-6.14,7.83,-0.08,22.86
6489,0.2175,-0.0612,0.8794,-6.15,7.69,-0.06,22.89
6499,0.2224,-0.0643,0.8887,-6.05,7.53,-0.21,22.84
6509,0.2212,-0.0598,0.8831,-6.0,7.53,-0.21,22.85
6519,0.229,-0.057,0.8828,-6.06,7.37,-0.14,22.88
6529,0.2283,-0.0585,0.8777,-6.05,7.22,-0.12,22.88
6539,0.2289,-0.0569,0.8801,-5.98,7.73,-0.18,22.85
6549,0.2218,-0.0596,0.8839,-6.08,7.85,-0.06,22.89
6559,0.2184,-0.0577,0.8879,-6.08,8.12,-0.08,22.89
6569,0.2218,-0.0586,0.8864,-6.12,7.66,-0.06,22.87
6579,0.2228,-0.056,0.887,-6.18,7.77,-0.09,22.88
6589,0.2308,-0.0603,0.8669,-6.12,7.16,-0.05,22.87
6599,0.2194,-0.0551,0.8854,-5.82,7.71,0.06,22.87
6609,0.2162,-0.0559,0.8894,-5.97,8.15,0.06,22.85
6619,0.2166,-0.0455,0.8894,-5.91,7.73,-0.08,22.87
6629,0.2125,-0.0426,0.8926,-6.14,7.63,-0.08,22.86
6639,0.2271,-0.0503,0.8788,-6.29,7.95,0.02,22.87
6649,0.2349,-0.0522,0.8694,-6.23,7.51,-0.06,22.86
6659,0.2242,-0.0548,0.8827,-5.98,7.85,-0.09,22.84
6669,0.2134,-0.0549,0.8911,-6.06,8.26,-0.15,22.87
6679,0.2169,-0.0588,0.8872,-6.09,7.82,-0.09,22.87
6689,0.2239,-0.0602,0.8832,-6.2,7.33,-0.03,22.87
6699,0.2231,-0.0607,0.8748,-6.11,7.57,-0.08,22.85
6709,0.226,-0.0552,0.8793,-6.09,7.83,-0.09,22.88
6719,0.2189,-0.0549,0.8802,-6.14,8.15,-0.12,22.87
6729,0.218,-0.0583,0.8855,-6.15,8.0,-0.09,22.86
6739,0.2218,-0.0625,0.8824,-6.21,7.79,0.0,22.86
6749,0.2273,-0.069,0.8798,-6.23,7.71,-0.06,22.85
6759,0.2286,-0.0594,0.8802,-6.15,7.68,-0.06,22.88
6769,0.2269,-0.0599,0.8857,-5.97,7.73,0.0,22.89
6779,0.2223,-0.0582,0.8829,-6.06,7.57,-0.11,22.87
6789,0.2229,-0.056,0.884,-6.06,7.91,-0.05,22.85
6799,0.2219,-0.0558,0.8796,-6.05,7.97,-0.03,22.87
6809,0.2227,-0.0551,0.8806,-6.05,7.92,-0.12,22.9
6819,0.2228,-0.0532,0.8835,-6.12,7.77,-0.17,22.88
6829,0.2163,-0.0546,0.8871,-6.02,7.86,-0.15,22.9
6839,0.225,-0.056,0.8812,-6.12,7.73,-0.17,22.86
6849,0.2212,-0.0587,0.8795,-6.15,7.83,-0.15,22.86
6859,0.2249,-0.0587,0.8871,-5.98,7.94,-0.12,22.88
6869,0.2186,-0.0571,0.8856,-6.18,7.85,-0.12,22.89
6879,0.2223,-0.0594,0.8881,-6.12,7.73,-0.11,22.88
6889,0.2223,-0.058,0.8818,-6.08,7.71,-0.14,22.9
6899,0.2225,-0.0602,0.885,-6.11,7.83,-0.06,22.87
6909,0.2219,-0.0602,0.8806,-6.15,7.86,-0.12,22.88
6919,0.2206,-0.0579,0.8798,-6.02,7.8,0.02,22.88
6930,0.223,-0.0557,0.8829,-6.11,7.65,0.02,22.87
6940,0.2216,-0.0535,0.8818,-6.12,7.48,-0.06,22.9
6950,0.2216,-0.0554,0.8822,-6.09,7.69,-0.09,22.88
6960,0.2246,-0.0543,0.8817,-6.03,7.82,-0.09,22.87
6971,0.2211,-0.0548,0.8857,-6.02,7.74,-0.11,22.87
6981,0.2214,-0.0544,0.8805,-6.11,7.74,-0.06,22.88
6991,0.2217,-0.0541,0.8807,-6.18,7.69,-0.11,22.89
7001,0.2222,-0.0576,0.8824,-6.14,7.69,-0.09,22.88
7011,0.2222,-0.059,0.8799,-6.18,7.95,-0.08,22.89
7021,0.2213,-0.0592,0.8856,-6.2,8.0,-0.02,22.87
7031,0.2207,-0.0643,0.8804,-6.12,7.92,-0.11,22.88
7041,0.2225,-0.0607,0.8834,-6.06,7.91,-0.14,22.88
7051,0.2194,-0.0582,0.8859,-6.02,7.77,-0.15,22.87
7061,0.2244,-0.0592,0.8804,-5.98,7.54,-0.09,22.88
7071,0.2205,-0.0585,0.8787,-6.17,7.59,-0.11,22.88
7081,0.2212,-0.0559,0.8827,-6.11,7.76,-0.12,22.89
7091,0.223,-0.0527,0.8813,-6.18,7.91,-0.11,22.9
7101,0.2197,-0.0544,0.8843,-6.11,8.05,-0.15,22.88
7111,0.2233,-0.0555,0.8785,-6.18,7.57,-0.08,22.89
7121,0.2229,-0.0554,0.8851,-6.15,7.57,-0.09,22.9
7131,0.2151,-0.0582,0.8893,-6.05,8.09,-0.14,22.89
7141,0.2341,-0.0559,0.8727,-6.03,7.73,-0.15,22.91
7151,0.2225,-0.0588,0.8845,-5.88,7.4,-0.17,22.89
7161,0.2169,-0.0569,0.8876,-5.95,7.85,-0.11,22.89
7171,0.2246,-0.054,0.8877,-6.03,7.73,-0.08,22.87
7181,0.2213,-0.054,0.8759,-6.15,7.51,-0.2,22.9
7191,0.22,-0.0552,0.8879,-6.11,8.03,-0.06,22.91
7201,0.2211,-0.0564,0.8785,-6.23,8.38,-0.06,22.88
7211,0.2251,-0.0568,0.8811,-6.08,8.15,-0.05,22.88
7221,0.2175,-0.0601,0.8784,-6.15,7.6,-0.09,22.89
7231,0.2196,-0.0564,0.8895,-6.06,7.54,-0.09,22.91
7241,0.2233,-0.0531,0.8857,-6.03,7.11,-0.06,22.91
7251,0.2289,-0.0552,0.8768,-6.12,6.92,-0.12,22.87
7261,0.226,-0.0546,0.8782,-6.17,7.51,-0.02,22.89
7271,0.2239,-0.057,0.8804,-6.06,8.34,0.08,22.89
7281,0.2238,-0.0591,0.8882,-6.11,8.29,-0.03,22.89
7291,0.2201,-0.0549,0.887,-6.18,8.02,0.06,22.9
7301,0.2153,-0.0564,0.8878,-6.06,7.68,0.06,22.87
7311,0.2168,-0.0581,0.8809,-6.21,7.65,0.03,22.93
7321,0.2223,-0.0594,0.8801,-6.09,8.12,-0.05,22.9
7331,0.2253,-0.0549,0.8816,-5.97,8.29,-0.03,22.91
7341,0.2225,-0.0533,0.8912,-6.11,7.85,-0.09,22.89
7351,0.2225,-0.0515,0.8894,-6.18,7.34,-0.03,22.9
7361,0.2239,-0.0586,0.8843,-6.12,7.39,-0.09,22.9
7371,0.2251,-0.0605,0.8792,-6.24,7.53,-0.15,22.89
7381,0.2275,-0.0597,0.8805,-6.0,7.86,-0.18,22.88
7391,0.2214,-0.0627,0.882,-6.17,8.08,-0.12,22.9
7401,0.2222,-0.0604,0.8837,-6.11,8.06,-0.02,22.87
7411,0.2198,-0.0616,0.8842,-6.14,7.79,-0.09,22.88
7421,0.2214,-0.0587,0.8837,-6.0,7.77,-0.11,22.89
7431,0.2244,-0.057,0.8788,-6.02,7.69,0.0,22.91
7442,0.2211,-0.0575,0.8864,-6.11,8.02,-0.02,22.9
7452,0.2333,-0.0537,0.8798,-6.06,7.31,-0.02,22.89
7463,0.2271,-0.0552,0.8766,-6.06,7.79,0.03,22.9
7473,0.2256,-0.0532,0.8799,-6.08,7.24,-0.11,22.91
7483,0.2161,-0.0532,0.8885,-6.08,7.76,-0.05,22.92
7493,0.2191,-0.0543,0.8831,-6.08,8.03,-0.05,22.92
7503,0.2213,-0.0568,0.8838,-6.14,7.74,-0.06,22.91
7513,0.2213,-0.0546,0.8846,-6.14,7.48,-0.03,22.92
7523,0.2213,-0.0541,0.8878,-6.11,7.59,-0.09,22.9
7533,0.2257,-0.0557,0.8845,-6.21,7.53,-0.14,22.92
7543,0.228,-0.0555,0.8815,-6.12,7.31,-0.06,22.91
7553,0.225,-0.0588,0.8823,-6.09,7.66,-0.03,22.89
7563,0.222,-0.0569,0.8851,-6.08,7.91,-0.05,22.91
7573,0.2219,-0.0565,0.8824,-6.05,7.76,-0.03,22.92
7583,0.2244,-0.059,0.8842,-6.02,7.53,0.03,22.92
7593,0.2219,-0.0588,0.8821,-6.14,7.79,-0.11,22.93
7603,0.2223,-0.057,0.8789,-6.12,8.08,0.0,22.9
7613,0.2222,-0.0597,0.8818,-6.09,8.11,-0.02,22.92
7623,0.2239,-0.0596,0.8878,-6.14,8.15,0.0,22.94
7633,0.223,-0.0594,0.8824,-6.21,8.06,-0.03,22.93
7643,0.2245,-0.0613,0.8834,-6.09,7.91,-0.11,22.9
7653,0.2246,-0.0605,0.8792,-6.09,7.76,-0.06,22.91
7663,0.2198,-0.059,0.8833,-6.05,8.03,-0.03,22.91
7673,0.2212,-0.0571,0.8818,-6.05,8.06,-0.06,22.91
7683,0.2196,-0.056,0.8829,-6.17,7.94,-0.09,22.91
7693,0.2192,-0.0571,0.8826,-6.21,7.77,-0.15,22.91
7703,0.2217,-0.0593,0.8873,-6.17,7.83,-0.11,22.92
7713,0.2245,-0.0594,0.8834,-6.08,7.98,-0.17,22.91
7723,0.2223,-0.0592,0.8837,-6.12,7.8,-0.09,22.92
7733,0.2228,-0.0551,0.884,-6.03,7.66,-0.14,22.93
7743,0.2216,-0.0562,0.8812,-6.06,7.54,-0.17,22.92
7753,0.2205,-0.0536,0.882,-6.18,7.68,-0.08,22.94
7763,0.2218,-0.0535,0.8811,-6.03,7.97,-0.08,22.91
7773,0.2257,-0.0516,0.8822,-6.15,8.05,0.0,22.92
7783,0.2214,-0.0538,0.879,-6.18,8.05,0.02,22.92
7793,0.2201,-0.0554,0.8865,-6.08,7.95,-0.05,22.92
7803,0.2177,-0.0565,0.8839,-6.12,7.85,0.0,22.92
7813,0.2223,-0.0547,0.8807,-6.02,7.5,-0.03,22.91
7823,0.222,-0.0553,0.8824,-6.17,7.44,-0.09,22.9
7833,0.2247,-0.0547,0.8802,-6.14,7.56,-0.06,22.9
7843,0.2223,-0.0548,0.8833,-6.09,7.8,-0.03,22.92
7853,0.2264,-0.0582,0.8812,-6.17,7.77,-0.06,22.92
7863,0.2207,-0.0615,0.8865,-6.09,7.62,-0.03,22.9
7873,0.2223,-0.0647,0.8844,-6.14,7.62,-0.14,22.89
7883,0.2261,-0.061,0.8817,-6.03,7.57,-0.12,22.92
7893,0.225,-0.0587,0.8821,-6.06,7.65,-0.09,22.92
7903,0.2219,-0.0601,0.8798,-6.11,7.91,0.0,22.93
7913,0.2231,-0.0597,0.8818,-6.2,7.98,-0.05,22.9
7923,0.2241,-0.0597,0.882,-6.09,8.05,-0.03,22.92
7933,0.2207,-0.0564,0.8827,-6.12,7.95,-0.08,22.9
7943,0.2197,-0.0571,0.8843,-6.05,7.89,-0.12,22.9
7953,0.2207,-0.0554,0.8817,-6.11,7.77,-0.06,22.91
7963,0.2205,-0.0574,0.8773,-6.02,7.59,-0.05,22.92
7973,0.2203,-0.0515,0.8818,-5.97,7.57,-0.09,22.93
7983,0.2216,-0.0514,0.8822,-6.11,7.53,-0.08,22.92
7993,0.2219,-0.0533,0.8795,-6.12,7.73,-0.06,22.91
8003,0.2245,-0.0544,0.8804,-6.15,7.94,-0.11,22.92
8013,0.2231,-0.061,0.8821,-6.11,7.92,-0.02,22.92
8023,0.2222,-0.059,0.8862,-6.06,7.86,-0.12,22.93
8033,0.2229,-0.0636,0.8857,-6.12,7.74,-0.02,22.93
8043,0.2234,-0.0593,0.8823,-6.06,7.68,-0.02,22.92
8054,0.2222,-0.0582,0.8834,-6.03,7.76,-0.08,22.93
8064,0.2238,-0.057,0.8793,-6.02,7.86,-0.05,22.96
8074,0.2198,-0.0564,0.8837,-6.03,7.89,-0.08,22.94
8084,0.2213,-0.0541,0.8845,-6.14,7.85,-0.06,22.92
8094,0.2211,-0.0558,0.8844,-6.18,7.88,-0.05,22.93
8104,0.2225,-0.0558,0.8824,-6.14,7.95,-0.08,22.94
8114,0.2235,-0.0598,0.8802,-6.12,7.95,-0.05,22.94
8124,0.2201,-0.058,0.8848,-6.12,7.88,-0.12,22.93
8135,0.2184,-0.059,0.8835,-6.05,7.68,-0.06,22.92
8145,0.2241,-0.0557,0.8871,-6.12,7.51,-0.12,22.95
8155,0.2212,-0.0586,0.8822,-6.12,7.59,-0.12,22.92
8177,0.22,-0.0564,0.882,-6.0,8.02,-0.02,22.94
8187,0.2216,-0.0548,0.8856,-6.06,7.98,0.0,22.9
8197,0.2208,-0.0569,0.8817,-6.09,7.85,-0.06,22.92
8207,0.225,-0.0591,0.8843,-6.05,7.79,-0.06,22.93
8217,0.2214,-0.0574,0.8843,-6.03,7.86,-0.06,22.95
8227,0.2201,-0.0555,0.8854,-6.18,7.82,-0.11,22.95
8237,0.2216,-0.056,0.8796,-6.08,7.8,-0.12,22.94
8247,0.2229,-0.0575,0.8838,-6.14,7.66,-0.17,22.92
8257,0.2228,-0.0568,0.8794,-6.17,7.63,-0.08,22.92
8267,0.2185,-0.0576,0.8794,-6.17,7.79,-0.11,22.94
8277,0.2225,-0.0576,0.8838,-6.11,7.86,-0.11,22.92
8287,0.2223,-0.0602,0.8837,-6.11,7.86,-0.14,22.95
8297,0.2222,-0.0575,0.8831,-6.02,7.8,-0.15,22.95
8307,0.2227,-0.0568,0.8842,-6.08,7.91,-0.15,22.94
8317,0.224,-0.0563,0.8799,-6.08,7.68,-0.06,22.94
8327,0.2234,-0.0566,0.88,-6.18,7.53,-0.06,22.94
8337,0.2192,-0.0553,0.8802,-6.11,7.73,-0.08,22.94
8347,0.219,-0.0553,0.8802,-6.12,8.08,0.05,22.98
8357,0.2209,-0.0571,0.8827,-5.98,8.02,-0.11,22.94
8367,0.2202,-0.0573,0.8851,-6.05,7.82,-0.08,22.95
8377,0.2178,-0.0544,0.8846,-6.05,7.56,-0.08,22.94
8387,0.2189,-0.053,0.8832,-6.11,7.63,-0.14,22.94
8397,0.2202,-0.0562,0.8835,-6.08,7.68,-0.05,22.94
8407,0.2233,-0.0553,0.88,-6.02,7.69,-0.11,22.96
8417,0.2201,-0.0582,0.8804,-6.17,7.97,-0.18,22.94
8427,0.2217,-0.0569,0.88,-6.18,7.97,-0.11,22.94
8437,0.2209,-0.0581,0.8804,-6.08,7.89,-0.15,22.95
8447,0.2238,-0.057,0.8846,-6.15,7.76,-0.24,22.95
8457,0.2217,-0.0505,0.8845,-6.15,7.89,-0.11,22.95
8467,0.2235,-0.0547,0.881,-6.24,7.89,-0.06,22.93
8477,0.2233,-0.0549,0.8784,-6.14,7.89,-0.06,22.93
8487,0.223,-0.0581,0.8801,-6.17,8.08,-0.03,22.95
8497,0.2206,-0.0562,0.8824,-6.02,8.26,0.02,22.94
8507,0.2198,-0.0552,0.8844,-6.15,8.11,-0.11,22.93
8517,0.2205,-0.0552,0.8811,-6.14,7.71,0.0,22.94
8527,0.2203,-0.0557,0.877,-6.11,7.56,-0.08,22.97
8537,0.2211,-0.0544,0.8827,-6.06,7.76,-0.11,22.96
8547,0.2188,-0.054,0.8822,-6.14,8.17,0.0,22.94
8557,0.2174,-0.0544,0.8811,-6.18,8.2,-0.06,22.96
8567,0.2185,-0.0569,0.8865,-6.08,7.95,-0.06,22.94
8577,0.2229,-0.0574,0.8887,-6.15,7.45,-0.03,22.96
8587,0.2212,-0.0562,0.8843,-6.26,7.54,-0.03,22.94
8597,0.2213,-0.0596,0.8777,-6.06,7.74,-0.06,22.93
8607,0.2227,-0.0629,0.879,-6.09,7.83,-0.11,22.92
8617,0.222,-0.0618,0.8881,-5.98,7.89,-0.06,22.95
8627,0.2202,-0.0621,0.8881,-6.12,7.71,-0.06,22.95
8637,0.2224,-0.0632,0.8826,-6.17,7.44,-0.02,22.95
8647,0.2235,-0.0623,0.8826,-6.12,7.22,0.0,22.95
8657,0.2209,-0.0601,0.8801,-6.12,7.59,-0.05,22.94
8667,0.2092,-0.0653,0.9008,-5.98,7.79,0.03,22.94
8677,0.2251,-0.0769,0.8892,-6.11,9.89,0.11,22.95
8687,0.2344,-0.0557,0.8929,-6.03,8.31,-0.08,22.97
8697,0.2465,-0.0613,0.8771,-6.06,5.92,-0.09,22.96
8707,0.2236,-0.0499,0.8821,-6.06,6.32,-0.09,22.93
8717,0.2217,-0.0547,0.8906,-6.27,7.85,-0.12,22.94
8727,0.2401,-0.0505,0.8594,-5.91,7.82,-0.08,22.94
8737,0.2327,-0.0496,0.8788,-6.0,6.38,-0.05,22.93
8747,0.2013,-0.0498,0.8984,-6.09,7.86,-0.09,22.94
8757,0.2153,-0.0483,0.8938,-6.23,8.11,-0.08,22.95
8767,0.2211,-0.0564,0.8732,-6.41,8.0,-0.11,22.95
8777,0.2284,-0.0601,0.8741,-6.03,8.44,-0.09,22.96
8787,0.2203,-0.0597,0.8876,-5.95,8.53,-0.06,22.96
8797,0.2262,-0.0594,0.8871,-5.97,7.97,-0.03,22.97
8807,0.2285,-0.0602,0.88,-6.17,6.81,-0.09,22.96
8817,0.2235,-0.0599,0.8767,-6.15,6.9,-0.08,22.95
8827,0.2211,-0.0605,0.8806,-6.2,7.98,-0.02,22.96
8837,0.2236,-0.0525,0.8788,-5.91,8.61,-0.02,22.94
8847,0.2224,-0.0566,0.8851,-6.09,8.15,0.0,22.95
8857,0.2114,-0.0583,0.8905,-6.12,7.85,-0.02,22.97
8867,0.2162,-0.0566,0.8896,-6.23,7.71,-0.05,22.96
8877,0.228,-0.0583,0.8777,-6.15,7.4,-0.02,22.95
8887,0.231,-0.0594,0.8818,-6.06,7.16,-0.05,22.93
8897,0.2174,-0.0586,0.8833,-6.09,7.95,-0.02,22.97
8907,0.2211,-0.059,0.8866,-6.02,8.41,-0.02,22.95
8917,0.2241,-0.0582,0.8782,-5.97,7.88,-0.17,22.96
8927,0.2192,-0.0554,0.8871,-6.02,7.25,-0.11,22.93
8937,0.2164,-0.057,0.8855,-6.03,7.48,-0.17,22.97
8947,0.2261,-0.0593,0.8761,-6.06,7.74,-0.05,22.94
8957,0.228,-0.0579,0.8756,-6.15,7.69,-0.12,22.97
8967,0.2217,-0.0575,0.8888,-5.94,8.09,-0.09,22.96
8977,0.2142,-0.0543,0.8918,-6.06,8.18,-0.05,22.97
8987,0.2252,-0.056,0.8821,-6.21,7.47,0.05,22.97
8997,0.2245,-0.054,0.8755,-6.23,6.92,-0.09,22.98
9007,0.2219,-0.059,0.8809,-6.06,7.8,0.0,22.97
9017,0.2181,-0.058,0.8857,-5.89,8.52,0.02,22.97
9027,0.2194,-0.0535,0.8859,-5.94,8.15,-0.03,22.95
9037,0.2164,-0.0513,0.8878,-6.05,7.37,0.03,22.98
9047,0.2167,-0.0505,0.8873,-6.12,7.28,-0.08,22.97
9057,0.2255,-0.0515,0.8805,-6.11,7.45,-0.09,22.96
9067,0.2285,-0.0548,0.875,-6.18,7.79,-0.05,22.95
9077,0.2203,-0.0559,0.8846,-6.17,8.52,-0.02,22.97
9087,0.2218,-0.0604,0.8868,-6.11,8.7,0.05,22.97
9097,0.2241,-0.0618,0.8799,-6.17,7.97,0.05,22.94
9107,0.2256,-0.0632,0.8875,-6.09,7.25,0.02,22.97
9117,0.2213,-0.0635,0.885,-6.11,7.51,-0.06,22.96
9127,0.2242,-0.061,0.8792,-6.11,7.76,-0.03,22.95
9137,0.2266,-0.0593,0.8777,-6.09,7.79,-0.08,22.95
9147,0.2214,-0.0605,0.882,-6.05,8.06,-0.05,22.97
9157,0.22,-0.0582,0.8838,-6.05,8.35,-0.02,22.97
9167,0.2233,-0.0603,0.8816,-6.15,7.92,-0.05,22.96
9406,0.2279,-0.0532,0.8744,-6.21,7.65,-0.06,23.0
9416,0.2236,-0.0625,0.8724,-6.32,8.08,-0.02,22.99
9426,0.2205,-0.0608,0.8838,-5.92,9.15,0.03,22.97
9436,0.2172,-0.0583,0.8927,-6.11,7.8,-0.08,22.96
9446,0.222,-0.0535,0.8881,-6.15,6.82,-0.11,22.98
9456,0.2241,-0.0566,0.8805,-6.53,6.52,-0.17,22.96
9467,0.223,-0.0598,0.8748,-6.11,8.12,-0.03,22.98
9477,0.2217,-0.0598,0.8829,-5.95,8.93,-0.08,22.98
9487,0.219,-0.0537,0.887,-5.98,8.38,-0.08,22.99
9497,0.2148,-0.0526,0.8954,-6.08,6.98,-0.15,22.99
9507,0.2177,-0.058,0.8821,-6.34,6.67,-0.2,23.0
9517,0.2271,-0.0608,0.8755,-6.21,7.53,-0.09,22.98
9527,0.2279,-0.0613,0.8762,-5.97,8.06,-0.09,22.99
9537,0.2228,-0.0547,0.891,-5.95,8.56,-0.05,22.99
9547,0.2178,-0.0526,0.8909,-6.08,8.05,-0.06,22.97
9557,0.2231,-0.0558,0.8855,-6.2,7.6,-0.05,22.99
9567,0.2206,-0.0565,0.8784,-6.14,7.22,-0.08,22.97
9577,0.2196,-0.0527,0.8813,-6.02,7.86,-0.14,22.99
9587,0.2194,-0.0531,0.8843,-6.12,8.15,-0.08,23.0
9597,0.2216,-0.0533,0.8865,-5.97,8.05,-0.12,22.97
9607,0.2217,-0.0524,0.886,-6.15,7.76,-0.06,22.98
9617,0.2194,-0.0596,0.8833,-6.18,7.79,-0.03,22.99
9627,0.2231,-0.0582,0.8843,-6.09,7.85,-0.09,22.97
9637,0.2218,-0.058,0.8816,-6.11,7.74,-0.08,22.97
9647,0.2195,-0.0598,0.8823,-6.09,7.71,-0.03,23.0
9657,0.2209,-0.0568,0.8801,-6.09,7.86,-0.02,22.98
9667,0.2228,-0.0557,0.8864,-6.08,7.74,-0.05,22.98
9677,0.2194,-0.0527,0.8875,-6.06,7.59,-0.09,22.98
9687,0.2224,-0.054,0.8844,-6.2,7.57,-0.14,22.96
9697,0.217,-0.0591,0.8781,-6.17,7.73,-0.08,22.99
9707,0.2233,-0.0592,0.8787,-6.14,7.97,-0.08,22.97
9717,0.2228,-0.0624,0.8815,-6.14,7.83,-0.12,23.0
9727,0.2239,-0.0591,0.8883,-6.06,7.77,-0.12,22.98
9737,0.2207,-0.0607,0.886,-6.15,7.59,-0.17,23.01
9747,0.2238,-0.0602,0.8815,-6.08,7.4,-0.05,22.96
9757,0.2235,-0.0591,0.8801,-6.06,7.54,-0.17,22.99
9767,0.2216,-0.0571,0.8813,-6.08,7.98,-0.11,22.97
9777,0.2217,-0.0571,0.8805,-6.09,8.09,-0.06,22.99
9787,0.2196,-0.0564,0.8804,-6.12,7.89,-0.12,22.99
9797,0.2195,-0.056,0.885,-6.15,7.8,-0.11,22.96
9807,0.22,-0.0563,0.8795,-6.17,7.77,-0.11,22.97
9817,0.2242,-0.0535,0.8842,-6.08,7.77,-0.05,22.97
9827,0.2234,-0.0522,0.8818,-6.09,7.79,-0.11,22.98
9837,0.2203,-0.0532,0.8846,-6.08,7.79,-0.12,22.99
9847,0.2175,-0.051,0.8839,-6.08,7.79,-0.03,22.98
9857,0.2192,-0.0533,0.8862,-6.14,7.69,-0.05,22.99
9867,0.2202,-0.0542,0.8838,-6.14,7.68,0.0,22.99
9877,0.2235,-0.0548,0.8785,-6.24,7.8,0.02,22.99
9887,0.2212,-0.0542,0.8821,-6.15,7.91,0.08,22.99
9897,0.2213,-0.0594,0.8829,-6.03,8.0,0.02,23.01
9907,0.2201,-0.0558,0.8859,-5.98,7.73,0.0,22.97
9917,0.2197,-0.0548,0.8812,-6.02,7.48,0.02,22.98
9927,0.2184,-0.0546,0.8826,-6.17,7.42,0.0,22.98
9937,0.2211,-0.0569,0.8807,-6.08,7.74,-0.02,22.98
9947,0.2214,-0.0573,0.8821,-6.2,8.11,0.02,22.99
9957,0.2222,-0.0573,0.8856,-6.09,8.15,0.02,22.97
9967,0.2195,-0.0592,0.8883,-6.11,7.98,-0.08,22.99
9977,0.22,-0.0593,0.8839,-6.17,7.71,-0.02,22.99
9987,0.2255,-0.0598,0.8788,-6.11,7.63,-0.14,22.99
9997,0.2245,-0.0641,0.8784,-6.18,7.85,-0.11,22.98
10007,0.2203,-0.0603,0.8845,-6.11,8.0,-0.06,22.99
10017,0.2206,-0.0613,0.886,-6.03,7.98,-0.02,23.0
10027,0.2224,-0.0625,0.8857,-6.12,7.89,0.0,22.97
10037,0.2183,-0.0562,0.8855,-6.15,7.76,-0.05,22.98
10047,0.2229,-0.0553,0.8828,-6.11,7.57,0.0,22.96
10057,0.218,-0.0552,0.8809,-6.14,7.91,0.0,23.0
10067,0.2224,-0.056,0.8822,-6.06,8.08,-0.11,23.0
10077,0.2245,-0.0553,0.8834,-6.02,8.14,-0.08,23.01
10087,0.2224,-0.0576,0.8844,-6.08,7.74,0.06,22.97
10097,0.2218,-0.0587,0.8861,-6.06,7.68,-0.03,22.99
10107,0.2206,-0.057,0.8881,-6.06,7.71,0.0,22.98
10117,0.2223,-0.0541,0.8785,-6.03,7.59,-0.02,22.98
10127,0.2252,-0.0547,0.8833,-6.06,7.68,-0.02,22.97
10137,0.2185,-0.0538,0.8805,-6.12,8.23,-0.03,22.99
10147,0.2201,-0.0596,0.8774,-6.15,8.34,0.02,22.99
10157,0.2216,-0.0609,0.884,-6.15,7.86,-0.05,22.99
10167,0.2158,-0.0564,0.8827,-6.11,7.77,-0.05,22.97
10177,0.2185,-0.0541,0.8894,-6.0,7.85,-0.05,23.0
10187,0.223,-0.0529,0.8811,-6.2,7.68,-0.14,22.99
10197,0.231,-0.0603,0.874,-6.21,7.34,-0.12,22.99
10207,0.2223,-0.0581,0.8762,-6.18,7.62,-0.05,22.99
10217,0.2268,-0.0641,0.8835,-6.03,8.18,-0.02,22.99
10227,0.2256,-0.0619,0.8887,-6.09,8.03,-0.09,22.99
10237,0.2219,-0.064,0.889,-6.03,7.74,-0.14,23.0
10247,0.2185,-0.0618,0.8853,-6.06,7.33,-0.09,23.01
10257,0.2191,-0.0587,0.8811,-5.98,7.66,-0.14,23.01
10267,0.2217,-0.0568,0.8849,-6.06,7.8,-0.12,23.02
10277,0.2214,-0.05,0.8842,-6.02,8.08,-0.05,23.01
10287,0.2206,-0.056,0.8851,-6.2,7.95,-0.02,23.01
10297,0.2211,-0.0581,0.8837,-6.24,8.05,-0.02,22.99
10307,0.2273,-0.0607,0.8793,-6.05,7.77,-0.05,23.0
10317,0.2201,-0.0569,0.8873,-6.02,7.77,-0.02,23.0
10327,0.2157,-0.0492,0.8901,-5.97,7.8,0.05,22.99
10337,0.2168,-0.0493,0.8857,-6.14,7.62,-0.05,22.97
10347,0.22,-0.0514,0.8826,-6.17,7.45,-0.05,22.99
10357,0.2225,-0.0547,0.8831,-6.17,7.89,-0.02,22.99
10367,0.2189,-0.0546,0.8817,-6.06,8.4,0.0,22.98
10377,0.2203,-0.058,0.886,-6.06,8.11,-0.02,23.0
10387,0.2196,-0.0568,0.8871,-6.18,7.53,0.02,22.99
10397,0.2244,-0.058,0.8789,-6.26,7.15,-0.02,23.0
10407,0.2255,-0.0634,0.8783,-6.17,7.8,-0.08,23.0
10417,0.2278,-0.0626,0.881,-6.02,8.17,-0.06,23.0
10427,0.2219,-0.0629,0.8842,-6.06,8.03,-0.05,22.98
10437,0.2141,-0.063,0.8859,-6.08,7.5,-0.14,22.99
10447,0.2211,-0.0602,0.8845,-6.17,7.39,-0.11,23.0
10457,0.2262,-0.0579,0.8798,-6.11,7.66,-0.11,23.01
10467,0.2268,-0.0574,0.877,-6.18,8.09,-0.09,23.01
10477,0.2246,-0.0547,0.8776,-5.97,8.02,-0.08,23.01
10487,0.2098,-0.0577,0.8871,-5.98,8.06,-0.05,23.01
10497,0.208,-0.0554,0.8972,-6.09,8.2,-0.12,22.99
10507,0.217,-0.0514,0.8864,-6.14,7.56,-0.09,23.02
10517,0.2273,-0.0522,0.8761,-6.15,7.04,-0.11,23.01
10527,0.2257,-0.0542,0.88,-6.06,7.25,-0.06,23.0
10537,0.2257,-0.0543,0.8831,-6.03,8.0,-0.12,23.02
10547,0.223,-0.0548,0.8837,-6.03,8.03,-0.12,22.99
10557,0.2209,-0.0557,0.8854,-6.08,7.48,-0.11,23.01
10567,0.2194,-0.0602,0.8868,-6.17,7.31,-0.14,23.02
10577,0.224,-0.0579,0.8801,-6.21,7.4,-0.15,23.0
10587,0.2223,-0.0608,0.8782,-6.05,7.8,-0.11,22.99
10597,0.2244,-0.0577,0.8806,-6.0,8.18,-0.06,23.0
10607,0.2181,-0.0541,0.8873,-5.98,8.27,-0.06,22.99
10617,0.2181,-0.0524,0.8892,-6.09,7.71,-0.03,23.02
10627,0.2219,-0.0486,0.8871,-6.21,7.31,-0.05,23.02
10637,0.2247,-0.0505,0.8739,-6.26,7.47,-0.03,23.02
10647,0.2275,-0.0563,0.8762,-6.15,8.17,-0.02,22.98
10657,0.2224,-0.0594,0.8831,-6.05,8.64,0.02,23.01
10667,0.2142,-0.0582,0.8894,-5.97,8.18,-0.06,23.01
10677,0.2141,-0.053,0.8945,-6.05,7.4,-0.06,23.01
10687,0.2207,-0.0562,0.8813,-6.23,6.84,-0.14,23.02
10697,0.2264,-0.0543,0.8754,-6.24,7.39,-0.05,22.99
10707,0.2249,-0.0568,0.8733,-6.09,8.29,0.05,23.0
10717,0.2214,-0.0541,0.8837,-5.94,8.75,-0.08,23.0
10727,0.2174,-0.0573,0.8928,-6.06,8.35,-0.03,23.03
10737,0.2177,-0.0566,0.8905,-6.24,7.45,-0.05,23.01
10747,0.2222,-0.0602,0.8809,-6.24,7.04,0.06,23.0
10757,0.2255,-0.0597,0.8749,-6.23,7.54,-0.05,23.0
10767,0.2245,-0.0593,0.8785,-6.11,8.24,-0.06,22.99
10777,0.2189,-0.0555,0.886,-6.02,8.46,-0.09,23.02
10787,0.2141,-0.0565,0.891,-6.14,8.03,-0.12,23.02
10797,0.217,-0.0555,0.8887,-6.24,7.34,-0.11,23.01
10807,0.2223,-0.0559,0.881,-6.23,6.99,-0.15,23.04
10817,0.2213,-0.0547,0.8783,-6.12,7.47,-0.2,23.02
10827,0.2253,-0.0576,0.882,-6.15,7.92,-0.12,23.05
10837,0.2235,-0.0592,0.8784,-6.17,8.09,-0.11,23.01
10847,0.2214,-0.0634,0.8802,-6.11,7.89,-0.15,23.03
10857,0.2198,-0.0614,0.8862,-6.11,7.71,-0.12,23.03
10867,0.2211,-0.0599,0.8842,-6.11,7.56,-0.11,23.03
10877,0.2178,-0.0564,0.879,-5.98,7.53,-0.12,23.0
10887,0.2224,-0.0562,0.8818,-6.05,7.91,-0.11,22.99
10897,0.2233,-0.0531,0.8802,-6.06,7.98,-0.09,23.03
10907,0.2208,-0.0548,0.8827,-6.05,7.86,-0.02,23.04
10917,0.2198,-0.0527,0.887,-6.23,7.77,0.0,23.04
10927,0.2218,-0.0511,0.8842,-6.17,7.51,0.03,23.02
10937,0.2196,-0.0555,0.8862,-6.11,7.62,-0.06,23.02
10947,0.2241,-0.0573,0.8827,-6.12,7.85,-0.11,23.0
10957,0.2223,-0.0645,0.8793,-6.14,7.88,-0.05,23.04
10967,0.2191,-0.0603,0.8851,-6.09,7.73,-0.05,23.03
10977,0.22,-0.0571,0.8875,-6.06,7.25,-0.08,23.01
10987,0.2216,-0.0596,0.881,-6.17,7.13,-0.08,23.02
10997,0.225,-0.0646,0.8796,-6.2,7.45,-0.03,23.01
11007,0.2209,-0.0632,0.8779,-6.17,8.08,-0.06,23.03
11017,0.2234,-0.0607,0.8839,-6.05,8.18,0.03,23.01
11027,0.2151,-0.0594,0.8905,-6.18,8.11,-0.05,23.0
11037,0.2192,-0.0607,0.8887,-6.14,7.5,-0.11,23.01
11047,0.225,-0.0586,0.881,-6.06,7.05,-0.09,23.03
11057,0.2266,-0.0614,0.8802,-6.11,7.44,-0.12,23.0
11067,0.2241,-0.0596,0.8795,-6.05,7.77,-0.11,23.02
11077,0.2216,-0.0515,0.8829,-5.82,8.49,-0.11,23.03
11087,0.2126,-0.052,0.8877,-6.26,8.05,-0.14,23.01
11097,0.2123,-0.0527,0.8909,-6.12,8.0,-0.15,23.03
11107,0.2247,-0.0498,0.8821,-6.12,6.72,-0.24,23.04
11117,0.2252,-0.0549,0.881,-6.14,7.3,-0.12,23.02
11127,0.2201,-0.0538,0.8784,-6.31,8.11,-0.18,23.01
11137,0.2225,-0.0588,0.8789,-6.03,8.64,-0.14,23.0
11147,0.2195,-0.0616,0.8812,-6.05,7.76,-0.17,23.02
11157,0.2159,-0.0562,0.8884,-6.0,7.18,-0.21,23.03
11167,0.2186,-0.0487,0.889,-6.15,6.99,-0.12,23.03
11177,0.2214,-0.0509,0.8792,-6.21,7.3,-0.03,23.04
11187,0.2246,-0.0573,0.876,-6.11,8.0,0.08,23.04
11197,0.2231,-0.058,0.8788,-6.03,8.56,0.03,23.03
11207,0.2225,-0.0587,0.8921,-6.09,8.6,0.11,23.03
11217,0.2203,-0.0621,0.8904,-6.15,7.42,0.05,23.02
11227,0.2271,-0.059,0.8817,-6.23,6.58,0.05,23.03
11237,0.2274,-0.0585,0.8705,-6.27,6.78,-0.06,23.03
11247,0.2255,-0.0602,0.8774,-6.14,8.31,-0.02,23.03
11257,0.2186,-0.0588,0.8831,-6.03,9.08,0.09,23.0
11267,0.2161,-0.0575,0.8889,-5.95,8.81,0.09,23.05
11277,0.2128,-0.0542,0.8905,-6.14,7.42,-0.12,23.01
11287,0.218,-0.0577,0.886,-6.29,6.89,-0.18,23.03
11297,0.2281,-0.0558,0.8772,-6.24,7.04,-0.23,23.04
11307,0.2238,-0.0598,0.8732,-6.06,8.09,-0.21,23.04
11317,0.2235,-0.0599,0.8816,-5.97,8.55,-0.15,23.06
11327,0.2188,-0.0571,0.8933,-6.05,8.17,-0.2,23.03
11337,0.2188,-0.0575,0.8912,-6.15,7.22,-0.17,23.05
11347,0.2245,-0.0582,0.8873,-6.21,6.92,-0.17,23.03
11357,0.2302,-0.0587,0.8734,-6.18,7.47,-0.15,23.03
11367,0.2262,-0.062,0.8716,-6.08,8.29,-0.08,23.02
11377,0.2168,-0.0587,0.8812,-5.98,8.79,-0.05,23.05
11387,0.2173,-0.056,0.8883,-6.09,8.41,-0.05,23.02
11397,0.2173,-0.0548,0.8877,-6.15,7.47,-0.11,23.03
11407,0.2217,-0.0497,0.8805,-6.12,6.92,-0.11,23.05
11417,0.2208,-0.0547,0.8783,-6.26,7.42,0.02,23.04
11427,0.2184,-0.0509,0.8857,-6.05,8.44,-0.05,23.04
11437,0.2183,-0.0505,0.8833,-6.11,8.63,-0.05,23.01
11447,0.2214,-0.0555,0.8915,-6.17,7.92,-0.03,23.05
11457,0.2207,-0.0538,0.8878,-6.14,7.25,-0.05,23.03
11467,0.2234,-0.0553,0.8842,-6.26,7.31,-0.12,23.04
11477,0.2244,-0.0548,0.8772,-6.18,7.48,-0.11,23.05
11487,0.2266,-0.0582,0.8813,-6.09,8.08,-0.06,23.02
11497,0.2186,-0.0576,0.8833,-5.98,8.34,-0.06,23.04
11507,0.2223,-0.0588,0.8901,-6.05,8.23,0.0,23.04
11517,0.2194,-0.0577,0.8872,-6.26,7.66,-0.06,23.05
11527,0.218,-0.0614,0.8834,-6.17,7.4,-0.03,23.04
11537,0.2203,-0.0651,0.8834,-6.15,7.53,-0.11,23.03
11547,0.2238,-0.0605,0.8805,-6.12,7.79,-0.05,23.05
11557,0.2255,-0.0638,0.8848,-6.05,7.94,-0.06,23.02
11567,0.2162,-0.0604,0.8862,-6.05,7.66,-0.17,23.05
11577,0.2189,-0.0586,0.8915,-6.21,7.31,-0.15,23.04
11587,0.2206,-0.0569,0.8832,-6.21,7.3,-0.08,23.02
11597,0.2251,-0.0555,0.8801,-6.18,7.8,-0.09,23.02
11607,0.2209,-0.0588,0.8799,-6.05,8.31,-0.02,23.01
11617,0.2207,-0.0592,0.8864,-6.03,8.31,-0.03,23.04
11627,0.2178,-0.0551,0.89,-6.09,7.74,-0.18,23.05
11637,0.2191,-0.0533,0.885,-6.17,7.33,-0.06,23.06
11647,0.2234,-0.0541,0.8772,-6.2,7.27,-0.03,23.03
11657,0.2209,-0.0535,0.8818,-6.17,7.69,-0.02,23.03
11667,0.2206,-0.052,0.8845,-6.09,8.2,0.02,23.01
11677,0.2189,-0.0509,0.8865,-6.17,8.02,0.0,23.05
11687,0.2234,-0.0565,0.8875,-6.26,7.63,-0.06,23.06
11697,0.222,-0.0585,0.8811,-6.12,7.53,-0.02,23.04
11707,0.2256,-0.0576,0.8805,-6.11,7.27,-0.03,23.04
11717,0.2252,-0.058,0.8776,-6.15,7.66,-0.03,23.03
11727,0.2201,-0.0587,0.8848,-6.06,8.03,-0.05,23.05
11737,0.2207,-0.0605,0.8887,-6.03,8.32,-0.02,23.05
11747,0.2233,-0.0598,0.8842,-6.06,7.85,0.05,23.04
11757,0.2283,-0.0573,0.8848,-6.03,7.42,0.02,23.05
11767,0.2219,-0.0593,0.8796,-6.14,7.6,0.08,23.04
11777,0.2183,-0.0543,0.8796,-6.0,8.02,0.02,23.04
11787,0.2183,-0.0575,0.8875,-6.03,8.18,-0.02,23.05
11797,0.2146,-0.0565,0.8893,-6.12,7.92,-0.14,23.02
11807,0.2203,-0.0587,0.8844,-6.2,7.51,-0.09,23.02
11817,0.2218,-0.0625,0.881,-6.18,7.48,-0.11,23.04
11827,0.2256,-0.0598,0.8812,-6.08,7.66,-0.18,23.06
11837,0.223,-0.0602,0.8835,-5.97,7.85,-0.2,23.04
11847,0.2218,-0.0619,0.8856,-6.11,7.74,-0.17,23.04
11857,0.2273,-0.0598,0.8817,-6.09,7.45,-0.14,23.04
11867,0.2299,-0.0604,0.88,-6.11,7.42,-0.14,23.05
11877,0.2264,-0.057,0.8802,-6.09,7.54,-0.05,23.04
11887,0.2235,-0.0544,0.8833,-6.09,7.88,-0.12,23.05
11897,0.2245,-0.0585,0.8815,-6.21,8.03,-0.06,23.05
11907,0.2209,-0.0554,0.8815,-6.09,8.2,-0.02,23.06
11917,0.2167,-0.0576,0.8845,-6.06,8.17,0.0,23.06
11927,0.2145,-0.0541,0.8856,-6.02,7.71,-0.05,23.04
11937,0.2189,-0.0496,0.884,-6.11,7.4,0.05,23.03
11947,0.2188,-0.05,0.8859,-6.14,7.42,-0.08,23.04
11957,0.2189,-0.0477,0.8788,-6.12,7.69,-0.08,23.05
11967,0.2205,-0.0481,0.8865,-5.98,7.98,-0.03,23.07
11977,0.2205,-0.0477,0.8853,-6.15,7.79,-0.08,23.04
11987,0.2209,-0.0519,0.8875,-6.24,7.36,-0.18,23.05
11997,0.2235,-0.0583,0.8851,-6.26,7.34,-0.18,23.07
12007,0.2294,-0.0635,0.8816,-6.17,7.62,-0.18,23.04
12017,0.2274,-0.0649,0.8802,-6.0,7.98,-0.15,23.04
12027,0.2234,-0.0637,0.8838,-6.11,7.98,-0.12,23.08
12037,0.2263,-0.066,0.8835,-6.11,7.66,-0.14,23.05
12047,0.2227,-0.0702,0.8785,-6.23,7.63,-0.05,23.05
12057,0.2212,-0.0688,0.8792,-6.06,7.92,-0.05,23.06
12067,0.224,-0.0635,0.8817,-6.03,8.2,0.0,23.05
12077,0.2236,-0.0601,0.8832,-5.92,8.17,0.03,23.02
12087,0.2189,-0.0541,0.8834,-6.08,7.88,-0.02,23.05
12097,0.2178,-0.0522,0.8881,-6.08,7.73,-0.03,23.05
12107,0.2189,-0.0479,0.8801,-6.08,7.69,0.02,23.06
12117,0.2224,-0.0458,0.8838,-5.95,7.62,-0.14,23.04
12127,0.2222,-0.0421,0.8831,-6.17,7.53,-0.15,23.05
12137,0.2101,-0.045,0.8838,-6.2,7.66,-0.12,23.05
12147,0.2153,-0.0524,0.8977,-6.11,8.7,-0.06,23.05
12157,0.2236,-0.0494,0.8805,-6.09,8.84,0.0,23.07
12168,0.2209,-0.0503,0.8817,-6.14,8.81,-0.03,23.04
12178,0.228,-0.0594,0.8762,-6.29,6.35,-0.14,23.07
12188,0.2142,-0.064,0.8744,-6.34,7.21,0.06,23.09
12198,0.2212,-0.0701,0.886,-6.27,7.97,-0.02,23.07
12208,0.224,-0.0729,0.8754,-6.02,8.46,-0.05,23.05
12218,0.22,-0.063,0.8896,-5.95,8.11,0.05,23.04
12228,0.2142,-0.0602,0.8912,-5.97,8.0,0.17,23.05
12238,0.1986,-0.0703,0.9125,-6.08,7.68,0.2,23.08
12248,0.2454,-0.0396,0.8743,-6.23,7.79,0.38,23.06
12258,0.2106,-0.0527,0.9037,-6.08,7.76,0.41,23.07
12268,0.2333,-0.0552,0.8705,-5.89,6.67,0.31,23.07
12278,0.1913,-0.0503,0.928,-6.06,10.26,0.12,23.06
12288,0.2502,-0.0687,0.8676,-6.26,6.87,0.03,23.07
12298,0.2228,-0.0543,0.9014,-5.91,7.04,-0.09,23.05
12308,0.2351,-0.0656,0.8777,-6.18,8.41,-0.24,23.07
12318,0.2155,-0.0593,0.899,-5.89,7.01,-0.12,23.07
12328,0.2317,-0.0618,0.8861,-6.03,8.41,-0.09,23.06
12338,0.2297,-0.0609,0.8774,-6.26,7.4,-0.06,23.04
12348,0.2271,-0.0697,0.8754,-6.21,7.68,-0.11,23.07
12358,0.2205,-0.064,0.8837,-6.17,8.26,-0.05,23.07
12368,0.2208,-0.0641,0.8767,-6.14,8.29,-0.08,23.06
12378,0.2106,-0.0598,0.8838,-6.12,7.56,-0.02,23.07
12388,0.2104,-0.058,0.8856,-6.29,8.14,-0.11,23.08
12398,0.2206,-0.0571,0.8762,-6.11,8.12,-0.05,23.07
12408,0.2223,-0.0616,0.8755,-6.02,7.82,-0.06,23.05
12418,0.1921,-0.05,0.9016,-6.18,8.06,-0.02,23.05
12428,0.2134,-0.05,0.8894,-5.83,7.13,0.02,23.06
12438,0.2114,-0.0554,0.88,-6.32,8.44,0.06,23.05
12448,0.2275,-0.0601,0.8761,-6.21,7.33,0.09,23.08
12458,0.2343,-0.054,0.8722,-5.8,9.73,0.08,23.05
12468,0.2159,-0.0658,0.8884,-6.08,7.33,-0.06,23.09
12478,0.1946,-0.0402,0.905,-5.65,8.43,-0.02,23.07
12488,0.2142,-0.0602,0.8988,-6.85,6.64,-0.23,23.08
12498,0.2072,-0.0497,0.865,-6.26,9.44,-0.05,23.07
12509,0.2288,-0.068,0.8988,-6.4,8.79,-0.15,23.07
12519,0.2062,-0.0475,0.8586,-5.73,9.13,0.05,23.05
12529,0.2173,-0.0591,0.9211,-6.0,7.65,-0.02,23.06
12539,0.2034,-0.0623,0.8762,-6.7,6.0,-0.21,23.07
12549,0.224,-0.068,0.9003,-6.11,8.61,-0.09,23.07
12559,0.2175,-0.0657,0.8591,-6.44,7.62,-0.11,23.07
12569,0.2205,-0.0557,0.8939,-5.5,9.36,0.08,23.09
12579,0.2163,-0.0593,0.8838,-6.34,7.33,0.02,23.08
12589,0.222,-0.0553,0.8778,-5.79,8.41,0.05,23.04
12599,0.2314,-0.0656,0.886,-6.55,6.24,-0.15,23.07
12609,0.2168,-0.0555,0.8763,-5.89,8.41,-0.17,23.09
12619,0.2327,-0.0627,0.899,-6.12,7.16,-0.2,23.09
12629,0.2188,-0.0548,0.8671,-6.02,7.83,-0.11,23.06
12639,0.2314,-0.068,0.895,-6.24,6.95,-0.14,23.09
12649,0.213,-0.0591,0.8604,-6.06,8.24,-0.06,23.04
12659,0.2692,-0.0514,0.8359,-5.92,4.06,-0.46,23.04
12669,0.1747,-0.047,0.8634,-6.31,9.28,-0.23,23.08
12679,0.1912,-0.0635,0.8748,-6.02,8.0,-0.14,23.06
12689,0.1963,-0.0347,0.8917,-6.5,8.73,-0.26,23.06
12699,0.2456,-0.0579,0.8571,-6.11,7.39,-0.06,23.06
12709,0.2028,-0.0388,0.9084,-6.21,6.99,-0.06,23.07
12719,0.2451,-0.0549,0.8555,-5.83,6.0,0.02,23.08
12729,0.1931,-0.0475,0.925,-6.09,8.4,-0.14,23.08
12739,0.2433,-0.0563,0.8677,-5.94,7.4,-0.08,23.04
12749,0.2405,-0.0576,0.8794,-6.09,5.69,0.0,23.04
12759,0.2311,-0.059,0.8698,-6.21,8.37,-0.02,23.06
12769,0.2306,-0.0585,0.8898,-6.14,6.85,-0.05,23.07
12779,0.2178,-0.0577,0.8796,-6.06,8.53,-0.08,23.06
12789,0.2279,-0.0571,0.8922,-6.09,7.44,-0.17,23.06
12799,0.2219,-0.0548,0.8801,-6.23,7.33,-0.17,23.07
12809,0.2316,-0.0583,0.8788,-6.17,6.93,-0.12,23.05
12819,0.2222,-0.0667,0.8799,-6.27,7.63,-0.11,23.06
12829,0.2128,-0.0537,0.885,-5.97,7.92,-0.11,23.08
12839,0.2191,-0.0708,0.8967,-6.08,8.03,-0.02,23.08
12849,0.2181,-0.0531,0.8597,-6.12,6.81,-0.02,23.06
12859,0.2393,-0.0723,0.8856,-6.29,6.69,-0.08,23.07
12869,0.209,-0.0627,0.8663,-5.95,8.12,-0.03,23.06
12879,0.2144,-0.0693,0.9258,-5.91,9.04,-0.08,23.07
12889,0.2145,-0.0522,0.8706,-6.02,8.29,-0.06,23.09
12899,0.2419,-0.0642,0.903,-6.31,7.02,-0.2,23.07
12909,0.2346,-0.0645,0.8502,-6.63,7.22,-0.21,23.07
12919,0.2466,-0.0634,0.8805,-5.57,7.97,-0.09,23.08
12929,0.2136,-0.048,0.8817,-6.11,7.56,-0.17,23.08
12939,0.2142,-0.0475,0.902,-5.69,8.41,-0.05,23.07
12949,0.2208,-0.054,0.8861,-6.69,6.58,-0.23,23.09
12959,0.2219,-0.0551,0.8651,-6.11,7.83,-0.2,23.08
12969,0.2273,-0.0607,0.8884,-6.18,7.68,-0.23,23.09
12979,0.21,-0.0482,0.8768,-5.77,9.04,-0.14,23.07
12989,0.2239,-0.0557,0.9053,-6.05,7.57,-0.14,23.08
12999,0.2134,-0.0487,0.869,-6.27,7.53,-0.06,23.08
13009,0.2335,-0.0604,0.895,-6.26,7.3,-0.06,23.09
13019,0.2123,-0.0449,0.8693,-6.08,8.21,-0.05,23.07
13029,0.2321,-0.0536,0.8967,-5.94,8.12,-0.02,23.05
13039,0.2151,-0.0472,0.8698,-6.32,7.63,-0.02,23.06
13049,0.2229,-0.0579,0.8889,-5.97,8.06,0.08,23.07
13059,0.2166,-0.059,0.8772,-6.37,7.73,-0.12,23.07
13069,0.2263,-0.0536,0.8896,-5.94,8.18,-0.05,23.08
13079,0.2174,-0.0555,0.8848,-6.21,7.18,-0.14,23.07
13089,0.2205,-0.0592,0.8843,-6.02,8.03,0.05,23.09
13099,0.2255,-0.0631,0.8789,-6.38,7.47,-0.08,23.08
13109,0.2218,-0.0592,0.8773,-5.92,8.32,0.08,23.09
13119,0.2257,-0.0651,0.8923,-6.08,7.4,-0.08,23.08
13129,0.2184,-0.0591,0.8794,-6.09,7.8,-0.06,23.09
13139,0.2296,-0.0619,0.8816,-6.27,7.22,-0.09,23.08
13150,0.2197,-0.0656,0.8713,-6.11,8.0,0.0,23.1
13160,0.2258,-0.0667,0.8879,-6.0,8.11,-0.05,23.09
13170,0.2133,-0.0546,0.8813,-6.02,8.17,-0.06,23.09
13180,0.2239,-0.0574,0.8903,-6.11,7.59,-0.03,23.07
13190,0.2196,-0.0564,0.8737,-6.34,6.81,-0.17,23.06
13200,0.2234,-0.0548,0.8868,-6.05,7.76,-0.15,23.06
13210,0.22,-0.0505,0.8811,-6.14,8.5,-0.11,23.07
13220,0.223,-0.0511,0.8823,-6.0,8.26,-0.06,23.09
13230,0.2214,-0.0527,0.8792,-6.17,7.31,-0.17,23.07
13240,0.2184,-0.0493,0.8821,-6.2,7.48,-0.15,23.09
13250,0.224,-0.0533,0.8839,-6.11,7.63,-0.14,23.08
13260,0.2214,-0.0553,0.876,-6.08,8.0,-0.06,23.07
13270,0.2239,-0.0562,0.8876,-6.11,7.95,-0.09,23.1
13280,0.2136,-0.0573,0.8853,-6.08,8.02,-0.06,23.09
13290,0.2228,-0.061,0.8879,-6.15,7.83,-0.09,23.07
13301,0.2189,-0.0629,0.8844,-6.29,7.44,-0.06,23.09
13311,0.2253,-0.0585,0.8783,-6.05,7.71,-0.14,23.08
13321,0.2201,-0.0588,0.8865,-6.05,7.79,-0.03,23.09
13331,0.2177,-0.0564,0.88,-6.11,8.14,0.08,23.09
13341,0.2219,-0.0559,0.8854,-6.06,7.69,-0.03,23.1
13351,0.2178,-0.054,0.8828,-6.08,7.6,-0.05,23.09
13361,0.2246,-0.0573,0.8855,-6.14,7.73,0.05,23.08
13371,0.2192,-0.0568,0.8766,-6.18,7.66,-0.09,23.09
13381,0.2239,-0.0594,0.8804,-6.15,7.95,-0.03,23.09
13391,0.219,-0.0577,0.8795,-6.2,7.68,-0.08,23.1
13401,0.2231,-0.0598,0.8867,-5.94,8.18,-0.08,23.09
13411,0.2196,-0.0607,0.8857,-6.17,7.56,-0.14,23.09
13421,0.2205,-0.0564,0.8771,-5.97,7.69,-0.09,23.12
13431,0.222,-0.0591,0.8806,-6.09,7.63,-0.11,23.09
13441,0.2153,-0.0588,0.8755,-5.98,8.31,-0.11,23.06
13451,0.1973,-0.0541,0.8977,-5.97,9.6,0.09,23.08
13461,0.2152,-0.0287,0.8599,-5.95,6.41,0.08,23.07
13471,0.193,-0.005,0.8965,-6.06,8.0,0.02,23.06
13481,0.2,-0.0336,0.8615,-6.32,7.47,0.09,23.09
13491,0.1923,-0.0247,0.8949,-6.4,10.26,-0.05,23.1
13501,0.219,-0.049,0.8545,-6.35,5.42,-0.05,23.11
13511,0.2001,-0.0422,0.8877,-5.86,8.72,-0.03,23.09
13521,0.2227,-0.0681,0.8657,-6.14,6.56,0.06,23.09
13531,0.1935,-0.0552,0.9033,-5.91,9.01,0.02,23.09
13541,0.231,-0.0591,0.8811,-6.0,7.73,0.06,23.09
13551,0.2209,-0.0541,0.8801,-6.11,6.38,0.02,23.09
13561,0.2281,-0.0643,0.8763,-6.29,6.98,0.03,23.1
13571,0.2201,-0.0554,0.8748,-6.15,7.88,0.08,23.07
13581,0.2202,-0.0619,0.8873,-5.79,8.58,0.11,23.09
13591,0.2126,-0.0543,0.8925,-5.95,7.8,0.02,23.08
13601,0.2117,-0.0586,0.8931,-6.21,7.45,-0.03,23.08
13611,0.2178,-0.0491,0.8834,-6.06,6.0,-0.03,23.1
13621,0.2433,-0.0424,0.8779,-6.17,6.92,-0.17,23.1
13631,0.2366,-0.0587,0.8629,-6.29,6.58,-0.14,23.12
13641,0.2219,-0.0498,0.8912,-5.8,9.47,-0.02,23.09
13651,0.2175,-0.0751,0.8965,-6.37,8.23,-0.15,23.09
13661,0.2004,-0.0588,0.8916,-5.77,8.87,0.02,23.09
13671,0.2437,-0.0665,0.8861,-6.55,6.47,-0.15,23.08
13681,0.2344,-0.0575,0.8552,-6.05,6.84,0.03,23.09
13691,0.2369,-0.0637,0.8809,-6.23,7.48,-0.09,23.06
13701,0.2112,-0.0574,0.869,-5.8,9.19,-0.08,23.11
13711,0.2158,-0.058,0.9036,-5.86,9.22,-0.03,23.11
13721,0.2244,-0.057,0.8829,-6.12,8.56,0.0,23.11
13731,0.2144,-0.046,0.9232,-5.89,11.88,-0.2,23.11
13741,0.2449,-0.0867,0.8787,-6.15,6.89,-0.09,23.08
13751,0.2216,-0.0518,0.8906,-5.95,8.81,-0.26,23.1
13761,0.248,-0.0541,0.8728,-6.64,5.18,-0.24,23.11
13771,0.205,-0.0583,0.8987,-6.12,9.77,-0.21,23.12
13781,0.2358,-0.074,0.861,-6.29,5.66,-0.03,23.09
13791,0.2056,-0.0573,0.8945,-6.12,8.89,0.03,23.1
13801,0.2499,-0.0651,0.8645,-6.03,6.6,0.08,23.09
13811,0.203,-0.045,0.9015,-5.69,7.22,0.12,23.09
13821,0.2233,-0.0585,0.8937,-6.02,7.56,0.09,23.09
13831,0.2166,-0.0553,0.8842,-6.17,6.79,0.15,23.09
13841,0.2316,-0.0579,0.8844,-6.14,7.69,0.11,23.1
13851,0.2335,-0.0448,0.8748,-5.92,7.16,0.02,23.09
13861,0.2318,-0.0481,0.8933,-5.98,7.74,0.05,23.06
13871,0.2266,-0.0532,0.8862,-6.21,7.68,-0.02,23.09
13881,0.2262,-0.0551,0.8859,-6.17,8.38,-0.03,23.1
13891,0.2228,-0.0459,0.8756,-6.09,7.6,-0.08,23.1
13901,0.2318,-0.0552,0.8971,-6.14,7.42,-0.08,23.09
13911,0.2148,-0.0603,0.8745,-6.4,7.45,-0.06,23.09
13921,0.2266,-0.0748,0.8777,-6.12,8.81,-0.03,23.1
13931,0.2219,-0.0743,0.8673,-6.11,8.69,-0.02,23.12
13941,0.2239,-0.0719,0.8945,-5.77,8.03,-0.02,23.11
13951,0.2122,-0.0637,0.8898,-6.24,7.47,-0.09,23.09
13961,0.2308,-0.0627,0.8872,-6.23,7.37,0.11,23.11
13971,0.2677,-0.0504,0.807,-6.44,7.01,-0.29,23.09
13981,0.1956,-0.0503,0.88,-5.92,10.69,-0.18,23.08
13991,0.2097,-0.0435,0.8799,-5.94,8.0,-0.12,23.08
14001,0.1934,-0.0382,0.9279,-5.91,10.34,-0.15,23.11
14011,0.2435,-0.0658,0.8854,-6.4,4.92,-0.17,23.08
14021,0.2147,-0.0643,0.9001,-6.67,8.21,-0.15,23.1
14031,0.2546,-0.0829,0.8589,-6.2,7.37,-0.17,23.1
14041,0.2081,-0.0632,0.9072,-5.51,8.55,-0.18,23.11
14051,0.2363,-0.0643,0.8904,-5.85,8.67,-0.2,23.11
14061,0.2358,-0.0508,0.8838,-6.21,5.54,-0.2,23.09
14071,0.2279,-0.0621,0.8844,-6.67,6.9,-0.31,23.09
14081,0.2219,-0.0516,0.8711,-6.31,7.51,-0.14,23.1
14091,0.2084,-0.0579,0.8926,-5.94,9.91,-0.12,23.11
14101,0.2073,-0.0511,0.8909,-5.68,8.56,-0.06,23.09
14111,0.224,-0.0485,0.8982,-6.11,7.74,-0.03,23.1
14121,0.2303,-0.058,0.8588,-6.61,6.14,-0.15,23.1
14131,0.2278,-0.061,0.8741,-6.15,8.35,0.02,23.09
14141,0.223,-0.0596,0.8696,-6.15,8.15,0.09,23.11
14151,0.2104,-0.0465,0.9014,-5.54,8.78,0.18,23.11
14161,0.2037,-0.0522,0.8972,-6.58,7.63,0.03,23.11
14171,0.2133,-0.0516,0.8826,-6.2,8.21,0.09,23.07
14181,0.2373,-0.0614,0.8802,-6.52,7.27,-0.03,23.09
14191,0.234,-0.0519,0.8629,-5.86,7.83,0.05,23.09
14201,0.2339,-0.0563,0.8992,-6.08,7.31,0.02,23.12
14211,0.2144,-0.0533,0.8826,-6.26,7.62,0.05,23.1
14221,0.2288,-0.0674,0.8995,-6.31,7.69,-0.02,23.09
14231,0.225,-0.0675,0.8639,-6.47,7.1,-0.08,23.1
14241,0.2283,-0.0704,0.8879,-5.83,8.06,0.02,23.11
14251,0.213,-0.067,0.8809,-6.21,7.8,-0.06,23.11
14261,0.2247,-0.0677,0.8864,-5.91,8.29,-0.05,23.13
14271,0.2247,-0.0699,0.8756,-6.31,6.98,-0.05,23.1
14281,0.2209,-0.0643,0.8857,-5.85,8.21,-0.03,23.1
14291,0.2275,-0.0608,0.8844,-6.14,7.68,-0.12,23.09
14301,0.2238,-0.0562,0.874,-5.97,7.86,-0.17,23.14
14311,0.2238,-0.0555,0.89,-6.14,7.37,-0.09,23.12
14321,0.2151,-0.0537,0.8783,-6.06,8.47,-0.05,23.12
14331,0.2258,-0.0559,0.8881,-6.11,8.11,-0.14,23.09
14341,0.2183,-0.0491,0.8787,-6.09,7.94,-0.06,23.09
14351,0.2198,-0.0526,0.8947,-6.06,7.57,-0.06,23.11
14361,0.2172,-0.049,0.871,-6.12,7.62,-0.11,23.1
14371,0.2311,-0.0527,0.8783,-6.14,7.54,-0.03,23.11
14381,0.2197,-0.0504,0.8794,-6.14,7.92,-0.02,23.09
14391,0.2208,-0.0514,0.8955,-6.06,8.73,0.06,23.08
14401,0.2209,-0.0479,0.8851,-6.2,7.92,-0.05,23.1
14411,0.2253,-0.058,0.8887,-6.12,7.34,0.06,23.13
14421,0.2195,-0.0591,0.8815,-6.26,7.19,-0.09,23.12
14431,0.2218,-0.0583,0.8801,-6.08,7.88,-0.03,23.09
14441,0.2227,-0.0597,0.8837,-6.09,7.45,-0.06,23.1
14451,0.222,-0.0536,0.8804,-6.02,7.42,-0.02,23.1
14461,0.2223,-0.0599,0.8839,-6.21,7.5,-0.15,23.12
14471,0.2271,-0.066,0.8755,-6.11,7.51,-0.06,23.12
14481,0.2219,-0.0587,0.8816,-6.18,7.25,-0.09,23.11
14491,0.2137,-0.0581,0.8937,-5.95,8.24,0.05,23.09
14501,0.2194,-0.0615,0.897,-6.15,8.12,-0.06,23.14
14511,0.2296,-0.0537,0.8751,-6.17,7.24,-0.06,23.13
14521,0.2224,-0.0555,0.8854,-6.06,7.15,-0.14,23.13
14531,0.2198,-0.0551,0.8861,-6.03,7.6,-0.06,23.13
14541,0.2252,-0.0532,0.8794,-6.14,7.37,-0.09,23.1
14551,0.2198,-0.0537,0.8807,-6.23,7.37,-0.03,23.09
14561,0.2206,-0.0552,0.8834,-6.24,7.82,-0.03,23.11
14571,0.2233,-0.0569,0.8768,-6.08,7.89,-0.09,23.11
14581,0.2257,-0.0546,0.8824,-6.14,7.47,-0.08,23.11
14591,0.2212,-0.0542,0.8899,-6.14,7.79,-0.05,23.11
14601,0.2222,-0.0583,0.8843,-6.12,7.92,-0.06,23.11
14611,0.2177,-0.0609,0.8792,-6.12,7.98,-0.06,23.11
14621,0.2214,-0.062,0.8881,-6.15,7.95,-0.08,23.11
14631,0.2217,-0.0597,0.8855,-6.08,8.18,-0.05,23.1
14641,0.2211,-0.0593,0.8855,-6.21,8.05,-0.08,23.09
14651,0.2235,-0.0593,0.8771,-6.17,7.8,-0.05,23.11
14661,0.2212,-0.0587,0.8844,-6.05,7.63,-0.08,23.12
14671,0.2179,-0.0522,0.884,-5.97,7.82,-0.05,23.13
14681,0.2141,-0.0546,0.8832,-6.14,7.92,-0.09,23.1
14691,0.2164,-0.0526,0.8872,-6.14,7.5,-0.06,23.11
14701,0.2214,-0.0546,0.8849,-6.18,7.13,-0.09,23.14
14711,0.2195,-0.0536,0.8873,-6.21,7.71,-0.17,23.13
14721,0.2274,-0.0542,0.8804,-6.17,7.79,-0.15,23.1
14731,0.226,-0.061,0.8831,-6.15,7.71,-0.2,23.12
14741,0.2224,-0.0627,0.8842,-6.06,7.63,-0.21,23.09
14751,0.2184,-0.0613,0.8866,-6.06,7.44,-0.11,23.11
14761,0.2239,-0.0566,0.882,-6.09,7.28,-0.14,23.09
14771,0.2242,-0.0576,0.8783,-6.11,7.63,-0.06,23.12
14781,0.2236,-0.0522,0.8859,-6.02,8.12,-0.08,23.12
14791,0.2168,-0.0507,0.8811,-6.17,8.23,-0.09,23.12
14801,0.2214,-0.0582,0.885,-6.14,7.77,-0.08,23.1
14811,0.2217,-0.0562,0.8862,-6.14,7.45,-0.11,23.11
14821,0.2236,-0.0568,0.8823,-6.15,7.62,-0.06,23.11
14831,0.2277,-0.0535,0.8772,-6.14,7.54,-0.11,23.11
14841,0.2268,-0.0546,0.8765,-6.0,7.8,-0.12,23.11
14851,0.2235,-0.0565,0.8778,-6.11,7.76,-0.12,23.12
14861,0.2218,-0.0557,0.8868,-6.14,7.8,0.0,23.11
14871,0.2219,-0.0527,0.8882,-6.15,7.82,-0.06,23.11
14881,0.2292,-0.0591,0.8732,-6.15,7.53,-0.05,23.14
14891,0.2297,-0.0607,0.8835,-6.05,7.47,-0.02,23.12
14901,0.2201,-0.059,0.8834,-6.03,7.89,0.05,23.11
14911,0.217,-0.0585,0.8911,-6.02,7.95,0.02,23.11
14921,0.219,-0.0596,0.8851,-6.14,7.62,-0.03,23.11
14931,0.2284,-0.0603,0.8796,-6.14,7.18,-0.03,23.13
14941,0.2274,-0.0507,0.8763,-6.08,7.4,-0.03,23.12
14951,0.2375,-0.0513,0.8833,-6.02,8.12,-0.02,23.12
14961,0.2246,-0.0565,0.8887,-6.17,9.21,0.0,23.1
14971,0.2179,-0.0616,0.8986,-6.06,8.53,-0.09,23.13
14981,0.2029,-0.0548,0.8864,-6.08,7.15,-0.14,23.12
14991,0.2198,-0.056,0.8831,-6.24,6.21,-0.21,23.12
15001,0.2305,-0.0554,0.871,-6.23,7.16,-0.03,23.12
15011,0.2319,-0.058,0.8773,-5.95,8.89,0.0,23.12
15021,0.2208,-0.0538,0.8828,-5.86,8.99,-0.03,23.11
15031,0.2129,-0.0532,0.8956,-6.09,7.59,-0.09,23.13
15041,0.2268,-0.052,0.8872,-6.35,6.29,-0.17,23.13
15051,0.2318,-0.0585,0.8719,-6.32,7.1,-0.05,23.11
15061,0.2295,-0.061,0.8727,-6.09,8.5,-0.11,23.12
15071,0.2212,-0.0587,0.8801,-5.86,9.1,-0.05,23.1
15081,0.2209,-0.059,0.8921,-6.05,7.92,-0.14,23.13
15092,0.2214,-0.0599,0.8822,-6.31,6.99,-0.11,23.13
15102,0.2253,-0.0674,0.8737,-6.41,7.19,-0.12,23.12
15113,0.2207,-0.0653,0.8771,-6.14,8.23,-0.03,23.15
15123,0.2173,-0.0649,0.884,-5.92,8.44,-0.09,23.13
15133,0.2202,-0.0643,0.8903,-6.09,7.66,-0.08,23.12
15143,0.2227,-0.0625,0.8837,-6.21,6.4,-0.09,23.13
15153,0.2208,-0.0614,0.8887,-6.24,7.98,-0.09,23.11
15163,0.2336,-0.0601,0.8735,-6.0,8.14,-0.05,23.12
