t_ms,accel_x_g,accel_y_g,accel_z_g,gyro_x_dps,gyro_y_dps,gyro_z_dps,imu_temp_c
3274,0.2102,-0.0354,0.9153,-6.41,10.87,0.2,24.91
3285,0.2627,-0.0522,0.8701,-6.44,8.21,0.11,24.91
3295,0.2517,-0.0514,0.8738,-6.29,5.68,-0.08,24.93
3305,0.2079,-0.041,0.9037,-6.24,8.73,0.09,24.92
3315,0.2379,-0.0435,0.8733,-5.94,9.63,0.0,24.92
3325,0.2526,-0.0392,0.8525,-6.17,6.21,-0.09,24.92
3335,0.2266,-0.0356,0.8938,-6.26,6.32,-0.18,24.94
3345,0.2152,-0.0344,0.9235,-6.31,8.99,-0.17,24.93
3355,0.243,-0.046,0.9008,-6.47,9.73,-0.11,24.92
3365,0.2574,-0.0643,0.8495,-6.41,6.35,-0.08,24.94
3375,0.2051,-0.0669,0.8882,-6.2,7.56,-0.09,24.93
3385,0.2136,-0.071,0.8893,-6.18,8.27,-0.05,24.9
3395,0.2362,-0.0691,0.8815,-6.11,8.14,-0.03,24.9
3405,0.2334,-0.0537,0.8826,-6.11,7.95,0.0,24.89
3415,0.2368,-0.0367,0.8867,-6.23,7.83,-0.09,24.89
3425,0.234,-0.0314,0.8993,-6.29,8.17,-0.05,24.91
3435,0.2521,-0.0385,0.8876,-6.41,8.6,-0.05,24.92
3445,0.2651,-0.0392,0.8748,-6.4,7.4,-0.08,24.9
3456,0.2633,-0.0424,0.858,-6.37,6.75,-0.09,24.92
3466,0.2332,-0.0594,0.879,-6.24,6.37,-0.12,24.93
3476,0.2089,-0.0616,0.8922,-6.11,9.15,-0.11,24.94
3486,0.2426,-0.0525,0.8613,-6.12,8.72,-0.09,24.94
3496,0.2626,-0.0461,0.8511,-6.09,4.61,-0.15,24.93
3506,0.1971,-0.0453,0.9158,-6.2,7.3,-0.11,24.93
3516,0.2233,-0.0372,0.9218,-6.35,10.72,-0.03,24.94
3526,0.2761,-0.0443,0.864,-6.24,7.54,-0.03,24.93
3536,0.2389,-0.0514,0.8817,-6.31,5.73,-0.03,24.94
3546,0.2063,-0.0533,0.8944,-6.17,10.08,0.05,24.94
3556,0.2513,-0.0496,0.859,-6.11,8.43,0.05,24.94
3566,0.2526,-0.0464,0.8752,-6.18,6.46,0.06,24.95
3576,0.2086,-0.0402,0.9019,-6.21,7.54,-0.03,24.93
3586,0.2262,-0.03,0.8879,-6.29,9.82,-0.05,24.94
3596,0.2585,-0.0239,0.8575,-6.26,5.91,-0.06,24.94
3606,0.2163,-0.036,0.9077,-6.29,6.96,-0.06,24.92
3616,0.2181,-0.051,0.9055,-6.37,9.88,-0.06,24.96
3626,0.252,-0.0529,0.8541,-6.26,7.59,-0.08,24.95
3636,0.2421,-0.0625,0.8617,-6.14,5.74,0.05,24.96
3646,0.2067,-0.0559,0.9025,-6.08,8.75,0.15,24.97
3656,0.2505,-0.0466,0.8735,-6.29,9.02,0.12,24.93
3666,0.2623,-0.0405,0.8652,-6.15,5.73,0.12,24.97
3676,0.2122,-0.04,0.9004,-6.37,7.69,0.11,24.95
3686,0.2375,-0.0435,0.8868,-6.24,9.36,0.2,24.93
3696,0.2592,-0.0416,0.8683,-6.2,7.79,0.11,24.94
3706,0.2157,-0.0479,0.9133,-6.34,7.27,0.08,24.94
3716,0.2168,-0.0547,0.91,-6.26,10.17,0.09,24.96
3726,0.2482,-0.0602,0.8695,-6.2,8.12,-0.02,24.95
3736,0.2422,-0.0605,0.8707,-6.15,5.92,-0.02,24.95
3746,0.2073,-0.0508,0.9005,-6.17,8.7,-0.03,24.93
3756,0.2219,-0.0579,0.8964,-6.2,9.25,0.0,24.96
3766,0.2526,-0.047,0.8608,-6.24,6.53,-0.02,24.97
3776,0.2266,-0.0511,0.879,-6.2,6.69,-0.12,24.98
3786,0.2155,-0.0493,0.8962,-6.2,8.69,-0.11,24.95
3796,0.2406,-0.0535,0.8787,-6.17,8.75,-0.11,24.96
3806,0.2592,-0.051,0.8623,-6.14,6.76,-0.09,24.92
3816,0.2258,-0.0529,0.8937,-6.29,6.47,-0.08,24.96
3826,0.2103,-0.0505,0.908,-6.21,9.66,-0.08,24.94
3836,0.2485,-0.0468,0.8733,-6.14,8.69,-0.08,24.95
3846,0.2418,-0.0417,0.8785,-6.2,6.64,-0.08,24.96
3856,0.2188,-0.0405,0.8916,-6.23,7.85,0.02,24.97
3866,0.2252,-0.0356,0.88,-6.21,8.72,0.0,24.97
3876,0.2428,-0.0377,0.8701,-6.29,7.48,0.05,24.97
3886,0.2444,-0.0354,0.8767,-6.26,6.84,-0.11,24.97
3896,0.2286,-0.0359,0.8885,-6.26,7.34,-0.14,24.97
3906,0.2312,-0.0427,0.8971,-6.4,8.4,-0.08,24.97
3916,0.244,-0.0469,0.8865,-6.29,7.5,-0.14,24.97
3926,0.2354,-0.053,0.899,-6.26,7.82,-0.05,24.97
3936,0.2319,-0.0623,0.8864,-6.24,8.09,-0.02,24.95
3946,0.2161,-0.0618,0.895,-6.23,8.81,-0.05,24.94
3956,0.231,-0.0645,0.8694,-6.12,9.11,-0.05,24.97
3966,0.2406,-0.0588,0.8611,-6.05,6.72,0.06,24.97
3976,0.2157,-0.0503,0.8846,-6.08,7.48,-0.03,24.96
3986,0.2202,-0.0432,0.8944,-6.21,9.59,-0.08,25.0
3996,0.2577,-0.0417,0.8566,-6.11,7.53,-0.06,24.99
4006,0.2411,-0.0388,0.876,-6.21,5.85,0.05,24.97
4016,0.2184,-0.0426,0.9104,-6.21,9.04,-0.06,24.95
4026,0.2529,-0.0464,0.8815,-6.37,8.41,-0.12,24.97
4036,0.2526,-0.0537,0.8765,-6.18,6.53,-0.14,24.95
4046,0.2255,-0.053,0.8914,-6.21,7.73,-0.08,24.96
4056,0.2329,-0.0513,0.8865,-6.15,8.99,-0.08,24.97
4066,0.2509,-0.0481,0.8735,-6.26,7.21,-0.12,24.97
4076,0.2302,-0.0442,0.8892,-6.2,7.39,-0.06,24.97
4086,0.2306,-0.0465,0.886,-6.27,8.12,-0.02,24.99
4097,0.2382,-0.0426,0.8809,-6.29,7.36,-0.11,24.97
4107,0.2289,-0.0481,0.8912,-6.18,8.34,0.02,24.98
4117,0.2395,-0.0507,0.8807,-6.17,8.35,-0.05,24.98
4127,0.2363,-0.0505,0.8735,-6.08,8.34,-0.09,24.98
4137,0.2075,-0.0474,0.8846,-6.17,7.08,-0.12,24.97
4147,0.2039,-0.046,0.9133,-6.15,11.42,-0.12,24.95
4157,0.2588,-0.0382,0.8655,-6.18,7.37,0.02,24.99
4167,0.2341,-0.0402,0.8861,-6.29,6.96,-0.15,24.99
4177,0.2292,-0.0464,0.8873,-6.15,8.44,-0.08,24.99
4187,0.2389,-0.0441,0.879,-6.31,7.19,-0.09,24.96
4197,0.2162,-0.051,0.8953,-6.23,8.15,-0.11,24.99
4207,0.2399,-0.0453,0.8864,-6.27,8.29,0.0,24.99
4217,0.255,-0.0403,0.8829,-6.18,6.84,-0.05,24.99
4227,0.2292,-0.0483,0.9039,-6.31,7.74,-0.05,24.97
4237,0.2415,-0.0457,0.8894,-6.31,8.32,0.05,24.99
4247,0.2405,-0.0544,0.8851,-6.21,8.15,0.05,24.99
4257,0.2523,-0.0549,0.8612,-6.05,7.15,0.02,24.98
4267,0.233,-0.0503,0.8861,-6.15,6.63,-0.05,25.0
4277,0.2195,-0.0503,0.8817,-6.11,8.5,-0.05,24.98
4287,0.2388,-0.0475,0.8589,-6.06,7.1,-0.09,24.98
4297,0.2281,-0.0358,0.8755,-6.18,6.5,-0.05,24.99
4307,0.2228,-0.0392,0.9086,-6.31,8.66,-0.06,25.0
4317,0.2493,-0.0437,0.8707,-6.26,7.73,-0.08,24.96
4327,0.2338,-0.0454,0.8782,-6.32,6.7,-0.08,25.0
4337,0.2234,-0.0505,0.9039,-6.31,8.84,0.03,24.99
4347,0.2529,-0.053,0.88,-6.4,8.02,-0.11,24.97
4357,0.2484,-0.0605,0.8853,-6.29,7.05,-0.06,24.98
4367,0.2172,-0.0542,0.8958,-6.24,8.05,0.0,24.99
4377,0.2312,-0.0481,0.8914,-6.14,8.89,0.05,24.98
4387,0.243,-0.0457,0.8844,-6.2,7.79,0.12,25.0
4397,0.233,-0.0398,0.8811,-6.27,8.0,0.03,24.99
4409,0.2306,-0.0454,0.8831,-6.35,7.8,0.09,24.99
4419,0.2295,-0.0427,0.8762,-6.32,7.86,0.05,25.02
4429,0.2277,-0.0438,0.8932,-6.32,8.23,-0.02,25.01
4439,0.2367,-0.0452,0.8853,-6.17,8.05,-0.06,24.99
4449,0.2362,-0.0493,0.8793,-6.26,7.34,-0.18,25.01
4459,0.2216,-0.0554,0.8894,-6.17,7.98,-0.11,25.03
4469,0.2238,-0.0599,0.884,-6.15,8.76,-0.11,25.02
4479,0.2396,-0.0577,0.8723,-6.27,7.79,-0.08,25.0
4489,0.2303,-0.0557,0.8883,-6.27,7.4,-0.02,24.98
4499,0.2228,-0.0565,0.8936,-6.34,8.99,-0.12,24.98
4509,0.2452,-0.0499,0.8713,-6.14,8.21,-0.06,25.0
4519,0.2412,-0.0432,0.8821,-6.23,7.34,-0.08,25.0
4529,0.2375,-0.0436,0.8962,-6.24,7.86,-0.12,25.0
4539,0.2445,-0.0385,0.8909,-6.32,7.76,-0.12,25.0
4549,0.2378,-0.0428,0.8948,-6.35,7.82,0.0,25.01
4559,0.2361,-0.0459,0.8876,-6.35,7.94,-0.09,24.99
4569,0.2397,-0.0483,0.8899,-6.21,7.63,-0.08,25.01
4579,0.2395,-0.052,0.88,-6.27,8.03,-0.12,24.99
4589,0.2368,-0.0504,0.8722,-6.15,7.62,-0.15,25.0
4599,0.2407,-0.0455,0.8729,-6.14,7.68,-0.03,25.01
4609,0.2449,-0.0476,0.8716,-6.12,8.02,-0.11,25.02
4619,0.2327,-0.0486,0.8871,-6.2,7.13,-0.11,25.01
4629,0.2415,-0.0455,0.8835,-6.2,8.03,-0.03,25.02
4639,0.2452,-0.0419,0.8704,-6.26,7.82,-0.08,25.01
4649,0.2357,-0.0681,0.8677,-6.12,6.67,0.0,25.0
4659,0.2223,-0.0363,0.8953,-6.38,7.1,-0.03,24.98
4669,0.2278,-0.048,0.9045,-6.26,9.79,-0.09,25.01
4680,0.2596,-0.0482,0.8615,-6.23,7.25,-0.03,25.02
4690,0.2327,-0.0343,0.8923,-6.26,6.29,-0.14,25.02
4700,0.2133,-0.0444,0.9144,-6.37,8.82,0.0,25.01
4710,0.2369,-0.0431,0.8926,-6.26,9.18,-0.17,25.0
4720,0.2461,-0.0565,0.8838,-6.35,7.15,-0.03,25.0
4730,0.2346,-0.0632,0.8773,-6.15,6.78,-0.06,24.98
4740,0.2316,-0.0532,0.8718,-6.2,6.44,-0.08,25.02
4750,0.2327,-0.0531,0.8787,-6.12,8.96,0.78,24.99
4760,0.255,-0.0475,0.8668,-6.17,6.37,0.0,24.99
4770,0.2216,-0.0381,0.8929,-6.2,6.78,-0.15,25.01
4780,0.2162,-0.0483,0.901,-6.2,8.99,-0.14,25.02
4790,0.2163,-0.0487,0.9014,-6.26,8.72,-0.05,25.03
4800,0.24,-0.0563,0.8964,-6.17,8.9,-0.03,25.04
4810,0.2394,-0.0625,0.8905,-6.31,7.13,-0.15,25.01
4820,0.2211,-0.0652,0.8879,-6.2,7.73,-0.05,25.03
4830,0.2134,-0.0631,0.8934,-6.14,9.37,-0.05,25.03
4840,0.2517,-0.0432,0.8633,-6.08,7.69,-0.05,25.02
4850,0.2411,-0.0349,0.8781,-6.24,6.2,0.02,25.06
4860,0.2316,-0.0317,0.9004,-6.26,7.54,0.05,25.04
4870,0.2212,-0.0265,0.9033,-6.43,9.01,-0.17,25.02
4880,0.2471,-0.0438,0.8737,-6.27,8.81,-0.09,25.03
4890,0.2416,-0.0485,0.8586,-6.21,6.82,-0.18,25.02
4900,0.2203,-0.0529,0.8956,-6.2,7.77,-0.05,25.04
4910,0.2247,-0.059,0.8844,-6.09,8.81,-0.11,25.03
4920,0.243,-0.0479,0.8811,-6.26,7.15,-0.08,25.02
4930,0.2188,-0.0452,0.9009,-6.27,7.95,-0.08,25.02
4940,0.2484,-0.0482,0.8727,-6.24,7.5,0.08,25.02
4950,0.2222,-0.0463,0.9086,-6.37,6.85,-0.05,25.02
4960,0.2153,-0.0485,0.911,-6.31,10.44,0.02,25.06
4970,0.2656,-0.0548,0.8539,-6.26,7.28,0.08,25.03
4980,0.2228,-0.0586,0.8779,-6.21,6.92,0.09,25.02
4990,0.2207,-0.0529,0.8818,-6.11,9.36,-0.03,25.02
5000,0.2574,-0.0446,0.8596,-6.17,6.85,-0.08,25.01
5010,0.2264,-0.0397,0.9031,-6.29,7.11,-0.08,25.06
5020,0.2308,-0.0374,0.8937,-6.34,7.65,-0.12,25.03
5030,0.2262,-0.0443,0.8921,-6.35,8.78,-0.06,25.01
5040,0.2446,-0.0521,0.8778,-6.24,8.37,-0.08,25.05
5050,0.2388,-0.0565,0.8827,-6.35,7.13,-0.08,25.03
5060,0.229,-0.0616,0.8844,-6.24,8.69,-0.11,25.04
5070,0.2476,-0.0549,0.8597,-6.2,7.42,-0.17,25.06
5080,0.2432,-0.0475,0.8712,-6.06,6.9,-0.11,25.06
5090,0.2379,-0.0427,0.8862,-6.11,7.25,0.03,25.05
5100,0.2389,-0.0399,0.9054,-6.15,8.46,-0.14,25.03
5110,0.2528,-0.0432,0.8787,-6.4,7.31,0.02,25.06
5120,0.2303,-0.0536,0.8857,-6.29,7.76,-0.09,25.04
5130,0.2212,-0.0551,0.8774,-6.18,8.4,-0.05,25.03
5140,0.2347,-0.051,0.8746,-6.21,8.89,-0.03,25.03
5150,0.2555,-0.0448,0.8652,-6.23,5.73,-0.08,25.05
5160,0.2012,-0.0392,0.9229,-6.32,8.43,0.0,25.04
5170,0.243,-0.042,0.8838,-6.27,9.77,-0.03,25.03
5180,0.2526,-0.0408,0.8735,-6.21,6.23,-0.06,25.06
5190,0.2262,-0.048,0.8943,-6.0,7.85,-0.08,25.03
5200,0.2302,-0.051,0.8928,-6.17,8.49,-0.03,25.05
5210,0.2373,-0.0541,0.8699,-6.2,8.66,-0.09,25.06
5220,0.2509,-0.0518,0.8466,-6.11,5.34,-0.06,25.04
5230,0.1974,-0.0404,0.9259,-6.29,8.2,-0.02,25.04
5240,0.2555,-0.0386,0.8926,-6.21,9.98,-0.08,25.04
5250,0.2633,-0.0515,0.8752,-6.27,5.82,0.0,25.04
5260,0.2091,-0.052,0.8878,-6.18,7.88,-0.11,25.04
5270,0.2252,-0.0608,0.8737,-6.03,9.65,0.06,25.03
5280,0.2656,-0.0496,0.8589,-6.14,5.66,-0.03,25.04
5290,0.222,-0.0411,0.9103,-6.34,6.5,0.08,25.04
5300,0.2112,-0.0446,0.9122,-6.44,10.23,0.03,25.03
5310,0.2543,-0.0437,0.8606,-6.31,8.05,-0.05,25.06
5320,0.2581,-0.0419,0.8613,-6.21,6.63,-0.02,25.04
5330,0.2064,-0.0503,0.9058,-6.21,8.63,-0.08,25.07
5340,0.2363,-0.0533,0.8708,-6.26,9.3,-0.08,25.07
5350,0.2448,-0.0552,0.8594,-6.18,6.06,0.05,25.05
5360,0.2118,-0.048,0.8934,-6.21,8.14,-0.08,25.05
5370,0.2351,-0.0471,0.8812,-6.24,8.23,-0.12,25.07
5380,0.2328,-0.0449,0.8939,-6.27,7.68,-0.06,25.04
5390,0.2411,-0.0455,0.889,-6.31,7.6,-0.12,25.03
5400,0.2253,-0.0568,0.8909,-6.17,7.86,-0.12,25.04
5410,0.2246,-0.0553,0.8824,-6.18,8.96,-0.02,25.04
5420,0.2476,-0.0557,0.8669,-6.14,7.74,-0.03,25.04
5430,0.2422,-0.0492,0.8737,-6.18,5.98,-0.03,25.05
5440,0.2034,-0.0447,0.9149,-6.23,9.22,0.02,25.07
5450,0.245,-0.0394,0.8799,-6.35,9.51,-0.03,25.04
5460,0.2607,-0.0381,0.8563,-6.17,7.76,-0.08,25.06
5470,0.2136,-0.0482,0.8911,-6.11,6.99,-0.11,25.05
5480,0.2111,-0.0383,0.9095,-6.08,8.14,-0.15,25.06
5490,0.2346,-0.0359,0.9031,-6.2,10.32,-0.09,25.05
5500,0.2692,-0.0391,0.8591,-6.2,5.77,-0.14,25.08
5510,0.2269,-0.0468,0.876,-6.24,6.15,-0.2,25.07
5520,0.2117,-0.0505,0.8964,-6.44,8.69,-0.12,25.07
5530,0.2418,-0.0524,0.8794,-6.37,9.25,-0.02,25.05
5540,0.266,-0.0593,0.8623,-6.24,5.98,-0.05,25.03
5550,0.225,-0.0598,0.9052,-6.21,7.34,-0.11,25.05
5560,0.2303,-0.0558,0.8899,-6.08,9.82,0.08,25.07
5570,0.2576,-0.0548,0.8517,-6.23,7.36,0.09,25.07
5580,0.241,-0.0459,0.8732,-6.09,5.82,0.11,25.05
5590,0.2039,-0.037,0.917,-6.27,8.46,0.11,25.07
5600,0.2366,-0.0345,0.8964,-6.41,9.3,0.03,25.07
5610,0.2521,-0.0337,0.8815,-6.4,7.11,0.0,25.08
5620,0.2129,-0.0488,0.9033,-6.4,8.53,-0.08,25.06
5630,0.2198,-0.0562,0.8909,-6.31,9.86,-0.14,25.05
5640,0.2518,-0.057,0.8578,-6.08,8.2,-0.12,25.07
5650,0.2449,-0.0568,0.8691,-6.18,6.37,-0.12,25.06
5660,0.2273,-0.0482,0.8872,-6.18,7.97,-0.15,25.06
5670,0.2518,-0.0476,0.8679,-6.27,7.74,-0.03,25.06
5680,0.2454,-0.0516,0.8822,-6.41,5.83,0.02,25.08
5690,0.2045,-0.0551,0.9149,-6.32,9.56,0.03,25.06
5700,0.2474,-0.0597,0.8768,-6.35,9.51,0.05,25.07
5710,0.2568,-0.0607,0.8597,-6.15,5.79,0.0,25.09
5720,0.2107,-0.059,0.8987,-6.11,7.83,0.05,25.09
5730,0.224,-0.0509,0.886,-6.12,10.05,0.09,25.1
5740,0.2596,-0.0416,0.8583,-6.08,6.26,0.05,25.04
5750,0.2319,-0.033,0.8889,-6.23,5.74,-0.06,25.05
5760,0.2148,-0.0282,0.9131,-6.34,9.08,-0.17,25.07
5770,0.2494,-0.0333,0.8822,-6.38,8.84,-0.17,25.06
5780,0.2571,-0.0483,0.8761,-6.34,6.31,-0.14,25.07
5790,0.2241,-0.0619,0.8875,-6.15,7.86,-0.11,25.07
5800,0.2289,-0.0656,0.8738,-6.08,8.35,-0.15,25.08
5810,0.2371,-0.0591,0.8754,-6.11,7.56,-0.09,25.07
5820,0.2346,-0.049,0.8779,-6.09,7.39,-0.05,25.08
5830,0.2357,-0.0431,0.8812,-6.18,7.22,-0.12,25.07
5840,0.2289,-0.0354,0.8876,-6.31,7.62,0.03,25.06
5850,0.2456,-0.0415,0.8864,-6.32,7.69,0.03,25.1
5860,0.2448,-0.0466,0.8855,-6.47,7.27,-0.08,25.07
5870,0.2274,-0.052,0.895,-6.23,7.89,-0.09,25.07
5880,0.2306,-0.0487,0.8945,-6.23,8.35,0.0,25.07
5890,0.2466,-0.0524,0.8856,-6.17,7.42,-0.03,25.06
5900,0.2258,-0.0452,0.895,-6.15,7.83,0.0,25.06
5910,0.2339,-0.0442,0.8737,-6.09,8.81,0.08,25.07
5920,0.246,-0.043,0.8578,-6.11,7.13,-0.06,25.07
5930,0.2371,-0.041,0.8749,-6.23,6.67,-0.05,25.07
5940,0.2262,-0.037,0.9001,-6.31,7.6,-0.09,25.08
5950,0.2379,-0.0438,0.8938,-6.38,8.46,-0.12,25.06
5960,0.2404,-0.0542,0.882,-6.43,7.18,-0.2,25.08
5970,0.2209,-0.0563,0.9052,-6.4,8.6,-0.08,25.08
5980,0.25,-0.0613,0.8831,-6.23,8.23,-0.08,25.06
5990,0.2466,-0.0616,0.8798,-6.18,6.98,-0.02,25.07
6000,0.2269,-0.0576,0.8854,-6.06,7.63,0.03,25.09
6010,0.2311,-0.057,0.8779,-6.15,8.35,-0.03,25.08
6020,0.2513,-0.0505,0.8625,-6.09,7.24,0.03,25.06
6030,0.2424,-0.0482,0.8656,-6.08,6.2,0.05,25.08
6040,0.218,-0.045,0.8861,-6.21,7.8,0.05,25.08
6050,0.2385,-0.043,0.8704,-6.2,7.82,-0.08,25.05
6060,0.2371,-0.0382,0.8881,-6.27,6.43,-0.08,25.08
6070,0.2272,-0.0365,0.91,-6.23,8.47,0.06,25.11
6080,0.2549,-0.0363,0.8844,-6.41,7.27,-0.06,25.09
6090,0.2485,-0.0509,0.8868,-6.35,6.73,-0.09,25.07
6100,0.2262,-0.0537,0.8938,-6.27,7.95,-0.08,25.07
6110,0.2229,-0.0544,0.8959,-6.35,9.07,-0.12,25.09
6120,0.2468,-0.0544,0.8677,-6.26,8.37,-0.02,25.1
6130,0.2351,-0.0524,0.8806,-6.23,7.21,0.02,25.08
6140,0.2208,-0.0492,0.8947,-6.17,8.67,-0.02,25.09
6150,0.2411,-0.0548,0.8647,-6.11,7.76,-0.09,25.09
6160,0.2229,-0.0693,0.8337,-5.95,6.53,-0.31,25.08
6170,0.2289,-0.0338,0.9023,-5.82,7.76,-0.27,25.09
6180,0.2389,-0.0262,0.9265,-5.83,9.54,-0.15,25.07
6190,0.2478,-0.0209,0.8735,-6.38,7.5,-0.05,25.09
6200,0.2423,-0.0322,0.894,-6.55,7.25,0.0,25.07
6210,0.2267,-0.0431,0.9001,-6.79,7.42,0.14,25.08
6220,0.2321,-0.0557,0.8914,-6.75,10.05,0.11,25.07
6230,0.2568,-0.0634,0.8728,-6.56,7.25,-0.02,25.05
6240,0.2167,-0.0624,0.8792,-6.5,7.42,-0.09,25.09
6250,0.2235,-0.062,0.8921,-6.08,9.62,-0.11,25.07
6260,0.2491,-0.0537,0.8724,-6.09,7.25,-0.05,25.07
6270,0.2235,-0.0527,0.8988,-6.09,7.91,-0.11,25.08
6280,0.2344,-0.0422,0.8833,-6.18,8.6,-0.08,25.1
6290,0.2461,-0.0411,0.858,-6.24,6.52,0.0,25.1
6300,0.2279,-0.0475,0.8928,-6.27,6.7,0.02,25.08
6310,0.2163,-0.0522,0.894,-6.38,8.61,-0.05,25.08
6320,0.2269,-0.0583,0.8669,-6.21,8.38,-0.05,25.09
6330,0.2239,-0.0515,0.8743,-6.17,8.11,-0.12,25.1
6340,0.2421,-0.0521,0.8781,-6.15,7.6,-0.08,25.09
6350,0.2365,-0.0457,0.8969,-6.15,7.22,-0.09,25.09
6360,0.2269,-0.0438,0.9053,-6.2,8.75,-0.06,25.1
6370,0.2385,-0.0461,0.8843,-6.26,8.27,0.02,25.09
6380,0.2421,-0.0463,0.887,-6.38,7.04,0.05,25.09
6390,0.2183,-0.0554,0.9042,-6.4,8.38,-0.06,25.09
6400,0.2336,-0.05,0.8833,-6.29,9.74,0.0,25.09
6410,0.2473,-0.0525,0.8491,-6.18,6.73,-0.05,25.09
6420,0.2115,-0.053,0.8817,-6.08,7.18,-0.02,25.11
6430,0.2224,-0.0402,0.8937,-6.0,9.3,-0.17,25.1
6445,0.2562,-0.0343,0.8798,-5.86,7.31,-0.49,25.12
6455,0.228,-0.0396,0.9088,-6.29,7.98,-0.15,25.12
6465,0.2229,-0.0505,0.8835,-6.44,8.96,0.0,25.12
6475,0.2373,-0.0603,0.8734,-6.23,7.73,-0.05,25.09
6485,0.2354,-0.0646,0.8795,-6.2,7.6,-0.08,25.1
6495,0.228,-0.0557,0.8792,-6.11,7.88,-0.08,25.1
6505,0.2285,-0.0483,0.8785,-6.12,7.77,-0.12,25.08
6515,0.2271,-0.0424,0.8746,-6.24,7.85,-0.09,25.11
6525,0.2423,-0.0411,0.8834,-6.27,7.54,-0.06,25.11
6535,0.238,-0.0439,0.8989,-6.29,7.28,0.02,25.11
6546,0.2252,-0.0457,0.8936,-6.21,7.66,0.0,25.1
6556,0.2224,-0.0499,0.8907,-6.31,8.96,-0.05,25.08
6566,0.2428,-0.051,0.8677,-6.21,8.03,0.0,25.12
6576,0.2358,-0.0583,0.8778,-6.21,6.99,-0.05,25.09
6586,0.2178,-0.0505,0.9008,-6.21,8.37,-0.08,25.09
6596,0.2336,-0.0458,0.8827,-6.2,8.78,-0.03,25.1
6606,0.2428,-0.0383,0.8917,-6.37,6.99,-0.17,25.08
6616,0.2227,-0.0428,0.9178,-6.37,8.15,0.0,25.1
6626,0.2317,-0.0603,0.8998,-6.37,9.63,0.0,25.1
6636,0.2448,-0.0693,0.8702,-6.21,7.82,0.12,25.11
6646,0.2157,-0.0667,0.8824,-6.21,8.78,0.0,25.09
6656,0.2434,-0.0577,0.8636,-6.08,9.22,0.08,25.12
6666,0.2606,-0.0502,0.8467,-6.05,5.83,-0.02,25.1
6676,0.2183,-0.0439,0.8917,-6.2,6.58,-0.15,25.1
6686,0.2135,-0.0325,0.9014,-6.23,9.97,-0.02,25.13
6696,0.2611,-0.0336,0.8569,-6.31,7.27,-0.02,25.1
6706,0.2366,-0.0389,0.8933,-6.21,6.35,-0.03,25.11
6716,0.228,-0.0446,0.899,-6.34,8.2,-0.05,25.13
6726,0.2311,-0.0508,0.897,-6.38,8.24,-0.03,25.1
6736,0.2372,-0.059,0.882,-6.24,7.83,-0.09,25.09
6746,0.2253,-0.0532,0.8967,-6.18,8.18,0.02,25.11
6756,0.2383,-0.0485,0.8783,-6.14,8.95,-0.06,25.1
6766,0.2462,-0.0519,0.859,-6.11,7.07,-0.09,25.1
6776,0.2313,-0.0446,0.8778,-6.12,6.99,-0.06,25.1
6786,0.2206,-0.0385,0.8854,-6.18,8.49,-0.05,25.1
6796,0.2406,-0.0414,0.8688,-6.15,7.76,0.06,25.1
6806,0.2416,-0.0374,0.879,-6.23,6.93,-0.09,25.1
6816,0.2306,-0.0419,0.8859,-6.31,7.66,-0.08,25.12
6826,0.2391,-0.0461,0.8846,-6.21,7.57,-0.09,25.1
6836,0.2313,-0.0465,0.8945,-6.24,7.89,-0.12,25.11
6846,0.2446,-0.0453,0.8875,-6.15,8.18,-0.03,25.12
6856,0.2476,-0.0531,0.8765,-6.15,6.87,0.0,25.1
6866,0.2238,-0.0481,0.887,-6.27,8.0,-0.03,25.11
6876,0.2394,-0.0485,0.8778,-6.14,8.7,0.0,25.11
6886,0.2555,-0.0465,0.8649,-6.2,6.21,-0.08,25.12
6896,0.2164,-0.0463,0.9033,-6.17,7.53,-0.03,25.12
6906,0.2217,-0.0471,0.8981,-6.24,10.02,-0.06,25.12
6916,0.2573,-0.0465,0.8567,-6.21,7.63,-0.18,25.13
6926,0.2405,-0.0535,0.8738,-6.24,5.88,-0.06,25.12
6936,0.2039,-0.053,0.9032,-6.21,8.76,-0.08,25.12
6946,0.2375,-0.0518,0.8761,-6.24,9.3,0.02,25.11
6956,0.2522,-0.0488,0.8572,-6.26,5.74,-0.05,25.12
6966,0.2107,-0.0435,0.9128,-6.27,7.77,0.02,25.11
6976,0.2283,-0.0392,0.9038,-6.35,9.95,0.0,25.1
6986,0.27,-0.0469,0.8597,-6.21,7.11,-0.12,25.12
6996,0.2321,-0.0513,0.8832,-6.21,6.29,-0.06,25.12
7006,0.2087,-0.054,0.8989,-6.23,9.97,-0.08,25.1
7016,0.2638,-0.051,0.8495,-6.11,8.03,-0.03,25.1
7026,0.2472,-0.0471,0.8712,-6.15,4.78,0.0,25.13
7036,0.1931,-0.041,0.9342,-6.34,10.2,-0.02,25.12
7046,0.2632,-0.041,0.8677,-6.23,9.01,0.02,25.13
7056,0.2506,-0.0505,0.8687,-6.24,5.33,-0.09,25.1
7066,0.1976,-0.0574,0.9019,-6.2,8.67,-0.15,25.16
7077,0.2029,-0.0577,0.9003,-6.21,10.72,-0.09,25.12
7087,0.2717,-0.051,0.8411,-6.08,6.58,0.0,25.13
7097,0.23,-0.0496,0.8936,-6.18,5.08,-0.05,25.11
7107,0.2152,-0.0394,0.9147,-6.31,9.3,0.06,25.1
7117,0.2592,-0.0397,0.8752,-6.18,8.89,-0.02,25.12
7127,0.2612,-0.0436,0.8685,-6.2,4.63,-0.03,25.13
7137,0.2028,-0.0573,0.917,-6.23,8.4,0.06,25.14
7147,0.2305,-0.0513,0.8883,-6.34,10.61,-0.08,25.12
7157,0.2731,-0.0565,0.8375,-6.08,5.13,-0.06,25.11
7167,0.1974,-0.0526,0.9109,-6.23,7.04,-0.11,25.12
7177,0.2283,-0.0372,0.8933,-6.26,10.37,0.0,25.12
7187,0.2626,-0.0397,0.8705,-6.23,6.32,-0.11,25.14
7197,0.2217,-0.0441,0.8993,-6.24,6.82,-0.14,25.13
7207,0.2119,-0.0482,0.8986,-6.27,10.67,-0.05,25.13
7217,0.2712,-0.0542,0.8379,-6.14,6.2,-0.08,25.11
7227,0.223,-0.0563,0.8832,-6.11,5.47,-0.08,25.14
7237,0.2024,-0.0474,0.9167,-6.26,9.85,-0.12,25.12
7247,0.2546,-0.0436,0.8732,-6.26,9.1,-0.05,25.12
7257,0.2546,-0.0493,0.8683,-6.15,5.59,-0.14,25.12
7267,0.2015,-0.0452,0.9132,-6.29,8.89,-0.05,25.11
7277,0.2164,-0.0485,0.8947,-6.17,10.6,-0.06,25.11
7287,0.2446,-0.0496,0.876,-6.26,5.02,-0.09,25.1
7297,0.2006,-0.0447,0.9213,-6.21,9.6,-0.06,25.09
7307,0.2544,-0.0409,0.8774,-6.29,8.75,-0.08,25.13
7317,0.2554,-0.0485,0.8702,-6.18,5.39,0.05,25.11
7327,0.2036,-0.0502,0.9054,-6.18,8.64,-0.06,25.13
7337,0.249,-0.0437,0.868,-6.14,9.54,-0.03,25.13
7347,0.2615,-0.0509,0.8569,-6.11,4.73,-0.03,25.12
7358,0.2595,-0.0494,0.8595,-6.12,5.4,-0.08,25.12
7368,0.2089,-0.0455,0.9147,-6.29,9.82,-0.03,25.13
7378,0.2576,-0.0468,0.8665,-6.27,8.17,-0.03,25.13
7388,0.2418,-0.0486,0.8749,-6.2,5.8,-0.05,25.15
7398,0.2141,-0.0446,0.8997,-6.21,7.25,0.02,25.14
7408,0.2585,-0.0504,0.8591,-6.14,8.41,-0.08,25.12
7418,0.236,-0.0469,0.88,-6.24,5.07,-0.08,25.11
7428,0.2059,-0.0422,0.9135,-6.18,10.38,-0.02,25.14
7438,0.2683,-0.0432,0.853,-6.2,7.07,0.05,25.14
7448,0.2297,-0.0494,0.8995,-6.32,6.2,-0.17,25.13
7458,0.2103,-0.048,0.9098,-6.37,7.83,-0.09,25.11
7468,0.2626,-0.0511,0.8521,-6.17,8.29,-0.06,25.13
7478,0.2445,-0.0511,0.8687,-6.12,4.44,-0.02,25.13
7488,0.2178,-0.0515,0.8969,-6.27,6.69,-0.02,25.1
7498,0.2218,-0.049,0.9017,-6.29,9.88,-0.02,25.11
7508,0.2693,-0.0483,0.8503,-6.15,6.17,-0.06,25.14
7518,0.2172,-0.0488,0.9067,-6.18,7.01,-0.03,25.12
7528,0.2211,-0.0458,0.9032,-6.35,9.88,-0.02,25.14
7538,0.2753,-0.0486,0.8357,-6.14,6.17,-0.03,25.14
7548,0.215,-0.0536,0.8947,-6.12,6.12,-0.14,25.15
7559,0.2052,-0.0474,0.9088,-6.35,7.95,-0.08,25.13
7569,0.2361,-0.0468,0.8937,-6.31,10.4,-0.09,25.12
7579,0.2664,-0.0458,0.861,-6.23,5.27,-0.11,25.14
7589,0.2034,-0.0562,0.9137,-6.23,8.41,-0.08,25.12
7599,0.238,-0.0533,0.873,-6.17,9.92,-0.08,25.12
7609,0.2601,-0.0491,0.8502,-6.15,5.34,0.0,25.15
7619,0.2021,-0.0442,0.9105,-6.29,7.94,-0.03,25.12
7629,0.2311,-0.0432,0.8854,-6.15,9.82,-0.05,25.13
7639,0.2637,-0.0437,0.8704,-6.23,6.66,-0.05,25.12
7649,0.2247,-0.0475,0.8916,-6.18,6.99,-0.08,25.14
7659,0.2203,-0.0503,0.8953,-6.17,10.2,-0.02,25.13
7669,0.2618,-0.0474,0.8527,-6.05,6.44,-0.08,25.13
7679,0.22,-0.0472,0.8965,-6.12,6.58,-0.08,25.14
7689,0.2114,-0.0474,0.903,-6.18,9.85,0.05,25.14
7699,0.2592,-0.0413,0.8669,-6.23,7.45,-0.06,25.14
7709,0.2194,-0.0459,0.8969,-6.29,6.98,-0.12,25.13
7719,0.2131,-0.0468,0.8992,-6.41,10.61,-0.03,25.12
7729,0.2711,-0.0479,0.8461,-6.17,6.14,0.06,25.15
7739,0.2267,-0.0459,0.8979,-6.17,6.03,-0.12,25.13
7749,0.2104,-0.0491,0.9089,-6.27,9.91,-0.06,25.12
7759,0.257,-0.0492,0.8621,-6.26,8.23,-0.06,25.15
7769,0.2391,-0.0537,0.8704,-6.31,5.4,-0.08,25.14
7779,0.1881,-0.0529,0.9141,-6.29,10.67,-0.05,25.17
7789,0.2655,-0.0502,0.8499,-6.21,7.59,-0.03,25.14
7799,0.2281,-0.0472,0.8812,-6.24,5.36,0.02,25.12
7809,0.2083,-0.0439,0.9186,-6.27,10.73,0.03,25.14
7819,0.2676,-0.0488,0.8645,-6.31,7.68,0.05,25.16
7830,0.2506,-0.053,0.8638,-6.23,6.18,-0.08,25.14
7840,0.2015,-0.0554,0.8994,-6.18,8.06,-0.05,25.14
7850,0.2229,-0.0497,0.887,-6.24,10.26,-0.09,25.14
7860,0.2635,-0.0474,0.854,-6.18,6.84,-0.05,25.17
7870,0.2205,-0.0544,0.896,-6.29,6.56,-0.12,25.18
7880,0.2123,-0.0436,0.9025,-6.21,9.71,-0.02,25.13
7890,0.2576,-0.0402,0.8844,-6.27,9.01,0.02,25.14
7900,0.269,-0.0474,0.8436,-6.15,5.04,-0.03,25.14
7910,0.1982,-0.0521,0.9011,-6.2,8.18,-0.11,25.15
7920,0.2428,-0.0461,0.8666,-6.12,9.3,-0.09,25.14
7930,0.2651,-0.0481,0.8668,-6.14,5.08,-0.08,25.14
7940,0.2124,-0.0497,0.9207,-6.26,7.68,-0.15,25.16
7950,0.2261,-0.0406,0.8973,-6.37,10.37,-0.05,25.18
7960,0.2596,-0.0493,0.8618,-6.2,7.34,0.0,25.14
7970,0.234,-0.0551,0.8861,-6.08,6.26,-0.03,25.15
7980,0.2104,-0.053,0.9103,-6.24,9.54,-0.02,25.13
7990,0.2482,-0.052,0.8625,-6.18,8.53,-0.03,25.13
8000,0.2533,-0.0497,0.8673,-6.12,5.37,0.05,25.14
8010,0.2238,-0.0504,0.8933,-6.24,6.08,-0.03,25.14
8020,0.2388,-0.0417,0.8872,-6.26,9.89,-0.09,25.15
8030,0.2649,-0.0475,0.8591,-6.11,5.94,-0.05,25.13
8040,0.219,-0.052,0.8921,-6.11,6.46,-0.09,25.14
8050,0.2086,-0.0507,0.897,-6.27,9.48,-0.06,25.12
8060,0.2441,-0.0502,0.8708,-6.24,8.76,0.0,25.14
8070,0.2509,-0.0598,0.8611,-6.15,7.63,-0.02,25.16
8080,0.2085,-0.0509,0.9196,-6.32,8.99,-0.06,25.15
8090,0.2333,-0.048,0.8845,-6.24,9.94,0.0,25.14
8100,0.2327,-0.05,0.8884,-6.31,7.8,-0.02,25.14
8110,0.2256,-0.0527,0.8885,-6.14,9.08,-0.06,25.11
8120,0.2378,-0.0557,0.8682,-6.15,7.6,-0.05,25.14
8130,0.2319,-0.0536,0.8763,-6.09,6.35,-0.05,25.15
8140,0.2102,-0.0497,0.9124,-6.24,8.84,-0.09,25.14
8150,0.251,-0.043,0.8716,-6.26,8.0,-0.08,25.14
8160,0.2402,-0.0507,0.8777,-6.27,7.27,-0.12,25.1
8171,0.2372,-0.0442,0.8799,-6.24,7.33,-0.09,25.17
8181,0.229,-0.0426,0.8907,-6.35,7.8,-0.06,25.17
8191,0.2328,-0.0436,0.9017,-6.34,8.18,-0.14,25.15
8201,0.2302,-0.052,0.8915,-6.29,8.98,-0.03,25.14
8211,0.2404,-0.0525,0.8712,-6.17,8.18,0.0,25.16
8221,0.2401,-0.0554,0.8766,-6.12,7.28,-0.09,25.15
8231,0.2329,-0.0454,0.8809,-6.23,7.22,-0.09,25.15
8241,0.2262,-0.0424,0.8983,-6.24,8.4,-0.03,25.18
8251,0.2345,-0.0414,0.8873,-6.34,8.46,-0.06,25.14
8261,0.2418,-0.0447,0.8796,-6.2,7.77,-0.08,25.16
8271,0.2474,-0.0455,0.87,-6.24,6.93,-0.11,25.14
8281,0.2174,-0.0544,0.9081,-6.18,7.98,-0.03,25.14
8291,0.2209,-0.0538,0.879,-6.35,8.98,-0.09,25.16
8301,0.223,-0.0541,0.882,-6.17,8.79,-0.02,25.14
8311,0.2488,-0.0435,0.8708,-6.21,6.56,-0.12,25.14
8322,0.2302,-0.0417,0.8977,-6.31,7.25,-0.08,25.16
8332,0.2292,-0.0403,0.8987,-6.21,8.82,-0.03,25.17
8342,0.249,-0.0529,0.8774,-6.26,7.82,-0.06,25.15
8352,0.2272,-0.0566,0.8799,-6.12,7.36,-0.05,25.17
8362,0.2178,-0.0564,0.8923,-6.17,8.75,0.05,25.14
8372,0.2554,-0.0496,0.8641,-6.21,7.62,0.03,25.12
8382,0.2399,-0.0444,0.8889,-6.26,6.34,-0.03,25.14
8392,0.2306,-0.0389,0.8823,-6.27,8.55,0.0,25.14
8402,0.2632,-0.0411,0.8842,-6.09,5.91,-0.03,25.17
8412,0.2201,-0.0463,0.9033,-6.29,7.36,-0.06,25.18
8422,0.2136,-0.052,0.9033,-6.26,10.24,-0.05,25.16
8432,0.2629,-0.0454,0.8328,-6.2,6.11,-0.11,25.17
8442,0.2213,-0.0514,0.8937,-6.24,6.2,-0.08,25.17
8452,0.2153,-0.0504,0.9142,-6.23,9.91,0.02,25.15
8462,0.2427,-0.0411,0.8796,-6.38,8.23,-0.03,25.17
8472,0.2351,-0.0414,0.88,-6.24,8.37,-0.05,25.16
8482,0.2466,-0.0496,0.8691,-6.21,7.04,-0.08,25.16
8492,0.2185,-0.0491,0.9006,-6.23,7.69,0.0,25.16
8502,0.2263,-0.0564,0.8866,-6.27,9.91,0.08,25.16
8512,0.2615,-0.0559,0.8452,-6.18,6.46,-0.03,25.17
8522,0.2228,-0.0502,0.8848,-6.15,6.0,-0.11,25.16
8532,0.2034,-0.0408,0.9153,-6.34,10.05,-0.02,25.14
8542,0.2625,-0.0444,0.8661,-6.26,8.17,-0.05,25.18
8552,0.2329,-0.0463,0.8871,-6.2,6.08,-0.11,25.16
8562,0.2056,-0.0488,0.9044,-6.18,9.33,-0.05,25.2
8572,0.2451,-0.0504,0.8635,-6.09,8.87,0.0,25.17
8582,0.2501,-0.0509,0.8634,-6.18,5.63,-0.05,25.19
8592,0.215,-0.0482,0.9011,-6.14,8.08,0.05,25.16
8602,0.2347,-0.0442,0.8851,-6.29,9.11,-0.06,25.18
8612,0.2502,-0.0338,0.8677,-6.32,7.08,-0.08,25.14
8622,0.2416,-0.038,0.8949,-6.23,7.59,-0.11,25.16
8632,0.2435,-0.0476,0.8818,-6.26,7.48,-0.03,25.18
8642,0.2206,-0.057,0.8899,-6.2,7.36,-0.03,25.18
8652,0.2173,-0.0529,0.8889,-6.18,9.21,-0.05,25.16
8662,0.2479,-0.0505,0.8557,-6.14,7.59,-0.02,25.17
8672,0.2324,-0.0461,0.8773,-6.23,6.18,-0.03,25.17
8682,0.214,-0.0468,0.8879,-6.18,7.07,0.03,25.19
8692,0.2434,-0.0404,0.8833,-6.32,8.92,0.02,25.19
8702,0.2573,-0.0355,0.8777,-6.31,6.4,-0.08,25.19
8712,0.2239,-0.0448,0.8983,-6.38,7.82,-0.05,25.19
8722,0.2241,-0.0559,0.8969,-6.32,8.7,0.02,25.17
8732,0.2457,-0.0613,0.8762,-6.24,8.14,0.02,25.17
8742,0.2526,-0.0598,0.8763,-6.26,7.04,-0.02,25.17
8752,0.2167,-0.0576,0.8906,-6.21,8.81,-0.05,25.18
8762,0.2397,-0.0531,0.866,-6.2,8.52,0.0,25.16
8772,0.2429,-0.0472,0.8729,-6.21,6.52,-0.05,25.18
8782,0.231,-0.0494,0.8872,-6.14,6.9,-0.06,25.19
8792,0.2281,-0.0479,0.8873,-6.21,8.49,0.03,25.18
8802,0.2268,-0.0454,0.8805,-6.17,8.41,-0.03,25.17
8812,0.2354,-0.0521,0.8798,-6.15,7.11,-0.15,25.17
8822,0.2213,-0.0468,0.8883,-6.26,7.39,-0.06,25.16
8832,0.2224,-0.0435,0.8943,-6.32,9.11,-0.05,25.19
8842,0.2552,-0.0386,0.8657,-6.29,7.95,-0.08,25.17
8852,0.2507,-0.0405,0.8837,-6.27,6.08,-0.11,25.19
8862,0.2213,-0.0399,0.9137,-6.37,8.0,-0.11,25.22
8872,0.2347,-0.0486,0.8943,-6.41,9.59,-0.06,25.19
8882,0.2625,-0.0518,0.8638,-6.31,6.82,-0.12,25.18
8892,0.2354,-0.0554,0.8783,-6.09,6.79,-0.09,25.17
8902,0.228,-0.0601,0.8802,-6.12,7.88,0.0,25.16
8912,0.2323,-0.0525,0.8746,-6.21,7.88,-0.03,25.18
8922,0.2262,-0.0488,0.8776,-6.15,8.06,0.02,25.2
8932,0.2317,-0.0399,0.8774,-6.2,7.77,-0.05,25.2
8942,0.2314,-0.0415,0.8827,-6.15,7.62,0.0,25.2
8952,0.2395,-0.0376,0.8843,-6.24,7.34,-0.05,25.19
8962,0.2316,-0.0399,0.9023,-6.29,8.56,-0.05,25.18
8972,0.2593,-0.0464,0.8849,-6.23,7.65,0.03,25.16
8982,0.2411,-0.0527,0.8875,-6.14,7.51,-0.03,25.19
8992,0.2377,-0.0548,0.8781,-6.18,7.94,-0.06,25.19
9002,0.2405,-0.0573,0.8744,-6.24,7.66,-0.11,25.18
9012,0.233,-0.0538,0.8776,-6.17,7.51,0.0,25.21
9022,0.2163,-0.0494,0.8871,-6.24,8.75,-0.06,25.17
9032,0.2372,-0.0442,0.8678,-6.23,8.96,-0.05,25.18
9042,0.2642,-0.04,0.8575,-6.31,6.2,-0.18,25.19
9052,0.2271,-0.0381,0.8998,-6.27,6.5,-0.11,25.23
9062,0.2195,-0.0437,0.9182,-6.44,9.6,-0.2,25.2
9072,0.2552,-0.0544,0.88,-6.31,8.46,-0.14,25.19
9082,0.2466,-0.0568,0.8734,-6.24,7.05,-0.11,25.18
9092,0.2377,-0.0588,0.8668,-5.98,7.19,-0.05,25.19
9102,0.2461,-0.0604,0.8663,-6.11,6.17,-0.06,25.18
9112,0.2123,-0.0433,0.905,-6.08,9.37,-0.05,25.19
9122,0.2479,-0.0405,0.8757,-6.27,8.5,-0.02,25.16
9132,0.254,-0.0414,0.8501,-6.18,6.27,-0.09,25.19
9142,0.2151,-0.0413,0.8872,-6.21,6.63,-0.09,25.18
9152,0.207,-0.0406,0.9146,-6.29,9.97,-0.06,25.19
9162,0.2582,-0.0393,0.8812,-6.35,8.09,-0.05,25.18
9172,0.2366,-0.0416,0.8993,-6.35,6.56,-0.09,25.16
9182,0.2236,-0.0455,0.8984,-6.15,8.95,0.02,25.19
9192,0.238,-0.0544,0.8746,-6.17,8.7,0.03,25.19
9202,0.2471,-0.0486,0.8602,-6.06,6.9,-0.03,25.19
9212,0.2157,-0.0438,0.887,-6.17,7.39,0.02,25.2
9222,0.2194,-0.0441,0.8945,-6.37,9.77,0.06,25.19
9232,0.2666,-0.0405,0.8562,-6.24,7.21,-0.06,25.18
9242,0.246,-0.0442,0.8776,-6.26,5.71,-0.02,25.19
9252,0.2052,-0.0487,0.9066,-6.23,8.92,0.0,25.19
9262,0.2469,-0.057,0.882,-6.32,9.18,-0.03,25.18
9272,0.2562,-0.0497,0.877,-6.34,6.24,0.03,25.19
9282,0.2284,-0.0564,0.8932,-6.17,7.59,-0.03,25.2
9292,0.2252,-0.0573,0.8829,-6.31,8.66,0.02,25.18
9302,0.2429,-0.0542,0.8785,-6.14,7.79,0.02,25.17
9312,0.2286,-0.0503,0.8849,-6.14,7.73,0.08,25.17
9322,0.2355,-0.0486,0.8816,-6.14,8.21,-0.08,25.19
9332,0.2432,-0.0476,0.8707,-6.23,7.31,-0.17,25.19
9342,0.2352,-0.0444,0.8726,-6.11,6.82,-0.12,25.19
9352,0.2239,-0.048,0.8965,-6.26,7.66,-0.08,25.17
9362,0.2321,-0.0481,0.8966,-6.29,8.17,-0.11,25.19
9372,0.2378,-0.0508,0.897,-6.35,7.56,-0.12,25.17
9382,0.2246,-0.0518,0.9003,-6.31,9.24,-0.06,25.17
9392,0.2415,-0.0559,0.8779,-6.27,8.6,-0.03,25.19
9402,0.2382,-0.059,0.8704,-6.12,7.45,-0.06,25.18
9412,0.2302,-0.0571,0.8794,-6.15,7.59,-0.02,25.18
9422,0.2333,-0.048,0.8879,-6.11,8.03,-0.02,25.18
9432,0.2366,-0.0449,0.8767,-6.18,7.74,0.0,25.19
9442,0.2247,-0.0446,0.891,-6.24,7.62,-0.02,25.18
9452,0.2264,-0.0414,0.8861,-6.35,8.6,0.0,25.2
9462,0.2367,-0.0446,0.875,-6.27,8.17,-0.03,25.18
9472,0.2358,-0.0444,0.873,-6.18,8.02,-0.06,25.2
9482,0.2368,-0.0466,0.8811,-6.24,7.5,-0.09,25.21
9492,0.2277,-0.0444,0.8977,-6.21,7.88,-0.03,25.19
9502,0.2322,-0.0474,0.892,-6.23,8.49,-0.03,25.21
9512,0.24,-0.048,0.8842,-6.27,7.66,-0.08,25.2
9522,0.2301,-0.0472,0.8911,-6.18,7.13,0.03,25.19
9532,0.2103,-0.0504,0.9027,-6.24,8.82,0.05,25.2
9542,0.2391,-0.0609,0.8752,-6.2,8.9,0.03,25.18
9552,0.2318,-0.0594,0.8635,-6.09,6.26,0.05,25.22
9562,0.2076,-0.0576,0.8932,-6.11,8.49,0.03,25.19
9572,0.2352,-0.0514,0.8701,-6.18,8.24,0.0,25.18
9582,0.2386,-0.0416,0.8744,-6.14,6.78,0.0,25.19
9592,0.23,-0.0431,0.889,-6.23,7.6,0.02,25.17
9602,0.2358,-0.0419,0.8918,-6.24,7.65,-0.05,25.22
9612,0.2317,-0.0425,0.9033,-6.26,8.37,-0.03,25.17
9622,0.2448,-0.0479,0.8877,-6.24,8.64,-0.06,25.19
9632,0.2578,-0.058,0.8646,-6.18,5.91,-0.03,25.2
9642,0.215,-0.0527,0.8964,-6.2,7.05,-0.12,25.17
9652,0.2301,-0.0498,0.8815,-6.18,9.08,-0.11,25.19
9662,0.251,-0.0468,0.8655,-6.15,6.47,-0.08,25.22
9672,0.2183,-0.0405,0.8925,-6.2,7.1,-0.15,25.18
9682,0.2163,-0.0376,0.8939,-6.38,9.56,-0.06,25.19
9692,0.2512,-0.0409,0.8716,-6.31,7.82,-0.08,25.2
9702,0.2422,-0.043,0.8916,-6.31,6.76,-0.08,25.19
9712,0.2264,-0.0515,0.9023,-6.26,8.11,-0.05,25.2
9722,0.2318,-0.0582,0.8763,-6.26,8.52,-0.05,25.19
9732,0.2346,-0.0544,0.871,-6.17,7.25,-0.02,25.22
9742,0.2268,-0.049,0.89,-6.12,7.85,-0.02,25.19
9752,0.2352,-0.0409,0.8813,-6.37,8.2,0.06,25.18
9762,0.2502,-0.038,0.8723,-6.31,7.04,-0.05,25.19
9772,0.2271,-0.0393,0.8867,-6.29,6.75,-0.03,25.19
9782,0.2128,-0.0431,0.9034,-6.31,8.92,-0.08,25.21
9792,0.2468,-0.0503,0.8779,-6.38,9.33,-0.03,25.18
9802,0.2677,-0.051,0.8557,-6.24,5.63,-0.06,25.19
9812,0.2089,-0.0554,0.9017,-6.2,7.31,0.0,25.19
9822,0.224,-0.0577,0.8845,-6.23,10.09,0.0,25.22
9832,0.2631,-0.0498,0.8561,-6.2,6.15,0.0,25.22
9842,0.2242,-0.0459,0.8953,-6.14,6.41,-0.05,25.22
9852,0.2048,-0.0446,0.9163,-6.35,10.53,-0.03,25.2
9862,0.2651,-0.0469,0.8522,-6.06,8.03,-0.02,25.23
9872,0.2396,-0.0466,0.8779,-6.18,4.89,-0.05,25.22
9882,0.2001,-0.0508,0.91,-6.27,9.69,-0.05,25.22
9892,0.2559,-0.0482,0.8693,-6.31,8.35,0.0,25.19
9902,0.2585,-0.0515,0.8585,-6.23,5.42,0.0,25.22
9912,0.2126,-0.0533,0.8965,-6.21,7.22,0.0,25.21
9922,0.223,-0.0449,0.8917,-6.2,9.86,0.05,25.19
9932,0.2734,-0.0457,0.8517,-6.2,5.88,-0.05,25.19
9942,0.2125,-0.0502,0.9023,-6.21,6.6,0.02,25.21
9952,0.2094,-0.0482,0.9026,-6.29,10.24,0.02,25.23
9962,0.2532,-0.05,0.8615,-6.24,8.17,0.06,25.21
9972,0.2491,-0.0532,0.8632,-6.12,5.77,0.03,25.19
9982,0.1982,-0.0499,0.9121,-6.32,8.31,-0.05,25.2
9992,0.2303,-0.0455,0.8878,-6.23,9.91,-0.11,25.21
10002,0.2479,-0.0448,0.8756,-6.35,8.26,-0.08,25.2
10012,0.2339,-0.046,0.8956,-6.23,6.99,-0.21,25.21
10022,0.2189,-0.0477,0.9066,-6.29,8.98,-0.12,25.21
10032,0.2347,-0.05,0.8687,-6.18,9.05,-0.06,25.22
10042,0.256,-0.0483,0.8539,-6.08,6.27,0.0,25.21
10052,0.2267,-0.0472,0.8885,-6.15,6.14,0.08,25.24
10062,0.2239,-0.0519,0.8951,-6.31,7.21,0.05,25.22
10072,0.2501,-0.0421,0.8802,-6.23,8.49,-0.06,25.22
10082,0.2568,-0.0475,0.8662,-6.24,5.4,-0.03,25.23
10092,0.2108,-0.0543,0.8984,-6.12,8.11,-0.11,25.22
10102,0.2345,-0.0549,0.8771,-6.12,8.82,-0.06,25.22
10112,0.2469,-0.0546,0.8645,-6.11,8.11,-0.02,25.22
10123,0.2567,-0.0533,0.8623,-6.12,5.73,0.03,25.22
10133,0.2311,-0.0527,0.8824,-6.26,6.38,-0.06,25.22
10143,0.2415,-0.0435,0.8834,-6.26,8.95,-0.06,25.21
10153,0.2535,-0.0463,0.8669,-6.24,6.38,-0.14,25.22
10163,0.2288,-0.05,0.8906,-6.17,7.07,-0.09,25.18
10173,0.2262,-0.0461,0.8917,-6.17,7.39,0.02,25.21
10183,0.2284,-0.0474,0.8966,-6.24,8.56,-0.11,25.19
10193,0.2499,-0.0483,0.8826,-6.26,8.24,-0.05,25.18
10203,0.256,-0.0466,0.8812,-6.23,6.34,-0.08,25.2
10213,0.2283,-0.0529,0.8993,-6.23,7.57,-0.06,25.21
10223,0.2435,-0.0516,0.8772,-6.21,8.85,0.03,25.2
10233,0.2589,-0.0522,0.848,-6.09,5.22,0.0,25.2
10243,0.2079,-0.0499,0.8744,-6.0,6.64,-0.03,25.21
10253,0.2216,-0.0413,0.8882,-6.03,8.05,0.06,25.2
10263,0.2527,-0.0297,0.8755,-6.26,6.93,-0.17,25.2
10273,0.2487,-0.0299,0.8848,-6.35,5.82,-0.12,25.21
10283,0.2288,-0.0404,0.9109,-6.4,7.79,-0.06,25.19
10293,0.2368,-0.0474,0.8942,-6.26,8.64,-0.02,25.2
10303,0.2405,-0.058,0.8756,-6.31,7.01,-0.08,25.21
10313,0.217,-0.0623,0.8865,-6.2,7.77,-0.12,25.2
10323,0.2289,-0.0533,0.8727,-6.11,8.31,-0.05,25.23
10333,0.2162,-0.0457,0.8945,-6.18,8.4,-0.02,25.23
10343,0.2306,-0.0403,0.8792,-6.17,9.15,0.02,25.22
10353,0.2534,-0.0394,0.8602,-6.2,6.08,-0.14,25.17
10363,0.2087,-0.0388,0.9099,-6.27,7.42,-0.03,25.21
10373,0.2227,-0.0435,0.9015,-6.31,10.55,0.0,25.19
10383,0.2753,-0.0559,0.8518,-6.27,6.63,-0.06,25.2
10393,0.2218,-0.0659,0.8842,-6.24,6.15,-0.06,25.19
10403,0.2079,-0.0537,0.8976,-6.18,10.34,0.12,25.22
10413,0.2502,-0.0543,0.8634,-6.27,7.94,0.0,25.19
10423,0.2438,-0.0457,0.8779,-6.18,6.53,0.0,25.22
10433,0.2188,-0.0408,0.9006,-6.32,8.26,-0.03,25.19
10443,0.2292,-0.043,0.889,-6.32,10.09,-0.03,25.2
10453,0.2698,-0.0438,0.8564,-6.24,6.47,-0.02,25.23
10463,0.2369,-0.0503,0.8799,-6.4,6.0,-0.09,25.24
10473,0.2157,-0.0553,0.8942,-6.24,8.52,-0.06,25.21
10483,0.2434,-0.0481,0.868,-6.29,8.2,-0.02,25.22
10493,0.2603,-0.053,0.8638,-6.14,5.01,-0.14,25.24
10503,0.2078,-0.0428,0.9253,-6.29,7.63,-0.14,25.22
10513,0.2268,-0.0361,0.8998,-6.35,10.47,-0.14,25.21
10523,0.2699,-0.0403,0.8561,-6.23,7.13,-0.11,25.21
10533,0.2351,-0.0488,0.874,-6.2,5.48,-0.09,25.22
10543,0.2043,-0.0546,0.9148,-6.35,9.91,-0.14,25.22
10553,0.2563,-0.052,0.8467,-6.2,8.27,-0.09,25.23
10563,0.2405,-0.0533,0.8733,-6.24,5.65,-0.02,25.21
10573,0.215,-0.0518,0.8956,-6.21,8.18,-0.02,25.24
10583,0.2296,-0.045,0.8909,-6.26,8.03,0.02,25.21
10593,0.2401,-0.0433,0.8937,-6.32,8.4,0.06,25.24
10603,0.2539,-0.0487,0.8706,-6.26,7.01,0.03,25.24
10613,0.219,-0.0533,0.8922,-6.26,7.15,-0.02,25.21
10623,0.2159,-0.0544,0.8928,-6.24,9.94,-0.05,25.22
10633,0.254,-0.0472,0.8575,-6.11,7.69,-0.02,25.23
10643,0.2384,-0.0455,0.8744,-6.06,6.11,0.0,25.21
10653,0.2129,-0.0361,0.9138,-6.2,8.75,-0.03,25.21
10663,0.2419,-0.0314,0.892,-6.27,9.28,-0.12,25.22
10673,0.2638,-0.041,0.8633,-6.38,6.37,-0.08,25.21
10683,0.2216,-0.0525,0.8884,-6.23,6.82,-0.09,25.2
10693,0.2153,-0.0585,0.8903,-6.21,9.08,-0.12,25.24
10703,0.2466,-0.0557,0.8663,-6.17,7.8,-0.06,25.22
10713,0.2441,-0.0585,0.8776,-6.09,6.46,-0.15,25.21
10723,0.2186,-0.0505,0.9055,-6.26,7.54,-0.08,25.22
10733,0.2235,-0.0461,0.9005,-6.21,9.94,-0.06,25.22
10743,0.2567,-0.0472,0.8582,-6.29,7.05,0.0,25.23
10753,0.2324,-0.0531,0.8805,-6.21,6.46,-0.17,25.24
10763,0.2092,-0.0547,0.8986,-6.11,8.7,-0.05,25.23
10773,0.2378,-0.0511,0.8726,-6.15,8.56,0.03,25.19
10783,0.2515,-0.0486,0.8602,-6.21,6.0,0.03,25.23
10793,0.2152,-0.0439,0.9066,-6.21,7.76,0.02,25.24
10803,0.2441,-0.0345,0.8859,-6.27,8.58,0.02,25.24
10813,0.2523,-0.0417,0.8765,-6.21,6.75,-0.08,25.2
10823,0.2477,-0.0443,0.8763,-6.15,5.88,-0.03,25.23
10833,0.2109,-0.0465,0.9041,-6.2,8.26,-0.12,25.24
10843,0.23,-0.0453,0.8951,-6.24,9.34,-0.15,25.23
10853,0.2526,-0.0486,0.8744,-6.18,7.47,-0.08,25.22
10863,0.2375,-0.0518,0.8885,-6.29,6.98,0.0,25.24
10873,0.2239,-0.0508,0.8965,-6.26,8.84,-0.12,25.23
10883,0.2427,-0.0527,0.871,-6.2,8.49,-0.05,25.24
10893,0.244,-0.0466,0.8702,-6.18,7.05,-0.03,25.22
10903,0.2362,-0.0508,0.8805,-6.09,7.63,-0.08,25.23
10913,0.2394,-0.05,0.8724,-6.2,7.18,0.0,25.23
10923,0.2263,-0.0455,0.8976,-6.2,7.54,-0.06,25.24
10933,0.2258,-0.0422,0.9077,-6.34,9.3,-0.11,25.25
10943,0.2595,-0.0479,0.8658,-6.17,7.95,-0.08,25.22
10953,0.2336,-0.0551,0.8804,-6.09,5.79,-0.11,25.25
10963,0.2003,-0.0563,0.8953,-6.09,9.54,-0.05,25.23
10973,0.2426,-0.0497,0.871,-6.15,8.52,-0.06,25.24
10983,0.2482,-0.0446,0.881,-6.27,6.32,0.0,25.24
10993,0.2151,-0.0437,0.9071,-6.34,8.2,-0.05,25.24
11003,0.2186,-0.0417,0.8895,-6.29,9.95,-0.02,25.24
11013,0.2524,-0.0437,0.8679,-6.17,7.85,-0.12,25.21
11023,0.2478,-0.0466,0.8749,-6.24,6.24,-0.09,25.24
11033,0.2174,-0.0516,0.9058,-6.31,7.89,-0.11,25.23
11043,0.2257,-0.0569,0.8951,-6.32,10.12,-0.08,25.24
11053,0.25,-0.0577,0.8578,-6.23,7.16,-0.06,25.25
11063,0.2239,-0.0524,0.8877,-6.18,6.81,-0.06,25.24
11073,0.2205,-0.0485,0.8958,-6.29,8.73,0.05,25.23
11083,0.2316,-0.0402,0.8942,-6.29,8.76,-0.09,25.22
11093,0.2505,-0.0378,0.8798,-6.41,7.8,-0.06,25.25
11103,0.2485,-0.0424,0.8807,-6.24,7.59,-0.02,25.24
11113,0.2428,-0.0483,0.8804,-6.26,7.15,-0.09,25.23
11123,0.2307,-0.0499,0.8887,-6.17,8.35,-0.11,25.23
11133,0.2463,-0.0533,0.8622,-6.12,7.76,-0.06,25.24
11143,0.2352,-0.0508,0.8756,-6.15,6.12,-0.11,25.25
11153,0.2155,-0.0472,0.8983,-6.18,8.38,-0.02,25.24
11163,0.2452,-0.0404,0.8785,-6.32,8.02,-0.06,25.24
11173,0.2462,-0.0435,0.8822,-6.15,6.63,-0.08,25.24
11183,0.2213,-0.0498,0.9009,-6.34,7.85,-0.11,25.24
11193,0.2295,-0.0582,0.8854,-6.17,9.08,0.0,25.24
11203,0.2456,-0.0576,0.8657,-6.12,7.73,0.0,25.24
11213,0.2363,-0.052,0.8711,-6.17,7.19,-0.12,25.22
11223,0.2272,-0.0496,0.8865,-6.12,8.26,-0.06,25.27
11233,0.2466,-0.0404,0.8698,-6.23,7.39,-0.08,25.25
11243,0.2374,-0.0377,0.8878,-6.35,7.94,-0.15,25.23
11253,0.2592,-0.038,0.8757,-6.31,7.51,-0.05,25.23
11263,0.2427,-0.042,0.8868,-6.31,6.7,-0.15,25.25
11273,0.2225,-0.0515,0.903,-6.34,8.49,-0.05,25.23
11283,0.2363,-0.0577,0.8851,-6.35,9.31,-0.03,25.23
11293,0.2527,-0.061,0.8635,-6.2,7.04,0.05,25.22
11303,0.2262,-0.0571,0.8824,-6.2,7.01,-0.02,25.23
11313,0.2104,-0.0498,0.895,-6.2,9.15,0.05,25.24
11323,0.2311,-0.0449,0.8785,-6.32,9.01,-0.06,25.24
11333,0.2412,-0.0389,0.87,-6.21,7.57,-0.03,25.23
11343,0.2231,-0.0392,0.8932,-6.27,7.73,-0.05,25.26
11353,0.2336,-0.0417,0.8795,-6.26,8.5,-0.12,25.24
11363,0.2448,-0.0405,0.8761,-6.21,6.7,-0.05,25.25
11373,0.224,-0.043,0.912,-6.29,7.63,-0.06,25.24
11383,0.2362,-0.047,0.9138,-6.41,9.45,-0.09,25.22
11393,0.2719,-0.0492,0.8564,-6.14,7.69,-0.11,25.24
11403,0.2372,-0.0557,0.8618,-6.17,4.87,-0.05,25.24
11413,0.2091,-0.0569,0.8907,-6.08,8.44,-0.11,25.23
11423,0.2377,-0.0477,0.871,-6.24,8.15,0.08,25.25
11433,0.24,-0.0382,0.8732,-6.18,6.6,-0.03,25.23
11443,0.226,-0.0311,0.8932,-6.31,7.57,-0.03,25.24
11453,0.2411,-0.0354,0.8925,-6.26,8.05,-0.08,25.24
11463,0.2474,-0.0415,0.8892,-6.31,7.11,-0.11,25.27
11473,0.2297,-0.0519,0.8969,-6.26,8.09,0.05,25.26
11483,0.24,-0.0559,0.8796,-6.32,8.17,0.02,25.22
11493,0.2383,-0.0574,0.8868,-6.31,8.5,-0.06,25.26
11503,0.2333,-0.0558,0.8802,-6.23,7.34,-0.03,25.24
11513,0.2144,-0.0546,0.8917,-6.17,8.26,-0.03,25.25
11523,0.2213,-0.0497,0.8774,-6.02,9.1,0.03,25.24
11533,0.2458,-0.0437,0.8671,-6.14,7.13,-0.09,25.24
11543,0.2213,-0.0317,0.9025,-6.37,7.79,-0.14,25.26
11553,0.2391,-0.0287,0.8826,-6.24,8.56,-0.03,25.25
11563,0.2539,-0.0458,0.875,-6.32,6.32,-0.03,25.27
11573,0.2378,-0.0526,0.896,-6.38,6.95,-0.14,25.25
11583,0.2068,-0.0533,0.9116,-6.35,9.19,-0.06,25.27
11593,0.2473,-0.067,0.8652,-6.24,9.11,-0.03,25.24
11603,0.2484,-0.0598,0.8566,-6.17,5.63,0.03,25.26
11613,0.207,-0.046,0.9122,-6.27,8.06,0.03,25.27
11623,0.2277,-0.0491,0.8816,-6.17,9.6,0.06,25.24
11633,0.2574,-0.0391,0.8633,-6.21,6.81,-0.06,25.24
11643,0.2336,-0.0342,0.8932,-6.31,6.92,-0.06,25.26
11653,0.2208,-0.0378,0.9138,-6.31,9.04,-0.02,25.22
11663,0.24,-0.0375,0.8899,-6.29,8.87,-0.03,25.25
11673,0.2509,-0.0531,0.8693,-6.24,6.87,-0.12,25.24
11683,0.2317,-0.0591,0.8759,-6.18,7.07,-0.05,25.23
11693,0.2322,-0.0623,0.8708,-6.06,7.71,-0.12,25.25
11703,0.2202,-0.0515,0.8927,-6.23,7.95,-0.15,25.26
11713,0.235,-0.0442,0.8883,-6.2,8.81,-0.14,25.25
11723,0.249,-0.0483,0.8649,-6.21,6.95,-0.05,25.26
11733,0.2115,-0.0428,0.9023,-6.37,7.56,0.03,25.24
11743,0.2203,-0.0452,0.8909,-6.37,9.8,0.05,25.28
11753,0.2511,-0.0514,0.8695,-6.29,7.1,-0.06,25.27
11763,0.2279,-0.051,0.8934,-6.37,7.11,-0.03,25.28
11773,0.2146,-0.0546,0.9017,-6.27,8.96,-0.03,25.24
11783,0.2383,-0.0493,0.8826,-6.18,8.98,0.0,25.27
11793,0.2493,-0.0443,0.8788,-6.23,7.59,-0.02,25.25
11803,0.2346,-0.0427,0.8798,-6.15,7.4,-0.06,25.26
11813,0.2188,-0.0521,0.8877,-6.21,8.32,-0.02,25.24
11823,0.2328,-0.0431,0.871,-6.17,8.26,-0.06,25.27
11833,0.2328,-0.0599,0.8716,-6.2,7.22,-0.02,25.29
11843,0.2192,-0.0487,0.8951,-6.26,7.62,0.05,25.24
11853,0.2264,-0.0485,0.8933,-6.24,9.04,-0.02,25.25
11863,0.2443,-0.0496,0.8779,-6.18,7.51,-0.08,25.24
11873,0.2401,-0.0435,0.8873,-6.18,7.16,-0.06,25.24
11883,0.2284,-0.0493,0.9003,-6.23,8.06,0.0,25.26
11893,0.2397,-0.0479,0.8843,-6.21,8.52,-0.02,25.23
11903,0.2495,-0.0497,0.8799,-6.34,6.73,0.02,25.26
11913,0.2203,-0.0529,0.8973,-6.35,7.82,0.03,25.26
11923,0.2261,-0.051,0.8894,-6.2,9.51,0.0,25.25
11933,0.2504,-0.0575,0.8638,-6.23,7.59,-0.02,25.26
11943,0.2377,-0.0485,0.8744,-6.26,6.63,-0.15,25.26
11953,0.2224,-0.0508,0.8923,-6.21,8.11,-0.14,25.25
11963,0.2292,-0.0475,0.8907,-6.12,8.81,-0.05,25.26
11973,0.2439,-0.042,0.8733,-6.21,7.8,-0.09,25.25
11983,0.2329,-0.0497,0.8799,-6.29,7.31,-0.02,25.25
11993,0.2242,-0.0419,0.8936,-6.18,8.23,0.02,25.24
12003,0.2351,-0.0402,0.8877,-6.35,8.55,-0.02,25.25
12013,0.2422,-0.0437,0.8754,-6.29,7.51,-0.12,25.25
12023,0.2418,-0.0298,0.886,-6.21,7.4,-0.12,25.25
12033,0.2323,-0.0341,0.8888,-6.23,7.85,-0.15,25.28
12043,0.2355,-0.04,0.8873,-6.29,7.37,-0.12,25.25
12053,0.2336,-0.0376,0.8849,-6.29,7.33,-0.11,25.25
12063,0.2355,-0.0491,0.8871,-6.26,8.4,-0.17,25.27
12073,0.2488,-0.0497,0.873,-6.29,6.89,-0.12,25.25
12083,0.2252,-0.0527,0.889,-6.18,7.04,-0.15,25.28
12093,0.2164,-0.0519,0.9034,-6.27,9.36,-0.05,25.26
12103,0.2467,-0.052,0.861,-6.23,8.21,-0.03,25.27
12113,0.249,-0.0543,0.8569,-6.12,5.54,-0.12,25.28
12123,0.2085,-0.0444,0.9012,-6.21,7.6,-0.06,25.27
12133,0.2251,-0.0432,0.8888,-6.26,9.34,0.03,25.29
12143,0.2552,-0.0426,0.8689,-6.31,6.89,-0.02,25.29
12153,0.2343,-0.0482,0.8958,-6.27,6.84,-0.06,25.27
12163,0.226,-0.0521,0.8989,-6.34,8.55,-0.11,25.26
12173,0.2415,-0.0607,0.8872,-6.24,8.17,0.0,25.24
12183,0.2454,-0.0587,0.887,-6.29,7.59,0.0,25.28
12193,0.248,-0.0612,0.8853,-6.26,7.1,0.09,25.29
12203,0.2344,-0.0667,0.8903,-6.27,7.15,0.0,25.28
12213,0.2216,-0.0608,0.8943,-6.23,8.69,0.06,25.26
12223,0.2311,-0.057,0.876,-6.23,8.55,0.05,25.27
12233,0.2343,-0.0525,0.8723,-6.2,7.88,0.11,25.25
12243,0.239,-0.0447,0.8741,-6.2,7.31,-0.05,25.27
12253,0.2216,-0.0359,0.8925,-6.18,7.92,-0.11,25.25
12263,0.2374,-0.0304,0.8771,-6.17,8.15,-0.12,25.27
12273,0.2361,-0.0288,0.8882,-6.27,7.39,-0.23,25.25
12283,0.2366,-0.0291,0.8973,-6.24,8.15,-0.14,25.27
12293,0.2369,-0.0419,0.8882,-6.27,8.26,-0.23,25.3
12303,0.2368,-0.04,0.8815,-6.34,8.05,-0.37,25.28
12313,0.2281,-0.0471,0.8752,-6.29,7.85,-0.23,25.27
12323,0.2266,-0.053,0.8788,-6.32,8.4,-0.12,25.24
12333,0.2295,-0.0403,0.869,-6.31,7.95,-0.21,25.28
12343,0.2344,-0.0524,0.8823,-6.15,7.56,-0.2,25.26
12353,0.2393,-0.0414,0.8823,-6.23,7.31,-0.02,25.28
12363,0.2283,-0.049,0.8998,-6.38,8.03,-0.03,25.27
12373,0.2393,-0.0518,0.8806,-6.37,8.34,0.15,25.24
12383,0.2457,-0.0509,0.8823,-6.34,6.81,0.06,25.26
12393,0.2294,-0.0693,0.8988,-6.21,7.33,0.12,25.27
12403,0.219,-0.0531,0.8947,-6.34,8.76,0.2,25.28
12413,0.2424,-0.0668,0.8795,-6.29,8.66,0.17,25.27
12423,0.2507,-0.0662,0.8582,-6.08,6.7,0.2,25.27
12433,0.213,-0.0542,0.8982,-6.18,7.76,0.12,25.24
12443,0.2335,-0.063,0.8713,-6.31,8.75,0.15,25.24
12453,0.2451,-0.0446,0.8853,-6.41,7.77,0.12,25.24
12463,0.2361,-0.0394,0.8748,-6.32,7.68,0.05,25.22
12473,0.2302,-0.0541,0.8823,-6.23,7.18,-0.06,25.25
12483,0.2174,-0.0304,0.9071,-6.2,8.96,-0.08,25.25
12493,0.2412,-0.0327,0.8851,-6.15,8.15,-0.21,25.26
12503,0.2393,-0.0404,0.8922,-6.12,7.79,-0.23,25.27
12513,0.2483,-0.0269,0.8821,-6.21,6.85,-0.38,25.27
12523,0.2097,-0.0439,0.9081,-6.26,8.64,-0.37,25.27
12533,0.2356,-0.0449,0.8779,-6.29,9.82,-0.24,25.27
12543,0.259,-0.0457,0.8558,-6.27,6.2,-0.24,25.28
12553,0.2231,-0.0551,0.8866,-6.2,6.82,-0.29,25.27
12563,0.2126,-0.0564,0.8898,-6.24,8.93,-0.15,25.28
12573,0.2291,-0.053,0.8821,-6.27,8.55,-0.05,25.27
12583,0.2345,-0.0573,0.8824,-6.18,7.79,0.06,25.31
12593,0.2377,-0.0508,0.8761,-6.29,7.37,0.11,25.29
12603,0.229,-0.0499,0.8894,-6.18,7.3,0.17,25.26
12613,0.2356,-0.0427,0.8932,-6.23,8.14,0.27,25.27
12623,0.2466,-0.0439,0.8866,-6.38,7.66,0.21,25.29
12633,0.2426,-0.0444,0.8827,-6.2,7.54,0.2,25.28
12643,0.2368,-0.0394,0.8802,-6.24,7.59,0.14,25.26
12653,0.2346,-0.0426,0.8856,-6.15,8.12,0.12,25.28
12663,0.2473,-0.0367,0.8689,-6.11,7.51,0.02,25.28
12673,0.2383,-0.045,0.8766,-6.09,6.55,-0.05,25.29
12683,0.2172,-0.0471,0.8843,-6.23,7.48,-0.18,25.3
12693,0.224,-0.0442,0.8801,-6.21,8.47,-0.21,25.26
12703,0.2312,-0.048,0.879,-6.35,8.03,-0.2,25.29
12713,0.2341,-0.0511,0.8839,-6.23,8.26,-0.26,25.31
12723,0.2495,-0.0494,0.8704,-6.26,6.82,-0.12,25.29
12733,0.2291,-0.0541,0.8999,-6.32,7.85,-0.2,25.26
12743,0.2507,-0.0546,0.8853,-6.32,7.79,-0.2,25.28
12753,0.2383,-0.0554,0.8873,-6.21,7.3,-0.12,25.28
12763,0.2184,-0.0546,0.8999,-6.17,8.05,0.02,25.27
12773,0.2377,-0.0493,0.8834,-6.31,8.24,0.0,25.27
12783,0.2369,-0.0428,0.887,-6.27,8.0,0.02,25.29
12793,0.231,-0.0404,0.8802,-6.29,7.79,0.05,25.28
12803,0.2296,-0.0406,0.8763,-6.23,8.24,-0.02,25.29
12813,0.2334,-0.0415,0.8693,-6.11,7.39,-0.02,25.29
12823,0.2185,-0.0382,0.8944,-6.29,7.86,-0.06,25.29
12833,0.2397,-0.0392,0.8885,-6.24,8.78,-0.08,25.31
12843,0.2467,-0.0386,0.8826,-6.27,8.05,-0.06,25.26
12853,0.2552,-0.0421,0.8867,-6.35,6.52,-0.15,25.29
12863,0.2285,-0.0546,0.8951,-6.37,7.4,0.0,25.27
12873,0.2312,-0.0604,0.8875,-6.26,9.53,0.03,25.27
12883,0.2399,-0.0629,0.8772,-6.27,7.79,-0.05,25.28
12893,0.2227,-0.0624,0.8887,-6.24,8.95,0.06,25.29
12903,0.2413,-0.0562,0.8737,-6.21,8.95,0.06,25.3
12913,0.2555,-0.0508,0.8646,-6.21,6.66,-0.06,25.28
12923,0.228,-0.0481,0.8899,-6.35,7.4,0.08,25.29
12933,0.2227,-0.0444,0.8894,-6.26,9.08,-0.03,25.3
12943,0.2542,-0.0454,0.8719,-6.21,8.02,-0.05,25.29
12953,0.2517,-0.0481,0.8826,-6.27,5.86,-0.03,25.31
12963,0.2092,-0.0542,0.9066,-6.23,8.23,0.02,25.29
12973,0.2372,-0.056,0.8705,-6.14,8.99,-0.15,25.29
12983,0.2496,-0.0554,0.8569,-6.2,6.2,-0.08,25.28
12993,0.2217,-0.051,0.8969,-6.08,6.99,-0.08,25.27
13003,0.2214,-0.0424,0.905,-6.29,9.1,-0.09,25.31
13013,0.2482,-0.0431,0.882,-6.27,8.08,-0.03,25.28
13023,0.2397,-0.0414,0.8894,-6.32,6.93,-0.06,25.32
13033,0.2235,-0.0442,0.8929,-6.34,8.44,-0.05,25.29
13043,0.2443,-0.0553,0.8667,-6.23,8.02,-0.03,25.28
13053,0.2346,-0.0474,0.8828,-6.17,6.05,-0.03,25.28
13063,0.2058,-0.0515,0.8987,-6.08,10.05,0.0,25.29
13073,0.2422,-0.0414,0.8759,-6.18,8.38,-0.09,25.31
13083,0.249,-0.0367,0.8735,-6.24,7.56,-0.12,25.29
13093,0.2312,-0.0394,0.8912,-6.34,6.7,-0.05,25.28
13103,0.2305,-0.0386,0.9,-6.29,9.59,-0.02,25.3
13113,0.2629,-0.048,0.8615,-6.17,6.43,-0.05,25.28
13123,0.2242,-0.0477,0.8878,-6.26,6.64,-0.08,25.29
13133,0.2222,-0.053,0.8892,-6.11,10.34,-0.08,25.31
13143,0.2694,-0.0477,0.8508,-6.2,5.56,-0.02,25.3
13153,0.2245,-0.0479,0.8997,-6.15,6.44,-0.08,25.29
13163,0.215,-0.043,0.9124,-6.27,9.59,-0.05,25.28
13173,0.2589,-0.0455,0.8612,-6.34,8.47,-0.03,25.3
13183,0.2515,-0.0524,0.868,-6.15,5.1,-0.09,25.27
13193,0.1995,-0.0588,0.907,-6.21,8.03,-0.03,25.29
13203,0.219,-0.0596,0.8824,-6.26,10.31,0.0,25.29
13213,0.2688,-0.052,0.8417,-6.15,5.69,-0.11,25.31
13223,0.2074,-0.0507,0.9102,-6.21,6.69,-0.14,25.31
13233,0.215,-0.047,0.9132,-6.24,10.66,-0.06,25.28
13243,0.272,-0.0415,0.8643,-6.37,7.42,-0.09,25.3
13253,0.2346,-0.0562,0.8835,-6.31,5.74,-0.03,25.32
13263,0.192,-0.0601,0.9222,-6.4,10.67,-0.08,25.3
13273,0.2616,-0.0557,0.85,-6.29,8.55,-0.02,25.32
13285,0.25,-0.0538,0.8577,-6.32,8.87,0.03,25.3
13295,0.2583,-0.0554,0.8529,-6.03,4.69,-0.02,25.29
13305,0.2073,-0.0471,0.9093,-6.29,7.16,-0.06,25.28
13315,0.2219,-0.0391,0.9165,-6.32,11.21,-0.08,25.27
13325,0.2776,-0.043,0.8619,-6.2,7.22,0.0,25.28
13335,0.2245,-0.0464,0.8875,-6.26,6.23,-0.05,25.29
13345,0.2131,-0.0458,0.8912,-6.21,10.75,-0.06,25.29
13355,0.2579,-0.0503,0.8503,-6.17,7.28,0.0,25.3
13365,0.2346,-0.0513,0.8885,-6.23,6.11,-0.06,25.28
13375,0.2081,-0.0419,0.9227,-6.41,10.09,-0.06,25.31
13385,0.2687,-0.0363,0.8691,-6.29,8.96,-0.09,25.32
13395,0.2587,-0.0482,0.865,-6.21,4.84,-0.09,25.29
13405,0.2021,-0.0443,0.9078,-6.24,8.35,-0.02,25.29
13415,0.2556,-0.0494,0.8584,-6.24,8.55,0.03,25.28
13425,0.2574,-0.0496,0.8632,-6.29,4.12,0.0,25.27
13435,0.1887,-0.0525,0.9281,-6.37,9.91,-0.09,25.28
13445,0.2451,-0.0455,0.8793,-6.37,9.11,0.0,25.31
13455,0.2512,-0.0447,0.8682,-6.2,5.69,-0.03,25.31
13465,0.2065,-0.0482,0.9133,-6.34,8.58,-0.08,25.27
13475,0.2449,-0.0499,0.8818,-6.17,9.8,-0.09,25.27
13485,0.2598,-0.0486,0.8562,-6.21,5.77,-0.08,25.29
13495,0.2188,-0.0496,0.9027,-6.26,7.02,-0.05,25.29
13505,0.2089,-0.0486,0.9159,-6.44,8.85,-0.08,25.32
13515,0.2611,-0.048,0.8743,-6.37,9.59,-0.06,25.32
13525,0.2522,-0.0549,0.8654,-6.27,5.34,-0.08,25.31
13535,0.2012,-0.0554,0.8989,-6.23,8.6,-0.11,25.29
13545,0.2352,-0.0492,0.8801,-6.18,9.4,-0.06,25.28
13555,0.2643,-0.0415,0.8561,-6.21,4.92,-0.08,25.29
13565,0.205,-0.0404,0.9281,-6.38,7.89,-0.14,25.29
13575,0.2244,-0.0511,0.9056,-6.49,10.98,-0.03,25.28
13585,0.2689,-0.0493,0.8505,-6.24,6.75,0.02,25.28
13595,0.2216,-0.0548,0.8895,-6.26,6.84,-0.12,25.3
13605,0.2163,-0.0543,0.8853,-6.23,10.27,0.05,25.29
13615,0.2617,-0.0527,0.8594,-6.17,6.73,-0.03,25.29
13625,0.2194,-0.0448,0.9055,-6.35,6.78,-0.05,25.28
13635,0.2245,-0.0366,0.9005,-6.18,9.66,-0.02,25.3
13645,0.2618,-0.0372,0.859,-6.29,6.38,-0.06,25.31
13655,0.2091,-0.0553,0.9033,-6.27,7.45,-0.05,25.29
13665,0.2203,-0.0576,0.8921,-6.26,9.73,-0.11,25.29
13675,0.2633,-0.0498,0.8436,-6.2,5.86,-0.05,25.3
13685,0.199,-0.0603,0.92,-6.26,7.56,-0.17,25.3
13695,0.2305,-0.0461,0.9006,-6.29,11.28,-0.11,25.29
13705,0.2766,-0.0492,0.8655,-6.21,6.49,-0.06,25.3
13716,0.2511,-0.0476,0.865,-6.21,5.82,0.05,25.31
13726,0.2029,-0.0503,0.9061,-6.21,8.49,0.05,25.3
13736,0.2297,-0.0492,0.8784,-6.23,9.59,0.0,25.28
13746,0.261,-0.0496,0.8542,-6.15,6.27,0.0,25.29
13756,0.2081,-0.0464,0.9131,-6.31,7.6,0.0,25.27
13766,0.235,-0.0482,0.8837,-6.21,10.56,-0.02,25.3
13776,0.2651,-0.0457,0.8577,-6.2,5.59,-0.11,25.3
13786,0.2032,-0.0432,0.9089,-6.21,7.91,-0.12,25.3
13796,0.2297,-0.0431,0.8851,-6.17,10.43,-0.08,25.28
13806,0.2667,-0.0428,0.8519,-6.09,6.18,-0.05,25.31
13816,0.2212,-0.045,0.8947,-6.23,6.11,-0.06,25.29
13826,0.2046,-0.0441,0.924,-6.41,10.61,-0.12,25.3
13836,0.2646,-0.041,0.8622,-6.2,7.97,-0.09,25.29
13846,0.2418,-0.0505,0.8711,-6.15,5.82,-0.11,25.27
13856,0.1995,-0.0483,0.9105,-6.12,9.69,0.02,25.29
13866,0.2555,-0.0432,0.8508,-6.12,8.49,-0.05,25.3
13878,0.2488,-0.049,0.8604,-6.18,8.79,0.02,25.31
13888,0.2502,-0.0471,0.8756,-6.18,5.39,-0.05,25.3
13898,0.1963,-0.04,0.9222,-6.35,9.18,-0.05,25.32
13908,0.2424,-0.0431,0.8906,-6.34,10.21,0.08,25.31
13918,0.2632,-0.048,0.8615,-6.27,6.18,-0.06,25.31
13928,0.2238,-0.0555,0.8823,-6.23,6.35,-0.11,25.32
13938,0.202,-0.0536,0.8994,-6.18,10.43,-0.08,25.3
13948,0.2561,-0.0525,0.8531,-6.09,7.68,-0.03,25.31
13958,0.244,-0.0455,0.8796,-6.14,5.36,-0.12,25.3
13968,0.2058,-0.0394,0.9315,-6.35,9.27,-0.06,25.31
13978,0.2461,-0.0394,0.8805,-6.46,9.74,0.03,25.33
13988,0.2593,-0.0491,0.8578,-6.27,6.15,0.0,25.3
13998,0.2092,-0.0543,0.8965,-6.26,7.3,-0.12,25.3
14008,0.2224,-0.0569,0.8873,-6.11,10.69,0.0,25.29
14018,0.2692,-0.0514,0.8422,-6.12,5.08,-0.08,25.29
14028,0.2371,-0.0477,0.8776,-6.2,5.02,-0.05,25.3
14038,0.2263,-0.0403,0.9004,-6.24,10.56,-0.08,25.32
14048,0.2701,-0.0399,0.8651,-6.12,6.69,-0.06,25.3
14058,0.2388,-0.0468,0.886,-6.24,5.69,0.0,25.3
14068,0.2028,-0.0527,0.9061,-6.23,9.13,-0.02,25.3
14078,0.2422,-0.0559,0.8656,-6.15,9.47,0.08,25.32
14088,0.26,-0.0519,0.8547,-6.03,4.92,-0.09,25.3
14098,0.1998,-0.0494,0.9127,-6.23,8.23,-0.12,25.3
14108,0.2338,-0.0431,0.8967,-6.32,9.74,-0.05,25.31
14118,0.2633,-0.0431,0.8715,-6.32,6.63,-0.06,25.29
14128,0.2191,-0.0476,0.8994,-6.29,7.05,-0.11,25.29
14138,0.2042,-0.056,0.9023,-6.23,9.98,-0.02,25.29
14148,0.2181,-0.0532,0.8889,-6.24,10.14,-0.02,25.31
14158,0.2526,-0.0515,0.8569,-6.21,5.54,0.0,25.31
14168,0.2106,-0.0494,0.9062,-6.29,7.28,0.0,25.31
14178,0.2151,-0.0389,0.9077,-6.26,10.49,-0.08,25.3
14188,0.2695,-0.043,0.8629,-6.23,7.54,-0.02,25.29
14198,0.2721,-0.0433,0.8619,-6.26,5.42,-0.06,25.29
14208,0.2113,-0.0483,0.9015,-6.27,7.48,-0.03,25.31
14218,0.2178,-0.0596,0.8925,-6.26,9.95,-0.02,25.32
14228,0.2574,-0.0569,0.8488,-6.15,7.08,-0.09,25.32
14238,0.2233,-0.0533,0.8822,-6.17,5.76,-0.11,25.33
14248,0.1991,-0.0468,0.9186,-6.49,10.5,-0.02,25.31
14258,0.2501,-0.042,0.8802,-6.31,9.02,-0.08,25.3
14268,0.2635,-0.0477,0.8655,-6.27,5.62,-0.15,25.33
14279,0.2322,-0.0487,0.8881,-6.21,5.74,-0.11,25.31
14289,0.2008,-0.0559,0.9026,-6.23,10.58,-0.02,25.32
14299,0.2587,-0.0513,0.8488,-6.15,7.71,-0.14,25.3
14309,0.2499,-0.0475,0.8722,-6.2,5.21,-0.06,25.33
14319,0.209,-0.0493,0.9155,-6.34,8.44,0.02,25.32
14329,0.2307,-0.0421,0.8959,-6.38,10.08,-0.14,25.32
14339,0.2714,-0.0452,0.847,-6.17,6.55,-0.06,25.3
14349,0.2162,-0.0513,0.8904,-6.06,6.26,-0.08,25.31
14359,0.205,-0.0454,0.8949,-6.26,10.11,-0.05,25.32
14369,0.2695,-0.0414,0.8569,-6.09,7.01,-0.03,25.32
14379,0.2328,-0.0437,0.8896,-6.32,5.34,0.06,25.31
14389,0.2109,-0.0444,0.9247,-6.44,10.18,-0.02,25.31
14400,0.2327,-0.048,0.8835,-6.27,9.57,-0.06,25.32
14410,0.2612,-0.0542,0.858,-6.27,5.57,-0.11,25.33
14420,0.2075,-0.0542,0.9028,-6.27,7.89,-0.15,25.31
14430,0.2256,-0.0543,0.885,-6.08,9.82,-0.03,25.31
14440,0.2565,-0.0551,0.8546,-6.12,6.14,-0.02,25.34
14450,0.2046,-0.0526,0.9143,-6.4,7.8,-0.11,25.31
14460,0.2299,-0.0471,0.9037,-6.49,10.49,0.05,25.32
14470,0.267,-0.0532,0.856,-6.24,6.7,0.06,25.3
14480,0.2205,-0.0509,0.8838,-6.31,6.64,-0.06,25.32
14491,0.2115,-0.0515,0.8909,-6.29,6.63,-0.03,25.32
14501,0.2511,-0.0469,0.8696,-6.17,9.24,-0.02,25.31
14511,0.2592,-0.0468,0.8623,-6.18,5.3,-0.03,25.34
14521,0.2059,-0.0415,0.9121,-6.29,8.35,-0.14,25.3
14531,0.2383,-0.0388,0.8921,-6.31,10.44,-0.03,25.34
14541,0.2715,-0.0443,0.8651,-6.34,6.27,-0.09,25.32
14551,0.2362,-0.0453,0.8867,-6.34,6.41,-0.08,25.32
14561,0.2073,-0.0565,0.8978,-6.23,9.53,-0.03,25.34
14571,0.2524,-0.0503,0.8513,-6.18,8.12,-0.06,25.33
14581,0.2438,-0.046,0.8699,-6.17,5.45,-0.06,25.31
14591,0.2117,-0.0386,0.9119,-6.32,7.88,-0.06,25.31
14601,0.2313,-0.0348,0.9076,-6.38,9.66,0.0,25.32
14611,0.2706,-0.0365,0.8683,-6.31,6.4,0.09,25.32
14621,0.224,-0.0488,0.894,-6.26,6.43,0.09,25.31
14631,0.2129,-0.0497,0.894,-6.24,9.18,0.11,25.32
14641,0.2469,-0.0548,0.8596,-6.24,7.4,0.08,25.3
14651,0.2319,-0.0502,0.8721,-6.2,5.69,0.12,25.31
14661,0.2152,-0.0464,0.9056,-6.23,8.26,-0.03,25.34
14671,0.2234,-0.042,0.8976,-6.27,9.6,0.03,25.32
14681,0.2368,-0.0408,0.8882,-6.32,8.11,-0.05,25.32
14691,0.226,-0.0458,0.8976,-6.32,8.27,-0.09,25.34
14701,0.2426,-0.053,0.8923,-6.2,8.7,-0.12,25.34
14711,0.2582,-0.0631,0.8597,-6.15,6.4,-0.11,25.32
14721,0.2231,-0.066,0.8772,-6.26,6.44,0.0,25.35
14731,0.2123,-0.0588,0.8973,-6.26,9.48,0.03,25.34
14741,0.2581,-0.0494,0.8765,-6.26,8.37,-0.15,25.31
14751,0.2589,-0.0483,0.8778,-6.31,6.31,-0.08,25.32
14761,0.2295,-0.0479,0.8909,-6.32,6.99,-0.11,25.34
14771,0.219,-0.0496,0.8959,-6.32,8.81,-0.08,25.33
14781,0.2384,-0.0491,0.8822,-6.21,8.76,-0.06,25.33
14791,0.2457,-0.0533,0.8655,-6.18,7.15,-0.06,25.33
14801,0.2375,-0.0493,0.8713,-6.17,6.6,-0.08,25.32
14811,0.2242,-0.0435,0.8848,-6.27,8.26,-0.17,25.32
14821,0.2408,-0.0333,0.8773,-6.21,6.79,-0.18,25.34
14831,0.2346,-0.035,0.8932,-6.21,6.6,-0.2,25.33
14841,0.2301,-0.0334,0.8917,-6.32,9.36,-0.08,25.32
14851,0.2499,-0.038,0.8788,-6.32,8.52,-0.05,25.32
14861,0.2297,-0.0493,0.8907,-6.27,6.75,-0.2,25.32
14871,0.2168,-0.0471,0.9003,-6.32,8.11,-0.03,25.33
14881,0.2301,-0.0605,0.8715,-6.17,9.37,-0.03,25.31
14891,0.249,-0.0554,0.8584,-6.17,5.92,-0.05,25.32
14901,0.2097,-0.0447,0.9124,-6.23,7.79,-0.05,25.33
14911,0.2362,-0.0493,0.8914,-6.26,9.16,0.08,25.33
14921,0.2365,-0.042,0.88,-6.41,7.4,0.02,25.29
14931,0.2363,-0.0483,0.8831,-6.29,7.34,-0.02,25.34
14941,0.2246,-0.0554,0.8969,-6.18,7.18,0.02,25.32
14952,0.2321,-0.0526,0.8804,-6.21,7.07,-0.11,25.32
14962,0.2241,-0.0588,0.8784,-6.21,7.97,-0.06,25.32
14972,0.2305,-0.0559,0.8671,-6.09,7.48,-0.06,25.33
14982,0.2196,-0.0466,0.894,-6.17,7.45,-0.06,25.33
14992,0.2488,-0.0375,0.8909,-6.2,9.05,0.0,25.31
15002,0.261,-0.0442,0.8676,-6.38,7.74,-0.09,25.32
15012,0.223,-0.0457,0.903,-6.4,8.37,-0.05,25.32
15022,0.2424,-0.0509,0.8638,-6.27,7.83,-0.05,25.36
15032,0.2225,-0.0571,0.8816,-6.34,6.82,-0.03,25.32
15042,0.2059,-0.056,0.8829,-6.12,8.89,-0.09,25.33
15052,0.2207,-0.0529,0.8802,-6.14,8.41,-0.02,25.3
15062,0.2283,-0.0457,0.8899,-6.15,7.83,-0.18,25.33
15072,0.2219,-0.0363,0.9073,-6.38,8.64,-0.12,25.31
15082,0.2264,-0.0393,0.9109,-6.38,10.53,-0.09,25.31
15092,0.2611,-0.0513,0.8743,-6.17,8.46,0.02,25.32
15102,0.2744,-0.0579,0.8484,-6.31,5.62,-0.06,25.32
15112,0.2394,-0.049,0.8792,-6.15,6.5,-0.06,25.32
15122,0.2319,-0.0543,0.8716,-6.02,8.99,-0.08,25.32
15132,0.2789,-0.0479,0.8368,-5.92,2.4,-0.12,25.33
15142,0.1912,-0.0312,0.9165,-6.03,8.24,-0.26,25.32
15152,0.2435,-0.0183,0.9054,-6.29,8.52,-0.08,25.32
15162,0.2422,-0.0223,0.8961,-6.63,8.14,0.0,25.33
15172,0.2563,-0.0446,0.8754,-6.49,8.76,0.06,25.33
15182,0.2607,-0.0612,0.8484,-6.31,4.67,0.06,25.31
15192,0.1937,-0.0743,0.9004,-6.27,9.25,-0.09,25.32
15202,0.2631,-0.0562,0.8639,-6.15,7.74,-0.09,25.32
15212,0.2174,-0.0526,0.8842,-5.92,6.44,-0.17,25.3
15222,0.2102,-0.0359,0.9092,-6.24,9.66,-0.05,25.32
15232,0.2446,-0.0391,0.8959,-6.14,8.81,0.02,25.33
15242,0.2579,-0.0439,0.8752,-6.43,6.15,0.05,25.31
15252,0.2152,-0.0505,0.9044,-6.34,8.02,0.11,25.33
15262,0.2209,-0.056,0.8716,-6.32,9.47,0.11,25.32
15272,0.248,-0.0615,0.8473,-6.03,7.04,0.02,25.34
15282,0.2366,-0.0471,0.8766,-6.06,5.69,-0.06,25.32
15292,0.2068,-0.0375,0.921,-6.17,8.92,-0.14,25.32
15302,0.2465,-0.0282,0.8901,-6.21,9.76,-0.14,25.35
15312,0.2601,-0.0342,0.8744,-6.34,5.74,-0.17,25.33
15322,0.2111,-0.0472,0.9102,-6.44,8.08,-0.06,25.34
15332,0.224,-0.0541,0.8889,-6.24,9.77,-0.05,25.32
15342,0.2477,-0.0626,0.8556,-6.4,7.18,-0.11,25.32
15352,0.2357,-0.0649,0.8618,-6.14,6.56,0.0,25.37
15362,0.2146,-0.0599,0.8937,-6.15,7.57,-0.06,25.34
15372,0.2118,-0.051,0.9154,-6.17,7.73,-0.06,25.34
15382,0.2496,-0.0417,0.8821,-6.18,8.9,-0.05,25.35
15392,0.2483,-0.0399,0.8781,-6.21,6.47,0.06,25.34
15402,0.2179,-0.0493,0.897,-6.29,7.62,0.06,25.35
15412,0.231,-0.0325,0.8745,-6.41,9.51,0.02,25.34
15422,0.2605,-0.0494,0.8499,-6.32,6.18,0.03,25.34
15432,0.2114,-0.0492,0.9127,-6.32,7.27,0.02,25.33
15442,0.2321,-0.041,0.901,-6.31,10.96,-0.02,25.32
15452,0.2739,-0.0398,0.8472,-6.21,5.69,-0.11,25.33
15462,0.2169,-0.0491,0.8922,-6.12,6.67,-0.14,25.34
15472,0.2164,-0.0522,0.8976,-6.17,9.98,-0.08,25.35
15482,0.2665,-0.0443,0.8528,-6.34,6.26,-0.11,25.35
15492,0.2546,-0.0509,0.8689,-6.34,5.97,-0.11,25.32
15502,0.2087,-0.0565,0.9015,-6.34,9.69,-0.02,25.34
15512,0.2262,-0.0549,0.8884,-6.38,9.89,0.06,25.34
15522,0.2452,-0.0587,0.8678,-6.27,5.48,-0.02,25.32
15532,0.1978,-0.0557,0.9095,-6.21,9.47,-0.03,25.33
15542,0.2521,-0.0535,0.8671,-6.08,8.66,0.02,25.34
15552,0.2631,-0.0465,0.8567,-6.12,6.63,0.0,25.35
15562,0.222,-0.0466,0.9032,-6.29,6.27,0.05,25.37
15572,0.2135,-0.0457,0.9066,-6.35,10.66,0.05,25.34
15582,0.2677,-0.0493,0.8483,-6.14,6.35,-0.05,25.35
15592,0.2181,-0.0513,0.885,-6.14,6.43,-0.06,25.34
15602,0.2119,-0.05,0.9001,-6.08,10.6,-0.06,25.34
15612,0.2701,-0.0435,0.8458,-6.03,6.11,-0.08,25.34
15622,0.2214,-0.0393,0.905,-6.15,6.14,-0.18,25.32
15632,0.204,-0.0256,0.9148,-6.29,10.67,-0.11,25.35
15642,0.2559,-0.0249,0.8845,-6.44,9.68,-0.08,25.37
15652,0.259,-0.038,0.8706,-6.31,6.32,-0.18,25.33
15662,0.1973,-0.0906,0.8944,-6.32,8.29,-0.24,25.35
15672,0.229,-0.0771,0.8745,-6.21,10.05,-0.14,25.36
15682,0.2517,-0.0389,0.8489,-6.03,6.82,-0.02,25.34
15692,0.214,-0.0518,0.9124,-6.35,8.21,-0.03,25.34
15702,0.2396,-0.0348,0.905,-6.34,9.76,0.14,25.35
15712,0.2544,-0.0381,0.8765,-6.5,7.77,0.05,25.35
15722,0.208,-0.0436,0.8965,-6.26,8.24,0.02,25.33
15732,0.2285,-0.0359,0.8645,-6.24,9.63,-0.05,25.32
15742,0.2457,-0.0494,0.863,-6.18,7.13,0.0,25.35
15752,0.2417,-0.0447,0.8844,-6.14,7.13,-0.05,25.34
15762,0.2465,-0.0428,0.887,-6.09,7.08,-0.14,25.35
15772,0.2279,-0.0463,0.8999,-6.26,7.57,-0.15,25.37
15782,0.2285,-0.0513,0.8855,-6.32,9.62,-0.03,25.35
15792,0.2618,-0.0559,0.8625,-6.43,7.11,0.06,25.35
15802,0.2377,-0.0614,0.8827,-6.38,6.29,-0.02,25.36
15812,0.2118,-0.0612,0.9059,-6.43,8.93,0.03,25.33
15822,0.2651,-0.0623,0.8553,-6.29,7.85,0.05,25.32
15832,0.2238,-0.0577,0.8838,-6.14,5.34,0.06,25.34
15842,0.2029,-0.0542,0.9061,-6.14,11.36,-0.06,25.34
15852,0.2777,-0.0526,0.8403,-5.98,5.94,-0.02,25.35
15862,0.2218,-0.0453,0.8943,-6.14,5.63,-0.15,25.34
15872,0.2136,-0.04,0.9099,-6.27,9.91,-0.14,25.34
15882,0.2625,-0.0417,0.8674,-6.31,8.37,-0.14,25.35
15892,0.249,-0.0574,0.8628,-6.2,5.53,-0.17,25.35
15902,0.2107,-0.0618,0.8998,-6.17,8.02,-0.12,25.36
15912,0.2301,-0.0511,0.8778,-5.97,9.73,-0.2,25.37
15922,0.2634,-0.045,0.8572,-5.97,5.92,-0.14,25.35
15932,0.2178,-0.0355,0.9114,-6.2,6.6,-0.09,25.36
15942,0.2294,-0.0288,0.9125,-6.38,9.92,-0.03,25.37
15952,0.2737,-0.0358,0.8613,-6.38,6.46,-0.03,25.36
15962,0.2079,-0.0459,0.896,-6.34,7.08,-0.05,25.35
15972,0.2163,-0.0526,0.8774,-6.27,9.97,-0.03,25.37
15982,0.2609,-0.0514,0.8395,-6.14,5.42,-0.18,25.33
15992,0.1974,-0.0519,0.9139,-6.23,7.48,-0.14,25.35
16002,0.2261,-0.0405,0.9041,-6.24,10.69,-0.11,25.34
16012,0.2722,-0.0396,0.8561,-6.2,6.11,0.05,25.36
16022,0.2126,-0.0444,0.9033,-6.35,6.82,-0.06,25.34
16032,0.2209,-0.0459,0.8912,-6.37,10.75,0.03,25.36
16042,0.2756,-0.057,0.8508,-6.21,5.73,0.03,25.37
16052,0.2095,-0.0603,0.9056,-6.38,6.69,0.03,25.36
16062,0.2242,-0.0537,0.9009,-6.37,11.31,0.06,25.36
16072,0.277,-0.0591,0.8524,-6.11,5.85,0.15,25.36
16082,0.2184,-0.0548,0.8925,-6.09,6.81,0.06,25.37
16092,0.2002,-0.0485,0.9148,-6.08,9.02,-0.02,25.36
16102,0.2677,-0.0443,0.8513,-6.06,6.44,0.03,25.35
16112,0.2205,-0.0427,0.9065,-6.34,6.11,0.0,25.35
16122,0.2195,-0.0402,0.9116,-6.43,10.78,0.0,25.36
16132,0.274,-0.0513,0.8549,-6.26,6.37,0.03,25.34
16142,0.2235,-0.0558,0.8871,-6.31,6.41,-0.17,25.37
16152,0.1956,-0.0552,0.9053,-6.31,8.76,-0.14,25.35
16162,0.2622,-0.0519,0.8513,-6.12,7.48,-0.12,25.36
16172,0.2437,-0.0493,0.8737,-6.14,5.63,-0.09,25.34
16182,0.2075,-0.0437,0.9103,-6.29,7.16,-0.11,25.37
16192,0.2729,-0.0398,0.865,-6.37,8.27,-0.08,25.33
16202,0.266,-0.0468,0.8546,-6.29,5.51,0.02,25.34
16212,0.1935,-0.045,0.9133,-6.24,8.55,0.02,25.37
16222,0.2443,-0.0493,0.8564,-6.21,10.06,0.0,25.37
16232,0.2562,-0.0521,0.8489,-6.03,3.85,-0.12,25.37
16242,0.2021,-0.0432,0.9161,-6.29,8.64,-0.09,25.34
16252,0.2469,-0.035,0.8976,-6.21,9.08,-0.02,25.35
16262,0.2675,-0.0397,0.876,-6.21,6.6,-0.05,25.36
16272,0.2268,-0.0442,0.8831,-6.32,6.15,0.03,25.37
16282,0.208,-0.0459,0.9006,-6.35,10.11,0.09,25.35
16292,0.2574,-0.0477,0.8466,-6.17,7.3,-0.02,25.35
16302,0.2257,-0.0499,0.889,-6.32,5.77,-0.02,25.38
16312,0.203,-0.0424,0.9155,-6.26,10.47,0.02,25.39
16322,0.2611,-0.0457,0.865,-6.17,7.76,-0.08,25.37
16332,0.2314,-0.0476,0.8809,-6.17,5.76,-0.15,25.37
16342,0.2046,-0.0455,0.9113,-6.32,9.76,-0.03,25.38
16352,0.2543,-0.0503,0.8668,-6.29,8.64,0.08,25.35
16362,0.2529,-0.0576,0.8685,-6.17,5.05,0.02,25.37
16372,0.1963,-0.0488,0.9178,-6.4,9.51,0.06,25.37
16382,0.2595,-0.0546,0.8735,-6.31,9.42,0.08,25.35
16392,0.2542,-0.0592,0.8615,-6.18,5.27,0.0,25.37
16402,0.1964,-0.0537,0.9104,-6.24,9.91,-0.02,25.38
16412,0.2505,-0.0491,0.8573,-6.17,8.47,0.03,25.35
16422,0.2473,-0.0436,0.8729,-6.17,5.28,-0.11,25.37
16432,0.2172,-0.0354,0.9044,-6.38,7.73,-0.05,25.37
16442,0.2325,-0.0404,0.9008,-6.41,10.0,-0.03,25.36
16452,0.2701,-0.0437,0.8547,-6.29,5.63,-0.11,25.36
16462,0.2065,-0.0522,0.905,-6.27,7.68,-0.11,25.36
16472,0.2379,-0.053,0.8779,-6.11,9.76,-0.03,25.37
16482,0.2633,-0.051,0.8484,-6.12,5.4,-0.09,25.37
16492,0.218,-0.0521,0.8998,-6.24,6.82,-0.06,25.36
16502,0.2189,-0.0453,0.9086,-6.26,10.78,-0.06,25.36
16512,0.276,-0.0399,0.8575,-6.21,6.95,-0.05,25.35
16522,0.2427,-0.0463,0.8829,-6.29,5.94,-0.11,25.39
16532,0.2124,-0.0483,0.8955,-6.24,8.85,-0.09,25.38
16542,0.2458,-0.0477,0.8552,-6.21,8.44,0.08,25.35
16552,0.2451,-0.0507,0.8702,-6.26,5.59,0.02,25.37
16562,0.2051,-0.0435,0.9207,-6.27,9.31,-0.11,25.4
16572,0.2664,-0.0409,0.8594,-6.18,8.18,-0.03,25.37
16582,0.2369,-0.0444,0.8822,-6.29,4.96,-0.11,25.37
16592,0.203,-0.0448,0.912,-6.34,10.05,-0.05,25.35
16602,0.2451,-0.0476,0.8662,-6.14,9.01,0.08,25.35
16612,0.2563,-0.0492,0.8527,-6.21,5.3,0.0,25.36
16622,0.2023,-0.0488,0.9158,-6.34,7.83,-0.09,25.38
16632,0.2313,-0.0436,0.9019,-6.38,10.7,0.02,25.34
16642,0.271,-0.0433,0.8596,-6.2,6.06,-0.06,25.38
16652,0.2242,-0.0524,0.8887,-6.27,6.78,-0.03,25.36
16662,0.2097,-0.0537,0.9011,-6.27,10.26,0.06,25.34
16672,0.2656,-0.0458,0.849,-6.21,6.81,-0.09,25.38
16682,0.2365,-0.0514,0.8833,-6.27,5.44,0.0,25.35
16692,0.2101,-0.0498,0.9159,-6.38,9.18,-0.14,25.35
16702,0.241,-0.0487,0.8856,-6.29,9.74,-0.03,25.39
16712,0.2651,-0.0533,0.8517,-6.17,5.68,0.0,25.36
16722,0.2095,-0.0566,0.8955,-6.24,6.99,-0.11,25.39
16732,0.2186,-0.0551,0.8951,-6.2,10.18,-0.11,25.37
16742,0.2605,-0.0476,0.8593,-6.14,7.18,-0.06,25.36
16752,0.2635,-0.0475,0.8589,-6.15,6.18,-0.09,25.36
16762,0.2043,-0.0415,0.9144,-6.34,8.4,-0.05,25.35
16772,0.2347,-0.0381,0.8867,-6.35,9.97,-0.02,25.34
16782,0.2599,-0.0444,0.8663,-6.23,6.41,-0.09,25.37
16792,0.2147,-0.051,0.905,-6.2,7.89,-0.15,25.37
16802,0.219,-0.0474,0.8832,-6.32,9.89,-0.18,25.38
16812,0.2325,-0.0485,0.8701,-6.26,9.91,-0.11,25.37
16822,0.2328,-0.0482,0.8781,-6.12,5.19,-0.12,25.38
16832,0.1965,-0.0398,0.9276,-6.37,10.55,0.0,25.39
16842,0.2605,-0.0366,0.8729,-6.32,8.79,-0.11,25.37
16852,0.2655,-0.0389,0.8584,-6.38,6.92,-0.02,25.39
16862,0.2369,-0.051,0.8779,-6.24,5.88,-0.03,25.37
16872,0.194,-0.0503,0.9069,-6.32,9.94,0.03,25.38
16882,0.2495,-0.0527,0.8663,-6.31,8.75,-0.08,25.35
16892,0.2571,-0.0496,0.8605,-6.2,5.47,-0.08,25.36
16902,0.2032,-0.0433,0.9191,-6.26,7.83,-0.05,25.37
16912,0.2363,-0.0369,0.8971,-6.32,10.87,0.02,25.35
16922,0.275,-0.0447,0.8567,-6.11,5.02,-0.02,25.39
16932,0.2058,-0.0515,0.9026,-6.32,7.91,0.03,25.36
16942,0.2247,-0.0548,0.8811,-6.35,10.67,0.0,25.39
16952,0.2643,-0.05,0.8488,-6.2,6.17,-0.08,25.35
16962,0.2216,-0.0499,0.9021,-6.35,6.23,-0.06,25.37
16972,0.2141,-0.0449,0.924,-6.47,11.6,-0.06,25.38
16982,0.2772,-0.0476,0.8494,-6.23,6.78,-0.06,25.37
16992,0.2231,-0.0531,0.8969,-6.15,6.21,-0.06,25.36
17002,0.2095,-0.0482,0.8989,-6.15,10.4,-0.11,25.39
17012,0.2638,-0.0516,0.8579,-6.21,7.44,-0.03,25.34
17022,0.2468,-0.0446,0.8727,-6.18,5.08,-0.03,25.36
17032,0.1985,-0.0409,0.9266,-6.4,9.57,-0.03,25.38
17042,0.2576,-0.0399,0.8746,-6.47,9.36,-0.17,25.39
17053,0.2729,-0.0391,0.8584,-6.21,6.96,0.0,25.36
17063,0.2263,-0.0466,0.8843,-6.34,6.11,-0.11,25.35
17073,0.2073,-0.0526,0.9036,-6.18,10.47,-0.11,25.39
17083,0.2637,-0.0438,0.8505,-6.17,7.39,-0.11,25.35
17093,0.2382,-0.0509,0.8854,-6.11,4.76,-0.03,25.39
17103,0.2067,-0.0386,0.9263,-6.41,10.24,-0.09,25.37
17113,0.2672,-0.0437,0.8702,-6.26,8.4,-0.12,25.36
17123,0.2432,-0.0504,0.8737,-6.29,5.74,0.03,25.39
17133,0.203,-0.0526,0.8955,-6.15,9.45,-0.02,25.39
17143,0.2542,-0.0521,0.8508,-6.12,8.26,0.0,25.41
17153,0.2467,-0.051,0.8757,-6.08,4.82,0.02,25.36
17163,0.1992,-0.0437,0.9369,-6.44,9.76,-0.02,25.39
17173,0.262,-0.0398,0.8772,-6.37,9.24,-0.05,25.37
17183,0.2527,-0.0514,0.8608,-6.14,5.4,-0.06,25.36
17193,0.1978,-0.0536,0.9031,-6.15,8.55,-0.02,25.36
17203,0.2362,-0.0504,0.8787,-6.2,9.31,0.05,25.37
17213,0.2539,-0.0504,0.8683,-6.15,5.63,-0.17,25.38
17223,0.205,-0.0503,0.915,-6.32,8.4,-0.09,25.39
17233,0.2303,-0.0485,0.8903,-6.4,9.86,-0.08,25.37
17243,0.2626,-0.0482,0.8629,-6.24,6.6,-0.09,25.39
17253,0.2223,-0.0516,0.9001,-6.18,7.22,-0.14,25.37
17263,0.2317,-0.0527,0.881,-6.29,9.13,-0.02,25.37
17273,0.2593,-0.0532,0.8623,-6.17,5.59,-0.08,25.39
17283,0.2006,-0.0527,0.9225,-6.31,8.34,-0.05,25.37
17293,0.2429,-0.0483,0.8879,-6.23,9.44,-0.09,25.34
17303,0.2509,-0.0488,0.8633,-6.26,5.85,-0.14,25.39
17313,0.2026,-0.0483,0.9104,-6.18,9.16,-0.08,25.37
17323,0.2466,-0.0505,0.8599,-6.21,8.99,-0.06,25.38
17333,0.2501,-0.0449,0.866,-6.23,5.24,-0.06,25.37
17343,0.1997,-0.0392,0.92,-6.26,8.96,-0.05,25.37
17353,0.2439,-0.0432,0.8763,-6.35,9.54,-0.02,25.36
17363,0.2623,-0.0414,0.8665,-6.26,4.99,0.02,25.37
17373,0.1942,-0.0493,0.9042,-6.32,8.6,-0.02,25.37
17383,0.2369,-0.0452,0.8719,-6.17,9.28,-0.03,25.36
17393,0.2499,-0.054,0.8673,-6.23,5.51,-0.08,25.36
17403,0.1974,-0.0471,0.9197,-6.31,9.05,-0.02,25.36
17413,0.2465,-0.042,0.8807,-6.24,9.79,-0.03,25.39
17423,0.2571,-0.0525,0.8602,-6.2,5.8,-0.03,25.38
17433,0.2062,-0.0536,0.9017,-6.26,8.2,-0.06,25.4
17443,0.2354,-0.0469,0.8829,-6.26,9.88,0.06,25.39
17453,0.2556,-0.0544,0.8458,-6.05,5.74,0.08,25.39
17463,0.2081,-0.0408,0.9119,-6.41,7.15,-0.11,25.39
17473,0.2231,-0.0446,0.8958,-6.34,10.75,-0.03,25.39
17483,0.2737,-0.0426,0.8516,-6.15,6.18,0.02,25.39
17493,0.2123,-0.0482,0.8982,-6.31,6.72,-0.02,25.38
17503,0.2159,-0.049,0.8964,-6.2,10.03,0.02,25.38
17513,0.2721,-0.047,0.8446,-6.09,6.44,-0.03,25.36
17523,0.2203,-0.0531,0.8921,-6.21,5.95,-0.11,25.37
17533,0.2128,-0.0444,0.9132,-6.29,10.03,-0.06,25.39
17543,0.2562,-0.0518,0.8657,-6.29,8.52,-0.05,25.39
17553,0.2642,-0.0502,0.8595,-6.23,6.35,-0.08,25.37
17563,0.2045,-0.0549,0.9121,-6.35,7.6,-0.09,25.38
17573,0.2241,-0.0565,0.884,-6.27,10.6,-0.06,25.38
17583,0.2649,-0.0494,0.8508,-6.12,6.24,-0.08,25.38
17593,0.2288,-0.0522,0.8828,-6.21,6.17,-0.06,25.37
17603,0.2081,-0.045,0.9241,-6.32,9.63,-0.08,25.36
17613,0.2543,-0.04,0.8734,-6.32,9.02,-0.03,25.39
17623,0.2583,-0.0472,0.8702,-6.23,5.37,-0.11,25.4
17633,0.1923,-0.051,0.9088,-6.26,9.07,-0.05,25.37
17643,0.2397,-0.0479,0.8673,-6.18,9.39,-0.06,25.4
17653,0.2664,-0.0502,0.8434,-6.18,6.44,-0.06,25.38
17663,0.1965,-0.0469,0.9229,-6.27,9.3,-0.05,25.38
17673,0.2534,-0.036,0.8867,-6.32,9.63,-0.06,25.38
17683,0.261,-0.0522,0.8629,-6.17,5.44,-0.09,25.38
17693,0.2025,-0.0507,0.9,-6.26,8.03,-0.08,25.39
17703,0.2233,-0.0499,0.8778,-6.2,10.06,-0.12,25.39
17713,0.2678,-0.049,0.8519,-6.2,4.96,-0.03,25.4
17723,0.2039,-0.0482,0.9193,-6.35,7.73,-0.06,25.38
17733,0.2324,-0.0474,0.9038,-6.29,11.1,-0.02,25.38
17743,0.2596,-0.049,0.8524,-6.29,6.29,-0.05,25.37
17753,0.2086,-0.053,0.9037,-6.31,7.44,-0.05,25.38
17763,0.2134,-0.0509,0.8918,-6.41,10.81,-0.02,25.4
17773,0.2607,-0.05,0.8558,-6.15,6.61,0.06,25.39
17783,0.2235,-0.0454,0.89,-6.29,5.94,-0.05,25.4
17793,0.2167,-0.0408,0.9172,-6.35,10.5,-0.03,25.39
17803,0.274,-0.0399,0.8552,-6.18,6.69,-0.11,25.4
17813,0.2275,-0.0521,0.8837,-6.2,5.82,-0.14,25.35
17823,0.2075,-0.0503,0.91,-6.15,9.98,-0.06,25.35
17833,0.2708,-0.0482,0.85,-6.09,7.24,-0.02,25.42
17843,0.236,-0.0525,0.8755,-6.2,5.08,-0.06,25.37
17853,0.2043,-0.0485,0.92,-6.35,9.88,0.02,25.37
17863,0.2596,-0.0459,0.8711,-6.26,8.81,0.05,25.37
17873,0.2455,-0.0533,0.8687,-6.18,4.93,-0.11,25.39
17883,0.1982,-0.049,0.9114,-6.27,9.77,-0.15,25.4
17893,0.2489,-0.0488,0.864,-6.18,9.19,-0.06,25.37
17903,0.2554,-0.0494,0.8524,-6.09,4.72,0.03,25.39
17913,0.1967,-0.0444,0.9174,-6.27,8.81,-0.02,25.38
17923,0.2472,-0.0372,0.8873,-6.32,10.41,0.02,25.38
17933,0.2592,-0.0472,0.8584,-6.23,5.36,-0.06,25.4
17943,0.2002,-0.0465,0.899,-6.26,7.82,-0.05,25.39
17953,0.2275,-0.0476,0.8782,-6.17,10.29,0.0,25.39
17963,0.2682,-0.0459,0.8517,-6.08,5.16,-0.09,25.38
17973,0.2106,-0.0449,0.8999,-6.21,6.89,-0.2,25.38
17983,0.2201,-0.0415,0.9091,-6.44,10.12,0.0,25.38
17993,0.2681,-0.0443,0.8552,-6.23,7.5,-0.05,25.38
18003,0.2328,-0.0513,0.8735,-6.2,5.36,-0.06,25.39
18013,0.1986,-0.0491,0.9104,-6.24,10.2,-0.03,25.38
18023,0.2581,-0.05,0.8599,-6.11,8.35,-0.06,25.4
18033,0.2396,-0.05,0.8763,-6.24,4.98,-0.08,25.41
18043,0.1996,-0.0432,0.9188,-6.43,10.82,-0.03,25.4
18053,0.259,-0.0425,0.8702,-6.27,8.67,-0.03,25.39
18063,0.2563,-0.0488,0.8638,-6.26,5.18,0.0,25.39
18073,0.1968,-0.0546,0.9077,-6.26,9.98,0.0,25.38
18083,0.249,-0.0471,0.8613,-6.23,8.69,0.02,25.4
18093,0.2592,-0.051,0.8624,-6.11,6.08,-0.03,25.39
18103,0.2197,-0.0438,0.9086,-6.31,7.37,-0.08,25.38
18113,0.2417,-0.0433,0.8861,-6.27,10.14,-0.03,25.38
18123,0.2634,-0.0482,0.8564,-6.17,5.02,-0.09,25.39
18133,0.2046,-0.0531,0.9014,-6.29,8.41,0.0,25.41
18143,0.2316,-0.0465,0.8834,-6.29,9.86,-0.09,25.38
18153,0.2676,-0.0505,0.8478,-6.21,4.9,-0.08,25.4
18163,0.2048,-0.0474,0.9154,-6.38,7.66,-0.02,25.38
18173,0.2299,-0.0463,0.8993,-6.38,10.53,-0.02,25.4
18183,0.274,-0.0493,0.8472,-6.31,6.03,-0.11,25.39
18193,0.2118,-0.0537,0.8984,-6.23,7.28,-0.15,25.4
18203,0.2015,-0.0508,0.9043,-6.09,9.68,-0.08,25.39
18213,0.2517,-0.049,0.8624,-6.17,8.49,-0.06,25.38
18223,0.2506,-0.0449,0.8728,-6.23,5.25,-0.05,25.4
18233,0.2019,-0.0397,0.9227,-6.35,9.22,-0.03,25.38
18243,0.256,-0.0405,0.879,-6.41,9.62,-0.08,25.4
18253,0.2531,-0.0516,0.8632,-6.21,5.53,-0.05,25.4
18263,0.2003,-0.0533,0.9075,-6.31,8.84,-0.08,25.39
18273,0.2499,-0.0514,0.8584,-6.18,8.95,0.0,25.38
18283,0.2494,-0.0513,0.8672,-6.18,4.79,-0.11,25.41
18293,0.201,-0.0492,0.9169,-6.23,9.07,-0.05,25.41
18303,0.249,-0.0446,0.8779,-6.23,9.4,-0.05,25.39
18313,0.2611,-0.0459,0.8646,-6.23,4.75,-0.09,25.41
18323,0.1959,-0.0529,0.9161,-6.38,9.11,-0.03,25.39
18333,0.2377,-0.0527,0.8745,-6.27,10.05,-0.08,25.4
18343,0.2706,-0.0516,0.8394,-6.12,5.47,-0.05,25.4
18353,0.2097,-0.0522,0.908,-6.18,6.7,-0.06,25.4
18363,0.2205,-0.0464,0.9098,-6.35,10.61,0.05,25.38
18373,0.2742,-0.0455,0.8606,-6.14,6.92,-0.02,25.4
18383,0.2268,-0.05,0.8884,-6.18,6.03,-0.08,25.39
18393,0.2102,-0.0433,0.9052,-6.23,9.92,-0.11,25.42
18403,0.2635,-0.0519,0.8551,-6.23,7.25,-0.09,25.41
18413,0.2291,-0.0513,0.8849,-6.18,6.12,-0.11,25.37
18423,0.2141,-0.0428,0.9117,-6.29,9.92,0.0,25.4
18433,0.2646,-0.0469,0.8672,-6.34,7.77,-0.06,25.39
18443,0.2394,-0.0507,0.8801,-6.24,5.48,-0.09,25.38
18453,0.1981,-0.0522,0.9086,-6.15,10.23,-0.21,25.4
18463,0.2657,-0.0455,0.8502,-6.11,7.4,-0.08,25.4
18473,0.2374,-0.0435,0.8883,-6.29,4.87,-0.06,25.4
18483,0.1996,-0.0486,0.9268,-6.46,10.4,-0.14,25.4
18493,0.2668,-0.0464,0.8572,-6.34,8.58,-0.05,25.39
18503,0.2424,-0.049,0.8708,-6.23,4.46,0.06,25.4
18513,0.2063,-0.0518,0.9054,-6.38,9.25,-0.08,25.38
18523,0.2373,-0.0482,0.8743,-6.21,9.53,-0.08,25.4
18533,0.2543,-0.0505,0.8525,-6.14,5.79,-0.02,25.37
18543,0.2001,-0.0421,0.9102,-6.37,7.57,-0.08,25.4
18553,0.2323,-0.0347,0.8951,-6.24,10.46,-0.09,25.4
18563,0.2681,-0.0446,0.8651,-6.21,5.63,-0.12,25.38
18573,0.2068,-0.045,0.9041,-6.32,7.91,-0.02,25.41
18583,0.2368,-0.0521,0.8761,-6.21,9.95,-0.06,25.39
18593,0.2603,-0.0515,0.8441,-6.14,4.89,-0.08,25.38
18603,0.1967,-0.0488,0.9181,-6.29,8.23,-0.02,25.39
18613,0.2411,-0.0457,0.8899,-6.43,9.65,-0.02,25.4
18623,0.2646,-0.0535,0.8622,-6.2,5.53,-0.12,25.39
18633,0.2068,-0.0491,0.9054,-6.23,7.74,-0.03,25.42
18643,0.2216,-0.0525,0.8915,-6.2,10.7,0.0,25.41
18653,0.2692,-0.0485,0.8488,-6.08,5.39,0.02,25.42
18663,0.2042,-0.0471,0.9124,-6.34,7.07,-0.02,25.39
18674,0.2015,-0.0411,0.9187,-6.37,10.0,0.0,25.36
18684,0.2224,-0.0436,0.9025,-6.24,10.26,-0.02,25.42
18694,0.2474,-0.0522,0.8727,-6.23,5.63,-0.14,25.4
18704,0.2024,-0.0526,0.902,-6.21,9.48,0.0,25.41
18714,0.2406,-0.0477,0.8691,-6.23,9.22,-0.12,25.41
18724,0.2498,-0.0518,0.854,-6.11,5.34,-0.09,25.41
18734,0.1937,-0.0458,0.9315,-6.34,9.44,-0.08,25.42
18744,0.2274,-0.0444,0.9025,-6.29,11.15,-0.08,25.43
18754,0.2463,-0.0447,0.8699,-6.35,5.21,-0.05,25.38
18764,0.2056,-0.049,0.9036,-6.31,9.59,-0.09,25.41
18774,0.2251,-0.0502,0.8876,-6.21,10.29,-0.06,25.39
18784,0.2516,-0.0482,0.8691,-6.15,4.7,0.0,25.4
18794,0.1945,-0.0443,0.9308,-6.38,9.6,-0.14,25.38
18804,0.2191,-0.0405,0.9093,-6.47,10.98,-0.08,25.4
18814,0.2517,-0.051,0.8699,-6.26,5.45,-0.06,25.41
18824,0.2019,-0.0491,0.9087,-6.31,9.44,-0.08,25.4
18834,0.2529,-0.0509,0.8617,-6.12,9.25,0.02,25.38
18844,0.2512,-0.0503,0.8673,-6.18,4.6,-0.05,25.4
18854,0.2061,-0.0455,0.9211,-6.41,8.72,-0.03,25.42
18865,0.2151,-0.0433,0.9149,-6.4,10.26,-0.02,25.38
18875,0.2467,-0.041,0.8805,-6.38,10.26,0.02,25.41
18885,0.2303,-0.0509,0.8906,-6.24,6.03,-0.06,25.4
18895,0.2095,-0.0509,0.9022,-6.32,8.32,-0.06,25.42
18905,0.2698,-0.0508,0.8481,-6.14,6.75,-0.05,25.42
18915,0.2567,-0.0549,0.8536,-6.11,4.56,-0.05,25.4
18925,0.196,-0.0516,0.9132,-6.27,8.63,-0.09,25.42
18935,0.2401,-0.0392,0.8816,-6.35,9.97,0.03,25.4
18945,0.2681,-0.0491,0.8624,-6.24,5.53,-0.05,25.41
18955,0.2111,-0.0497,0.9056,-6.35,7.73,-0.12,25.42
18965,0.225,-0.0481,0.8866,-6.21,10.12,-0.06,25.42
18975,0.2672,-0.0491,0.8434,-6.12,6.2,-0.14,25.4
18985,0.2218,-0.0496,0.9039,-6.23,6.23,-0.09,25.43
18995,0.2107,-0.0416,0.9164,-6.34,10.76,-0.05,25.41
19005,0.2679,-0.0474,0.8607,-6.29,7.48,-0.05,25.41
19015,0.2407,-0.048,0.8754,-6.24,5.71,-0.06,25.41
19025,0.2002,-0.0513,0.9082,-6.23,9.47,-0.03,25.4
19035,0.2582,-0.053,0.8643,-6.24,8.47,0.0,25.42
19045,0.241,-0.0499,0.8745,-6.23,5.37,-0.03,25.41
19055,0.1991,-0.0457,0.9209,-6.32,10.02,0.02,25.41
19065,0.2635,-0.0468,0.8625,-6.32,8.41,-0.06,25.41
19075,0.2412,-0.049,0.8779,-6.15,5.59,-0.14,25.43
19085,0.203,-0.0482,0.9086,-6.29,9.68,0.0,25.41
19095,0.2552,-0.0487,0.861,-6.17,8.37,-0.03,25.42
19105,0.2479,-0.0409,0.8702,-6.27,4.92,-0.09,25.41
19115,0.2009,-0.0465,0.9198,-6.31,9.18,-0.05,25.4
19125,0.2468,-0.0424,0.8802,-6.38,9.37,-0.03,25.39
19135,0.2585,-0.0492,0.8586,-6.2,5.18,-0.05,25.39
19145,0.1947,-0.0565,0.9066,-6.26,8.92,-0.09,25.42
19155,0.2433,-0.0452,0.8661,-6.31,8.93,-0.12,25.4
19165,0.2577,-0.0448,0.869,-6.14,5.25,-0.05,25.4
19175,0.2059,-0.0453,0.9272,-6.4,8.15,-0.06,25.38
19185,0.2385,-0.0455,0.8857,-6.4,10.55,-0.02,25.39
19195,0.2686,-0.0535,0.8475,-6.21,4.41,-0.06,25.42
19205,0.1931,-0.0577,0.9047,-6.27,8.93,-0.08,25.43
19215,0.2437,-0.0486,0.8719,-6.21,9.47,-0.06,25.45
19225,0.254,-0.0479,0.8572,-6.18,5.42,0.05,25.41
19235,0.1992,-0.0497,0.9135,-6.38,8.32,-0.08,25.38
19245,0.2284,-0.04,0.8888,-6.26,10.17,-0.08,25.4
19255,0.2734,-0.0474,0.8549,-6.2,6.24,-0.09,25.42
19265,0.2096,-0.0526,0.9089,-6.35,6.7,-0.09,25.42
19275,0.2153,-0.0481,0.8944,-6.23,11.24,0.02,25.4
19285,0.2476,-0.0477,0.858,-6.11,8.82,-0.02,25.4
19295,0.225,-0.0472,0.8931,-6.17,6.34,-0.11,25.41
19305,0.2101,-0.0366,0.9166,-6.44,10.17,-0.12,25.41
19315,0.2703,-0.0425,0.8661,-6.24,7.85,-0.05,25.42
19325,0.2323,-0.0479,0.8784,-6.21,5.57,-0.09,25.4
19335,0.2065,-0.0439,0.9056,-6.29,10.49,-0.15,25.42
19345,0.2676,-0.0431,0.8474,-6.18,6.85,-0.09,25.41
19355,0.2372,-0.0526,0.8864,-6.15,5.77,-0.18,25.4
19365,0.2111,-0.0468,0.9102,-6.43,9.24,-0.08,25.38
19375,0.2517,-0.0466,0.8706,-6.27,9.11,-0.05,25.42
19386,0.2621,-0.0497,0.8579,-6.2,7.36,0.02,25.42
19396,0.2222,-0.0536,0.901,-6.29,7.25,-0.08,25.42
19406,0.2233,-0.0498,0.8894,-6.27,9.91,0.05,25.44
19416,0.264,-0.0502,0.8475,-6.12,6.23,-0.06,25.43
19426,0.2172,-0.048,0.8979,-6.32,6.31,-0.06,25.42
19436,0.2169,-0.0432,0.9147,-6.32,10.64,-0.06,25.41
19446,0.2715,-0.0461,0.8673,-6.35,7.24,0.06,25.4
19456,0.2308,-0.0527,0.8845,-6.35,6.4,-0.03,25.41
19466,0.2115,-0.0525,0.9011,-6.21,10.23,-0.06,25.42
19476,0.2672,-0.0508,0.8461,-6.15,6.7,-0.02,25.39
19486,0.2346,-0.0509,0.8877,-6.15,5.74,-0.05,25.44
19496,0.2051,-0.0446,0.9229,-6.41,9.63,0.03,25.41
19506,0.2656,-0.0476,0.8634,-6.24,8.5,0.08,25.41
19516,0.2417,-0.0503,0.8787,-6.32,5.3,-0.08,25.46
19526,0.2063,-0.0449,0.9054,-6.32,9.66,0.09,25.44
19536,0.2529,-0.0464,0.8654,-6.31,8.81,0.05,25.43
19546,0.2563,-0.0482,0.859,-6.12,5.24,0.05,25.44
19556,0.2229,-0.0432,0.8937,-6.18,5.86,-0.06,25.45
19566,0.2084,-0.0441,0.9235,-6.31,11.16,0.03,25.4
19576,0.2698,-0.042,0.8571,-6.23,7.68,-0.09,25.41
19586,0.2402,-0.0476,0.8754,-6.31,5.56,-0.08,25.41
19596,0.2028,-0.05,0.9105,-6.2,9.89,0.0,25.42
19606,0.2538,-0.052,0.8601,-6.17,8.6,-0.06,25.39
19616,0.2516,-0.0426,0.8616,-6.18,5.1,-0.06,25.4
19626,0.2042,-0.0482,0.915,-6.26,8.7,0.05,25.42
19636,0.2441,-0.0464,0.8903,-6.32,9.56,-0.05,25.41
19646,0.2644,-0.0433,0.8702,-6.24,5.92,-0.08,25.41
19656,0.2156,-0.0486,0.9022,-6.11,7.5,0.03,25.43
19666,0.2118,-0.054,0.8894,-6.2,10.27,-0.06,25.44
19676,0.2495,-0.0433,0.8622,-6.14,7.95,-0.09,25.42
19686,0.2478,-0.0447,0.8657,-6.17,5.98,-0.14,25.44
19696,0.2124,-0.0494,0.9019,-6.35,7.27,-0.11,25.44
19706,0.2159,-0.0388,0.9122,-6.35,10.69,0.0,25.42
19716,0.2697,-0.0465,0.8634,-6.32,7.28,-0.05,25.41
19726,0.2367,-0.0555,0.8798,-6.24,6.2,-0.11,25.42
19736,0.2118,-0.0558,0.8937,-6.29,8.92,-0.02,25.41
19746,0.2341,-0.0602,0.8778,-6.17,8.89,0.03,25.42
19756,0.2603,-0.0544,0.8571,-6.18,6.2,0.0,25.44
19766,0.2233,-0.0472,0.9044,-6.21,6.96,-0.11,25.44
19776,0.2189,-0.0413,0.9041,-6.29,10.09,0.06,25.44
19787,0.2416,-0.0391,0.8866,-6.23,9.71,-0.03,25.4
19797,0.2697,-0.0376,0.8575,-6.23,5.65,-0.05,25.39
19807,0.2205,-0.047,0.8926,-6.29,6.82,-0.02,25.44
19818,0.1967,-0.049,0.9072,-6.23,9.02,-0.09,25.41
19828,0.2427,-0.0455,0.8696,-6.24,9.42,-0.08,25.41
19838,0.2523,-0.0475,0.8615,-6.2,5.59,-0.05,25.43
19848,0.2168,-0.0426,0.9078,-6.21,7.79,-0.15,25.43
19858,0.2349,-0.0375,0.8949,-6.37,9.92,-0.03,25.44
19868,0.2712,-0.0416,0.8541,-6.2,6.43,-0.11,25.42
19878,0.2277,-0.0481,0.8887,-6.26,6.18,-0.11,25.43
19888,0.2043,-0.0481,0.9116,-6.29,10.32,-0.05,25.43
19898,0.2532,-0.0487,0.8595,-6.2,8.35,-0.08,25.43
19908,0.2446,-0.052,0.864,-6.21,5.47,-0.05,25.42
19918,0.1991,-0.0437,0.9174,-6.27,8.5,-0.03,25.42
19928,0.2271,-0.0417,0.9045,-6.37,10.53,-0.02,25.43
19938,0.2598,-0.0366,0.865,-6.34,7.76,-0.08,25.43
19948,0.2437,-0.0477,0.8732,-6.18,5.82,-0.03,25.42
19958,0.189,-0.0565,0.9033,-6.32,10.05,-0.05,25.42
19968,0.2588,-0.0504,0.8579,-6.15,8.5,-0.05,25.42
19978,0.2455,-0.0432,0.8724,-6.21,5.11,-0.17,25.46
19988,0.2008,-0.0461,0.9105,-6.37,9.21,-0.03,25.42
19998,0.2444,-0.0441,0.8842,-6.26,9.27,-0.09,25.44
20008,0.2502,-0.0409,0.8778,-6.27,6.32,-0.11,25.44
20018,0.2196,-0.0499,0.8961,-6.34,7.85,-0.09,25.42
20028,0.223,-0.0508,0.8845,-6.24,8.96,-0.05,25.44
20038,0.249,-0.0532,0.8573,-6.14,7.98,-0.03,25.42
20048,0.241,-0.0568,0.8698,-6.24,5.37,-0.08,25.44
20058,0.2111,-0.0453,0.9033,-6.21,6.89,0.0,25.41
20068,0.2526,-0.0426,0.8768,-6.31,9.18,0.06,25.41
20078,0.2512,-0.0455,0.8781,-6.4,6.18,-0.05,25.42
20088,0.2155,-0.0483,0.9036,-6.34,9.24,-0.11,25.42
20098,0.2496,-0.0527,0.8674,-6.27,7.95,-0.03,25.42
20108,0.231,-0.0546,0.8822,-6.2,7.31,-0.03,25.42
20118,0.2217,-0.0508,0.8888,-6.31,8.52,0.03,25.43
20128,0.2488,-0.0425,0.8644,-6.27,7.45,0.0,25.43
20138,0.2377,-0.0453,0.8727,-6.26,6.4,-0.08,25.43
20148,0.2271,-0.0416,0.8997,-6.37,7.98,-0.12,25.44
20158,0.2344,-0.0426,0.8948,-6.34,8.87,-0.15,25.45
20168,0.2488,-0.0587,0.8702,-6.26,7.11,-0.12,25.41
20178,0.2471,-0.0425,0.8772,-6.2,7.22,-0.08,25.42
20188,0.2197,-0.0586,0.885,-6.09,8.38,0.03,25.44
20198,0.2426,-0.0547,0.876,-6.18,7.54,0.0,25.44
20208,0.2269,-0.0402,0.8938,-6.32,7.19,0.03,25.44
20218,0.2126,-0.0457,0.91,-6.29,10.47,0.02,25.43
20228,0.2715,-0.0424,0.8539,-6.26,7.34,-0.08,25.44
20238,0.2615,-0.0455,0.8617,-6.27,5.83,-0.03,25.43
20248,0.209,-0.0464,0.9076,-6.26,7.71,-0.03,25.43
20258,0.2263,-0.0507,0.8894,-6.24,10.06,0.02,25.43
20268,0.2458,-0.0518,0.8672,-6.32,7.56,-0.12,25.44
20278,0.2412,-0.0499,0.8629,-6.2,7.11,-0.06,25.46
20288,0.2201,-0.0509,0.894,-6.32,6.98,-0.09,25.42
20298,0.2272,-0.047,0.9045,-6.26,9.6,0.03,25.44
20308,0.2559,-0.0436,0.8761,-6.31,7.39,-0.03,25.43
20318,0.2284,-0.0551,0.8883,-6.37,7.28,-0.08,25.42
20328,0.2083,-0.0559,0.8928,-6.34,9.79,-0.08,25.44
20338,0.2594,-0.0479,0.8558,-6.15,8.23,0.06,25.44
20348,0.245,-0.043,0.8835,-6.24,5.22,-0.02,25.42
20358,0.2145,-0.0448,0.9136,-6.37,8.69,-0.11,25.42
20368,0.2311,-0.0448,0.8914,-6.38,9.18,-0.03,25.44
20378,0.2532,-0.0458,0.8646,-6.23,8.06,0.02,25.44
20388,0.2535,-0.0519,0.8691,-6.26,5.69,-0.09,25.45
20399,0.2366,-0.0507,0.8868,-6.12,6.61,-0.05,25.42
20409,0.2217,-0.0511,0.8982,-6.27,9.33,0.03,25.42
20419,0.2504,-0.0496,0.8521,-6.26,8.61,-0.02,25.41
20429,0.2496,-0.0487,0.8549,-6.08,4.79,-0.14,25.42
20439,0.1997,-0.0458,0.9137,-6.27,8.26,-0.08,25.43
20449,0.2332,-0.0377,0.8967,-6.38,9.85,0.0,25.43
20459,0.2593,-0.0447,0.8777,-6.35,6.9,-0.09,25.44
20469,0.2281,-0.0548,0.8938,-6.37,7.65,-0.08,25.47
20479,0.2222,-0.0627,0.8837,-6.17,8.95,0.06,25.43
20489,0.2491,-0.061,0.8633,-6.09,7.34,-0.03,25.44
20499,0.2355,-0.0514,0.8762,-6.14,6.82,-0.06,25.44
20509,0.2246,-0.0444,0.8993,-6.24,8.27,0.08,25.48
20519,0.2422,-0.0426,0.8802,-6.27,8.17,0.0,25.43
20529,0.2343,-0.0398,0.8877,-6.34,7.4,-0.08,25.44
20539,0.226,-0.0422,0.8988,-6.26,8.44,-0.02,25.42
20549,0.2399,-0.0455,0.8927,-6.24,8.55,0.02,25.45
20559,0.2415,-0.0571,0.8768,-6.43,7.73,0.0,25.42
20569,0.2238,-0.062,0.8811,-6.31,8.27,0.02,25.42
20579,0.231,-0.0594,0.8636,-6.17,7.98,-0.03,25.44
20589,0.228,-0.0498,0.8807,-6.29,7.54,-0.06,25.44
20599,0.2328,-0.0457,0.8917,-6.35,8.17,-0.08,25.43
20609,0.24,-0.0409,0.8864,-6.24,7.66,-0.06,25.45
20619,0.2316,-0.0438,0.8999,-6.32,8.08,-0.11,25.43
20629,0.238,-0.0519,0.8842,-6.31,8.7,-0.06,25.44
20639,0.2516,-0.0535,0.8676,-6.18,7.57,-0.05,25.42
20649,0.2361,-0.0552,0.8771,-6.18,6.47,0.02,25.42
20659,0.2025,-0.0513,0.9045,-6.02,8.64,-0.03,25.44
20669,0.2363,-0.0413,0.879,-6.17,9.21,0.0,25.44
20679,0.2554,-0.0283,0.8624,-6.21,6.52,-0.17,25.42
20689,0.2395,-0.0389,0.8911,-6.18,6.55,-0.18,25.43
20699,0.2141,-0.0394,0.9072,-6.34,8.5,-0.12,25.4
20709,0.2382,-0.0466,0.8842,-6.31,9.34,-0.08,25.41
20719,0.2562,-0.0536,0.8729,-6.21,6.61,-0.09,25.44
20729,0.2314,-0.0579,0.8906,-6.21,7.48,-0.12,25.42
20739,0.2329,-0.0565,0.8871,-6.31,8.31,-0.02,25.44
20749,0.2319,-0.0563,0.8842,-6.23,8.35,0.02,25.4
20759,0.2366,-0.0552,0.8762,-6.17,7.79,0.0,25.46
20769,0.2352,-0.0442,0.8721,-6.29,7.45,0.05,25.43
20779,0.2417,-0.0464,0.8716,-6.32,7.13,0.02,25.43
20789,0.2333,-0.0455,0.8815,-6.34,6.79,0.03,25.43
20799,0.2195,-0.0428,0.9012,-6.31,8.82,0.02,25.44
20810,0.2196,-0.041,0.9053,-6.34,8.61,-0.02,25.44
20820,0.2548,-0.0408,0.886,-6.38,7.45,-0.03,25.43
20830,0.2405,-0.0443,0.889,-6.31,7.95,-0.11,25.43
20840,0.2427,-0.0524,0.8734,-6.11,7.36,-0.03,25.46
20850,0.2413,-0.0553,0.8755,-6.2,6.89,-0.23,25.44
20860,0.22,-0.0524,0.8835,-6.12,7.86,-0.12,25.43
20870,0.2137,-0.0439,0.8905,-6.29,8.89,-0.08,25.42
20880,0.2328,-0.0425,0.8707,-6.26,8.84,-0.12,25.45
20890,0.2451,-0.045,0.8662,-6.14,7.54,-0.15,25.43
20900,0.224,-0.0498,0.9097,-6.12,8.03,-0.15,25.45
20910,0.2216,-0.0466,0.905,-6.18,8.49,-0.08,25.46
20920,0.2281,-0.062,0.8774,-6.17,8.84,0.02,25.44
20930,0.2457,-0.0555,0.879,-6.14,7.88,0.0,25.45
20940,0.2535,-0.045,0.8939,-6.24,7.04,0.12,25.43
20950,0.2366,-0.0402,0.9078,-6.37,7.57,0.14,25.43
20960,0.2249,-0.0415,0.8994,-6.47,9.63,0.15,25.44
20970,0.2479,-0.0404,0.8617,-6.37,8.27,0.09,25.43
20980,0.2412,-0.0459,0.8665,-6.37,6.73,0.09,25.43
20990,0.2238,-0.0482,0.8768,-6.26,7.76,0.08,25.42
21000,0.2266,-0.0487,0.8712,-6.26,7.69,-0.08,25.46
21010,0.2301,-0.0435,0.8636,-6.12,7.39,-0.24,25.45
21020,0.2275,-0.0387,0.8878,-6.17,6.87,-0.18,25.43
21030,0.2184,-0.0366,0.921,-6.41,9.27,-0.17,25.43
21040,0.2599,-0.0446,0.8865,-6.4,8.32,-0.17,25.44
21050,0.2462,-0.0544,0.8848,-6.34,6.64,-0.09,25.44
21060,0.2213,-0.0646,0.8934,-6.35,8.78,-0.08,25.42
21070,0.2399,-0.0688,0.8657,-6.15,8.55,-0.08,25.44
21080,0.2435,-0.064,0.8595,-6.06,6.82,0.02,25.43
21090,0.2169,-0.0548,0.884,-6.09,7.56,0.0,25.43
21100,0.2295,-0.0399,0.8795,-6.11,8.21,-0.06,25.46
21110,0.2449,-0.0309,0.8842,-6.2,7.92,-0.11,25.44
21120,0.2485,-0.0326,0.8763,-6.41,6.61,0.0,25.45
21130,0.2284,-0.0358,0.8918,-6.34,7.04,-0.05,25.42
21140,0.2284,-0.046,0.8965,-6.35,8.53,0.0,25.42
21150,0.2411,-0.0532,0.8865,-6.37,7.57,-0.09,25.43
21160,0.2278,-0.0599,0.9005,-6.35,8.03,-0.11,25.44
21170,0.2375,-0.0557,0.8816,-6.23,9.08,-0.11,25.43
21180,0.2506,-0.0581,0.8667,-6.18,6.87,-0.08,25.44
21190,0.2203,-0.0586,0.8931,-6.2,7.53,-0.12,25.45
21200,0.2252,-0.0547,0.891,-6.0,9.66,0.05,25.43
21210,0.2557,-0.0505,0.8544,-6.24,7.24,0.05,25.44
21220,0.2346,-0.0547,0.8715,-6.15,6.15,0.14,25.43
21230,0.2101,-0.0497,0.8901,-6.12,7.89,0.17,25.46
21240,0.2122,-0.0479,0.8945,-6.32,9.1,0.09,25.46
21250,0.2448,-0.0411,0.8776,-6.24,8.76,-0.05,25.47
21260,0.249,-0.0333,0.8737,-6.23,6.21,-0.05,25.44
21270,0.2346,-0.037,0.8888,-6.15,6.49,-0.02,25.46
21280,0.2289,-0.0361,0.8915,-6.26,8.95,-0.11,25.43
21290,0.2532,-0.0354,0.8754,-6.26,7.51,-0.2,25.47
21300,0.2373,-0.0408,0.8881,-6.35,6.82,-0.14,25.44
21310,0.2374,-0.0483,0.8834,-6.27,8.37,-0.14,25.45
21320,0.2538,-0.049,0.8647,-6.24,7.82,-0.23,25.46
21330,0.2251,-0.0562,0.884,-6.14,7.53,-0.14,25.45
21340,0.2278,-0.0596,0.8732,-6.18,8.12,-0.14,25.45
21350,0.2419,-0.0519,0.8749,-6.14,7.54,-0.09,25.46
21360,0.23,-0.0507,0.8971,-6.23,7.98,0.02,25.45
21370,0.2374,-0.0494,0.8771,-6.32,8.17,0.14,25.42
21380,0.2478,-0.0431,0.874,-6.29,7.51,0.06,25.43
21390,0.2412,-0.0404,0.8771,-6.23,7.51,0.11,25.43
21400,0.2396,-0.0402,0.8954,-6.31,7.45,0.06,25.47
21410,0.2316,-0.0422,0.8855,-6.29,6.92,0.05,25.45
21420,0.2189,-0.0452,0.897,-6.27,7.16,-0.09,25.44
21430,0.2477,-0.0439,0.8777,-6.24,8.63,-0.08,25.45
21440,0.2543,-0.0428,0.8759,-6.34,6.44,-0.23,25.45
21450,0.238,-0.0498,0.8947,-6.18,6.98,-0.06,25.46
21460,0.2279,-0.0604,0.8773,-6.23,8.66,-0.14,25.45
21470,0.2455,-0.0565,0.8524,-6.11,6.92,-0.14,25.47
21480,0.213,-0.0531,0.8997,-6.24,6.7,-0.12,25.48
21490,0.2087,-0.0541,0.9055,-6.15,10.76,-0.05,25.45
21500,0.2643,-0.0516,0.8513,-6.21,6.55,-0.02,25.44
21510,0.2103,-0.0497,0.9036,-6.31,7.11,-0.02,25.45
21520,0.2257,-0.0452,0.8983,-6.23,9.89,0.05,25.45
21530,0.2677,-0.0405,0.8741,-6.31,6.58,0.02,25.47
21540,0.2213,-0.0417,0.9064,-6.27,7.47,-0.05,25.48
21550,0.2223,-0.0464,0.8994,-6.34,9.73,-0.09,25.47
21560,0.2407,-0.053,0.8782,-6.24,7.74,-0.18,25.47
21570,0.235,-0.0499,0.8774,-6.32,7.83,-0.15,25.47
21580,0.2377,-0.0509,0.8702,-6.15,7.68,-0.12,25.44
21590,0.2262,-0.052,0.8766,-6.23,7.89,-0.17,25.45
21600,0.2349,-0.0452,0.8788,-6.24,7.97,-0.08,25.45
21610,0.2341,-0.0476,0.8724,-6.15,7.54,-0.08,25.46
21620,0.2274,-0.0469,0.8838,-6.35,7.19,-0.03,25.45
21630,0.2151,-0.0424,0.8979,-6.31,8.61,-0.08,25.45
21640,0.2372,-0.0464,0.8865,-6.35,8.49,0.05,25.44
21650,0.244,-0.0513,0.8802,-6.4,7.48,0.03,25.46
21660,0.2311,-0.0507,0.8838,-6.24,7.44,-0.02,25.46
21670,0.2172,-0.0476,0.8954,-6.21,8.93,-0.02,25.48
21680,0.2466,-0.0475,0.877,-6.31,8.75,0.0,25.47
21690,0.2515,-0.0448,0.8821,-6.26,6.31,-0.05,25.46
21700,0.2135,-0.0518,0.9117,-6.2,8.64,-0.02,25.47
21710,0.24,-0.0471,0.8817,-6.34,9.1,-0.05,25.45
21720,0.2467,-0.0524,0.87,-6.24,7.63,-0.03,25.46
21731,0.2372,-0.0574,0.8802,-6.27,8.55,0.06,25.47
21741,0.2346,-0.0618,0.8811,-6.23,7.1,-0.06,25.46
21751,0.2212,-0.0536,0.8889,-6.15,8.24,-0.08,25.45
21761,0.2368,-0.0466,0.8707,-6.14,8.27,-0.05,25.47
21771,0.2449,-0.0448,0.8796,-6.15,7.04,-0.06,25.44
21781,0.2279,-0.0439,0.8918,-6.18,7.71,-0.09,25.44
21791,0.2266,-0.0439,0.8831,-6.18,8.17,-0.08,25.47
21801,0.2311,-0.0391,0.8796,-6.17,8.52,-0.05,25.45
21811,0.2621,-0.0344,0.875,-6.31,7.04,-0.12,25.45
21821,0.2458,-0.0411,0.902,-6.34,6.26,-0.08,25.42
21831,0.2161,-0.0459,0.9154,-6.35,9.16,-0.15,25.45
21841,0.2435,-0.05,0.8765,-6.2,9.44,0.0,25.48
21851,0.2611,-0.0607,0.8489,-6.12,5.98,-0.05,25.46
21861,0.2131,-0.0607,0.8942,-6.18,6.63,0.0,25.46
21871,0.2092,-0.0496,0.9006,-6.29,10.02,0.02,25.48
21881,0.2502,-0.0527,0.8618,-6.2,8.26,-0.02,25.47
21891,0.252,-0.0518,0.8577,-6.32,5.74,-0.05,25.47
21901,0.2208,-0.0458,0.9,-6.24,7.16,-0.02,25.47
21911,0.2249,-0.0422,0.9061,-6.27,9.44,-0.03,25.46
21921,0.2673,-0.0503,0.8726,-6.31,7.77,0.09,25.45
21932,0.2683,-0.0466,0.8749,-6.31,6.03,0.0,25.46
21942,0.215,-0.0531,0.9114,-6.23,7.4,0.0,25.47
21952,0.2163,-0.0654,0.8998,-6.24,10.12,-0.05,25.47
21962,0.2455,-0.0607,0.8589,-6.12,7.97,0.03,25.47
21972,0.2347,-0.0565,0.8728,-6.21,6.7,-0.08,25.46
21982,0.2251,-0.0522,0.885,-6.24,7.73,-0.03,25.46
21992,0.2261,-0.0439,0.8911,-6.34,8.55,-0.02,25.45
22002,0.2418,-0.0376,0.8872,-6.34,8.5,-0.14,25.47
22012,0.2587,-0.0396,0.8615,-6.34,6.81,-0.11,25.46
22022,0.2271,-0.05,0.8909,-6.32,6.76,-0.15,25.48
22032,0.2141,-0.0496,0.8945,-6.29,10.4,-0.02,25.47
22042,0.2699,-0.0492,0.8434,-6.26,6.63,-0.12,25.47
22052,0.2347,-0.0474,0.894,-6.21,4.96,-0.09,25.45
22062,0.2075,-0.0391,0.9266,-6.47,10.02,-0.09,25.44
22072,0.2717,-0.0416,0.8551,-6.26,8.37,0.03,25.47
22082,0.2341,-0.0522,0.8744,-6.17,4.64,0.03,25.44
22092,0.1992,-0.0492,0.902,-6.23,10.41,-0.08,25.46
22102,0.2563,-0.0486,0.8591,-6.27,7.88,0.02,25.46
22112,0.2411,-0.0468,0.8726,-6.12,5.01,0.05,25.46
22122,0.2162,-0.0448,0.8976,-6.26,6.7,0.03,25.48
22132,0.2544,-0.0363,0.8763,-6.27,8.92,0.09,25.47
22142,0.2583,-0.0389,0.8721,-6.26,5.47,-0.05,25.44
22152,0.207,-0.0447,0.9087,-6.29,8.27,-0.02,25.45
22162,0.2355,-0.0437,0.8666,-6.27,9.66,-0.03,25.46
22172,0.26,-0.048,0.8516,-6.26,4.7,-0.05,25.45
22182,0.2308,-0.0497,0.8733,-6.14,5.18,-0.03,25.45
22192,0.2197,-0.0513,0.9088,-6.35,10.79,-0.05,25.46
22202,0.2655,-0.0515,0.8594,-6.27,7.59,-0.09,25.46
22212,0.2388,-0.054,0.8766,-6.21,5.68,-0.12,25.5
22222,0.2024,-0.062,0.9095,-6.24,9.86,0.0,25.45
22232,0.2606,-0.0602,0.8508,-6.14,7.83,0.03,25.48
22242,0.2676,-0.0599,0.8445,-6.24,5.39,-0.06,25.49
22252,0.2025,-0.0515,0.9263,-6.27,10.23,0.03,25.47
22262,0.2266,-0.0492,0.9028,-6.34,10.64,0.02,25.45
22272,0.2704,-0.0493,0.8596,-6.24,7.18,0.06,25.48
22282,0.2407,-0.0457,0.8701,-6.08,5.42,0.0,25.44
22292,0.1951,-0.0397,0.9185,-6.2,9.6,-0.03,25.46
22302,0.2639,-0.0397,0.8514,-6.15,8.81,-0.06,25.47
22312,0.2292,-0.0424,0.8804,-6.24,5.02,-0.11,25.48
22322,0.2051,-0.0422,0.92,-6.29,10.81,-0.17,25.46
22332,0.2643,-0.0392,0.8677,-6.34,7.94,-0.15,25.45
22342,0.2449,-0.0491,0.8734,-6.32,5.48,-0.14,25.45
22352,0.2025,-0.0535,0.8999,-6.27,9.53,-0.14,25.47
22362,0.2578,-0.0588,0.8578,-6.29,8.69,-0.12,25.48
22372,0.2561,-0.0499,0.8636,-6.2,4.09,0.0,25.46
22382,0.2052,-0.0475,0.9231,-6.31,9.5,0.03,25.48
22392,0.2498,-0.0402,0.8781,-6.24,9.19,0.03,25.48
22402,0.2593,-0.0448,0.8668,-6.31,5.19,-0.03,25.44
22412,0.2069,-0.0465,0.9086,-6.35,8.08,-0.06,25.47
22422,0.2372,-0.045,0.8822,-6.27,10.37,0.05,25.48
22432,0.2651,-0.0486,0.8527,-6.17,4.55,-0.03,25.49
22442,0.2048,-0.049,0.9135,-6.32,8.02,-0.14,25.47
22452,0.2368,-0.0476,0.8893,-6.32,9.97,-0.09,25.45
22462,0.2612,-0.0529,0.8633,-6.26,6.06,-0.11,25.47
22472,0.2086,-0.0531,0.9056,-6.15,8.43,0.05,25.49
22482,0.2313,-0.0521,0.8794,-6.35,9.69,-0.06,25.47
22492,0.2587,-0.0508,0.8583,-6.2,6.37,-0.05,25.47
22502,0.2209,-0.0497,0.8954,-6.21,6.63,-0.03,25.46
22512,0.2166,-0.0498,0.911,-6.29,9.69,-0.05,25.48
22522,0.2471,-0.0507,0.8744,-6.23,8.5,0.0,25.45
22532,0.2462,-0.0521,0.8654,-6.26,6.26,-0.03,25.46
22542,0.2319,-0.0531,0.8782,-6.17,6.26,-0.03,25.48
22552,0.2257,-0.0535,0.8922,-6.2,8.84,0.02,25.46
22562,0.2471,-0.0424,0.8821,-6.35,7.79,-0.05,25.47
22572,0.2527,-0.0474,0.8772,-6.21,6.99,-0.06,25.47
22582,0.2175,-0.0464,0.8988,-6.38,7.5,-0.15,25.46
22592,0.2284,-0.0469,0.8862,-6.18,10.41,0.09,25.47
22602,0.2709,-0.0476,0.8435,-6.26,5.11,0.02,25.47
22612,0.2073,-0.0483,0.9091,-6.14,7.36,-0.15,25.46
22622,0.2271,-0.0425,0.8959,-6.27,9.98,-0.05,25.47
22632,0.2649,-0.0459,0.8677,-6.23,6.49,-0.08,25.48
22643,0.2452,-0.0526,0.8768,-6.23,5.86,-0.06,25.47
22653,0.2037,-0.0488,0.8989,-6.2,8.9,-0.05,25.46
22663,0.2446,-0.043,0.871,-6.23,8.67,-0.09,25.46
22673,0.252,-0.0432,0.8734,-6.2,5.47,-0.11,25.44
22683,0.1918,-0.0426,0.9238,-6.43,9.51,-0.06,25.46
22693,0.243,-0.0471,0.8776,-6.26,10.21,-0.12,25.47
22703,0.257,-0.0458,0.8551,-6.21,5.13,-0.12,25.49
22713,0.2002,-0.0465,0.9182,-6.41,9.24,-0.18,25.49
22723,0.257,-0.0432,0.865,-6.24,8.78,0.06,25.45
22733,0.243,-0.0475,0.8771,-6.23,5.37,0.0,25.47
22743,0.2032,-0.0485,0.9174,-6.37,9.82,-0.02,25.48
22753,0.2593,-0.0505,0.8722,-6.38,8.9,0.02,25.45
22763,0.2426,-0.0547,0.8722,-6.26,5.89,0.0,25.5
22773,0.2037,-0.0477,0.8961,-6.29,9.54,-0.03,25.48
22783,0.2642,-0.0479,0.8438,-6.06,7.92,-0.03,25.48
22793,0.2321,-0.0448,0.8787,-6.21,4.61,-0.06,25.49
22803,0.2041,-0.0367,0.9265,-6.46,10.73,-0.03,25.47
22813,0.2799,-0.0417,0.848,-6.24,6.32,0.02,25.47
22823,0.2042,-0.0518,0.9006,-6.34,6.61,-0.08,25.48
22833,0.222,-0.0524,0.8794,-6.26,10.75,-0.06,25.47
22843,0.2628,-0.0504,0.8518,-6.23,6.17,-0.06,25.47
22853,0.2263,-0.0529,0.8925,-6.12,6.02,-0.05,25.48
22863,0.2057,-0.0474,0.9209,-6.34,10.61,-0.12,25.48
22873,0.2695,-0.0487,0.8602,-6.23,7.77,-0.03,25.46
22883,0.2323,-0.0574,0.8871,-6.26,5.54,-0.06,25.47
22893,0.2034,-0.0555,0.9053,-6.37,10.15,0.05,25.49
22903,0.2155,-0.0548,0.8907,-6.2,10.44,0.02,25.49
22913,0.2467,-0.0521,0.8582,-6.17,5.5,-0.02,25.48
22923,0.2039,-0.0486,0.9121,-6.26,8.09,0.05,25.49
22933,0.2115,-0.0435,0.9191,-6.31,9.68,-0.02,25.48
22943,0.2664,-0.0448,0.871,-6.26,6.69,0.0,25.48
22953,0.256,-0.0433,0.8716,-6.34,5.5,-0.12,25.51
22963,0.2074,-0.0474,0.9136,-6.23,8.93,0.0,25.5
22973,0.2419,-0.049,0.868,-6.23,8.72,-0.03,25.47
22983,0.239,-0.0496,0.8687,-6.2,6.5,-0.11,25.49
22993,0.231,-0.0437,0.8767,-6.17,7.47,-0.14,25.5
23003,0.235,-0.042,0.8893,-6.29,7.54,-0.17,25.49
23013,0.2455,-0.0397,0.8839,-6.31,6.6,-0.15,25.47
23023,0.2219,-0.0453,0.9011,-6.27,7.62,-0.12,25.5
23033,0.2161,-0.0476,0.9023,-6.37,10.14,-0.09,25.49
23043,0.2626,-0.0542,0.8701,-6.18,8.11,-0.08,25.48
23053,0.2421,-0.0546,0.8833,-6.32,5.79,-0.02,25.49
23063,0.2186,-0.0603,0.8943,-6.15,9.1,0.0,25.47
23073,0.2545,-0.0531,0.8557,-6.2,7.07,0.06,25.49
23083,0.2357,-0.0505,0.8671,-6.18,6.12,0.05,25.49
23093,0.2095,-0.04,0.8973,-6.21,7.68,0.03,25.49
23103,0.2184,-0.0392,0.8892,-6.31,10.27,-0.06,25.49
23113,0.2532,-0.0383,0.8569,-6.37,7.16,-0.08,25.47
23123,0.2377,-0.0375,0.8855,-6.41,6.66,-0.14,25.48
23133,0.2307,-0.0496,0.8962,-6.38,7.34,-0.17,25.49
23143,0.2139,-0.051,0.9246,-6.43,9.89,-0.12,25.49
23153,0.2759,-0.0526,0.8566,-6.27,8.64,0.02,25.48
23163,0.2596,-0.0609,0.8597,-6.11,4.26,0.06,25.5
23173,0.2083,-0.0581,0.9027,-6.21,8.79,0.03,25.49
23183,0.2489,-0.0485,0.8699,-6.26,8.38,0.11,25.47
23193,0.243,-0.0494,0.875,-6.27,6.49,0.02,25.49
23203,0.2277,-0.0487,0.8774,-6.18,6.93,-0.03,25.49
23213,0.2136,-0.0404,0.8959,-6.32,8.27,-0.03,25.49
23223,0.2539,-0.0356,0.8688,-6.14,8.7,-0.06,25.47
23233,0.2418,-0.0475,0.8726,-6.31,5.13,-0.06,25.49
23243,0.1993,-0.0387,0.9335,-6.47,9.57,-0.12,25.48
23253,0.2725,-0.0381,0.8752,-6.31,8.38,-0.11,25.48
23263,0.2427,-0.047,0.8813,-6.34,6.37,-0.2,25.48
23273,0.2133,-0.0519,0.9087,-6.34,9.88,-0.11,25.49
23283,0.2421,-0.0586,0.8754,-6.18,9.53,-0.08,25.48
23293,0.2664,-0.057,0.8536,-6.03,6.18,-0.03,25.48
23303,0.2334,-0.0452,0.8734,-6.08,6.37,-0.06,25.49
23313,0.2142,-0.0481,0.8905,-6.24,8.75,-0.05,25.49
23323,0.2305,-0.0447,0.8744,-6.17,8.34,-0.08,25.5
23333,0.2335,-0.0394,0.8809,-6.23,7.36,0.03,25.46
23343,0.2297,-0.0402,0.8888,-6.27,7.4,0.11,25.47
23353,0.2268,-0.0408,0.8887,-6.27,8.31,0.12,25.49
23363,0.2422,-0.04,0.8712,-6.27,7.57,-0.03,25.51
23373,0.2313,-0.0424,0.8933,-6.27,7.34,0.03,25.49
23383,0.2202,-0.0466,0.9062,-6.21,9.02,-0.03,25.49
23393,0.2456,-0.0413,0.8853,-6.27,8.5,-0.11,25.5
23403,0.2529,-0.0448,0.881,-6.17,7.86,-0.06,25.49
23413,0.2538,-0.0519,0.8669,-6.24,6.21,-0.05,25.48
23423,0.2242,-0.0607,0.8883,-6.29,7.74,0.05,25.52
23433,0.2277,-0.0649,0.8684,-6.24,8.24,0.0,25.46
23443,0.2294,-0.0643,0.8707,-6.23,7.11,0.0,25.47
23453,0.219,-0.0559,0.8871,-6.17,8.21,0.06,25.47
23463,0.2439,-0.0439,0.8813,-6.32,7.11,0.05,25.51
23473,0.2339,-0.0492,0.8932,-6.23,7.71,0.06,25.49
23483,0.2421,-0.0387,0.8866,-6.32,6.75,-0.02,25.49
23493,0.2233,-0.0413,0.9075,-6.32,8.52,-0.08,25.49
23503,0.2474,-0.0457,0.8822,-6.4,8.17,0.05,25.51
23513,0.2437,-0.0454,0.8798,-6.31,7.39,-0.12,25.49
23523,0.2218,-0.0524,0.8982,-6.14,8.7,-0.05,25.48
23533,0.2397,-0.0453,0.8817,-6.31,8.63,-0.06,25.49
23543,0.2422,-0.0476,0.8799,-6.27,6.95,-0.2,25.47
23553,0.2235,-0.0483,0.8907,-6.26,7.15,-0.15,25.49
23563,0.2159,-0.0536,0.8959,-6.24,9.88,-0.09,25.48
23573,0.2443,-0.0535,0.8683,-6.2,7.62,-0.06,25.47
23583,0.228,-0.049,0.8778,-6.2,6.4,-0.08,25.49
23593,0.2185,-0.0526,0.8839,-6.31,7.91,-0.15,25.51
23603,0.2377,-0.047,0.8745,-6.18,7.76,-0.06,25.5
23613,0.2186,-0.0408,0.9009,-6.27,7.83,0.02,25.48
23623,0.2379,-0.0426,0.8801,-6.14,10.02,-0.05,25.49
23633,0.262,-0.0332,0.8649,-6.26,5.57,-0.05,25.49
23643,0.2333,-0.0331,0.8948,-6.21,6.93,-0.02,25.49
23653,0.2233,-0.0438,0.9043,-6.31,8.24,0.05,25.49
23663,0.2361,-0.0441,0.8845,-6.38,8.38,-0.06,25.48
23673,0.2338,-0.0439,0.882,-6.4,7.47,-0.08,25.48
23683,0.2341,-0.0502,0.8788,-6.32,8.44,-0.06,25.48
23693,0.2482,-0.0577,0.8665,-6.03,7.34,-0.06,25.49
23703,0.2197,-0.0519,0.8835,-6.2,6.64,-0.08,25.49
23713,0.2067,-0.0533,0.9011,-6.21,10.92,0.06,25.49
23723,0.2581,-0.0509,0.8544,-6.17,7.57,-0.08,25.49
23733,0.246,-0.0479,0.8669,-6.26,6.32,-0.14,25.5
23743,0.215,-0.0468,0.8982,-6.35,7.95,0.0,25.5
23753,0.246,-0.0438,0.8898,-6.26,8.53,0.06,25.51
23763,0.2512,-0.0415,0.8857,-6.46,6.52,-0.17,25.49
23773,0.2308,-0.045,0.8909,-6.24,7.86,-0.02,25.49
23783,0.2299,-0.0546,0.8805,-6.29,7.83,-0.03,25.49
23793,0.2231,-0.053,0.8915,-6.29,8.32,-0.11,25.49
23803,0.2451,-0.0496,0.8776,-6.21,7.37,-0.14,25.48
23813,0.2266,-0.0505,0.8864,-6.18,6.89,-0.15,25.51
23823,0.2219,-0.0468,0.889,-6.27,8.93,-0.12,25.51
23833,0.2467,-0.0438,0.8677,-6.23,8.03,0.02,25.47
23843,0.2506,-0.0492,0.8629,-6.18,6.03,-0.12,25.5
23853,0.218,-0.0508,0.9006,-6.32,7.47,-0.06,25.48
23863,0.2292,-0.0487,0.8862,-6.34,9.44,-0.06,25.52
23873,0.2612,-0.047,0.8701,-6.32,6.17,-0.02,25.49
23883,0.2177,-0.0475,0.9136,-6.41,7.31,-0.09,25.48
23893,0.217,-0.0464,0.9147,-6.4,10.11,0.03,25.5
23903,0.256,-0.0468,0.8718,-6.21,8.5,0.0,25.49
23913,0.2499,-0.0465,0.8704,-6.21,6.18,-0.11,25.49
23923,0.2167,-0.0482,0.9082,-6.31,8.18,-0.06,25.5
23933,0.2357,-0.0468,0.8798,-6.37,8.98,0.03,25.51
23943,0.24,-0.0491,0.869,-6.17,7.22,-0.08,25.52
23953,0.2089,-0.0449,0.8896,-6.29,9.15,-0.06,25.53
23963,0.2455,-0.0441,0.8628,-6.27,8.93,-0.02,25.49
23973,0.2578,-0.0421,0.8666,-6.32,5.77,-0.15,25.5
23983,0.2223,-0.0433,0.9083,-6.34,7.57,-0.08,25.51
23993,0.24,-0.0498,0.8892,-6.35,8.46,-0.06,25.48
24003,0.2384,-0.0544,0.8926,-6.37,7.36,-0.08,25.5
24013,0.2245,-0.054,0.903,-6.35,9.47,0.05,25.47
24023,0.2587,-0.0598,0.8542,-6.18,7.37,-0.02,25.5
24033,0.2339,-0.0624,0.8706,-6.06,6.2,0.0,25.49
24043,0.2186,-0.0492,0.8768,-6.18,7.77,0.02,25.51
24053,0.2225,-0.0438,0.8794,-6.14,8.85,0.0,25.5
24063,0.2477,-0.036,0.8608,-6.23,7.31,0.0,25.52
24073,0.2565,-0.0314,0.8704,-6.23,6.12,0.02,25.48
24083,0.2288,-0.0387,0.9049,-6.46,8.18,-0.03,25.49
24093,0.2305,-0.0435,0.8987,-6.49,8.56,-0.08,25.49
24103,0.2336,-0.0475,0.8928,-6.29,8.85,-0.09,25.5
24113,0.2424,-0.0516,0.8752,-6.29,8.14,-0.06,25.49
24123,0.2482,-0.059,0.869,-6.2,7.73,-0.12,25.51
24133,0.2418,-0.0524,0.8744,-6.2,6.0,-0.14,25.52
24143,0.2109,-0.0469,0.8875,-6.18,9.28,-0.09,25.5
24153,0.2397,-0.0469,0.8702,-6.38,8.49,-0.05,25.52
24163,0.2466,-0.0377,0.8625,-6.21,6.56,-0.09,25.5
24173,0.2385,-0.0348,0.8871,-6.24,7.36,-0.14,25.5
24183,0.251,-0.0386,0.8855,-6.24,7.15,-0.08,25.51
24193,0.2473,-0.0449,0.8839,-6.29,6.67,0.03,25.5
24203,0.2262,-0.0538,0.9075,-6.38,7.92,-0.09,25.49
24213,0.2294,-0.0542,0.8918,-6.29,9.56,-0.03,25.52
24223,0.2598,-0.058,0.8575,-6.17,7.25,0.06,25.49
24233,0.2295,-0.0555,0.8683,-6.24,5.71,0.03,25.52
24243,0.2368,-0.0505,0.8641,-6.08,6.7,-0.12,25.51
24253,0.1975,-0.0457,0.9259,-6.2,8.66,-0.06,25.49
24263,0.226,-0.0466,0.8929,-6.2,9.07,-0.02,25.52
24273,0.226,-0.0515,0.8818,-6.35,6.81,0.06,25.51
24283,0.2074,-0.0435,0.9049,-6.37,7.69,0.0,25.53
24293,0.2352,-0.0555,0.8822,-6.27,8.75,0.02,25.51
24303,0.2501,-0.0533,0.8689,-6.23,7.54,-0.06,25.5
24313,0.2234,-0.0508,0.889,-6.27,7.56,-0.05,25.49
24323,0.2268,-0.0514,0.8783,-6.26,8.4,-0.09,25.49
24333,0.2485,-0.0516,0.8658,-6.14,6.6,-0.21,25.51
24343,0.2203,-0.0405,0.9078,-6.32,7.05,-0.09,25.49
24353,0.2277,-0.041,0.9082,-6.34,10.09,-0.09,25.51
24363,0.2637,-0.0522,0.8632,-6.32,6.92,-0.11,25.5
24373,0.2207,-0.0496,0.8909,-6.23,6.93,-0.11,25.5
24383,0.209,-0.0559,0.8943,-6.2,10.29,0.02,25.48
24393,0.2568,-0.0602,0.8552,-6.09,7.21,-0.02,25.49
24403,0.2303,-0.0513,0.8875,-6.32,5.74,-0.05,25.52
24413,0.2075,-0.0465,0.9202,-6.35,9.77,0.0,25.5
24423,0.2546,-0.0443,0.8706,-6.24,8.99,-0.08,25.5
24433,0.2581,-0.042,0.8678,-6.32,5.08,-0.06,25.51
24443,0.2084,-0.0508,0.913,-6.18,8.43,0.02,25.5
24453,0.2446,-0.0524,0.8684,-6.2,8.98,0.0,25.5
24463,0.2468,-0.0519,0.8722,-6.2,6.21,-0.17,25.51
24473,0.2169,-0.051,0.8993,-6.21,7.48,-0.02,25.48
24483,0.2159,-0.0425,0.9036,-6.31,9.79,-0.12,25.48
24493,0.2695,-0.0389,0.8625,-6.15,7.85,-0.05,25.49
24503,0.2374,-0.0436,0.8802,-6.32,5.08,-0.06,25.5
24513,0.1946,-0.0499,0.9105,-6.27,10.7,-0.03,25.5
24523,0.2576,-0.0441,0.8528,-6.2,7.73,-0.06,25.48
24533,0.2411,-0.0483,0.8801,-6.14,5.07,-0.12,25.49
24543,0.1993,-0.0505,0.9226,-6.4,9.39,-0.11,25.49
24553,0.2444,-0.0444,0.8875,-6.44,10.31,-0.05,25.51
24563,0.2664,-0.0494,0.8552,-6.14,5.1,-0.05,25.5
24573,0.2056,-0.0573,0.9053,-6.27,7.95,-0.08,25.5
24583,0.23,-0.0515,0.8851,-6.26,10.06,0.0,25.5
24593,0.2615,-0.0549,0.8496,-6.08,5.97,-0.03,25.5
24603,0.2117,-0.0537,0.9014,-6.27,6.67,-0.08,25.48
24613,0.2164,-0.0409,0.9114,-6.37,10.82,0.0,25.5
24623,0.2698,-0.0469,0.8672,-6.24,7.37,-0.03,25.5
24633,0.2361,-0.0527,0.8864,-6.24,5.79,-0.14,25.48
24643,0.2013,-0.0502,0.9054,-6.27,10.0,-0.08,25.52
24653,0.2654,-0.0491,0.8409,-6.11,7.25,-0.02,25.5
24663,0.2277,-0.0485,0.8774,-6.27,5.21,-0.09,25.5
24673,0.2031,-0.0435,0.9193,-6.32,9.53,-0.02,25.49
24683,0.2399,-0.0405,0.8883,-6.37,9.22,-0.03,25.48
24693,0.2593,-0.0481,0.8676,-6.34,6.89,-0.15,25.5
24703,0.2278,-0.0491,0.8915,-6.23,6.26,-0.17,25.5
24713,0.2084,-0.0536,0.8926,-6.17,11.44,-0.14,25.51
24723,0.2616,-0.0577,0.8492,-6.14,7.08,-0.06,25.5
24733,0.2432,-0.0492,0.876,-6.09,5.1,-0.06,25.52
24743,0.2042,-0.0449,0.916,-6.29,8.99,-0.05,25.5
24753,0.239,-0.0388,0.89,-6.41,10.03,-0.03,25.51
24763,0.2677,-0.0505,0.8508,-6.24,5.8,0.09,25.51
24773,0.2094,-0.053,0.8936,-6.31,6.37,-0.03,25.49
24783,0.2158,-0.0554,0.8959,-6.26,10.61,-0.03,25.5
24793,0.2639,-0.0464,0.8545,-6.15,6.61,0.05,25.49
24803,0.2264,-0.046,0.8959,-6.24,5.97,-0.09,25.48
24813,0.2104,-0.0475,0.9128,-6.34,9.65,0.0,25.48
24823,0.2498,-0.0425,0.874,-6.37,7.89,-0.08,25.48
24833,0.218,-0.0483,0.9104,-6.38,8.31,-0.06,25.49
24843,0.2098,-0.0461,0.923,-6.38,12.12,0.17,25.5
24853,0.2214,-0.0511,0.8663,-6.43,10.05,-0.05,25.51
24863,0.2516,-0.0568,0.8473,-6.17,6.14,-0.06,25.49
24873,0.225,-0.0392,0.9191,-6.49,8.29,-0.11,25.49
24883,0.283,-0.0397,0.861,-6.34,8.37,-0.08,25.49
24893,0.2435,-0.0428,0.8909,-6.32,6.26,-0.08,25.49
24903,0.2251,-0.0481,0.8914,-6.31,7.86,-0.06,25.47
24913,0.2345,-0.0569,0.8783,-6.23,8.99,0.0,25.51
24923,0.2654,-0.0474,0.8453,-6.11,5.53,0.02,25.51
24933,0.2454,-0.053,0.8654,-6.21,5.01,-0.11,25.51
24943,0.2207,-0.0481,0.9073,-6.27,10.17,-0.05,25.52
24953,0.2604,-0.0421,0.8705,-6.31,7.95,0.03,25.52
24963,0.2711,-0.0426,0.8633,-6.21,6.82,0.06,25.51
24973,0.2373,-0.0491,0.8804,-6.23,6.4,0.0,25.52
24983,0.2189,-0.0465,0.886,-6.26,7.59,-0.03,25.51
24993,0.233,-0.0481,0.8787,-6.27,9.42,0.0,25.51
25003,0.2682,-0.0486,0.8538,-6.29,4.98,-0.09,25.52
25013,0.2064,-0.0513,0.9274,-6.27,8.32,-0.06,25.5
25023,0.2429,-0.0432,0.88,-6.32,9.37,-0.08,25.49
25033,0.2555,-0.0505,0.8652,-6.24,6.4,-0.12,25.5
25043,0.2274,-0.051,0.8864,-6.2,6.66,-0.06,25.49
25053,0.2251,-0.0538,0.8925,-6.2,8.46,-0.02,25.51
25063,0.2458,-0.0499,0.8708,-6.15,7.95,-0.03,25.5
25073,0.2455,-0.0497,0.8715,-6.27,5.08,-0.05,25.52
25083,0.1987,-0.0435,0.9189,-6.2,9.4,-0.05,25.49
25093,0.2528,-0.0426,0.8805,-6.34,8.72,0.02,25.5
25103,0.2494,-0.0477,0.8794,-6.26,6.15,-0.02,25.49
25113,0.2052,-0.0529,0.8939,-6.18,8.6,0.0,25.51
25123,0.2247,-0.0553,0.8706,-6.21,9.24,-0.06,25.5
25133,0.2528,-0.0488,0.8629,-6.14,6.81,-0.08,25.49
25143,0.2295,-0.0435,0.8993,-6.31,6.67,-0.11,25.51
25153,0.2118,-0.043,0.9193,-6.37,9.94,-0.03,25.52
25163,0.265,-0.0455,0.8627,-6.23,8.41,-0.08,25.51
25173,0.251,-0.0547,0.8671,-6.23,5.77,-0.06,25.49
25183,0.2131,-0.0603,0.9005,-6.2,8.34,-0.03,25.52
25193,0.229,-0.0565,0.8846,-6.18,8.95,0.0,25.49
25203,0.2468,-0.0468,0.8632,-6.24,7.79,0.03,25.51
25213,0.2449,-0.0446,0.8774,-6.2,6.44,0.02,25.51
25223,0.2322,-0.0402,0.8855,-6.34,7.97,-0.02,25.5
25233,0.2377,-0.0347,0.8845,-6.24,7.69,-0.09,25.52
25243,0.2332,-0.0385,0.8945,-6.35,8.15,-0.02,25.49
25253,0.2485,-0.041,0.8778,-6.29,7.95,-0.05,25.52
25263,0.2391,-0.0437,0.8875,-6.24,7.37,-0.14,25.52
25273,0.2435,-0.051,0.8835,-6.27,7.66,-0.2,25.53
25283,0.2249,-0.0543,0.8962,-6.23,8.17,-0.14,25.54
25293,0.2312,-0.0518,0.8717,-6.11,8.64,-0.09,25.53
25303,0.2444,-0.0475,0.8552,-6.24,5.88,0.03,25.52
25313,0.2117,-0.0431,0.8944,-6.15,7.53,-0.05,25.5
25323,0.2227,-0.0419,0.8856,-6.26,8.81,0.0,25.5
25333,0.2358,-0.0413,0.8776,-6.23,8.11,0.0,25.49
25343,0.2478,-0.0424,0.879,-6.32,7.07,0.02,25.49
25353,0.2258,-0.0409,0.8961,-6.32,6.95,-0.06,25.52
25363,0.2253,-0.0476,0.9147,-6.35,9.66,0.0,25.53
25373,0.2637,-0.0475,0.8755,-6.32,6.84,-0.03,25.51
25383,0.2214,-0.052,0.9141,-6.37,7.44,-0.03,25.53
25393,0.2257,-0.053,0.8958,-6.24,9.8,-0.11,25.5
25403,0.2531,-0.0527,0.858,-6.23,7.48,0.02,25.54
25413,0.2336,-0.0526,0.8737,-6.26,7.19,-0.05,25.51
25423,0.2238,-0.0499,0.8837,-6.18,8.29,-0.06,25.49
25433,0.2396,-0.0482,0.8635,-6.21,7.63,-0.03,25.51
25443,0.2355,-0.0485,0.8838,-6.21,6.82,-0.06,25.5
25453,0.219,-0.0441,0.8962,-6.03,8.56,-0.17,25.54
25463,0.2334,-0.0491,0.887,-6.21,8.05,-0.14,25.54
25473,0.2333,-0.0505,0.8934,-6.29,7.82,-0.08,25.51
25483,0.235,-0.0532,0.8883,-6.21,8.29,-0.08,25.51
25493,0.2417,-0.0521,0.8807,-6.21,7.98,-0.05,25.52
25503,0.2354,-0.0565,0.8812,-6.15,8.26,-0.05,25.5
25513,0.2434,-0.0448,0.8689,-6.23,7.05,-0.12,25.49
25523,0.2297,-0.041,0.8922,-6.2,7.22,-0.02,25.5
25533,0.2283,-0.0399,0.9022,-6.24,8.63,-0.09,25.52
25543,0.2382,-0.0403,0.8848,-6.41,8.55,-0.05,25.53
25553,0.2384,-0.0453,0.8827,-6.4,8.05,-0.11,25.53
25563,0.2448,-0.0529,0.8689,-6.35,7.6,-0.03,25.51
25573,0.2227,-0.0575,0.8965,-6.29,7.92,-0.09,25.52
25583,0.2308,-0.051,0.8837,-6.21,8.84,-0.02,25.52
25593,0.2383,-0.0492,0.8761,-6.29,8.12,-0.11,25.51
25603,0.2471,-0.0499,0.8667,-6.18,6.95,-0.03,25.52
25613,0.2294,-0.0476,0.8872,-6.2,6.98,-0.03,25.52
25623,0.2181,-0.0482,0.8936,-6.2,7.74,-0.03,25.51
25633,0.2402,-0.0438,0.8781,-6.29,8.14,-0.03,25.52
25643,0.2375,-0.0414,0.8796,-6.27,8.31,-0.12,25.51
25653,0.2467,-0.045,0.8695,-6.24,7.37,-0.03,25.52
25663,0.2327,-0.049,0.8854,-6.31,7.22,-0.09,25.52
25673,0.2253,-0.0497,0.8907,-6.34,8.23,-0.05,25.51
25683,0.2328,-0.0504,0.8911,-6.29,8.47,-0.03,25.53
25693,0.2448,-0.0513,0.8768,-6.24,7.53,-0.11,25.52
25703,0.23,-0.0497,0.8901,-6.26,7.42,-0.09,25.52
25713,0.2251,-0.0522,0.8915,-6.23,8.78,0.0,25.51
25723,0.2451,-0.0508,0.8756,-6.26,7.5,-0.02,25.5
25733,0.2284,-0.0482,0.8905,-6.18,7.66,-0.05,25.51
25743,0.231,-0.048,0.8887,-6.38,8.64,0.06,25.48
25753,0.2483,-0.0469,0.8818,-6.2,8.29,-0.06,25.51
25763,0.2603,-0.0471,0.8645,-6.14,6.44,-0.05,25.52
25773,0.2283,-0.0479,0.8857,-6.17,6.89,0.03,25.51
25783,0.2283,-0.0482,0.8822,-6.2,7.94,0.02,25.51
25793,0.2272,-0.0439,0.8802,-6.2,7.63,-0.03,25.52
25803,0.2201,-0.0447,0.886,-6.31,8.35,-0.12,25.51
25813,0.2394,-0.0458,0.8752,-6.24,7.82,-0.08,25.53
25823,0.2349,-0.0428,0.8845,-6.23,7.02,-0.11,25.51
25833,0.2242,-0.0468,0.8928,-6.35,8.18,-0.09,25.5
25843,0.2366,-0.0509,0.884,-6.29,8.64,-0.17,25.52
25853,0.2537,-0.0457,0.876,-6.27,6.99,-0.08,25.53
25863,0.2371,-0.0504,0.8947,-6.21,7.6,-0.09,25.52
25873,0.2437,-0.0536,0.8846,-6.29,7.74,0.06,25.53
25883,0.2356,-0.0549,0.8868,-6.32,7.04,0.0,25.52
25893,0.2292,-0.05,0.8976,-6.27,8.67,-0.02,25.54
25903,0.2462,-0.0515,0.8823,-6.2,7.83,0.03,25.53
25913,0.2393,-0.0531,0.8809,-6.2,6.76,-0.02,25.53
25923,0.2158,-0.0452,0.8959,-6.23,8.05,-0.06,25.54
25933,0.2324,-0.0422,0.8862,-6.18,9.13,-0.05,25.52
25943,0.2533,-0.0433,0.8666,-6.23,7.01,-0.06,25.52
25953,0.2267,-0.0457,0.8846,-6.27,7.01,-0.06,25.52
25963,0.2169,-0.0497,0.8879,-6.27,8.27,-0.05,25.52
25973,0.2317,-0.051,0.8728,-6.27,7.85,-0.14,25.53
25983,0.2291,-0.0525,0.8827,-6.18,7.5,-0.12,25.51
25993,0.2261,-0.0477,0.8928,-6.29,8.43,-0.09,25.53
26003,0.2395,-0.0476,0.8812,-6.29,8.17,-0.02,25.52
26013,0.239,-0.0481,0.8802,-6.24,7.16,-0.05,25.52
26023,0.2286,-0.0446,0.899,-6.26,7.79,-0.06,25.52
26033,0.2351,-0.0441,0.8892,-6.26,8.29,-0.06,25.54
26043,0.245,-0.0448,0.8718,-6.31,7.74,-0.02,25.53
26053,0.2405,-0.0505,0.8773,-6.24,6.63,-0.06,25.54
26063,0.2303,-0.0463,0.8827,-6.12,7.18,-0.05,25.53
26073,0.2279,-0.0446,0.8828,-6.09,7.83,-0.02,25.53
26083,0.243,-0.0428,0.8756,-6.21,7.59,-0.06,25.52
26093,0.2357,-0.0431,0.885,-6.2,7.19,-0.03,25.54
26103,0.2308,-0.0444,0.8958,-6.34,8.24,-0.02,25.51
26113,0.2395,-0.0415,0.8876,-6.29,8.34,0.05,25.49
26123,0.2509,-0.0508,0.8654,-6.26,7.36,-0.11,25.52
26133,0.2509,-0.0535,0.8722,-6.17,4.95,-0.11,25.52
26143,0.2223,-0.0571,0.8883,-6.21,7.25,-0.03,25.53
26153,0.2158,-0.0491,0.8904,-6.23,8.52,0.08,25.53
26163,0.2373,-0.0474,0.8733,-6.23,8.63,-0.02,25.53
26173,0.2507,-0.0405,0.8591,-6.17,6.11,-0.02,25.53
26183,0.2415,-0.0404,0.8729,-6.29,7.04,0.0,25.54
26193,0.2354,-0.0424,0.8928,-6.41,7.37,-0.06,25.54
26203,0.2526,-0.0406,0.8785,-6.26,7.48,-0.06,25.53
26213,0.2412,-0.0497,0.8864,-6.26,6.99,-0.09,25.55
26223,0.2349,-0.0522,0.8792,-6.09,7.6,0.0,25.54
26233,0.2375,-0.0557,0.8806,-6.15,7.42,-0.09,25.55
26243,0.2286,-0.0508,0.8939,-6.2,7.88,-0.14,25.52
26253,0.2383,-0.0432,0.8873,-6.29,8.03,-0.02,25.52
26263,0.2393,-0.0443,0.8851,-6.24,7.6,-0.08,25.53
26273,0.2324,-0.0438,0.886,-6.32,7.62,-0.03,25.54
26283,0.2198,-0.0458,0.8945,-6.27,8.41,-0.02,25.52
26293,0.234,-0.051,0.8777,-6.31,8.56,-0.06,25.52
26303,0.2446,-0.0542,0.8745,-6.27,7.16,-0.12,25.53
26313,0.2405,-0.0547,0.8795,-6.15,7.92,-0.06,25.53
26323,0.2415,-0.0496,0.8696,-6.17,7.24,-0.11,25.52
26333,0.2244,-0.0496,0.8901,-6.18,7.59,-0.03,25.53
26343,0.2369,-0.043,0.8828,-6.32,8.44,-0.08,25.52
26353,0.2396,-0.0406,0.8761,-6.34,7.33,-0.06,25.52
26363,0.2328,-0.0425,0.881,-6.35,7.79,-0.09,25.55
26373,0.2307,-0.0398,0.886,-6.4,8.18,-0.02,25.54
26383,0.2308,-0.0382,0.9001,-6.27,8.81,-0.05,25.54
26393,0.219,-0.0482,0.8993,-6.29,9.16,-0.05,25.53
26403,0.2238,-0.0466,0.897,-6.44,9.74,-0.11,25.55
26413,0.2611,-0.0504,0.8778,-6.31,7.94,-0.05,25.52
26423,0.2397,-0.0502,0.8903,-6.26,7.65,-0.08,25.53
26433,0.2222,-0.0538,0.8912,-6.27,9.82,0.02,25.53
26443,0.2581,-0.0542,0.8591,-6.24,7.22,0.0,25.53
26453,0.2363,-0.0583,0.88,-6.15,7.04,-0.03,25.53
26463,0.2476,-0.0541,0.8701,-6.21,7.56,-0.12,25.54
26473,0.2437,-0.049,0.8779,-6.14,6.18,-0.08,25.54
26483,0.2072,-0.0511,0.8971,-6.15,8.23,0.03,25.53
26493,0.2246,-0.0413,0.9042,-6.31,9.73,-0.06,25.54
26503,0.2844,-0.0439,0.8469,-6.21,6.18,-0.06,25.53
26513,0.2094,-0.056,0.9187,-6.31,6.73,-0.03,25.52
26523,0.2216,-0.0573,0.9149,-6.49,11.25,-0.03,25.55
26533,0.2496,-0.0562,0.8809,-6.34,9.05,0.05,25.56
26543,0.2578,-0.057,0.8696,-6.21,7.45,-0.02,25.53
26553,0.2386,-0.0599,0.8751,-6.11,7.28,0.05,25.53
26563,0.2485,-0.0494,0.8655,-6.08,7.97,0.02,25.53
26573,0.2513,-0.0511,0.8708,-6.12,6.18,0.02,25.54
26583,0.2168,-0.0447,0.9015,-6.15,7.3,-0.02,25.52
26593,0.2256,-0.0438,0.891,-6.35,9.77,0.02,25.51
26603,0.2506,-0.0461,0.8644,-6.34,7.39,-0.11,25.51
26613,0.2316,-0.0455,0.8788,-6.21,6.99,-0.05,25.54
26623,0.2264,-0.049,0.9077,-6.34,8.43,-0.06,25.54
26633,0.2404,-0.0485,0.8896,-6.31,8.95,0.03,25.54
26643,0.2233,-0.0443,0.8929,-6.26,9.45,-0.05,25.54
26653,0.2675,-0.0468,0.8445,-6.11,7.16,0.0,25.56
26663,0.2302,-0.0569,0.8745,-6.08,5.28,-0.08,25.56
26673,0.1952,-0.0558,0.8955,-6.18,9.77,0.03,25.54
26683,0.2406,-0.0459,0.8676,-6.18,7.69,-0.03,25.51
26693,0.2377,-0.0444,0.8782,-6.15,6.02,-0.06,25.54
26703,0.1945,-0.0408,0.9282,-6.34,9.36,-0.09,25.54
26713,0.2428,-0.0406,0.8827,-6.27,8.66,-0.02,25.55
26723,0.22,-0.047,0.8917,-6.26,6.67,-0.15,25.52
26733,0.2061,-0.0499,0.9039,-6.24,8.96,-0.08,25.55
26743,0.2256,-0.0505,0.884,-6.31,9.85,-0.05,25.54
26753,0.2582,-0.0513,0.8507,-6.2,6.98,0.0,25.52
26763,0.2229,-0.0486,0.8966,-6.21,6.66,-0.05,25.54
26773,0.2266,-0.0409,0.8993,-6.26,10.35,-0.02,25.55
26783,0.2678,-0.0385,0.8654,-6.24,7.15,0.05,25.53
26793,0.2482,-0.0409,0.889,-6.44,5.85,0.02,25.56
26803,0.2317,-0.0505,0.8999,-6.34,8.56,0.0,25.54
26813,0.2363,-0.0562,0.8784,-6.23,8.31,-0.08,25.54
26823,0.2319,-0.062,0.8665,-6.18,8.14,-0.02,25.53
26833,0.2391,-0.0502,0.8749,-6.29,6.23,-0.06,25.54
26843,0.2107,-0.0507,0.9127,-6.35,9.24,0.0,25.53
26853,0.2456,-0.0431,0.8843,-6.43,8.92,-0.08,25.54
26863,0.2594,-0.0452,0.8673,-6.35,6.23,-0.06,25.54
26873,0.2095,-0.0588,0.897,-6.23,7.31,-0.21,25.54
26883,0.215,-0.061,0.8835,-6.21,10.18,-0.12,25.55
26893,0.2634,-0.059,0.8519,-6.14,7.27,-0.18,25.54
26903,0.246,-0.0505,0.8805,-6.17,4.92,-0.08,25.56
26913,0.2057,-0.0404,0.9287,-6.34,10.43,-0.09,25.53
26923,0.2699,-0.0377,0.8641,-6.23,8.43,-0.02,25.56
26933,0.2452,-0.0438,0.8662,-6.24,5.18,0.03,25.54
26943,0.2179,-0.046,0.8976,-6.24,6.9,0.0,25.55
26953,0.2063,-0.0513,0.9047,-6.27,10.58,-0.06,25.56
26963,0.2595,-0.0437,0.8425,-6.18,6.85,-0.05,25.56
26973,0.2258,-0.0466,0.8871,-6.31,5.85,-0.14,25.56
26983,0.2024,-0.0408,0.9159,-6.31,9.94,-0.05,25.54
26993,0.259,-0.0425,0.8744,-6.29,8.76,-0.02,25.55
27003,0.2579,-0.0482,0.8672,-6.17,4.85,-0.08,25.54
27013,0.1975,-0.0518,0.9084,-6.2,9.02,-0.05,25.54
27023,0.2476,-0.0531,0.8704,-6.18,9.62,0.08,25.55
27033,0.2628,-0.0491,0.8545,-6.31,4.75,0.02,25.57
27043,0.2074,-0.0471,0.915,-6.27,8.02,-0.03,25.55
27053,0.2267,-0.0458,0.8987,-6.18,10.44,-0.02,25.55
27063,0.2629,-0.049,0.8619,-6.11,7.04,-0.03,25.55
27073,0.2281,-0.0593,0.8599,-6.24,4.18,-0.17,25.54
27083,0.1448,-0.1,0.8671,-6.14,14.69,-0.06,25.57
27093,0.2075,-0.0574,0.9044,-6.58,7.66,-0.12,25.56
27103,0.2992,-0.0424,0.8794,-6.0,6.99,0.05,25.54
27113,0.1719,-0.0499,0.9166,-6.52,12.44,-0.02,25.55
27123,0.3153,-0.0363,0.8411,-6.18,1.57,0.08,25.57
27133,0.2385,-0.061,0.8864,-6.03,9.08,0.03,25.57
27143,0.2332,-0.057,0.8569,-6.09,2.7,0.03,25.55
27153,0.2468,-0.064,0.8765,-5.86,6.96,0.06,25.54
27163,0.1769,-0.0516,0.927,-6.44,8.81,-0.08,25.53
27173,0.2467,-0.0559,0.8782,-6.2,9.01,0.05,25.55
27183,0.202,-0.0509,0.9099,-6.4,8.08,-0.11,25.55
27193,0.2389,-0.0552,0.8846,-6.27,10.31,0.0,25.55
27203,0.2426,-0.0497,0.8737,-6.24,7.08,-0.03,25.57
27213,0.2404,-0.0474,0.8682,-6.05,7.62,-0.05,25.56
27223,0.2175,-0.0455,0.9099,-6.21,7.54,-0.06,25.57
27233,0.2618,-0.0386,0.8744,-6.15,8.96,0.03,25.54
27243,0.2445,-0.0448,0.8838,-6.12,5.47,-0.03,25.54
27253,0.2085,-0.0431,0.8972,-6.18,8.75,0.06,25.57
27263,0.2662,-0.0439,0.8466,-6.11,6.53,0.02,25.58
27273,0.2092,-0.0507,0.9036,-6.14,5.65,-0.02,25.57
27283,0.21,-0.0447,0.9136,-6.4,10.64,0.02,25.57
27293,0.2389,-0.0414,0.8851,-6.37,9.25,0.03,25.57
27303,0.2637,-0.0428,0.8666,-6.17,6.46,-0.03,25.59
27313,0.2157,-0.0469,0.9045,-6.23,8.2,0.05,25.55
27323,0.2528,-0.0444,0.8721,-6.12,9.92,0.0,25.54
27333,0.2527,-0.05,0.8619,-6.11,5.27,-0.05,25.56
27343,0.2104,-0.0486,0.9066,-6.26,7.94,0.02,25.57
27353,0.2496,-0.0411,0.8783,-6.24,8.95,0.02,25.58
