t_ms,accel_x_g,accel_y_g,accel_z_g,gyro_x_dps,gyro_y_dps,gyro_z_dps,imu_temp_c
3280,0.2004,-0.0433,0.8828,-6.11,8.05,0.02,23.0
3290,0.2136,-0.0348,0.8798,-6.03,7.33,-0.03,23.0
3300,0.2021,-0.0403,0.8848,-6.08,6.75,0.0,23.02
3310,0.2231,-0.0409,0.9,-6.14,8.7,-0.02,23.02
3320,0.2224,-0.0375,0.8947,-6.17,7.18,-0.09,23.02
3330,0.2083,-0.0468,0.9065,-6.08,8.52,-0.09,23.01
3340,0.2194,-0.0493,0.8877,-6.03,8.55,-0.08,23.01
3350,0.2179,-0.0497,0.8745,-5.97,7.45,-0.05,23.04
3360,0.2098,-0.0468,0.8756,-6.05,7.8,-0.11,23.03
3370,0.2073,-0.042,0.8668,-6.08,8.17,-0.03,23.02
3380,0.2146,-0.0341,0.8571,-5.94,6.53,-0.08,23.04
3390,0.1927,-0.0344,0.8972,-6.02,7.22,-0.03,23.03
3400,0.1926,-0.0355,0.8966,-6.05,8.17,-0.02,23.04
3410,0.2235,-0.033,0.89,-6.03,7.3,-0.09,23.01
3420,0.2192,-0.0316,0.9011,-6.03,7.04,-0.09,23.04
3430,0.2085,-0.0365,0.9154,-6.08,8.24,-0.08,23.04
3440,0.2186,-0.041,0.8955,-6.11,8.08,-0.06,23.05
3450,0.2152,-0.0403,0.8828,-6.11,8.08,-0.06,23.05
3460,0.2227,-0.0471,0.8657,-6.09,7.66,-0.11,23.06
3470,0.2069,-0.0458,0.8715,-5.98,7.47,-0.05,23.04
3480,0.2074,-0.0443,0.874,-6.0,7.69,-0.02,23.06
3490,0.2084,-0.04,0.8883,-6.09,7.47,0.0,23.04
3500,0.2172,-0.0391,0.8965,-6.08,7.42,-0.11,23.05
3510,0.2145,-0.0396,0.8989,-6.14,7.73,-0.03,23.05
3520,0.2129,-0.0409,0.8883,-6.14,7.86,0.0,23.05
3530,0.2076,-0.0424,0.8817,-6.08,8.0,-0.02,23.07
3540,0.212,-0.0428,0.8757,-6.12,8.23,-0.06,23.07
3550,0.2245,-0.04,0.8722,-6.02,6.81,0.05,23.06
3560,0.1965,-0.0367,0.9102,-6.12,7.79,0.05,23.01
3570,0.2148,-0.0331,0.9036,-6.21,8.87,0.02,23.05
3580,0.2218,-0.0393,0.8921,-6.05,7.47,-0.03,23.04
3590,0.1965,-0.0398,0.9033,-6.02,8.21,-0.05,23.03
3600,0.2035,-0.0459,0.8801,-6.14,9.71,-0.05,23.05
3610,0.2201,-0.0463,0.8599,-6.12,6.67,-0.06,23.04
3620,0.1879,-0.0431,0.8821,-6.03,7.56,0.03,23.07
3630,0.193,-0.0431,0.8916,-6.03,8.27,-0.06,23.05
3640,0.2195,-0.0381,0.881,-6.11,7.88,-0.12,23.04
3650,0.2218,-0.0385,0.8937,-6.08,6.66,-0.06,23.04
3660,0.1937,-0.0376,0.9081,-6.05,8.44,-0.09,23.05
3670,0.2137,-0.0402,0.882,-6.06,9.28,-0.09,23.05
3680,0.2236,-0.0385,0.8617,-6.0,6.06,-0.08,23.05
3691,0.2097,-0.0417,0.8822,-6.0,6.78,-0.03,23.06
3701,0.2031,-0.0413,0.8938,-6.05,7.28,-0.06,23.03
3711,0.2146,-0.0408,0.8986,-6.08,8.5,-0.08,23.03
3721,0.2311,-0.0364,0.8905,-5.95,8.2,-0.12,23.05
3731,0.2195,-0.0431,0.8901,-6.06,6.44,-0.06,23.06
3741,0.1857,-0.0413,0.9005,-6.12,9.66,0.05,23.02
3751,0.2373,-0.0474,0.8569,-5.92,7.08,-0.05,23.07
3761,0.1945,-0.0433,0.8885,-6.09,6.53,-0.05,23.05
3771,0.1978,-0.0415,0.8904,-6.06,9.82,-0.03,23.05
3781,0.2263,-0.0378,0.8768,-6.0,6.43,-0.08,23.06
3791,0.2031,-0.0398,0.8983,-6.06,7.16,-0.08,23.07
3801,0.1946,-0.0391,0.9015,-6.09,9.11,0.0,23.06
3811,0.2172,-0.0397,0.8761,-6.05,8.5,0.02,23.05
3821,0.2136,-0.0403,0.8688,-6.11,7.22,0.09,23.04
3831,0.2078,-0.0383,0.8862,-6.12,7.5,-0.06,23.08
3841,0.2106,-0.0374,0.8972,-6.11,8.06,-0.02,23.08
3851,0.2186,-0.0354,0.9032,-6.11,8.27,-0.05,23.04
3861,0.2191,-0.0345,0.9006,-6.09,7.59,-0.11,23.09
3871,0.2091,-0.0426,0.8966,-6.02,8.4,-0.05,23.06
3881,0.2169,-0.0392,0.8816,-6.06,7.79,0.02,23.06
3891,0.2183,-0.041,0.8708,-6.12,7.8,-0.05,23.05
3901,0.2107,-0.0414,0.8652,-5.98,6.55,-0.06,23.07
3911,0.187,-0.0422,0.8964,-6.14,8.23,-0.05,23.07
3921,0.2168,-0.0396,0.8896,-6.02,8.41,-0.08,23.06
3931,0.2258,-0.0369,0.8904,-6.06,6.32,-0.03,23.07
3941,0.1917,-0.0392,0.9178,-6.12,8.41,-0.06,23.06
3951,0.212,-0.0391,0.8848,-6.06,9.08,-0.09,23.08
3961,0.2209,-0.0448,0.8684,-6.06,6.96,-0.11,23.06
3971,0.2047,-0.0455,0.8827,-6.05,7.79,-0.06,23.07
3981,0.2141,-0.047,0.8754,-6.02,7.73,-0.12,23.07
3991,0.2041,-0.0404,0.8812,-5.94,7.48,-0.12,23.07
4002,0.2069,-0.0457,0.889,-5.88,8.27,-0.09,23.07
4012,0.2257,-0.0403,0.8805,-5.94,7.28,-0.05,23.11
4022,0.2128,-0.0377,0.8907,-6.05,7.33,0.0,23.08
4032,0.2037,-0.0387,0.8871,-6.03,7.6,0.05,23.07
4042,0.2111,-0.0402,0.8783,-5.94,7.68,-0.03,23.1
4052,0.2085,-0.0333,0.8887,-5.97,6.95,-0.06,23.08
4062,0.2045,-0.0309,0.896,-6.03,7.11,-0.03,23.09
4072,0.1995,-0.0327,0.9017,-6.08,8.55,-0.06,23.08
4082,0.2178,-0.0342,0.8849,-6.12,7.82,-0.09,23.08
4092,0.21,-0.0392,0.8798,-6.14,7.11,-0.15,23.06
4102,0.1929,-0.0372,0.9,-6.2,8.7,0.02,23.09
4112,0.2191,-0.0382,0.8777,-6.14,8.29,-0.03,23.1
4122,0.2192,-0.0433,0.884,-6.14,6.6,-0.03,23.08
4132,0.2034,-0.0447,0.9008,-6.18,8.55,-0.03,23.07
4142,0.2195,-0.0443,0.8868,-6.06,8.21,-0.08,23.08
4152,0.2228,-0.0442,0.8743,-6.03,7.39,-0.02,23.09
4162,0.2096,-0.0438,0.8892,-6.05,7.37,-0.11,23.07
4172,0.2046,-0.0375,0.8921,-6.09,8.17,-0.06,23.09
4182,0.2131,-0.0347,0.879,-6.09,8.4,0.03,23.09
4192,0.2212,-0.0352,0.8723,-6.11,6.82,0.0,23.09
4202,0.1992,-0.0308,0.8965,-6.09,7.79,-0.05,23.08
4212,0.2089,-0.0316,0.8865,-6.06,8.82,-0.03,23.09
4222,0.2198,-0.0323,0.8723,-6.05,6.96,-0.08,23.09
4232,0.1956,-0.0291,0.8942,-6.15,7.74,0.06,23.1
4242,0.2106,-0.033,0.8853,-6.09,8.38,-0.11,23.09
4252,0.2126,-0.0343,0.8837,-6.03,7.36,-0.08,23.1
4262,0.2051,-0.0358,0.8926,-6.03,8.09,-0.06,23.1
4272,0.2124,-0.0375,0.8822,-6.14,7.85,0.0,23.09
4282,0.2128,-0.038,0.8862,-6.06,7.74,0.0,23.11
4292,0.2086,-0.0403,0.8862,-6.06,7.86,-0.09,23.09
4302,0.2141,-0.0449,0.8811,-6.08,8.02,-0.03,23.07
4312,0.2147,-0.0466,0.8826,-5.95,7.33,-0.11,23.08
4322,0.2045,-0.0419,0.8971,-6.0,8.0,-0.08,23.11
4332,0.2103,-0.0438,0.8928,-6.03,8.23,-0.02,23.11
4342,0.2073,-0.041,0.8881,-6.0,7.68,-0.06,23.1
4352,0.2047,-0.0392,0.8882,-6.06,7.97,0.02,23.1
4362,0.2062,-0.0358,0.8888,-6.12,7.63,-0.09,23.08
4372,0.2034,-0.0413,0.8854,-6.05,7.63,-0.05,23.09
4382,0.204,-0.0416,0.8826,-6.14,7.54,-0.03,23.1
4393,0.2035,-0.0488,0.8788,-6.02,7.6,-0.03,23.12
4403,0.2139,-0.0515,0.8741,-6.02,7.42,-0.05,23.12
4413,0.2133,-0.0542,0.8763,-6.02,7.3,0.06,23.11
4423,0.21,-0.0538,0.8887,-6.05,7.74,0.11,23.1
4433,0.2196,-0.0509,0.8861,-6.11,7.47,-0.06,23.09
4443,0.2112,-0.052,0.8962,-6.0,7.71,-0.08,23.11
4453,0.2134,-0.043,0.8942,-6.02,8.05,-0.15,23.09
4463,0.2177,-0.0405,0.8889,-5.95,7.5,-0.12,23.13
4473,0.2086,-0.0437,0.8877,-5.95,7.73,-0.03,23.09
4483,0.2075,-0.0438,0.8821,-5.94,7.98,-0.12,23.08
4493,0.2108,-0.0397,0.8813,-6.0,7.62,-0.11,23.09
4503,0.2089,-0.0367,0.886,-6.03,7.6,-0.03,23.11
4513,0.2047,-0.0308,0.8896,-6.09,8.02,-0.03,23.11
4523,0.2109,-0.0251,0.8904,-6.12,8.12,0.06,23.13
4533,0.2183,-0.0251,0.8801,-6.18,7.13,0.02,23.13
4543,0.2013,-0.0262,0.8875,-6.11,7.6,-0.12,23.12
4553,0.2002,-0.0276,0.8892,-6.11,8.34,-0.11,23.12
4563,0.2153,-0.0394,0.8765,-6.06,7.57,0.02,23.13
4573,0.2141,-0.041,0.8815,-6.09,7.05,-0.12,23.14
4583,0.201,-0.0459,0.8947,-6.14,7.95,-0.12,23.11
4593,0.2104,-0.0496,0.8833,-6.12,8.34,-0.05,23.12
4603,0.2155,-0.0464,0.8854,-6.03,7.45,-0.12,23.1
4613,0.2084,-0.0447,0.8983,-6.08,7.8,-0.05,23.15
4623,0.2142,-0.0454,0.8934,-5.98,8.03,0.0,23.14
4633,0.2164,-0.0441,0.8922,-5.98,7.76,-0.11,23.14
4643,0.2094,-0.0476,0.8921,-6.05,7.71,0.08,23.12
4653,0.2047,-0.0417,0.8931,-6.06,8.2,-0.03,23.12
4663,0.2086,-0.038,0.8861,-5.95,8.23,0.06,23.12
4673,0.2113,-0.0382,0.8796,-5.98,7.42,0.0,23.12
4683,0.2025,-0.0382,0.8857,-6.0,7.79,-0.03,23.12
4693,0.2037,-0.0393,0.8853,-5.91,7.95,0.03,23.12
4703,0.2101,-0.0372,0.8765,-6.0,7.56,-0.08,23.12
4713,0.2108,-0.0347,0.891,-6.06,7.36,-0.02,23.11
4723,0.2034,-0.038,0.8966,-6.09,7.71,-0.09,23.12
4733,0.2136,-0.0405,0.8907,-6.18,8.47,-0.02,23.11
4743,0.2234,-0.0459,0.877,-6.03,6.89,-0.02,23.1
4753,0.2059,-0.0457,0.8969,-6.05,7.53,-0.2,23.14
4763,0.2086,-0.0491,0.8885,-6.14,8.17,-0.05,23.14
4773,0.2158,-0.0444,0.8845,-6.03,7.65,-0.08,23.12
4783,0.214,-0.0437,0.8888,-6.14,7.33,-0.05,23.14
4793,0.2059,-0.0452,0.8866,-6.06,7.89,-0.02,23.15
4803,0.2108,-0.0424,0.8912,-6.11,7.85,-0.06,23.15
4813,0.2186,-0.0406,0.8817,-6.08,7.37,-0.03,23.14
4823,0.2081,-0.0415,0.8837,-6.08,7.79,-0.09,23.13
4833,0.2104,-0.0444,0.8854,-6.11,7.76,-0.03,23.12
4843,0.2147,-0.0448,0.8851,-6.03,7.74,-0.05,23.11
4853,0.2141,-0.0428,0.8834,-6.08,7.8,0.0,23.13
4863,0.2164,-0.0391,0.8848,-6.14,7.51,-0.08,23.12
4873,0.2092,-0.041,0.8876,-6.2,7.74,0.02,23.13
4883,0.2074,-0.0411,0.8879,-6.06,8.02,-0.05,23.13
4893,0.21,-0.0405,0.8812,-6.11,7.34,-0.02,23.14
4903,0.2028,-0.042,0.8853,-6.05,7.57,-0.08,23.15
4913,0.2053,-0.0425,0.885,-6.02,7.89,-0.09,23.14
4923,0.2108,-0.038,0.8832,-6.03,7.6,0.0,23.15
4933,0.2087,-0.0397,0.89,-6.12,7.63,-0.09,23.15
4943,0.2076,-0.0399,0.8969,-6.14,8.38,-0.05,23.13
4953,0.2214,-0.0397,0.8856,-6.09,7.77,-0.11,23.13
4963,0.2173,-0.0394,0.9,-6.15,7.62,-0.06,23.15
4973,0.2109,-0.04,0.8931,-6.14,8.41,-0.11,23.14
4983,0.2123,-0.0432,0.8772,-6.08,8.76,-0.05,23.15
4993,0.2119,-0.0436,0.8571,-6.0,7.13,0.0,23.12
5003,0.2009,-0.0405,0.8748,-6.03,7.6,-0.02,23.17
5013,0.2119,-0.0383,0.8696,-6.02,7.15,-0.11,23.16
5023,0.198,-0.0321,0.8999,-6.05,7.51,-0.08,23.15
5033,0.2122,-0.0315,0.8962,-6.12,8.41,-0.12,23.15
5043,0.2147,-0.0323,0.8956,-6.09,7.37,-0.11,23.16
5053,0.2086,-0.0302,0.9061,-6.2,8.2,-0.12,23.15
5063,0.2205,-0.0372,0.8889,-6.12,8.4,-0.09,23.17
5073,0.2194,-0.0397,0.8866,-6.11,7.51,-0.05,23.16
5083,0.2113,-0.0408,0.8936,-6.21,8.24,-0.05,23.13
5093,0.2108,-0.0438,0.887,-6.06,8.73,-0.02,23.15
5103,0.2178,-0.0487,0.8677,-6.05,8.17,-0.05,23.13
5113,0.2166,-0.045,0.8613,-6.05,7.04,0.03,23.17
5123,0.2018,-0.0447,0.8756,-6.06,7.05,-0.08,23.18
5133,0.203,-0.0439,0.8794,-6.03,7.28,0.0,23.14
5143,0.1991,-0.0378,0.9044,-6.08,7.59,-0.11,23.16
5153,0.2078,-0.0374,0.9077,-5.95,8.2,-0.09,23.15
5163,0.2194,-0.0367,0.8956,-5.94,7.27,-0.14,23.13
5173,0.2046,-0.0377,0.9113,-6.12,7.88,-0.03,23.16
5183,0.2157,-0.0415,0.8953,-6.14,8.7,0.0,23.16
5193,0.2141,-0.0443,0.8801,-6.11,7.53,-0.12,23.18
5203,0.2004,-0.0448,0.8843,-5.94,7.73,-0.09,23.14
5213,0.2025,-0.0443,0.8828,-6.03,8.9,-0.09,23.17
5223,0.2162,-0.041,0.8779,-6.08,8.47,0.0,23.15
5233,0.2097,-0.037,0.8729,-6.09,7.11,-0.02,23.14
5243,0.2067,-0.0388,0.8689,-6.08,7.3,-0.03,23.14
5253,0.2074,-0.0375,0.8748,-6.09,7.34,0.0,23.16
5263,0.2145,-0.0366,0.8853,-6.06,7.19,-0.08,23.15
5273,0.2108,-0.0374,0.9056,-6.15,7.4,-0.05,23.18
5283,0.2135,-0.0348,0.906,-6.21,8.38,-0.02,23.15
5293,0.2294,-0.0402,0.8971,-6.12,7.44,-0.06,23.15
5303,0.2089,-0.0437,0.8967,-6.23,7.92,-0.02,23.18
5313,0.2068,-0.0448,0.8837,-6.02,8.89,-0.05,23.17
5323,0.215,-0.0417,0.8601,-6.08,7.71,-0.06,23.15
5333,0.2133,-0.0406,0.8696,-6.12,7.5,-0.06,23.13
5343,0.208,-0.038,0.8812,-5.94,7.28,-0.02,23.17
5353,0.207,-0.0408,0.8904,-6.02,7.4,-0.02,23.14
5363,0.2067,-0.0348,0.8945,-5.97,7.97,-0.02,23.15
5373,0.2152,-0.0365,0.8951,-6.09,7.97,-0.03,23.16
5383,0.2161,-0.0383,0.8954,-6.06,7.77,0.02,23.14
5393,0.2021,-0.0422,0.895,-6.05,7.86,-0.05,23.16
5403,0.202,-0.0426,0.8785,-6.03,8.24,0.0,23.15
5413,0.2085,-0.042,0.8695,-6.09,7.59,-0.06,23.18
5423,0.2045,-0.041,0.8779,-6.02,7.79,-0.09,23.15
5433,0.2144,-0.0385,0.8831,-6.06,7.08,-0.03,23.16
5443,0.2098,-0.0403,0.894,-6.09,7.31,-0.12,23.16
5453,0.2128,-0.0415,0.8923,-6.06,7.63,-0.05,23.15
5463,0.2023,-0.0388,0.8966,-6.06,7.76,0.06,23.17
5473,0.203,-0.0414,0.887,-6.05,8.85,0.02,23.17
5483,0.2164,-0.0444,0.8755,-6.08,6.6,0.0,23.18
5493,0.189,-0.0424,0.91,-6.17,8.85,-0.03,23.17
5503,0.2295,-0.0386,0.8752,-6.08,8.23,-0.06,23.19
5513,0.222,-0.0421,0.8883,-6.08,6.35,-0.08,23.18
5523,0.1954,-0.0405,0.9071,-6.02,8.61,-0.02,23.19
5533,0.2096,-0.0388,0.876,-6.14,8.84,-0.03,23.16
5543,0.2206,-0.0413,0.8646,-6.06,7.1,0.0,23.17
5553,0.204,-0.0406,0.8846,-6.09,6.96,-0.05,23.19
5563,0.199,-0.0375,0.9016,-6.15,8.79,-0.09,23.16
5573,0.2297,-0.0375,0.8787,-6.09,7.77,-0.06,23.19
5583,0.2091,-0.0419,0.8871,-6.03,6.38,0.0,23.18
5593,0.1859,-0.0426,0.8994,-6.11,9.88,-0.06,23.15
5603,0.2316,-0.041,0.8531,-6.02,6.9,-0.06,23.16
5613,0.2012,-0.0426,0.8947,-6.05,6.46,-0.05,23.16
5623,0.1978,-0.0413,0.9053,-6.09,9.27,-0.03,23.17
5633,0.2301,-0.0382,0.8751,-6.06,7.77,0.02,23.16
5643,0.2139,-0.0404,0.8901,-6.08,6.99,-0.05,23.16
5653,0.2024,-0.038,0.899,-6.18,8.27,0.03,23.17
5663,0.2179,-0.0411,0.8807,-6.03,8.12,0.02,23.16
5673,0.213,-0.0369,0.8835,-6.12,7.19,-0.05,23.15
5683,0.2045,-0.0376,0.8802,-6.08,8.26,-0.09,23.15
5693,0.2115,-0.0398,0.8864,-6.11,7.01,-0.11,23.18
5703,0.2059,-0.0391,0.9091,-6.11,7.68,-0.02,23.18
5713,0.2072,-0.038,0.9084,-6.24,8.58,-0.11,23.19
5723,0.222,-0.0432,0.8818,-6.27,7.63,-0.06,23.16
5733,0.2002,-0.0419,0.8777,-6.05,7.68,-0.05,23.17
5743,0.2002,-0.0414,0.8715,-6.06,8.0,-0.03,23.19
5753,0.2108,-0.0389,0.8743,-6.17,7.71,-0.03,23.21
5763,0.2247,-0.0378,0.8843,-6.08,7.16,-0.06,23.19
5773,0.2201,-0.0374,0.9008,-6.11,7.27,-0.05,23.17
5783,0.2216,-0.042,0.9009,-6.11,7.83,-0.08,23.17
5793,0.2173,-0.0411,0.8927,-6.21,7.98,-0.11,23.19
5803,0.2131,-0.0454,0.8969,-6.08,8.47,-0.06,23.19
5813,0.2079,-0.0438,0.8792,-6.06,8.0,-0.09,23.17
5823,0.2104,-0.0444,0.8757,-5.97,7.89,-0.03,23.18
5833,0.2125,-0.0391,0.8739,-6.0,7.07,-0.06,23.2
5843,0.2013,-0.0356,0.8835,-6.03,7.59,-0.09,23.19
5853,0.2039,-0.0344,0.8851,-5.95,7.95,-0.12,23.21
5863,0.2124,-0.0321,0.8887,-6.08,7.57,-0.02,23.19
5873,0.2173,-0.0299,0.8882,-5.98,7.79,-0.03,23.2
5883,0.2161,-0.0319,0.8916,-6.11,7.47,-0.06,23.18
5893,0.2091,-0.0308,0.8966,-6.14,8.12,-0.05,23.2
5903,0.2203,-0.0413,0.8901,-6.14,8.06,-0.08,23.2
5913,0.2177,-0.0394,0.8933,-6.18,7.66,-0.06,23.19
5923,0.2147,-0.0441,0.8896,-6.18,7.92,-0.05,23.2
5933,0.2153,-0.0507,0.8849,-6.03,8.29,-0.11,23.17
5943,0.2161,-0.0519,0.88,-6.11,7.6,-0.05,23.19
5953,0.2085,-0.0474,0.882,-6.09,7.94,-0.06,23.21
5963,0.2146,-0.0443,0.8715,-6.06,7.62,-0.03,23.19
5973,0.2056,-0.0432,0.8826,-6.14,7.02,-0.11,23.19
5983,0.2067,-0.0366,0.8811,-6.05,7.69,-0.06,23.18
5993,0.2126,-0.036,0.8822,-6.05,6.96,-0.03,23.19
6003,0.2008,-0.0343,0.9011,-6.08,7.28,-0.05,23.18
6013,0.1982,-0.0343,0.905,-6.05,8.18,0.06,23.18
6023,0.2152,-0.0304,0.8942,-6.05,8.34,0.03,23.18
6033,0.2213,-0.0348,0.8817,-6.03,6.95,-0.06,23.19
6043,0.2003,-0.0333,0.9006,-6.08,8.02,-0.06,23.19
6053,0.2101,-0.0355,0.8831,-6.08,8.35,-0.12,23.18
6063,0.2145,-0.0349,0.8834,-6.08,7.45,0.03,23.18
6073,0.2062,-0.038,0.8904,-6.08,7.86,0.02,23.19
6083,0.2068,-0.0387,0.8871,-6.11,7.95,-0.05,23.2
6093,0.2129,-0.0383,0.8838,-6.02,7.57,-0.09,23.21
6103,0.2062,-0.0386,0.8995,-5.98,7.8,-0.03,23.19
6113,0.2104,-0.0376,0.8944,-6.08,8.43,0.0,23.19
6123,0.2184,-0.0374,0.8843,-6.03,7.45,-0.11,23.17
6133,0.2067,-0.0376,0.8945,-6.02,7.5,0.03,23.2
6143,0.2042,-0.0377,0.8939,-6.05,8.69,0.0,23.2
6153,0.2181,-0.0374,0.885,-6.05,7.76,-0.05,23.21
6163,0.217,-0.0397,0.8822,-6.03,7.48,-0.08,23.21
6173,0.2061,-0.0425,0.8942,-6.06,8.0,-0.02,23.18
6183,0.2117,-0.0439,0.8857,-6.15,8.24,-0.08,23.21
6193,0.2178,-0.0479,0.8738,-6.08,7.77,-0.03,23.19
6203,0.2063,-0.0486,0.8842,-6.18,7.37,-0.03,23.21
6213,0.2047,-0.0455,0.8894,-6.0,8.29,-0.09,23.2
6223,0.2133,-0.0452,0.8805,-6.03,7.91,0.0,23.19
6233,0.2072,-0.0439,0.8843,-5.98,7.1,-0.05,23.21
6243,0.2009,-0.0397,0.8907,-6.12,7.59,0.0,23.19
6253,0.2065,-0.038,0.8856,-6.12,7.79,-0.03,23.2
6263,0.2047,-0.0397,0.8835,-6.09,7.13,-0.02,23.2
6273,0.2017,-0.0382,0.8921,-6.05,7.53,-0.06,23.21
6283,0.1987,-0.0394,0.9038,-6.18,8.17,-0.03,23.19
6293,0.2151,-0.0392,0.8801,-6.11,7.65,-0.05,23.19
6303,0.2073,-0.0383,0.8992,-6.18,7.57,-0.12,23.19
6313,0.2186,-0.0398,0.8887,-6.09,8.23,-0.05,23.2
6323,0.2184,-0.0426,0.8834,-6.08,7.08,0.03,23.19
6333,0.2091,-0.0417,0.8964,-6.15,8.41,-0.06,23.2
6343,0.2271,-0.0485,0.8749,-6.12,7.39,-0.08,23.19
6353,0.2136,-0.0477,0.8934,-6.11,7.3,-0.14,23.19
6363,0.2091,-0.0513,0.8949,-6.15,8.29,-0.08,23.21
6373,0.2223,-0.0496,0.8812,-5.92,7.88,-0.02,23.2
6383,0.2147,-0.0498,0.8826,-6.06,6.99,-0.14,23.2
6393,0.2051,-0.0472,0.8973,-6.11,8.53,0.02,23.19
6403,0.2241,-0.0455,0.8749,-6.14,7.73,0.0,23.19
6413,0.2061,-0.0426,0.8805,-6.09,7.54,0.02,23.19
6423,0.209,-0.0415,0.8785,-6.12,7.97,-0.15,23.2
6433,0.2151,-0.0363,0.8754,-6.08,7.36,-0.03,23.2
6450,0.213,-0.0388,0.8835,-6.05,7.53,-0.29,23.21
6460,0.2139,-0.0411,0.8917,-6.03,6.92,-0.21,23.22
6470,0.2018,-0.0392,0.8998,-6.17,7.73,-0.09,23.22
6480,0.2035,-0.0432,0.9049,-6.14,9.27,-0.08,23.2
6490,0.2312,-0.0411,0.8701,-6.02,7.27,0.08,23.2
6500,0.2081,-0.0444,0.8932,-6.15,6.79,-0.08,23.23
6510,0.1985,-0.0449,0.8975,-6.09,9.19,-0.05,23.22
6520,0.2252,-0.0439,0.8734,-6.12,7.59,-0.14,23.22
6530,0.2144,-0.0422,0.8873,-6.09,7.18,0.0,23.21
6540,0.2084,-0.0332,0.8934,-6.11,7.62,-0.11,23.21
6550,0.2185,-0.0367,0.8828,-6.12,8.23,-0.08,23.22
6560,0.2251,-0.0374,0.8824,-6.09,7.13,-0.05,23.21
6570,0.2086,-0.037,0.8953,-6.09,7.66,-0.06,23.23
6580,0.2069,-0.0369,0.8871,-6.09,8.78,-0.02,23.22
6590,0.2253,-0.0327,0.874,-6.12,7.56,-0.05,23.22
6600,0.2198,-0.0389,0.8782,-6.09,7.16,-0.06,23.2
6610,0.2,-0.0345,0.8867,-6.2,8.15,-0.08,23.2
6620,0.2169,-0.0369,0.8759,-6.18,8.06,-0.08,23.2
6630,0.2245,-0.04,0.8794,-6.15,6.98,-0.09,23.22
6640,0.2052,-0.0403,0.8912,-6.15,7.4,0.0,23.23
6650,0.1963,-0.038,0.9005,-6.05,8.35,-0.05,23.24
6660,0.2146,-0.0352,0.8823,-6.03,8.49,0.03,23.24
6670,0.2261,-0.0345,0.8762,-5.91,7.3,-0.08,23.2
6680,0.213,-0.0348,0.8857,-6.0,6.63,-0.06,23.22
6690,0.202,-0.0374,0.8983,-6.05,8.43,0.0,23.21
6700,0.2139,-0.0363,0.8846,-6.03,8.17,-0.05,23.23
6710,0.213,-0.0372,0.8845,-6.08,7.45,-0.03,23.21
6720,0.2065,-0.0399,0.8872,-6.08,7.42,-0.14,23.23
6730,0.2043,-0.0364,0.8955,-6.12,8.15,-0.05,23.23
6740,0.2172,-0.0397,0.8849,-6.05,8.17,-0.02,23.21
6750,0.2197,-0.0411,0.8872,-6.03,6.98,-0.11,23.23
6760,0.2045,-0.0391,0.9026,-6.03,8.17,-0.11,23.22
6770,0.2158,-0.0398,0.8875,-6.03,8.96,0.0,23.22
6780,0.2322,-0.04,0.8689,-5.98,6.93,-0.05,23.24
6790,0.2048,-0.0411,0.89,-6.11,7.42,-0.03,23.24
6800,0.2046,-0.0409,0.8871,-6.15,8.96,0.0,23.2
6810,0.2169,-0.0405,0.8744,-6.09,7.62,-0.02,23.25
6820,0.2126,-0.0422,0.8848,-6.03,6.93,-0.09,23.22
6830,0.1993,-0.0405,0.8932,-5.98,8.14,-0.06,23.23
6840,0.2004,-0.0394,0.8851,-6.05,8.43,-0.03,23.22
6850,0.2168,-0.0367,0.8773,-6.14,6.85,-0.05,23.21
6860,0.1979,-0.0385,0.902,-6.12,7.76,0.02,23.17
6870,0.2114,-0.0391,0.8907,-6.06,8.23,-0.08,23.23
6880,0.2247,-0.0375,0.8892,-6.11,7.1,-0.09,23.21
6890,0.2053,-0.0417,0.9045,-6.18,7.57,-0.05,23.22
6900,0.2069,-0.0446,0.8992,-6.12,9.08,-0.03,23.22
6910,0.2272,-0.0439,0.8773,-6.21,7.6,-0.06,23.21
6920,0.2111,-0.0475,0.8815,-6.09,7.28,-0.09,23.24
6930,0.2002,-0.0453,0.8813,-6.0,7.97,-0.05,23.21
6943,0.2157,-0.0386,0.885,-6.05,7.45,-0.12,23.25
6953,0.2056,-0.042,0.8911,-6.05,8.18,0.02,23.22
6963,0.2175,-0.0425,0.8785,-6.2,7.94,-0.03,23.23
6973,0.2137,-0.0416,0.885,-6.11,7.36,-0.09,23.23
6983,0.2051,-0.0402,0.8893,-6.12,8.21,-0.06,23.25
6993,0.2135,-0.0359,0.8859,-6.08,8.15,0.0,23.23
7003,0.2167,-0.035,0.8793,-6.05,7.73,-0.03,23.23
7013,0.2102,-0.0409,0.8767,-6.18,7.18,0.02,23.23
7023,0.2045,-0.0358,0.8838,-6.08,7.73,-0.06,23.23
7033,0.2097,-0.0405,0.8718,-6.11,7.83,-0.05,23.23
7043,0.2113,-0.0381,0.886,-6.15,6.85,-0.02,23.25
7054,0.2078,-0.0392,0.8933,-6.14,6.96,-0.02,23.23
7064,0.2036,-0.0411,0.9117,-6.14,8.4,-0.14,23.24
7074,0.2195,-0.0333,0.8953,-6.14,8.44,-0.05,23.24
7084,0.2196,-0.0377,0.8936,-6.05,7.37,-0.11,23.23
7094,0.2063,-0.0419,0.9033,-6.18,7.69,-0.11,23.24
7104,0.2062,-0.0413,0.8993,-6.12,9.08,-0.03,23.23
7114,0.2196,-0.0468,0.8751,-6.05,8.55,-0.06,23.22
7124,0.2125,-0.0448,0.8563,-5.95,7.36,-0.03,23.23
7134,0.2014,-0.0443,0.8635,-6.06,7.28,-0.06,23.26
7144,0.1995,-0.0408,0.8792,-5.98,7.79,-0.08,23.25
7154,0.2059,-0.0416,0.8767,-5.97,7.48,-0.03,23.23
7164,0.2166,-0.0328,0.8923,-6.2,7.16,-0.09,23.23
7174,0.207,-0.0336,0.9092,-6.24,7.73,-0.11,23.22
7184,0.2102,-0.0398,0.9056,-6.23,8.23,-0.05,23.23
7194,0.2157,-0.0371,0.9062,-6.23,8.32,-0.06,23.26
7204,0.2198,-0.0474,0.8837,-6.09,7.86,-0.08,23.25
7214,0.2026,-0.0511,0.8746,-6.03,8.09,-0.02,23.25
7224,0.2047,-0.0452,0.8617,-6.09,7.82,-0.08,23.23
7234,0.2074,-0.0414,0.8665,-6.12,7.25,-0.06,23.25
7244,0.203,-0.038,0.891,-5.98,7.4,-0.05,23.24
7255,0.2046,-0.0381,0.891,-6.12,7.98,0.05,23.21
7265,0.2205,-0.0363,0.894,-6.08,7.27,-0.14,23.24
7275,0.2139,-0.0378,0.9034,-6.11,7.34,-0.09,23.22
7293,0.2173,-0.0439,0.8737,-6.11,7.82,-0.08,23.22
7303,0.2107,-0.049,0.873,-6.08,7.6,-0.08,23.21
7313,0.202,-0.0428,0.8723,-6.17,7.82,-0.09,23.25
7323,0.2061,-0.0403,0.8828,-6.08,8.14,-0.03,23.25
7333,0.2239,-0.0437,0.8807,-6.12,6.69,0.03,23.25
7343,0.1942,-0.0326,0.922,-6.14,8.56,-0.08,23.24
7353,0.2355,-0.0355,0.8837,-6.14,7.98,-0.06,23.24
7363,0.2012,-0.0441,0.9095,-6.12,7.04,-0.14,23.23
7373,0.2074,-0.0416,0.8907,-6.18,10.02,-0.02,23.24
7383,0.2257,-0.0409,0.8467,-6.08,6.12,-0.14,23.26
7393,0.1814,-0.0446,0.8824,-6.05,7.37,-0.06,23.27
7403,0.2059,-0.0435,0.8827,-6.03,8.31,0.0,23.24
7413,0.2266,-0.04,0.8931,-5.97,6.92,-0.09,23.26
7423,0.2192,-0.0393,0.9073,-6.06,7.11,-0.08,23.25
7433,0.207,-0.0359,0.9094,-6.09,8.98,-0.03,23.25
7443,0.2217,-0.0397,0.8839,-6.06,7.82,-0.02,23.25
7453,0.2015,-0.0474,0.8845,-6.06,8.49,-0.11,23.24
7463,0.2158,-0.0461,0.8586,-5.95,7.66,-0.06,23.23
7473,0.2056,-0.0406,0.8711,-6.11,6.85,0.0,23.25
7483,0.1958,-0.0414,0.8871,-6.02,7.74,-0.02,23.24
7493,0.2153,-0.0381,0.8944,-6.05,7.05,-0.12,23.26
7503,0.2091,-0.0333,0.9017,-6.02,7.69,0.0,23.25
7513,0.2156,-0.0408,0.9034,-6.15,7.57,-0.05,23.26
7523,0.2041,-0.0405,0.9036,-6.11,8.26,-0.02,23.25
7533,0.2107,-0.042,0.8815,-5.98,8.7,-0.06,23.24
7543,0.2124,-0.0455,0.8635,-6.09,7.4,0.02,23.25
7553,0.2029,-0.0439,0.8702,-6.05,7.5,0.06,23.26
7563,0.2089,-0.0396,0.8804,-6.02,7.42,-0.06,23.22
7573,0.212,-0.0374,0.9022,-6.09,7.95,0.0,23.24
7583,0.2275,-0.0367,0.8916,-6.2,7.36,-0.06,23.24
7593,0.2133,-0.0386,0.9039,-6.12,7.48,0.0,23.26
7603,0.2037,-0.0393,0.8959,-6.11,8.82,-0.05,23.25
7613,0.2152,-0.0411,0.8615,-6.02,8.14,0.0,23.26
7623,0.2145,-0.042,0.8693,-6.06,6.61,-0.11,23.27
7633,0.197,-0.0427,0.885,-6.06,7.63,-0.08,23.27
7643,0.207,-0.0413,0.8896,-6.06,8.08,0.02,23.26
7653,0.2192,-0.0378,0.8864,-6.06,7.07,-0.02,23.29
7663,0.2052,-0.0389,0.9141,-6.08,7.83,-0.11,23.26
7673,0.2058,-0.0382,0.9036,-6.26,9.3,-0.08,23.27
7683,0.2217,-0.0426,0.871,-6.14,7.73,0.02,23.25
7693,0.2039,-0.045,0.8756,-6.11,7.3,-0.05,23.24
7703,0.2015,-0.0442,0.8779,-6.03,7.88,-0.02,23.27
7713,0.2107,-0.04,0.8835,-6.08,7.86,0.0,23.26
7723,0.2162,-0.0385,0.8921,-6.12,7.54,-0.05,23.26
7733,0.2117,-0.0378,0.899,-6.14,7.73,-0.09,23.24
7743,0.2137,-0.0406,0.9009,-6.08,8.32,-0.06,23.27
7753,0.2175,-0.0365,0.8805,-6.12,7.34,0.0,23.24
7763,0.2097,-0.0426,0.8845,-6.09,7.25,-0.02,23.26
7773,0.201,-0.0421,0.8812,-6.11,8.29,-0.02,23.24
7783,0.2145,-0.0399,0.8683,-6.02,7.8,-0.05,23.24
7793,0.2091,-0.0415,0.8783,-6.05,6.93,-0.08,23.24
7803,0.2017,-0.0378,0.8955,-6.08,7.77,-0.08,23.27
7813,0.2169,-0.0336,0.8953,-6.11,8.31,-0.03,23.24
7823,0.2191,-0.0367,0.8934,-6.09,7.54,-0.09,23.24
7833,0.2052,-0.0381,0.8933,-6.06,7.98,-0.03,23.27
7843,0.2037,-0.0427,0.8885,-6.12,8.6,-0.03,23.28
7853,0.2222,-0.04,0.8698,-6.0,7.36,-0.08,23.27
7863,0.2065,-0.0396,0.8848,-5.92,7.48,0.02,23.26
7873,0.2081,-0.0382,0.8813,-6.03,7.71,0.02,23.25
7883,0.2062,-0.0408,0.8856,-6.11,7.59,-0.03,23.26
7893,0.2058,-0.0385,0.8975,-6.11,8.06,-0.06,23.28
7903,0.2224,-0.0366,0.8881,-6.17,7.45,-0.12,23.25
7913,0.2085,-0.0354,0.9019,-6.23,7.71,0.0,23.29
7923,0.2147,-0.0408,0.9047,-6.15,8.56,-0.09,23.25
7933,0.2227,-0.0378,0.8893,-6.17,7.68,-0.06,23.27
7943,0.2168,-0.0391,0.894,-6.09,7.59,0.0,23.3
7953,0.2153,-0.0466,0.8943,-6.11,8.27,-0.05,23.27
7963,0.2166,-0.045,0.894,-6.18,8.2,-0.05,23.26
7973,0.2156,-0.0461,0.8682,-6.14,8.09,-0.11,23.25
7983,0.2129,-0.0457,0.8646,-6.02,7.37,-0.03,23.3
7993,0.2172,-0.0446,0.8635,-6.05,7.21,-0.09,23.29
8003,0.2007,-0.0432,0.8798,-6.05,7.73,-0.03,23.3
8013,0.2134,-0.0371,0.8779,-6.09,7.66,-0.11,23.28
8023,0.214,-0.0342,0.8828,-6.06,7.11,-0.05,23.28
8033,0.2134,-0.0387,0.889,-6.12,7.37,-0.03,23.27
8043,0.2122,-0.0404,0.8938,-6.03,7.97,-0.09,23.25
8053,0.2153,-0.0398,0.8846,-6.14,7.79,-0.11,23.29
8063,0.2052,-0.0386,0.8853,-6.12,7.79,-0.05,23.26
8074,0.2048,-0.038,0.8934,-6.11,8.15,-0.03,23.27
8084,0.2153,-0.0399,0.8794,-6.06,7.82,-0.05,23.25
8094,0.2118,-0.0432,0.8856,-6.15,7.19,-0.09,23.26
8104,0.207,-0.0411,0.8939,-6.11,8.05,0.0,23.25
8114,0.2157,-0.0447,0.8872,-6.15,8.15,-0.02,23.29
8124,0.2177,-0.0406,0.8855,-6.14,7.21,-0.05,23.27
8134,0.207,-0.042,0.902,-6.12,7.97,-0.08,23.26
8144,0.2198,-0.042,0.8911,-6.09,8.03,-0.03,23.27
8154,0.2128,-0.0415,0.8868,-6.15,7.34,-0.08,23.26
8164,0.2064,-0.0432,0.8888,-6.11,8.38,-0.03,23.26
8174,0.2236,-0.0428,0.8746,-6.12,7.02,0.03,23.27
8184,0.2059,-0.0425,0.8861,-6.05,7.27,-0.02,23.3
8194,0.2052,-0.0454,0.8915,-6.09,8.23,0.0,23.3
8204,0.2223,-0.0452,0.8848,-6.2,7.73,-0.03,23.28
8214,0.2191,-0.0431,0.885,-6.03,6.92,-0.08,23.31
8224,0.2012,-0.0438,0.895,-6.18,7.76,-0.08,23.27
8234,0.2134,-0.0422,0.8828,-6.09,8.31,-0.08,23.28
8244,0.2222,-0.0431,0.8749,-6.02,7.15,-0.03,23.29
8254,0.2098,-0.041,0.8818,-6.05,7.51,-0.11,23.29
8264,0.2091,-0.0411,0.8831,-6.06,7.95,0.0,23.27
8274,0.2101,-0.0404,0.8806,-6.14,7.62,-0.2,23.26
8284,0.2104,-0.0449,0.8842,-6.11,7.6,-0.06,23.27
8294,0.2059,-0.0415,0.8905,-6.02,7.48,-0.11,23.27
8304,0.2061,-0.041,0.8966,-6.11,7.95,0.03,23.27
8314,0.2119,-0.0394,0.8867,-6.05,7.73,-0.06,23.28
8324,0.2115,-0.0388,0.8853,-6.06,7.56,-0.11,23.26
8334,0.2177,-0.0409,0.8843,-6.17,7.56,-0.06,23.27
8344,0.2051,-0.0403,0.8966,-6.12,7.98,0.02,23.28
8354,0.2217,-0.0392,0.8798,-6.0,7.97,-0.08,23.28
8364,0.212,-0.0405,0.8887,-6.05,7.13,-0.09,23.29
8374,0.2043,-0.041,0.8914,-6.06,8.35,-0.06,23.28
8384,0.2185,-0.0411,0.8801,-6.14,7.77,-0.09,23.29
8394,0.2168,-0.0421,0.882,-6.06,7.65,-0.06,23.28
8404,0.2043,-0.0377,0.8914,-6.05,7.56,0.09,23.25
8414,0.2041,-0.0399,0.8961,-6.05,8.7,-0.08,23.28
8424,0.2239,-0.0385,0.8712,-6.08,7.34,-0.03,23.27
8434,0.2106,-0.0447,0.8856,-6.11,7.21,-0.05,23.27
8445,0.2041,-0.0378,0.8887,-6.17,7.86,0.0,23.31
8455,0.2094,-0.0374,0.889,-6.12,8.67,0.05,23.27
8465,0.2235,-0.0416,0.8777,-6.11,7.65,-0.03,23.26
8475,0.2134,-0.0426,0.879,-6.02,7.22,0.02,23.3
8485,0.2048,-0.0386,0.8949,-6.06,8.15,-0.06,23.29
8495,0.2188,-0.0333,0.8799,-6.08,8.06,-0.02,23.27
8505,0.2214,-0.0327,0.8838,-6.12,7.08,0.03,23.29
8515,0.2092,-0.0411,0.8933,-6.12,7.77,-0.08,23.27
8525,0.2079,-0.047,0.891,-6.05,8.12,0.02,23.28
8535,0.2068,-0.0413,0.8824,-6.11,7.86,-0.06,23.31
8545,0.2133,-0.0388,0.8783,-6.0,7.73,-0.08,23.26
8555,0.2107,-0.0347,0.8892,-6.18,7.25,-0.09,23.28
8565,0.204,-0.0366,0.8925,-6.09,8.32,-0.02,23.28
8575,0.2153,-0.0402,0.8824,-6.17,7.68,-0.05,23.26
8585,0.2097,-0.0411,0.8821,-6.17,7.3,-0.06,23.29
8595,0.2019,-0.0413,0.8857,-6.15,7.92,-0.05,23.28
8605,0.2054,-0.0404,0.8851,-6.08,7.86,0.0,23.27
8615,0.2035,-0.0381,0.8856,-6.17,8.05,-0.08,23.27
8625,0.2192,-0.0377,0.8759,-6.03,7.19,-0.09,23.31
8635,0.2094,-0.0405,0.8828,-6.05,6.69,-0.02,23.29
8645,0.1982,-0.0427,0.8987,-6.11,8.26,-0.05,23.29
8655,0.2123,-0.0402,0.885,-6.05,8.08,-0.02,23.29
8665,0.2131,-0.0411,0.889,-6.14,7.28,-0.05,23.28
8675,0.207,-0.0367,0.8903,-6.11,7.85,-0.06,23.28
8685,0.2107,-0.0396,0.8901,-6.06,8.0,-0.06,23.27
8695,0.2102,-0.0358,0.8915,-6.08,7.47,-0.03,23.29
8705,0.205,-0.0358,0.9001,-6.05,8.14,-0.09,23.28
8715,0.2183,-0.0402,0.8899,-6.15,7.91,-0.08,23.3
8725,0.2074,-0.0414,0.8942,-6.02,7.82,-0.02,23.29
8735,0.2104,-0.0363,0.8918,-6.08,8.26,-0.12,23.29
8745,0.2155,-0.0378,0.881,-6.06,7.82,0.03,23.28
8755,0.2144,-0.037,0.8834,-6.12,7.37,-0.06,23.27
8765,0.2062,-0.0396,0.8966,-6.15,8.38,0.0,23.29
8775,0.2146,-0.0409,0.8784,-6.08,8.23,0.05,23.29
8785,0.2144,-0.0424,0.8789,-6.02,7.15,-0.02,23.28
8795,0.2057,-0.038,0.8876,-6.02,7.92,-0.12,23.27
8805,0.2111,-0.0348,0.8823,-6.08,8.09,-0.02,23.3
8815,0.2103,-0.0338,0.8842,-6.02,7.47,-0.02,23.3
8825,0.2075,-0.0367,0.889,-6.11,7.73,0.03,23.27
8835,0.205,-0.0406,0.8876,-6.17,7.8,-0.03,23.26
8845,0.2097,-0.0364,0.8875,-6.11,7.68,-0.08,23.3
8855,0.2078,-0.0366,0.899,-6.02,7.8,-0.11,23.3
8865,0.2135,-0.036,0.9023,-6.12,8.2,-0.08,23.31
8875,0.2169,-0.036,0.8988,-6.18,7.98,-0.05,23.31
8885,0.2141,-0.0375,0.8931,-6.12,8.06,-0.06,23.28
8895,0.2155,-0.0416,0.8865,-6.18,7.59,-0.02,23.28
8905,0.2059,-0.0441,0.8885,-6.14,8.34,-0.09,23.32
8915,0.2117,-0.0439,0.8772,-6.11,7.89,-0.09,23.3
8925,0.2128,-0.0437,0.877,-5.98,7.65,-0.09,23.3
8935,0.2083,-0.0387,0.8809,-6.05,7.69,0.0,23.3
8946,0.2052,-0.0389,0.8829,-6.14,7.65,-0.02,23.32
8956,0.209,-0.0377,0.8784,-6.08,7.77,-0.05,23.31
8966,0.2107,-0.0396,0.8838,-6.18,7.5,-0.05,23.3
8976,0.2144,-0.0372,0.8896,-6.12,7.66,-0.03,23.28
8986,0.2109,-0.0372,0.889,-6.11,7.57,-0.09,23.29
8996,0.21,-0.04,0.8994,-6.15,8.18,-0.08,23.3
9006,0.2103,-0.0375,0.8942,-6.17,7.82,-0.09,23.3
9016,0.2089,-0.0398,0.8977,-6.14,8.32,0.02,23.3
9026,0.2264,-0.0437,0.8785,-6.05,7.39,-0.06,23.3
9036,0.2048,-0.0465,0.8872,-6.12,7.36,-0.02,23.31
9046,0.1967,-0.0428,0.8855,-6.0,9.66,-0.02,23.32
9056,0.2308,-0.0402,0.8468,-6.11,6.47,-0.05,23.31
9066,0.2169,-0.0439,0.855,-6.08,6.24,-0.08,23.29
9076,0.1957,-0.0381,0.9021,-6.05,8.26,-0.06,23.3
9086,0.2156,-0.0342,0.8892,-6.18,8.11,-0.03,23.32
9096,0.219,-0.0331,0.9011,-6.17,7.25,-0.09,23.29
9106,0.2069,-0.0369,0.9095,-6.09,7.89,-0.02,23.3
9116,0.2133,-0.0394,0.9044,-6.14,8.58,-0.06,23.3
9126,0.2158,-0.0404,0.8979,-6.17,8.32,-0.12,23.31
9136,0.2007,-0.0459,0.8896,-6.05,8.11,-0.05,23.31
9146,0.2032,-0.0477,0.8691,-6.0,9.15,0.03,23.31
9156,0.2235,-0.049,0.8528,-6.03,7.22,-0.03,23.3
9166,0.2104,-0.0433,0.8729,-6.08,6.31,-0.02,23.32
9176,0.1968,-0.0411,0.8917,-6.06,7.76,-0.05,23.3
9186,0.1981,-0.038,0.8928,-6.12,8.24,-0.05,23.3
9196,0.2208,-0.0355,0.8883,-6.08,6.63,0.06,23.3
9206,0.2034,-0.036,0.9183,-6.11,7.66,-0.06,23.32
9216,0.2097,-0.0411,0.9089,-6.09,8.75,-0.08,23.32
9226,0.2227,-0.0448,0.8872,-6.14,8.23,-0.03,23.33
9236,0.2098,-0.0447,0.8796,-6.06,7.68,-0.15,23.33
9246,0.1995,-0.0435,0.8713,-6.0,8.27,-0.08,23.3
9256,0.209,-0.0397,0.8625,-5.95,7.44,-0.03,23.3
9266,0.205,-0.038,0.8793,-6.0,7.25,-0.02,23.31
9276,0.2107,-0.0374,0.8767,-6.09,7.53,-0.03,23.3
9286,0.2079,-0.0413,0.9061,-6.06,7.24,-0.14,23.31
9296,0.2023,-0.0349,0.9178,-6.12,7.91,0.03,23.3
9306,0.2129,-0.0365,0.9141,-6.06,8.98,-0.14,23.31
9316,0.2269,-0.0421,0.8848,-6.09,7.85,0.08,23.33
9326,0.2029,-0.0437,0.8893,-6.06,7.6,-0.02,23.3
9336,0.2025,-0.0485,0.868,-6.06,8.85,-0.02,23.32
9346,0.2169,-0.0414,0.8547,-6.17,6.95,-0.09,23.29
9356,0.2034,-0.0369,0.8842,-5.95,7.02,0.02,23.28
9366,0.2091,-0.0376,0.9006,-6.05,8.02,-0.02,23.31
9376,0.2173,-0.0356,0.9062,-6.05,7.86,-0.14,23.29
9386,0.2177,-0.0347,0.8986,-6.14,7.74,-0.14,23.29
9396,0.2089,-0.0369,0.9006,-6.11,7.8,-0.08,23.29
9406,0.2117,-0.0428,0.8708,-6.17,8.43,-0.12,23.29
9416,0.2118,-0.0427,0.864,-6.03,7.25,-0.08,23.29
9426,0.2075,-0.0394,0.879,-6.0,7.65,-0.09,23.31
9436,0.2142,-0.0363,0.8889,-6.17,7.31,-0.06,23.31
9446,0.2173,-0.0316,0.906,-6.12,8.05,-0.03,23.32
9456,0.2294,-0.036,0.8937,-6.15,7.56,-0.03,23.3
9466,0.2118,-0.0381,0.9022,-6.14,7.27,-0.08,23.3
9476,0.2032,-0.0409,0.9061,-6.27,9.27,0.03,23.3
9486,0.2234,-0.0416,0.8679,-6.09,8.47,-0.08,23.29
9496,0.2118,-0.0431,0.8597,-6.11,6.4,0.02,23.31
9506,0.1823,-0.0431,0.8787,-6.14,8.15,-0.06,23.3
9516,0.2015,-0.0449,0.8735,-6.05,8.63,0.09,23.29
9526,0.2217,-0.038,0.874,-6.02,7.01,-0.03,23.32
9536,0.2068,-0.0397,0.8954,-6.11,6.98,-0.06,23.3
9546,0.2062,-0.041,0.9072,-6.17,7.74,-0.05,23.28
9556,0.2202,-0.0433,0.8981,-6.12,8.14,0.05,23.28
9566,0.2175,-0.0426,0.8824,-5.94,7.86,-0.09,23.32
9576,0.219,-0.041,0.871,-6.03,7.1,-0.09,23.32
9586,0.2004,-0.04,0.884,-6.06,7.19,-0.17,23.33
9596,0.2072,-0.0388,0.8934,-6.09,8.55,-0.03,23.32
9606,0.23,-0.0363,0.8826,-6.06,7.19,-0.06,23.33
9616,0.213,-0.0342,0.8984,-6.11,7.01,-0.11,23.32
9626,0.2062,-0.0369,0.9093,-6.06,8.26,-0.06,23.31
9636,0.2125,-0.0374,0.8925,-6.0,8.2,0.02,23.33
9646,0.2043,-0.0369,0.8755,-6.12,8.66,-0.05,23.32
9656,0.2198,-0.0405,0.8502,-6.06,6.92,0.02,23.29
9666,0.2147,-0.0471,0.8634,-6.18,5.69,-0.06,23.32
9676,0.2053,-0.0369,0.9073,-6.21,9.24,-0.09,23.32
9686,0.2375,-0.0386,0.8911,-6.0,7.02,-0.08,23.33
9696,0.2108,-0.0422,0.9177,-6.27,7.08,-0.09,23.3
9706,0.2025,-0.0414,0.9095,-6.15,9.53,-0.06,23.32
9716,0.2203,-0.0386,0.8724,-6.08,8.93,-0.05,23.32
9726,0.225,-0.043,0.8589,-6.11,7.95,0.02,23.33
9736,0.1937,-0.045,0.8655,-6.08,7.51,-0.02,23.33
9746,0.2031,-0.0414,0.866,-6.11,7.54,-0.03,23.3
9756,0.2111,-0.0345,0.8774,-6.08,7.21,-0.06,23.32
9766,0.2117,-0.0361,0.8949,-6.05,6.96,-0.06,23.32
9776,0.2086,-0.0331,0.906,-6.14,7.91,-0.12,23.34
9786,0.2129,-0.0355,0.9088,-6.14,8.23,-0.06,23.33
9796,0.2173,-0.0398,0.8854,-6.17,7.53,0.0,23.31
9806,0.198,-0.0403,0.8896,-6.11,8.5,-0.05,23.3
9816,0.2192,-0.0416,0.8694,-6.11,7.91,-0.02,23.32
9826,0.2145,-0.0375,0.8737,-6.03,6.66,0.02,23.31
9836,0.2023,-0.037,0.8937,-6.14,7.65,-0.02,23.3
9846,0.2031,-0.0424,0.8958,-6.05,7.95,0.0,23.31
9856,0.217,-0.0389,0.8933,-6.17,7.54,-0.02,23.33
9866,0.2135,-0.0393,0.8907,-6.06,7.33,-0.06,23.32
9876,0.1952,-0.0378,0.9021,-6.08,8.79,0.0,23.33
9886,0.2164,-0.042,0.8756,-6.12,8.69,-0.12,23.3
9896,0.2209,-0.0435,0.8605,-6.08,6.72,-0.08,23.32
9907,0.2261,-0.0431,0.8652,-6.15,7.1,-0.05,23.33
9917,0.2045,-0.0486,0.887,-6.06,7.05,-0.09,23.32
9927,0.1998,-0.0443,0.8898,-6.08,8.52,-0.11,23.34
9937,0.2228,-0.0415,0.8674,-6.06,7.95,-0.02,23.34
9947,0.2081,-0.0397,0.8817,-5.97,6.4,-0.08,23.33
9957,0.1968,-0.0394,0.8958,-6.02,8.53,-0.03,23.31
9967,0.219,-0.038,0.8776,-6.15,7.48,-0.05,23.33
9977,0.1969,-0.0333,0.8762,-5.97,9.01,-0.12,23.32
9987,0.2446,-0.0282,0.8313,-5.91,5.53,-0.02,23.34
9997,0.1732,-0.0413,0.9329,-6.23,7.57,-0.09,23.31
10007,0.2411,-0.0277,0.8822,-6.12,9.6,-0.11,23.32
10017,0.2236,-0.0547,0.9113,-6.05,5.45,-0.03,23.31
10027,0.2043,-0.0413,0.9196,-6.18,9.76,0.08,23.34
10037,0.2327,-0.0371,0.8705,-6.12,7.79,0.02,23.33
10047,0.2118,-0.0538,0.8834,-5.92,6.58,0.08,23.33
10057,0.1993,-0.0337,0.8833,-5.98,7.83,-0.02,23.31
10067,0.2035,-0.0306,0.8715,-6.05,8.14,-0.06,23.31
10077,0.2085,-0.0428,0.8671,-5.92,6.89,-0.08,23.31
10087,0.196,-0.0348,0.8817,-6.0,7.74,-0.14,23.34
10097,0.2054,-0.041,0.8829,-6.18,8.06,-0.05,23.33
10107,0.2108,-0.0411,0.8821,-6.06,7.73,-0.05,23.34
10117,0.2051,-0.0299,0.8831,-6.09,7.77,-0.08,23.3
10127,0.2135,-0.0394,0.8835,-6.05,7.88,-0.08,23.33
10137,0.2166,-0.0319,0.8904,-6.11,7.48,0.02,23.33
10147,0.2058,-0.0284,0.9016,-6.03,7.89,-0.03,23.3
10157,0.2191,-0.038,0.8962,-6.09,8.09,-0.08,23.34
10167,0.2137,-0.0334,0.9,-6.09,7.57,-0.08,23.32
10177,0.2092,-0.0402,0.9047,-6.17,8.41,-0.02,23.34
10187,0.219,-0.0448,0.8788,-6.18,7.5,-0.08,23.34
10197,0.2007,-0.0468,0.8882,-6.11,7.74,-0.03,23.32
10207,0.2024,-0.0397,0.8859,-6.08,8.41,0.06,23.34
10217,0.2218,-0.0416,0.873,-6.08,7.68,-0.03,23.34
10227,0.2119,-0.0409,0.8787,-6.05,6.96,0.02,23.31
10237,0.2032,-0.0443,0.8914,-6.03,8.14,0.02,23.33
10247,0.2098,-0.043,0.8796,-6.05,8.43,-0.03,23.3
10257,0.2167,-0.0406,0.8687,-6.02,7.19,-0.06,23.34
10267,0.2063,-0.0398,0.8884,-6.12,7.36,-0.02,23.35
10277,0.2063,-0.0415,0.894,-6.03,8.5,0.02,23.34
10287,0.2206,-0.0342,0.8805,-6.09,7.42,-0.02,23.35
10297,0.2123,-0.0356,0.8942,-6.02,6.85,-0.03,23.34
10307,0.2028,-0.0367,0.9026,-6.23,8.31,-0.11,23.33
10318,0.213,-0.0386,0.8958,-6.06,8.15,-0.08,23.34
10328,0.2039,-0.0394,0.8932,-6.06,7.85,-0.02,23.31
10338,0.2079,-0.0386,0.8922,-6.11,8.27,0.03,23.33
10348,0.2103,-0.0394,0.8872,-6.08,7.28,-0.15,23.35
10358,0.2052,-0.0428,0.8903,-6.03,8.03,-0.03,23.35
10368,0.2109,-0.0416,0.8837,-6.12,7.83,0.06,23.35
10378,0.2173,-0.045,0.8821,-6.06,7.83,-0.09,23.34
10388,0.2115,-0.0439,0.889,-6.15,7.11,0.05,23.33
10399,0.2014,-0.0393,0.901,-6.15,7.79,-0.03,23.33
10409,0.2111,-0.0367,0.8949,-6.17,8.46,-0.03,23.36
10419,0.2236,-0.0343,0.8873,-6.12,7.77,0.0,23.34
10429,0.2186,-0.0393,0.8864,-6.18,7.16,-0.11,23.35
10439,0.2006,-0.0377,0.8917,-6.17,7.73,-0.11,23.33
10449,0.21,-0.0439,0.8893,-6.15,8.85,-0.05,23.35
10459,0.225,-0.0389,0.8749,-6.06,7.25,-0.03,23.33
10469,0.2058,-0.0388,0.89,-6.15,7.36,0.0,23.37
10479,0.2018,-0.0387,0.885,-6.06,8.43,-0.02,23.35
10489,0.2178,-0.0385,0.8807,-6.15,7.71,0.08,23.36
10499,0.2155,-0.0383,0.88,-6.12,7.22,-0.11,23.35
10509,0.2023,-0.042,0.8958,-6.08,7.94,-0.02,23.36
10519,0.2062,-0.0385,0.884,-6.09,8.87,-0.02,23.33
10529,0.2239,-0.04,0.8727,-6.09,7.31,-0.06,23.35
10539,0.2058,-0.0381,0.8882,-6.09,7.18,0.0,23.34
10549,0.2068,-0.0381,0.8945,-6.11,8.7,0.06,23.32
10559,0.2202,-0.0366,0.8861,-6.05,7.65,-0.06,23.34
10569,0.218,-0.0322,0.8911,-6.06,7.3,-0.14,23.32
10579,0.2104,-0.0378,0.8937,-6.06,7.51,-0.05,23.34
10589,0.2023,-0.0426,0.8953,-6.11,8.32,-0.05,23.34
10599,0.2074,-0.0438,0.8862,-6.12,8.02,-0.02,23.34
10609,0.2092,-0.041,0.8846,-6.17,7.28,-0.05,23.36
10620,0.1947,-0.0422,0.882,-6.09,7.68,0.0,23.35
10630,0.2001,-0.0444,0.8756,-6.06,8.03,-0.02,23.34
10640,0.1993,-0.0405,0.8867,-6.27,7.62,0.0,23.34
10650,0.2045,-0.0366,0.8867,-6.11,8.38,0.0,23.36
10660,0.2184,-0.0341,0.8779,-6.11,7.21,-0.11,23.34
10670,0.2069,-0.0383,0.8923,-6.12,7.62,-0.09,23.34
10680,0.2101,-0.0378,0.8939,-6.03,8.6,-0.08,23.34
10690,0.2252,-0.0415,0.8842,-6.18,7.68,-0.03,23.33
10700,0.214,-0.0387,0.8914,-6.14,7.16,-0.05,23.36
10710,0.2034,-0.0391,0.8982,-6.0,8.56,-0.03,23.33
10720,0.2217,-0.045,0.8683,-6.02,7.4,-0.11,23.35
10730,0.2025,-0.0453,0.8878,-6.03,7.13,0.0,23.34
10740,0.1934,-0.0403,0.8827,-6.0,8.03,0.05,23.34
10750,0.2003,-0.0413,0.8784,-5.98,7.8,-0.02,23.32
10760,0.2064,-0.0332,0.8805,-6.08,7.25,-0.08,23.33
10770,0.2046,-0.0314,0.8917,-6.11,7.48,-0.06,23.32
10780,0.2079,-0.0336,0.8983,-6.14,8.03,-0.11,23.33
10790,0.2174,-0.0349,0.8994,-6.09,8.05,-0.11,23.34
10800,0.2177,-0.036,0.8999,-6.12,7.77,-0.09,23.33
10810,0.2152,-0.042,0.8921,-6.17,8.08,-0.08,23.34
10820,0.2069,-0.0442,0.8961,-6.03,8.34,-0.03,23.34
10830,0.2209,-0.0424,0.8804,-6.11,8.21,-0.06,23.33
10840,0.2112,-0.0454,0.8815,-6.0,7.37,-0.08,23.36
10850,0.205,-0.0439,0.8881,-6.14,8.17,0.02,23.32
10860,0.2107,-0.0421,0.8844,-6.12,8.0,0.02,23.33
10870,0.2094,-0.0438,0.8813,-6.03,7.86,0.03,23.33
10880,0.2059,-0.045,0.8843,-6.18,7.68,-0.03,23.33
10890,0.2018,-0.0432,0.8882,-6.11,7.88,0.03,23.35
10900,0.2109,-0.0426,0.8816,-6.11,8.0,-0.05,23.34
10910,0.2106,-0.0421,0.8822,-6.12,7.33,-0.05,23.33
10920,0.208,-0.0377,0.8868,-6.12,7.56,-0.03,23.34
10930,0.2069,-0.0359,0.8925,-6.09,8.18,-0.21,23.31
10940,0.2196,-0.0367,0.8835,-5.98,8.08,-0.11,23.34
10950,0.2285,-0.0336,0.8749,-6.09,7.47,0.0,23.34
10960,0.2015,-0.038,0.9028,-6.12,7.89,-0.11,23.34
10970,0.2106,-0.0376,0.8925,-6.11,9.01,0.0,23.34
10980,0.2271,-0.0432,0.8676,-6.18,7.07,-0.11,23.34
10990,0.1953,-0.0413,0.8933,-6.08,7.45,0.05,23.33
11000,0.2037,-0.0367,0.8873,-6.11,8.92,-0.02,23.35
11010,0.2146,-0.0354,0.8672,-6.09,8.27,0.05,23.35
11020,0.2122,-0.0396,0.8766,-6.06,6.82,-0.02,23.35
11030,0.201,-0.04,0.8939,-6.14,7.82,-0.06,23.34
11040,0.2141,-0.0405,0.8907,-6.23,7.77,-0.12,23.35
11050,0.2135,-0.0428,0.8949,-6.11,7.37,-0.06,23.35
11060,0.2091,-0.0436,0.9067,-6.15,7.92,-0.12,23.35
11070,0.2185,-0.0438,0.9014,-6.09,8.03,-0.15,23.35
11080,0.2159,-0.0461,0.8942,-6.15,7.91,-0.03,23.35
11090,0.2107,-0.0433,0.895,-6.02,8.12,0.03,23.33
11100,0.214,-0.0367,0.8818,-6.11,8.06,-0.05,23.31
11110,0.2081,-0.0404,0.8785,-6.06,7.97,-0.02,23.33
11120,0.2086,-0.041,0.8765,-6.15,7.83,0.02,23.35
11130,0.207,-0.0417,0.8762,-6.15,7.74,-0.09,23.33
11140,0.2035,-0.0408,0.8734,-6.11,8.35,-0.06,23.33
11150,0.224,-0.043,0.8564,-6.05,7.07,-0.03,23.33
11160,0.2069,-0.0389,0.8909,-5.91,6.55,0.03,23.35
11170,0.2068,-0.0366,0.9121,-6.08,8.76,0.0,23.34
11180,0.2249,-0.0342,0.8805,-6.06,8.05,0.02,23.35
11190,0.2057,-0.0377,0.8938,-6.21,5.37,0.0,23.33
11200,0.2177,-0.0354,0.8964,-6.24,10.38,-0.08,23.34
11210,0.2323,-0.0448,0.8732,-6.11,6.6,-0.05,23.34
11220,0.196,-0.0436,0.8868,-6.0,8.46,-0.11,23.34
11230,0.2062,-0.036,0.8718,-6.03,9.18,-0.09,23.34
11240,0.224,-0.0388,0.8525,-5.97,6.29,0.0,23.33
11250,0.2106,-0.0439,0.8605,-6.18,6.2,-0.03,23.35
11260,0.1946,-0.0417,0.8906,-6.17,7.54,-0.09,23.34
11270,0.214,-0.0421,0.8948,-6.11,8.14,0.12,23.37
11280,0.228,-0.0363,0.8892,-5.98,6.67,-0.03,23.34
11290,0.2092,-0.0393,0.9082,-6.06,7.22,-0.03,23.36
11300,0.2081,-0.0396,0.9073,-6.09,9.18,-0.12,23.33
11310,0.2217,-0.0397,0.8805,-6.14,8.23,-0.08,23.36
11320,0.2118,-0.0408,0.8732,-6.06,7.51,-0.05,23.36
11330,0.2057,-0.0461,0.8713,-5.98,7.3,-0.06,23.37
11340,0.1912,-0.0394,0.8851,-6.14,8.26,-0.06,23.35
11350,0.2183,-0.0353,0.8696,-6.14,7.73,-0.06,23.32
11360,0.2141,-0.0377,0.8848,-6.12,6.35,0.0,23.33
11370,0.2028,-0.0359,0.9143,-6.0,8.05,-0.02,23.37
11380,0.2194,-0.0399,0.9,-6.02,8.55,-0.11,23.33
11390,0.2148,-0.0363,0.8879,-6.03,7.45,-0.02,23.36
11400,0.203,-0.0415,0.8834,-6.11,8.17,-0.06,23.37
11410,0.2115,-0.0475,0.8715,-6.23,7.83,-0.03,23.35
11420,0.208,-0.0419,0.8698,-6.11,7.27,-0.08,23.37
11430,0.2054,-0.0383,0.8833,-6.02,7.98,-0.08,23.36
11440,0.2189,-0.0342,0.886,-6.18,7.3,-0.03,23.37
11452,0.2214,-0.0361,0.8855,-6.06,7.31,0.06,23.35
11462,0.2017,-0.0376,0.906,-6.11,7.73,0.05,23.35
11472,0.2117,-0.0405,0.8959,-6.11,8.66,0.03,23.35
11482,0.2247,-0.042,0.8806,-6.0,7.4,0.03,23.35
11492,0.2013,-0.0405,0.8905,-6.02,7.97,-0.05,23.34
11502,0.2036,-0.0402,0.8805,-6.11,8.2,-0.08,23.36
11512,0.212,-0.0391,0.8846,-6.03,7.21,-0.06,23.37
11522,0.2054,-0.0381,0.9005,-6.11,8.02,-0.05,23.34
11532,0.2148,-0.0409,0.8949,-6.15,8.15,-0.06,23.36
11542,0.214,-0.0385,0.8877,-6.08,7.97,-0.08,23.39
11552,0.2091,-0.043,0.8793,-6.05,7.82,-0.03,23.36
11562,0.2029,-0.0397,0.8801,-6.15,7.59,-0.05,23.34
11572,0.2168,-0.0416,0.8726,-6.08,7.77,0.0,23.34
11582,0.2107,-0.0404,0.8933,-6.11,6.67,-0.08,23.36
11592,0.199,-0.0378,0.9114,-6.17,9.36,-0.05,23.36
11602,0.2395,-0.04,0.8751,-6.14,7.31,-0.09,23.34
11612,0.2045,-0.0406,0.8948,-6.14,7.05,-0.05,23.33
11622,0.1974,-0.0406,0.9033,-6.21,8.46,0.03,23.35
11632,0.2274,-0.042,0.8673,-6.05,7.34,0.0,23.35
11642,0.2092,-0.0416,0.884,-6.05,6.4,-0.03,23.38
11652,0.1924,-0.0369,0.9066,-6.12,8.34,-0.05,23.37
11662,0.2178,-0.0382,0.8905,-6.11,8.61,-0.03,23.35
11672,0.2277,-0.0424,0.8788,-6.06,6.47,-0.03,23.34
11682,0.2047,-0.0459,0.8901,-6.15,7.05,-0.09,23.35
11692,0.2059,-0.0424,0.8712,-6.15,8.69,-0.05,23.35
11702,0.2159,-0.0389,0.8695,-6.12,6.87,0.0,23.36
11712,0.2084,-0.0406,0.8959,-6.08,6.93,-0.08,23.37
11722,0.2067,-0.0388,0.9136,-6.15,8.46,-0.05,23.38
11732,0.2207,-0.037,0.8923,-6.2,8.47,-0.08,23.36
11742,0.2262,-0.038,0.8865,-6.02,8.08,-0.11,23.37
11752,0.1981,-0.0387,0.8929,-6.06,7.59,-0.08,23.34
11762,0.2024,-0.0381,0.8879,-6.11,9.31,-0.03,23.36
11772,0.2238,-0.0438,0.8671,-6.06,6.99,-0.03,23.36
11782,0.2019,-0.0413,0.8916,-5.98,6.9,-0.02,23.37
11792,0.1993,-0.0405,0.9044,-6.06,8.82,-0.03,23.36
11802,0.2228,-0.0389,0.8767,-6.08,7.82,-0.03,23.36
11812,0.2141,-0.0366,0.8822,-6.06,6.92,-0.06,23.36
11822,0.2031,-0.0419,0.891,-6.05,8.12,-0.05,23.37
11832,0.2113,-0.0397,0.8846,-6.06,8.06,-0.03,23.37
11843,0.2062,-0.0419,0.8856,-6.03,8.05,-0.03,23.36
11853,0.2189,-0.0417,0.881,-6.06,7.48,-0.08,23.34
11863,0.2094,-0.0428,0.8928,-6.08,7.4,-0.02,23.37
11873,0.2144,-0.0416,0.9014,-6.11,8.08,-0.03,23.38
11883,0.2107,-0.0381,0.9012,-5.98,7.94,0.0,23.36
11893,0.2047,-0.0386,0.9031,-6.18,8.2,-0.11,23.37
11903,0.2109,-0.04,0.8853,-6.11,8.66,-0.08,23.37
11913,0.2141,-0.0408,0.8671,-6.02,6.84,0.02,23.36
11923,0.1971,-0.0389,0.8807,-6.08,7.59,-0.11,23.37
11933,0.2014,-0.0417,0.8795,-6.14,7.97,-0.09,23.38
11943,0.213,-0.0397,0.8876,-6.06,7.65,0.02,23.38
11953,0.22,-0.0402,0.8921,-6.08,7.18,-0.11,23.38
11963,0.2053,-0.0392,0.9098,-6.06,8.14,-0.11,23.37
11973,0.2104,-0.0436,0.8966,-6.23,8.76,-0.08,23.35
11983,0.2219,-0.0447,0.8777,-6.03,7.73,-0.08,23.38
11993,0.2153,-0.0468,0.8713,-6.05,7.16,-0.09,23.37
12003,0.1912,-0.0406,0.8788,-6.11,8.09,0.08,23.39
12013,0.2134,-0.0378,0.8687,-6.06,7.86,-0.06,23.37
12023,0.2145,-0.0358,0.8772,-6.0,6.38,-0.02,23.39
12033,0.203,-0.04,0.9056,-6.12,7.45,-0.03,23.39
12043,0.209,-0.0376,0.9102,-6.11,8.27,0.02,23.37
12053,0.2111,-0.0369,0.9047,-6.09,8.27,-0.02,23.4
12063,0.2207,-0.0371,0.8844,-6.08,8.06,0.02,23.39
12073,0.2092,-0.0431,0.8726,-6.0,7.63,-0.06,23.38
12083,0.2076,-0.0386,0.865,-6.08,7.92,-0.03,23.36
12093,0.2081,-0.0367,0.8768,-6.0,7.21,-0.06,23.38
12103,0.2091,-0.0372,0.8904,-6.12,7.92,-0.09,23.39
12113,0.2241,-0.0385,0.8925,-6.17,6.81,-0.14,23.38
12123,0.2012,-0.0375,0.9198,-6.21,7.89,-0.11,23.34
12133,0.2145,-0.0417,0.9062,-6.14,9.08,-0.02,23.37
12143,0.2146,-0.0408,0.8809,-6.15,7.98,-0.05,23.39
12153,0.2095,-0.0415,0.8691,-6.08,8.02,0.03,23.39
12163,0.2053,-0.0421,0.8621,-6.15,7.05,-0.14,23.39
12173,0.1952,-0.0367,0.8799,-6.03,7.95,-0.05,23.39
12183,0.2129,-0.0355,0.8789,-6.03,7.42,-0.05,23.38
12193,0.2123,-0.0374,0.8955,-6.12,7.22,-0.05,23.37
12203,0.2102,-0.0398,0.9149,-6.11,7.69,-0.06,23.39
12213,0.2101,-0.0409,0.9092,-6.06,8.89,-0.06,23.37
12223,0.2252,-0.0371,0.8776,-6.12,8.0,-0.05,23.39
12233,0.2131,-0.0447,0.8809,-6.15,7.24,-0.05,23.39
12243,0.2024,-0.0425,0.8898,-6.21,8.46,-0.05,23.37
12253,0.2141,-0.0389,0.882,-6.08,9.04,-0.05,23.4
12263,0.2367,-0.0444,0.8583,-5.94,6.27,-0.11,23.37
12273,0.1968,-0.0403,0.8982,-6.18,7.15,-0.03,23.39
12283,0.2096,-0.0402,0.9005,-6.11,8.85,-0.02,23.39
12293,0.2257,-0.0365,0.8851,-6.08,6.89,-0.09,23.37
12303,0.2035,-0.0372,0.894,-6.14,7.34,-0.08,23.38
12313,0.1927,-0.0388,0.895,-6.12,8.76,-0.09,23.41
12323,0.2085,-0.0359,0.8807,-6.09,8.4,-0.03,23.4
12333,0.2213,-0.0377,0.8652,-6.05,6.84,-0.05,23.39
12343,0.197,-0.0397,0.8896,-6.11,7.62,-0.08,23.4
12353,0.2067,-0.0427,0.8873,-6.06,8.79,-0.03,23.37
12363,0.22,-0.0396,0.885,-6.12,7.15,-0.05,23.37
12373,0.21,-0.0398,0.894,-6.05,7.76,-0.15,23.39
12383,0.2163,-0.042,0.8898,-6.02,7.79,-0.06,23.39
12393,0.2122,-0.0396,0.8884,-6.08,8.05,-0.09,23.38
12403,0.2244,-0.0375,0.8811,-6.06,7.82,-0.03,23.39
12413,0.2214,-0.0387,0.882,-6.11,6.75,-0.02,23.36
12423,0.203,-0.0405,0.8934,-6.11,7.89,0.03,23.37
12433,0.2128,-0.0421,0.8859,-6.24,7.91,0.03,23.37
12443,0.2159,-0.0438,0.8884,-6.17,7.42,0.06,23.39
12453,0.2122,-0.0447,0.8911,-6.14,7.34,-0.06,23.38
12463,0.1991,-0.0421,0.9052,-6.26,8.43,-0.03,23.37
12473,0.2142,-0.0435,0.8904,-6.2,8.53,0.02,23.36
12483,0.2177,-0.0457,0.882,-6.11,7.65,-0.05,23.38
12493,0.2118,-0.0433,0.8812,-6.14,7.48,-0.02,23.41
12503,0.1962,-0.0389,0.89,-6.17,8.44,-0.05,23.38
12513,0.2141,-0.0394,0.8773,-6.03,8.69,-0.06,23.39
12523,0.2261,-0.0396,0.8715,-6.08,7.65,-0.03,23.38
12533,0.2134,-0.0413,0.8911,-6.15,6.6,0.0,23.37
12543,0.2056,-0.0389,0.8939,-6.08,8.98,-0.12,23.41
12553,0.2194,-0.0391,0.8839,-6.11,8.14,-0.11,23.39
12563,0.2104,-0.0375,0.8873,-6.0,6.92,-0.12,23.38
12573,0.2013,-0.0386,0.8947,-6.0,8.5,-0.03,23.39
12583,0.2113,-0.0427,0.8766,-6.11,8.02,-0.03,23.41
12593,0.2092,-0.0428,0.8752,-6.09,7.5,-0.09,23.39
12603,0.2021,-0.0406,0.8835,-6.05,7.69,-0.05,23.39
12613,0.2144,-0.0435,0.8806,-6.06,8.08,-0.05,23.42
12623,0.2189,-0.0411,0.8738,-6.11,6.9,-0.03,23.41
12633,0.1959,-0.0417,0.892,-6.05,7.57,0.03,23.41
12643,0.208,-0.0427,0.8844,-6.02,8.21,-0.02,23.4
12653,0.2167,-0.0376,0.8887,-6.05,6.96,-0.12,23.38
12663,0.1937,-0.0349,0.9033,-6.09,7.18,-0.09,23.4
12673,0.1891,-0.0353,0.8977,-6.21,10.06,-0.11,23.39
12683,0.2358,-0.0371,0.8667,-5.89,6.58,-0.05,23.39
12693,0.1956,-0.0409,0.9059,-6.08,7.48,-0.03,23.4
12703,0.2142,-0.0421,0.9026,-6.05,9.1,0.0,23.37
12713,0.229,-0.0422,0.891,-6.18,7.66,0.03,23.39
12723,0.2207,-0.0399,0.9023,-6.09,7.34,0.06,23.4
12733,0.207,-0.0381,0.908,-6.05,8.53,-0.02,23.38
12743,0.225,-0.0363,0.8795,-6.06,8.49,-0.03,23.39
12753,0.2197,-0.0366,0.8696,-6.11,7.18,-0.02,23.39
12763,0.2087,-0.0348,0.8757,-6.18,7.76,-0.03,23.41
12773,0.201,-0.0377,0.875,-6.0,7.62,-0.03,23.39
12783,0.2089,-0.0393,0.876,-6.08,8.09,-0.02,23.4
12793,0.2179,-0.0385,0.8772,-6.15,7.04,-0.15,23.38
12803,0.2008,-0.0398,0.894,-6.21,7.65,-0.06,23.39
12813,0.2069,-0.0342,0.8925,-6.2,8.41,-0.03,23.39
12823,0.2144,-0.0334,0.8879,-6.21,7.71,-0.09,23.41
12833,0.2079,-0.0342,0.8912,-6.14,7.71,-0.09,23.4
12843,0.2046,-0.0348,0.8907,-6.06,8.14,-0.12,23.38
12853,0.2106,-0.0381,0.8916,-6.11,7.88,-0.05,23.41
12863,0.2155,-0.0391,0.8947,-6.17,7.79,-0.17,23.42
12873,0.2109,-0.0426,0.8905,-6.08,7.85,-0.17,23.41
12883,0.2135,-0.0493,0.8901,-6.17,8.17,-0.08,23.39
12893,0.2203,-0.046,0.8799,-6.15,7.57,-0.03,23.42
12903,0.2081,-0.0459,0.8827,-6.05,7.74,-0.05,23.42
12913,0.2085,-0.0441,0.8789,-6.0,8.31,-0.05,23.41
12923,0.2094,-0.0406,0.8715,-6.05,7.68,0.02,23.42
12933,0.2117,-0.0386,0.8711,-6.06,7.11,-0.02,23.42
12943,0.201,-0.0403,0.8834,-6.11,7.31,-0.06,23.4
12953,0.2081,-0.0361,0.8925,-6.15,7.98,0.03,23.41
12963,0.2252,-0.0372,0.8917,-6.03,6.85,-0.08,23.38
12973,0.204,-0.04,0.9225,-6.14,7.65,-0.06,23.39
12983,0.2148,-0.0425,0.9023,-6.08,8.93,-0.02,23.39
12993,0.2277,-0.0435,0.8813,-6.15,7.56,0.03,23.37
13003,0.2136,-0.0431,0.8905,-6.15,7.47,-0.02,23.41
13013,0.2043,-0.0338,0.8901,-6.11,7.07,0.06,23.41
13023,0.1832,-0.0292,0.8971,-5.98,11.31,0.05,23.42
13033,0.2455,-0.043,0.8406,-5.98,5.3,0.06,23.4
13043,0.1963,-0.041,0.8901,-5.98,5.85,0.05,23.39
13053,0.1869,-0.0333,0.9147,-6.11,10.11,-0.05,23.4
13063,0.2257,-0.0334,0.8704,-6.15,7.11,-0.06,23.4
13073,0.2108,-0.0436,0.9003,-6.08,7.05,-0.08,23.4
13083,0.202,-0.0387,0.9136,-6.15,8.24,-0.08,23.42
13093,0.2205,-0.041,0.8904,-6.11,8.98,-0.03,23.39
13103,0.224,-0.0455,0.8722,-6.11,7.08,-0.09,23.37
13113,0.1973,-0.0424,0.8866,-6.05,8.35,-0.09,23.41
13123,0.2158,-0.0383,0.8566,-6.05,8.02,-0.03,23.42
13133,0.2103,-0.0402,0.869,-6.05,6.4,0.02,23.4
13143,0.2067,-0.0383,0.8813,-6.05,6.61,0.03,23.39
13153,0.2078,-0.0363,0.907,-6.08,8.15,-0.09,23.42
13163,0.2158,-0.0409,0.9017,-6.02,8.09,-0.08,23.4
13173,0.2224,-0.0377,0.8912,-6.2,7.69,-0.02,23.42
13183,0.2028,-0.0417,0.8997,-6.14,8.08,-0.09,23.4
13193,0.2085,-0.0468,0.8876,-6.12,8.53,-0.05,23.41
13203,0.2122,-0.046,0.8885,-6.06,8.35,0.02,23.39
13213,0.2124,-0.0426,0.8705,-6.02,7.59,-0.02,23.4
13223,0.2086,-0.0442,0.8723,-6.11,7.8,-0.02,23.41
13233,0.2122,-0.0424,0.8683,-6.02,7.79,0.03,23.41
13243,0.2117,-0.0396,0.8695,-6.12,6.6,-0.06,23.39
13253,0.1936,-0.0359,0.8921,-6.12,7.63,-0.05,23.42
13263,0.2089,-0.038,0.8965,-6.06,8.21,-0.06,23.42
13273,0.2225,-0.0377,0.8973,-6.11,7.24,0.02,23.39
13283,0.2113,-0.0398,0.9019,-6.05,7.57,-0.09,23.39
13293,0.2053,-0.0428,0.9047,-6.15,8.41,0.0,23.4
13303,0.2153,-0.0447,0.8788,-6.15,8.63,0.0,23.4
13313,0.2169,-0.0415,0.8693,-6.14,7.05,0.03,23.38
13323,0.1995,-0.043,0.8785,-6.08,8.23,-0.03,23.39
13333,0.2206,-0.0458,0.858,-6.15,7.36,-0.11,23.41
13343,0.2119,-0.0366,0.8864,-6.02,6.44,-0.11,23.41
13353,0.2017,-0.033,0.9117,-6.08,8.35,-0.06,23.42
13363,0.2197,-0.0336,0.9055,-6.11,8.35,-0.05,23.42
13373,0.2275,-0.0334,0.8954,-6.06,7.15,-0.03,23.41
13383,0.2037,-0.0404,0.8993,-6.11,7.5,-0.02,23.41
13393,0.197,-0.0428,0.8823,-6.06,9.36,-0.11,23.4
13403,0.2252,-0.0422,0.8556,-6.12,7.19,0.02,23.39
13413,0.2045,-0.0422,0.8816,-6.03,6.32,-0.05,23.38
13423,0.1953,-0.0422,0.9055,-6.15,8.81,-0.09,23.42
13433,0.2185,-0.0431,0.8816,-6.14,8.24,-0.11,23.43
13443,0.2227,-0.0405,0.8857,-6.12,6.95,-0.05,23.4
13453,0.193,-0.0413,0.8971,-6.12,8.02,-0.05,23.42
13463,0.2047,-0.0399,0.8782,-6.14,9.34,-0.06,23.42
13473,0.2268,-0.0396,0.8583,-6.11,6.44,-0.05,23.4
13483,0.1896,-0.0432,0.9039,-6.14,7.5,-0.02,23.43
13493,0.2043,-0.0396,0.9023,-6.12,9.48,0.05,23.41
13503,0.2343,-0.0388,0.8719,-6.08,7.01,0.02,23.44
13513,0.2051,-0.0369,0.899,-6.06,6.96,-0.02,23.41
13523,0.1974,-0.0356,0.9058,-6.18,9.5,0.03,23.42
13533,0.2305,-0.0348,0.8682,-6.2,7.3,-0.03,23.41
13543,0.213,-0.0367,0.8871,-6.14,6.46,0.02,23.42
13553,0.1962,-0.0339,0.9032,-6.18,8.38,0.0,23.43
13563,0.219,-0.037,0.8881,-6.18,8.76,0.0,23.42
13573,0.2327,-0.04,0.876,-6.02,7.94,-0.03,23.39
13583,0.1932,-0.0464,0.8993,-6.08,7.66,-0.02,23.4
13593,0.2028,-0.0381,0.8843,-6.11,9.66,-0.11,23.44
13603,0.2301,-0.0408,0.8528,-6.21,6.26,0.08,23.42
13613,0.1917,-0.0422,0.9006,-5.97,7.68,0.02,23.4
13623,0.2058,-0.0378,0.8926,-6.18,8.98,0.05,23.39
13633,0.2312,-0.0405,0.8771,-6.03,6.93,-0.05,23.4
13643,0.1998,-0.0382,0.9028,-6.15,7.44,-0.09,23.42
13653,0.2089,-0.0382,0.8882,-6.18,9.4,-0.03,23.41
13663,0.2288,-0.0435,0.8652,-6.06,6.37,-0.08,23.43
13673,0.1864,-0.0408,0.9034,-6.14,8.17,-0.06,23.42
13683,0.2252,-0.0416,0.8765,-6.12,8.63,-0.05,23.44
13693,0.2207,-0.0392,0.8811,-6.05,5.82,0.02,23.41
13703,0.1869,-0.036,0.9122,-6.14,9.57,-0.09,23.42
13713,0.2396,-0.0369,0.8605,-6.12,7.18,-0.03,23.43
13723,0.202,-0.0424,0.9004,-6.14,6.47,-0.03,23.41
13733,0.199,-0.0398,0.8988,-6.11,10.21,-0.06,23.43
13743,0.2455,-0.0396,0.8596,-6.09,6.15,-0.03,23.4
13753,0.1868,-0.0415,0.9114,-6.18,7.51,-0.05,23.42
13763,0.2141,-0.0413,0.8838,-6.08,9.74,-0.02,23.41
13773,0.2289,-0.0422,0.8644,-6.06,6.27,0.08,23.42
13783,0.2023,-0.0458,0.8906,-6.09,6.92,-0.08,23.43
13793,0.1937,-0.0387,0.907,-6.02,9.22,-0.03,23.4
13803,0.2261,-0.0349,0.8713,-5.98,7.79,-0.06,23.43
13813,0.2125,-0.041,0.8865,-6.05,6.15,-0.03,23.43
13823,0.1882,-0.0438,0.9032,-6.06,9.54,0.05,23.43
13833,0.2112,-0.0404,0.8844,-6.02,9.27,-0.06,23.4
13843,0.2069,-0.0424,0.8833,-6.03,6.18,-0.08,23.4
13853,0.1937,-0.0398,0.9053,-6.18,7.71,0.03,23.39
13863,0.2107,-0.0406,0.8898,-6.14,9.21,-0.06,23.41
13873,0.2303,-0.0422,0.8719,-5.97,6.66,-0.06,23.41
13883,0.1976,-0.0392,0.9,-6.02,7.47,0.0,23.42
13893,0.2054,-0.0409,0.8914,-6.0,9.54,-0.08,23.43
13903,0.229,-0.0381,0.865,-6.11,6.41,-0.09,23.39
13913,0.1964,-0.0417,0.899,-6.08,7.56,-0.02,23.43
13923,0.2051,-0.0399,0.897,-6.03,9.33,-0.06,23.41
13933,0.2301,-0.0428,0.8765,-6.14,6.66,-0.08,23.42
13943,0.1913,-0.0392,0.9058,-6.15,7.73,-0.12,23.42
13953,0.2089,-0.041,0.8909,-6.12,9.36,0.03,23.43
13963,0.2229,-0.0409,0.8717,-6.03,6.4,-0.02,23.43
13973,0.187,-0.0413,0.9132,-6.03,8.34,0.0,23.43
13983,0.2173,-0.0363,0.8838,-6.05,9.18,-0.11,23.42
13993,0.2289,-0.042,0.876,-6.05,6.02,-0.03,23.42
14003,0.1852,-0.0405,0.9137,-6.08,8.75,-0.11,23.42
14013,0.2214,-0.0383,0.8719,-6.06,8.85,-0.06,23.42
14023,0.2225,-0.0413,0.8622,-5.98,5.48,-0.05,23.44
14033,0.1871,-0.0438,0.9098,-6.11,8.66,-0.15,23.44
14043,0.2212,-0.0416,0.8793,-6.17,8.85,-0.02,23.44
14053,0.2285,-0.0397,0.8762,-6.11,6.11,-0.08,23.41
14063,0.1913,-0.0449,0.9067,-6.15,8.02,0.0,23.43
14073,0.2157,-0.0374,0.8815,-6.11,9.42,-0.11,23.42
14083,0.2253,-0.037,0.8754,-6.03,5.8,-0.09,23.42
14093,0.1877,-0.0392,0.9116,-6.03,8.2,-0.03,23.45
14103,0.2181,-0.037,0.8911,-6.12,9.24,-0.03,23.44
14113,0.2289,-0.0413,0.8792,-6.02,6.03,-0.08,23.44
14123,0.186,-0.0408,0.911,-6.21,8.37,-0.08,23.42
14133,0.2198,-0.0372,0.8745,-6.05,9.5,-0.05,23.4
14143,0.2281,-0.0392,0.868,-6.03,5.39,-0.03,23.44
14153,0.181,-0.037,0.9131,-6.08,8.9,-0.09,23.44
14163,0.2285,-0.0372,0.8762,-6.03,8.79,0.0,23.44
14173,0.2211,-0.0386,0.8782,-6.06,5.65,-0.02,23.42
14183,0.1876,-0.0372,0.9105,-6.06,9.53,-0.02,23.42
14193,0.2255,-0.0341,0.8668,-6.17,8.34,0.03,23.44
14203,0.2162,-0.0394,0.8774,-6.11,6.03,0.02,23.42
14213,0.1891,-0.0402,0.9032,-6.15,8.27,-0.02,23.44
14223,0.2159,-0.0363,0.8876,-6.18,9.34,-0.02,23.43
14233,0.2341,-0.0392,0.871,-6.08,5.44,0.02,23.43
14243,0.1825,-0.0421,0.916,-6.15,8.96,-0.06,23.43
14253,0.2252,-0.0388,0.8733,-6.09,8.75,-0.06,23.42
14263,0.2211,-0.0426,0.8757,-6.12,5.56,-0.06,23.45
14273,0.1857,-0.0389,0.9152,-6.17,9.27,-0.05,23.4
14284,0.1832,-0.04,0.9141,-6.15,9.5,-0.02,23.44
14294,0.2351,-0.0396,0.8671,-6.05,5.95,-0.02,23.41
14304,0.2081,-0.0403,0.8876,-6.11,6.26,0.02,23.44
14314,0.2058,-0.0355,0.8815,-6.14,9.13,-0.06,23.44
14324,0.2285,-0.0378,0.8678,-6.11,7.24,0.0,23.44
14334,0.205,-0.0394,0.8914,-6.12,6.38,-0.06,23.42
14344,0.1921,-0.0376,0.9047,-6.14,9.66,-0.05,23.44
14354,0.2367,-0.0408,0.8655,-6.12,7.21,-0.02,23.43
14364,0.1987,-0.042,0.9008,-6.24,6.63,-0.12,23.44
14374,0.2028,-0.0393,0.8964,-6.12,10.0,-0.03,23.46
14384,0.2354,-0.0397,0.8669,-6.15,6.09,-0.03,23.44
14394,0.1975,-0.0383,0.9032,-6.11,7.8,-0.02,23.43
14404,0.2115,-0.0403,0.8911,-6.18,9.3,0.02,23.42
14414,0.2385,-0.0422,0.8674,-6.09,6.52,0.0,23.43
14424,0.2251,-0.0428,0.8773,-6.03,6.14,-0.08,23.44
14434,0.199,-0.0372,0.8975,-6.2,9.76,0.02,23.44
14444,0.2368,-0.0403,0.8597,-6.05,6.58,0.0,23.43
14454,0.188,-0.0441,0.8998,-6.12,7.31,-0.08,23.44
14464,0.1857,-0.0393,0.9052,-6.09,9.54,-0.05,23.42
14474,0.2305,-0.0433,0.8651,-6.12,6.14,-0.05,23.44
14485,0.2068,-0.0369,0.8857,-6.11,6.09,-0.02,23.45
14495,0.1798,-0.0372,0.9065,-6.18,8.12,-0.09,23.45
14505,0.2064,-0.0363,0.8811,-6.06,9.34,-0.09,23.44
14515,0.2283,-0.0367,0.8663,-6.15,6.41,-0.03,23.44
14525,0.1985,-0.0392,0.9003,-6.12,7.4,-0.02,23.47
14535,0.2045,-0.0409,0.9043,-6.09,9.27,-0.06,23.45
14545,0.2422,-0.0376,0.8689,-5.98,6.81,-0.12,23.43
14555,0.2047,-0.0443,0.8981,-6.17,6.84,-0.03,23.43
14565,0.2025,-0.0437,0.895,-6.14,9.39,-0.02,23.43
14575,0.2317,-0.0393,0.8618,-6.14,7.3,-0.05,23.44
14585,0.2079,-0.0426,0.8862,-6.11,6.32,-0.05,23.44
14596,0.1915,-0.0425,0.908,-6.11,8.2,-0.06,23.44
14606,0.2191,-0.0398,0.8832,-6.18,9.02,-0.05,23.43
14616,0.234,-0.0366,0.8721,-6.15,7.48,-0.02,23.45
14626,0.1865,-0.0409,0.9039,-6.11,8.21,-0.03,23.47
14636,0.2075,-0.0393,0.8821,-6.17,9.45,-0.08,23.42
14646,0.2294,-0.0405,0.8635,-6.08,6.14,0.02,23.44
14656,0.1897,-0.045,0.9076,-6.18,7.57,-0.06,23.42
14666,0.2094,-0.0394,0.8928,-6.2,9.71,-0.06,23.43
14676,0.231,-0.04,0.8678,-6.15,6.11,-0.08,23.44
14686,0.1901,-0.0424,0.8992,-6.14,7.59,-0.05,23.42
14696,0.2037,-0.0403,0.885,-6.11,9.42,-0.08,23.42
14706,0.236,-0.0404,0.8624,-6.06,6.29,-0.09,23.46
14716,0.1985,-0.0413,0.9032,-6.09,7.21,0.02,23.43
14726,0.2046,-0.0397,0.8958,-6.14,9.59,-0.02,23.42
14736,0.2404,-0.0377,0.8671,-6.09,6.29,-0.02,23.42
14746,0.1858,-0.0428,0.9099,-6.17,7.86,-0.2,23.44
14756,0.213,-0.0413,0.8768,-6.17,9.42,-0.11,23.45
14766,0.2235,-0.0447,0.8688,-6.12,6.06,-0.05,23.42
14776,0.1871,-0.0402,0.9102,-6.12,8.09,0.03,23.44
14786,0.2152,-0.0406,0.8873,-6.18,8.85,-0.03,23.45
14796,0.223,-0.0417,0.8806,-6.08,6.79,-0.11,23.43
14806,0.2057,-0.0397,0.8979,-6.06,7.37,-0.03,23.44
14816,0.1938,-0.0383,0.8955,-6.14,9.28,-0.03,23.43
14826,0.225,-0.0375,0.8654,-6.12,7.6,-0.08,23.44
14836,0.2081,-0.0389,0.8912,-6.21,6.43,-0.11,23.44
14846,0.1952,-0.0392,0.907,-6.14,9.36,-0.02,23.44
14856,0.2347,-0.0409,0.8777,-6.09,7.47,-0.08,23.46
14866,0.208,-0.0459,0.8921,-6.05,6.6,-0.06,23.44
14876,0.1946,-0.0438,0.9004,-6.02,9.28,0.05,23.45
14886,0.2216,-0.0393,0.8666,-6.11,7.83,0.05,23.43
14896,0.2115,-0.0415,0.882,-6.15,6.21,-0.09,23.44
14906,0.1826,-0.0415,0.9139,-6.08,9.16,-0.03,23.44
14916,0.202,-0.0397,0.8993,-6.12,9.65,-0.06,23.47
14926,0.2173,-0.0409,0.8896,-5.95,5.98,0.0,23.46
14936,0.1865,-0.0394,0.9098,-6.12,9.59,-0.06,23.44
14946,0.2338,-0.0398,0.8607,-6.15,7.71,0.03,23.44
14956,0.2102,-0.0388,0.8833,-6.12,6.29,-0.08,23.46
14966,0.1891,-0.0345,0.9058,-6.27,9.33,-0.11,23.44
14976,0.2017,-0.0356,0.8942,-6.14,9.82,-0.03,23.44
14986,0.2177,-0.0374,0.8829,-6.12,5.97,0.03,23.44
14996,0.1888,-0.0378,0.9041,-6.11,9.19,-0.14,23.43
15006,0.2234,-0.0365,0.8643,-6.12,8.27,-0.05,23.45
15016,0.2203,-0.038,0.8796,-6.2,6.37,-0.08,23.44
15026,0.1937,-0.0364,0.9111,-6.12,8.41,0.05,23.46
15037,0.1974,-0.0378,0.91,-6.18,9.53,-0.02,23.44
15047,0.2412,-0.0409,0.875,-6.12,6.96,-0.03,23.45
15057,0.2035,-0.0411,0.9038,-6.11,6.89,-0.05,23.47
15067,0.2008,-0.041,0.8961,-6.11,10.02,-0.05,23.48
15077,0.2395,-0.0377,0.8575,-6.03,6.55,-0.03,23.46
15087,0.1998,-0.0414,0.8884,-6.03,6.64,-0.06,23.46
15097,0.1978,-0.0428,0.9,-6.09,8.96,0.02,23.47
15107,0.2251,-0.0364,0.8778,-6.17,8.46,-0.08,23.44
15117,0.2291,-0.0391,0.873,-6.02,5.8,-0.03,23.46
15127,0.2024,-0.0391,0.8881,-6.12,6.44,-0.09,23.44
15137,0.213,-0.0396,0.8699,-6.11,8.89,0.02,23.46
15147,0.222,-0.0409,0.8667,-6.08,6.23,-0.05,23.47
15157,0.1858,-0.0405,0.9121,-6.08,8.24,-0.09,23.45
15167,0.1899,-0.0382,0.9084,-6.17,9.39,-0.08,23.44
15177,0.2285,-0.0388,0.8782,-6.09,7.53,-0.12,23.44
15187,0.2078,-0.041,0.8965,-6.09,6.49,-0.05,23.47
15197,0.1892,-0.0397,0.9053,-6.17,9.69,-0.03,23.48
15207,0.2373,-0.0424,0.8629,-6.06,7.4,-0.02,23.44
15217,0.213,-0.0392,0.8955,-6.05,6.26,-0.11,23.46
15227,0.1968,-0.041,0.9119,-6.05,9.66,-0.06,23.44
15237,0.2393,-0.0352,0.871,-6.09,7.4,-0.11,23.43
15247,0.207,-0.0404,0.8992,-6.0,6.53,0.03,23.45
15257,0.1965,-0.0382,0.899,-6.11,9.98,-0.05,23.46
15267,0.2372,-0.0387,0.8601,-6.18,7.3,0.02,23.43
15277,0.2001,-0.0408,0.889,-6.18,5.97,-0.03,23.44
15289,0.2314,-0.0364,0.8613,-6.17,5.4,-0.09,23.45
15299,0.1885,-0.0399,0.9081,-6.18,9.92,-0.05,23.47
15309,0.2351,-0.0317,0.869,-6.11,7.27,0.0,23.44
15319,0.208,-0.0399,0.889,-6.17,6.29,-0.02,23.46
15329,0.1866,-0.038,0.9066,-6.14,9.73,-0.09,23.44
15339,0.2325,-0.0391,0.863,-6.24,7.59,-0.02,23.46
15349,0.2148,-0.0424,0.8829,-6.11,6.14,-0.06,23.46
15359,0.1936,-0.0396,0.9059,-6.18,8.93,0.02,23.45
15369,0.2201,-0.04,0.8837,-6.09,8.69,-0.05,23.44
15379,0.2267,-0.0446,0.8799,-6.18,6.79,-0.05,23.45
15389,0.1986,-0.0455,0.903,-6.11,7.85,-0.11,23.48
15399,0.2115,-0.0405,0.8826,-6.11,8.9,-0.03,23.43
15410,0.226,-0.0389,0.8726,-6.15,7.65,-0.02,23.48
15420,0.2244,-0.0394,0.8728,-6.14,6.47,-0.05,23.45
15430,0.1932,-0.0391,0.9119,-6.15,9.6,-0.02,23.47
15440,0.2378,-0.036,0.8662,-6.09,6.99,0.0,23.44
15450,0.199,-0.0415,0.902,-6.11,6.9,-0.09,23.43
15460,0.1991,-0.0344,0.8933,-6.08,10.06,-0.05,23.44
15470,0.2349,-0.0413,0.861,-6.09,6.06,-0.08,23.47
15480,0.2074,-0.042,0.8868,-6.18,5.98,0.02,23.47
15490,0.2169,-0.0388,0.8844,-6.05,9.3,0.0,23.45
15500,0.2253,-0.04,0.8771,-6.06,6.44,-0.03,23.47
15510,0.1959,-0.0421,0.8998,-6.08,7.63,-0.03,23.47
15520,0.2046,-0.0385,0.887,-6.02,9.56,-0.11,23.47
15530,0.2349,-0.041,0.8647,-6.15,6.15,-0.03,23.46
15540,0.2173,-0.0419,0.8796,-6.09,5.53,-0.06,23.44
15550,0.2108,-0.0386,0.8966,-6.12,9.94,-0.06,23.46
15560,0.2382,-0.0396,0.8671,-6.12,5.97,0.05,23.47
15570,0.1885,-0.0435,0.9141,-6.09,7.73,-0.09,23.47
15580,0.2161,-0.0388,0.8776,-6.12,9.51,0.02,23.47
15590,0.2314,-0.0419,0.8665,-6.17,6.14,0.03,23.45
15600,0.2136,-0.0413,0.8817,-6.17,5.85,-0.06,23.46
15610,0.2148,-0.0394,0.8878,-6.17,9.51,-0.02,23.45
15620,0.2316,-0.0428,0.8729,-6.06,5.71,-0.02,23.45
15630,0.1852,-0.0438,0.9125,-6.15,8.7,-0.05,23.46
15640,0.2188,-0.0378,0.8741,-6.14,9.02,-0.02,23.47
15650,0.2269,-0.0413,0.8649,-6.12,5.62,-0.09,23.47
15660,0.2015,-0.0447,0.8885,-6.09,6.47,-0.15,23.47
15670,0.2141,-0.0413,0.8883,-6.17,9.34,-0.09,23.48
15680,0.2332,-0.0396,0.8687,-6.18,5.73,-0.05,23.46
15690,0.1815,-0.0387,0.9111,-6.2,8.55,-0.02,23.45
15700,0.2191,-0.037,0.8719,-6.09,8.72,-0.05,23.46
15710,0.2208,-0.04,0.871,-6.03,5.39,-0.05,23.47
15720,0.1879,-0.042,0.9025,-6.08,6.98,-0.14,23.47
15730,0.2318,-0.0378,0.8719,-6.09,8.14,0.05,23.47
15740,0.2168,-0.0413,0.8876,-6.0,5.95,0.0,23.45
15750,0.1925,-0.0431,0.9044,-6.02,8.5,-0.02,23.47
15760,0.2108,-0.0458,0.887,-6.08,9.34,-0.02,23.47
15770,0.2336,-0.0421,0.8625,-6.11,5.79,-0.05,23.47
15780,0.2133,-0.0468,0.8824,-6.03,5.86,0.02,23.48
15790,0.2104,-0.0392,0.8916,-6.12,9.86,-0.03,23.47
15800,0.2393,-0.0406,0.8665,-6.03,5.44,0.0,23.46
15810,0.1805,-0.0455,0.9169,-6.11,8.66,-0.05,23.46
15820,0.2186,-0.0414,0.8754,-6.09,9.25,-0.06,23.49
15830,0.2261,-0.0366,0.8652,-6.06,7.31,-0.08,23.46
15840,0.2136,-0.0366,0.8759,-6.12,6.21,0.0,23.48
15850,0.1887,-0.0378,0.9042,-6.17,8.49,-0.05,23.45
15860,0.2196,-0.0344,0.8785,-6.11,8.66,-0.06,23.47
15870,0.2217,-0.0365,0.8762,-6.14,5.79,-0.05,23.45
15880,0.1874,-0.0421,0.9146,-6.15,9.02,-0.09,23.46
15890,0.226,-0.0388,0.8695,-6.18,8.32,-0.11,23.46
15900,0.2175,-0.0402,0.8782,-6.08,6.15,-0.14,23.47
15910,0.1892,-0.0405,0.9083,-6.23,8.78,-0.08,23.48
15921,0.201,-0.0433,0.903,-6.06,9.48,-0.06,23.45
15931,0.2329,-0.043,0.8751,-6.18,7.48,-0.11,23.48
15941,0.213,-0.0458,0.8889,-6.05,6.34,0.02,23.49
15951,0.1941,-0.0427,0.8978,-6.2,9.02,-0.05,23.47
15961,0.2246,-0.0425,0.865,-6.06,7.92,-0.08,23.48
15971,0.2112,-0.041,0.8792,-6.02,6.0,-0.08,23.49
15981,0.1897,-0.0398,0.9114,-6.14,9.19,-0.05,23.47
15991,0.2288,-0.0364,0.873,-6.05,7.95,0.05,23.47
16001,0.2155,-0.0378,0.8904,-6.09,6.4,-0.06,23.48
16011,0.1901,-0.0371,0.908,-6.12,9.1,-0.03,23.47
16021,0.2294,-0.0376,0.8671,-6.06,8.37,-0.05,23.51
16031,0.2167,-0.0382,0.886,-6.14,5.74,-0.12,23.47
16041,0.1886,-0.0369,0.91,-6.17,9.07,-0.06,23.49
16051,0.2257,-0.0336,0.8828,-6.12,8.31,0.05,23.49
16061,0.2217,-0.0433,0.8868,-6.08,6.02,0.03,23.47
16071,0.1842,-0.0411,0.9083,-6.09,9.28,-0.03,23.49
16081,0.2244,-0.0381,0.8589,-6.06,8.35,-0.11,23.49
16091,0.215,-0.0405,0.8693,-6.08,5.31,-0.05,23.48
16101,0.1831,-0.0428,0.9052,-6.15,9.39,0.0,23.47
16111,0.2308,-0.0437,0.8746,-6.14,7.82,0.02,23.48
16121,0.2152,-0.0426,0.8866,-6.12,6.41,-0.02,23.47
16131,0.1985,-0.0411,0.9006,-6.09,8.7,-0.08,23.47
16141,0.2147,-0.0415,0.8782,-6.15,8.93,0.06,23.48
16151,0.2318,-0.0403,0.8652,-6.02,5.68,0.02,23.47
16161,0.1877,-0.0432,0.9108,-6.17,8.47,-0.05,23.48
16171,0.2285,-0.0353,0.8801,-6.11,8.82,-0.11,23.47
16181,0.2312,-0.037,0.8771,-6.11,5.63,-0.09,23.47
16191,0.1895,-0.0393,0.9102,-6.17,8.93,-0.14,23.46
16201,0.2159,-0.0352,0.8752,-5.98,9.01,-0.05,23.47
16211,0.2257,-0.0397,0.864,-6.03,6.0,-0.08,23.48
16221,0.1926,-0.0394,0.8958,-6.03,7.73,-0.05,23.49
16231,0.2041,-0.0392,0.8926,-6.08,9.24,-0.02,23.47
16241,0.2278,-0.0381,0.8711,-6.02,6.4,-0.05,23.49
16251,0.1879,-0.0403,0.906,-6.15,7.65,-0.08,23.44
16261,0.205,-0.0388,0.8835,-6.14,9.28,-0.02,23.48
16271,0.2324,-0.0428,0.8645,-6.09,6.58,-0.15,23.51
16281,0.2167,-0.0421,0.8813,-6.08,5.77,-0.17,23.5
16291,0.205,-0.0408,0.8939,-6.21,9.57,-0.08,23.48
16301,0.2366,-0.0413,0.871,-6.08,6.41,-0.12,23.47
16311,0.1984,-0.0427,0.901,-6.08,7.8,-0.11,23.5
16321,0.2078,-0.0387,0.8904,-6.09,9.31,-0.12,23.49
16331,0.235,-0.0363,0.8666,-6.15,6.12,-0.02,23.5
16341,0.1906,-0.0398,0.911,-6.08,7.51,0.06,23.49
16351,0.213,-0.0392,0.8931,-6.14,9.6,0.02,23.47
16361,0.2341,-0.0372,0.8773,-6.15,6.26,-0.03,23.49
16371,0.1901,-0.0421,0.9025,-6.12,7.91,-0.05,23.48
16381,0.2035,-0.041,0.8864,-6.18,9.51,-0.06,23.49
16391,0.2255,-0.0424,0.8628,-6.14,6.75,-0.08,23.47
16401,0.1906,-0.0468,0.8973,-6.11,7.33,-0.14,23.48
16411,0.2059,-0.041,0.8878,-6.08,9.31,-0.05,23.48
16421,0.2332,-0.041,0.868,-6.0,6.0,-0.02,23.46
16431,0.2081,-0.0425,0.8906,-6.14,6.26,0.06,23.48
16441,0.2167,-0.0417,0.8787,-6.11,9.21,-0.05,23.5
16451,0.2288,-0.0411,0.8721,-5.95,5.39,-0.11,23.49
16461,0.2021,-0.0382,0.8951,-6.08,6.69,-0.11,23.49
16471,0.202,-0.0387,0.9008,-6.14,9.45,-0.12,23.47
16481,0.2343,-0.0396,0.8759,-6.09,6.72,-0.03,23.47
16491,0.2039,-0.042,0.9019,-6.03,6.81,-0.09,23.46
16501,0.1986,-0.0361,0.9003,-6.08,9.39,-0.08,23.49
16511,0.235,-0.0387,0.8645,-6.09,6.92,-0.08,23.47
16521,0.1967,-0.0397,0.8988,-6.11,6.92,-0.06,23.47
16531,0.202,-0.0403,0.8915,-6.14,9.4,0.0,23.49
16541,0.2347,-0.0391,0.863,-6.05,6.29,0.06,23.47
16551,0.1926,-0.0404,0.9032,-6.06,7.83,-0.09,23.48
16561,0.2152,-0.0405,0.8798,-6.14,9.01,-0.06,23.48
16571,0.2278,-0.0424,0.8695,-6.14,5.92,-0.06,23.5
16581,0.1874,-0.0422,0.9113,-6.21,8.52,0.02,23.47
16591,0.2263,-0.0404,0.8765,-6.08,8.58,0.0,23.48
16601,0.218,-0.0431,0.8846,-6.06,5.82,-0.12,23.51
16611,0.1866,-0.0366,0.903,-6.09,9.39,-0.03,23.49
16621,0.2256,-0.0374,0.8662,-6.05,7.94,-0.05,23.49
16631,0.2089,-0.0406,0.8888,-6.06,6.27,-0.09,23.48
16641,0.1862,-0.0393,0.9111,-6.18,9.79,-0.09,23.5
16651,0.2294,-0.0356,0.881,-6.17,8.24,-0.12,23.51
16661,0.218,-0.041,0.8813,-6.06,5.95,-0.02,23.5
16671,0.1833,-0.0402,0.9133,-6.21,9.25,-0.08,23.49
16681,0.2281,-0.0381,0.8676,-6.08,8.29,-0.05,23.48
16691,0.2113,-0.0426,0.8867,-6.12,5.76,0.05,23.49
16701,0.1901,-0.0382,0.9064,-6.23,9.56,0.02,23.48
16711,0.2377,-0.0392,0.8669,-6.0,7.59,0.08,23.48
16721,0.2113,-0.0393,0.8876,-6.06,6.2,-0.05,23.49
16731,0.1934,-0.0365,0.9058,-6.09,9.89,-0.06,23.48
16742,0.2186,-0.0364,0.8728,-6.08,9.11,-0.02,23.5
16752,0.2192,-0.0404,0.8759,-6.17,5.69,0.02,23.5
16762,0.1812,-0.0405,0.9132,-6.15,8.95,-0.06,23.48
16772,0.2218,-0.0371,0.8816,-6.14,8.92,-0.02,23.49
16782,0.2195,-0.0402,0.8759,-6.05,5.62,-0.11,23.49
16792,0.1881,-0.0375,0.9067,-6.15,9.13,-0.08,23.49
16802,0.2196,-0.0363,0.8745,-6.15,8.47,-0.05,23.51
16812,0.2285,-0.0383,0.8658,-6.06,7.47,-0.03,23.51
16822,0.1949,-0.0393,0.9037,-6.18,7.88,-0.08,23.5
16832,0.2155,-0.038,0.8861,-6.09,8.82,-0.09,23.49
16842,0.2269,-0.0406,0.8807,-6.06,6.24,-0.03,23.48
16852,0.1892,-0.0396,0.9088,-6.06,8.9,-0.06,23.49
16862,0.2279,-0.0403,0.8662,-6.11,8.41,-0.05,23.5
16872,0.21,-0.0406,0.8828,-6.09,5.82,-0.12,23.48
16882,0.1886,-0.0411,0.9062,-6.2,9.69,-0.08,23.49
16892,0.2307,-0.0382,0.8698,-6.14,7.79,-0.05,23.49
16902,0.2069,-0.0385,0.8892,-6.08,6.52,-0.11,23.54
16912,0.1962,-0.0378,0.8969,-6.15,9.74,-0.03,23.51
16922,0.2324,-0.0392,0.8619,-6.11,6.66,0.05,23.5
16932,0.2214,-0.0382,0.8763,-6.17,6.15,-0.06,23.5
16942,0.2009,-0.0374,0.9017,-6.15,9.13,-0.06,23.51
16952,0.231,-0.0413,0.8766,-6.08,7.51,-0.12,23.5
16962,0.2111,-0.0388,0.8921,-6.09,6.73,-0.06,23.52
16972,0.1949,-0.0385,0.9055,-6.2,9.37,-0.05,23.49
16982,0.2294,-0.0408,0.8701,-6.18,7.4,0.06,23.52
16992,0.2211,-0.0388,0.8745,-6.08,6.37,-0.05,23.49
17002,0.1976,-0.0386,0.9008,-6.17,9.53,0.02,23.49
17012,0.2329,-0.0376,0.8613,-6.14,6.61,-0.05,23.5
17022,0.1847,-0.0387,0.9028,-6.15,7.57,-0.05,23.49
17032,0.2091,-0.0398,0.8802,-6.14,9.13,0.05,23.5
17042,0.2268,-0.0409,0.8702,-6.09,7.42,-0.03,23.48
17052,0.2072,-0.04,0.8895,-6.11,6.27,-0.06,23.5
17062,0.2184,-0.042,0.8824,-6.08,8.9,-0.06,23.51
17072,0.2225,-0.0465,0.8829,-6.08,5.82,0.05,23.49
17082,0.187,-0.0438,0.9143,-6.08,9.69,-0.05,23.5
17092,0.2106,-0.0399,0.8866,-6.08,9.53,0.05,23.5
17102,0.2196,-0.0427,0.8821,-6.11,5.86,0.0,23.5
17112,0.1936,-0.0431,0.8983,-6.02,7.01,0.02,23.51
17122,0.224,-0.0403,0.877,-6.14,8.47,0.03,23.51
17132,0.2168,-0.0393,0.8881,-5.97,6.18,0.0,23.48
17142,0.1948,-0.0383,0.9059,-6.06,7.83,0.02,23.46
17152,0.2096,-0.0366,0.887,-6.06,8.85,-0.02,23.47
17162,0.222,-0.0411,0.8722,-6.11,6.49,-0.06,23.46
17172,0.1912,-0.0426,0.8966,-6.14,7.85,0.0,23.48
17182,0.2087,-0.041,0.8859,-6.09,9.16,-0.11,23.5
17192,0.2238,-0.0405,0.8715,-6.12,6.66,-0.15,23.49
17202,0.1942,-0.0403,0.8966,-6.05,7.53,0.0,23.48
17212,0.2065,-0.0393,0.8855,-6.14,9.21,-0.06,23.49
17222,0.2313,-0.0442,0.8701,-6.11,6.5,-0.03,23.53
17232,0.1931,-0.0365,0.9106,-6.0,7.66,-0.09,23.51
17242,0.2126,-0.038,0.8933,-6.08,9.37,-0.09,23.51
17252,0.2283,-0.0402,0.8723,-6.08,5.89,0.05,23.5
17262,0.179,-0.0371,0.913,-6.05,9.01,-0.02,23.52
17272,0.2292,-0.0353,0.8684,-6.03,8.67,-0.06,23.5
17285,0.2067,-0.0366,0.8877,-6.15,9.94,-0.02,23.5
17295,0.2318,-0.0404,0.8623,-6.15,6.08,-0.02,23.52
17305,0.1967,-0.0417,0.9003,-6.15,6.87,-0.02,23.5
17315,0.1967,-0.041,0.9061,-6.24,9.8,-0.02,23.5
17325,0.2395,-0.0437,0.866,-6.06,6.92,0.0,23.52
17335,0.203,-0.0426,0.8969,-6.12,6.81,-0.03,23.5
17345,0.1996,-0.0409,0.8947,-6.12,9.88,-0.02,23.49
17355,0.236,-0.041,0.8593,-6.09,6.35,0.03,23.52
17365,0.1882,-0.0406,0.903,-6.14,7.25,0.03,23.5
17375,0.2096,-0.0376,0.8964,-6.14,9.57,-0.06,23.52
17385,0.2341,-0.0378,0.8705,-6.09,6.09,-0.02,23.5
17395,0.1923,-0.041,0.9058,-6.0,7.95,-0.03,23.47
17405,0.2098,-0.0408,0.8832,-6.09,9.11,-0.06,23.52
17415,0.2245,-0.041,0.8668,-5.97,6.2,-0.06,23.52
17425,0.1881,-0.0411,0.9003,-6.17,8.12,0.05,23.51
17435,0.2175,-0.0411,0.8883,-6.21,9.04,-0.02,23.52
17445,0.2291,-0.043,0.8772,-6.06,5.76,-0.03,23.5
17455,0.1891,-0.0437,0.9116,-6.12,8.7,-0.08,23.49
17465,0.2223,-0.038,0.8726,-6.11,8.6,-0.06,23.5
17475,0.2238,-0.0396,0.8755,-6.09,6.21,-0.12,23.52
17485,0.1893,-0.037,0.9084,-6.09,8.5,-0.02,23.49
17495,0.2207,-0.0386,0.8788,-6.11,9.02,-0.06,23.54
17505,0.2229,-0.0417,0.8724,-6.06,6.2,0.05,23.5
17515,0.1823,-0.038,0.9152,-6.09,9.19,-0.03,23.5
17525,0.2284,-0.0394,0.866,-6.11,8.24,0.06,23.51
17535,0.209,-0.0421,0.8824,-6.14,5.82,-0.03,23.52
17545,0.1876,-0.0349,0.906,-6.09,9.45,-0.09,23.52
17555,0.229,-0.0388,0.8737,-6.14,7.51,0.05,23.51
17565,0.213,-0.0361,0.8893,-6.14,6.52,-0.03,23.52
17575,0.1973,-0.0382,0.8982,-6.0,8.9,-0.05,23.5
17585,0.2238,-0.0391,0.8757,-6.06,7.73,0.02,23.49
17595,0.2155,-0.0366,0.8843,-6.11,6.38,-0.05,23.53
17605,0.1953,-0.0386,0.9094,-6.12,9.16,0.0,23.5
17615,0.2355,-0.0394,0.8754,-6.11,7.69,-0.06,23.47
17625,0.2139,-0.0399,0.8829,-6.09,6.37,-0.12,23.5
17635,0.193,-0.0415,0.901,-6.03,8.99,-0.08,23.5
17645,0.2224,-0.0417,0.868,-6.11,7.82,0.03,23.5
17655,0.217,-0.0454,0.8795,-6.14,6.46,0.0,23.52
17665,0.1904,-0.0448,0.9048,-6.26,8.63,-0.06,23.48
17675,0.2249,-0.0425,0.8784,-6.06,8.56,-0.06,23.52
17685,0.2203,-0.0416,0.881,-6.02,6.06,0.03,23.52
17695,0.1868,-0.0383,0.9022,-6.08,9.19,-0.02,23.52
17705,0.2272,-0.038,0.8694,-6.2,8.14,-0.05,23.51
17715,0.2177,-0.0366,0.8807,-6.11,5.65,-0.03,23.51
17725,0.1863,-0.0339,0.9163,-6.15,9.51,-0.02,23.52
17735,0.2312,-0.0321,0.8684,-6.2,7.79,0.02,23.52
17745,0.2104,-0.0377,0.8889,-6.2,6.2,-0.05,23.49
17756,0.2085,-0.0396,0.889,-6.14,6.41,0.03,23.5
17766,0.2137,-0.0374,0.8795,-6.09,9.02,-0.03,23.52
17776,0.2256,-0.0402,0.8759,-6.0,6.08,0.03,23.53
17786,0.2054,-0.0416,0.8909,-6.12,6.64,-0.05,23.5
17796,0.1985,-0.0425,0.9022,-6.05,9.27,-0.03,23.49
17806,0.2312,-0.0452,0.8746,-6.08,7.33,0.0,23.5
17816,0.2057,-0.0444,0.8981,-6.18,6.72,-0.08,23.52
17826,0.1949,-0.0439,0.9023,-6.15,9.24,0.0,23.52
17836,0.2308,-0.0414,0.8645,-6.12,7.68,-0.09,23.52
17846,0.2148,-0.0442,0.8834,-6.0,5.98,-0.06,23.53
17856,0.1896,-0.0388,0.9086,-6.05,9.59,-0.08,23.51
17866,0.2378,-0.0363,0.865,-6.14,7.21,0.0,23.5
17876,0.1987,-0.0375,0.8999,-6.03,6.63,0.0,23.51
17886,0.1947,-0.033,0.899,-6.06,10.02,-0.06,23.51
17896,0.2355,-0.037,0.8546,-6.09,6.43,-0.06,23.55
17906,0.1893,-0.0427,0.9031,-6.03,6.99,0.05,23.53
17916,0.2043,-0.0397,0.8958,-6.03,9.44,-0.05,23.51
17926,0.231,-0.0381,0.8717,-6.12,6.64,-0.06,23.51
17936,0.2041,-0.042,0.896,-6.05,7.04,-0.03,23.53
17946,0.1975,-0.0443,0.9004,-6.17,9.05,-0.05,23.52
17956,0.2242,-0.0408,0.8668,-6.03,7.82,-0.08,23.51
17966,0.2113,-0.0441,0.8829,-6.17,6.47,-0.15,23.52
17976,0.1915,-0.0416,0.907,-6.12,9.48,-0.05,23.52
17986,0.2372,-0.0439,0.8678,-6.02,7.44,0.0,23.52
17996,0.1995,-0.0421,0.894,-6.08,6.32,-0.05,23.53
18006,0.1967,-0.0386,0.8978,-6.17,10.37,-0.06,23.5
18016,0.2339,-0.0411,0.8571,-6.06,5.95,-0.03,23.52
18026,0.1893,-0.0402,0.91,-6.05,7.54,-0.05,23.51
18036,0.2023,-0.0398,0.8964,-6.05,9.83,-0.02,23.5
18046,0.2327,-0.0408,0.8712,-6.05,6.56,0.05,23.53
18056,0.194,-0.0371,0.9052,-6.17,7.44,0.09,23.52
18066,0.2081,-0.0375,0.8881,-6.11,9.62,0.02,23.54
18076,0.2384,-0.0367,0.8628,-6.06,5.79,-0.02,23.51
18086,0.187,-0.0378,0.9098,-6.15,7.51,-0.05,23.53
18096,0.1824,-0.0389,0.9127,-6.26,10.0,-0.05,23.53
18106,0.2396,-0.0369,0.8647,-6.03,5.62,-0.06,23.51
18116,0.1827,-0.0378,0.912,-6.15,8.17,-0.06,23.55
18126,0.2181,-0.0399,0.8784,-6.02,9.31,-0.05,23.53
18136,0.2238,-0.0409,0.8663,-6.08,5.71,-0.02,23.53
18146,0.1924,-0.0425,0.9011,-6.09,7.97,0.03,23.52
18156,0.1919,-0.0392,0.9059,-6.24,8.75,0.05,23.54
18166,0.2313,-0.0415,0.875,-6.06,6.98,-0.12,23.54
18176,0.2,-0.0421,0.902,-6.18,7.25,0.05,23.5
18186,0.202,-0.0409,0.8877,-6.15,10.11,-0.12,23.53
18196,0.2372,-0.041,0.8607,-6.0,5.91,-0.09,23.53
18206,0.1884,-0.0372,0.9098,-6.09,7.56,-0.09,23.54
18216,0.22,-0.0366,0.887,-6.06,9.6,-0.02,23.52
18226,0.2299,-0.042,0.8752,-5.98,5.76,-0.06,23.51
18236,0.1907,-0.0426,0.9083,-6.2,8.52,-0.02,23.52
18246,0.2153,-0.041,0.8787,-6.12,9.07,-0.06,23.51
18256,0.2242,-0.0378,0.8715,-6.11,6.0,-0.11,23.55
18266,0.1891,-0.0372,0.9093,-6.21,8.17,-0.11,23.52
18276,0.222,-0.0366,0.8788,-6.05,9.16,-0.06,23.53
18286,0.2263,-0.0386,0.8732,-6.08,5.79,-0.08,23.54
18296,0.1846,-0.0415,0.9066,-6.0,9.08,-0.02,23.55
18306,0.228,-0.0378,0.8639,-5.97,8.15,0.0,23.55
18316,0.215,-0.0419,0.8789,-6.12,5.86,0.0,23.54
18326,0.192,-0.0405,0.9098,-6.17,8.73,-0.03,23.52
18336,0.2003,-0.0399,0.9042,-6.21,9.19,-0.03,23.52
18346,0.2264,-0.0408,0.8793,-6.14,6.66,-0.08,23.5
18356,0.1976,-0.0385,0.9014,-6.09,7.59,-0.12,23.52
18366,0.1892,-0.0394,0.9108,-6.17,9.33,-0.06,23.54
18376,0.2328,-0.0385,0.8564,-6.09,5.89,0.0,23.54
18386,0.1837,-0.0413,0.9065,-6.18,8.12,0.0,23.52
18396,0.1969,-0.0403,0.9033,-6.03,9.62,-0.02,23.52
18406,0.2375,-0.0371,0.8687,-6.15,7.21,-0.03,23.52
18416,0.207,-0.0408,0.8993,-6.12,6.56,-0.02,23.55
18426,0.1967,-0.0425,0.9006,-6.18,9.44,-0.05,23.54
18436,0.2279,-0.041,0.8702,-6.12,7.76,0.02,23.52
18446,0.2163,-0.043,0.8776,-6.11,6.06,-0.05,23.52
18456,0.1875,-0.0411,0.9105,-6.14,8.85,-0.06,23.52
18466,0.2266,-0.0408,0.8804,-6.06,8.47,0.0,23.53
18476,0.2225,-0.041,0.8792,-6.09,6.11,0.0,23.52
18486,0.189,-0.0419,0.902,-6.11,8.58,-0.03,23.52
18496,0.2133,-0.0389,0.8755,-6.0,8.82,0.03,23.54
18506,0.2239,-0.0388,0.8696,-6.14,6.08,-0.06,23.54
18516,0.1909,-0.0403,0.9065,-6.15,7.95,-0.08,23.53
18526,0.2114,-0.0391,0.8844,-6.08,9.48,0.05,23.51
18536,0.2321,-0.038,0.8663,-5.98,5.66,-0.05,23.53
18546,0.1804,-0.0391,0.9089,-6.03,8.53,-0.03,23.53
18556,0.22,-0.0377,0.8732,-6.08,9.02,-0.09,23.51
18566,0.2216,-0.0413,0.8754,-6.15,5.51,-0.06,23.53
18576,0.1843,-0.0444,0.9169,-6.2,8.93,-0.02,23.54
18586,0.223,-0.0406,0.8826,-6.15,8.5,-0.02,23.52
18596,0.229,-0.0425,0.8766,-6.03,6.47,0.0,23.53
18606,0.1937,-0.0428,0.9047,-6.12,8.05,-0.06,23.54
18616,0.2085,-0.0415,0.8835,-6.05,9.39,-0.15,23.51
18626,0.2333,-0.0458,0.8595,-6.11,6.06,0.06,23.54
18636,0.1913,-0.0453,0.9027,-6.03,7.62,-0.06,23.54
18646,0.2107,-0.0404,0.8907,-6.14,9.25,0.0,23.53
18656,0.231,-0.0392,0.8712,-6.15,6.32,0.02,23.52
18666,0.1895,-0.0333,0.9091,-6.06,7.88,-0.09,23.54
18676,0.1963,-0.0387,0.9048,-6.06,8.89,-0.05,23.54
18686,0.2251,-0.0388,0.8701,-6.17,7.1,-0.05,23.53
18696,0.2015,-0.0354,0.8929,-6.08,6.79,-0.09,23.57
18706,0.1956,-0.0367,0.9055,-6.12,9.39,0.05,23.52
18716,0.2311,-0.0375,0.8765,-6.11,7.77,-0.02,23.51
18726,0.208,-0.0408,0.8903,-6.17,6.73,-0.06,23.55
18736,0.1971,-0.042,0.895,-6.2,9.51,0.06,23.55
18746,0.2272,-0.0398,0.8625,-6.24,7.54,0.02,23.55
18756,0.2083,-0.0415,0.881,-6.15,6.58,-0.02,23.53
18766,0.1925,-0.0424,0.9026,-6.23,8.81,-0.02,23.55
18776,0.2202,-0.0386,0.8805,-6.06,8.26,-0.02,23.52
18786,0.2217,-0.0428,0.8839,-6.11,6.76,0.05,23.53
18796,0.197,-0.0422,0.9032,-6.06,7.98,0.02,23.54
18806,0.2028,-0.0393,0.8906,-6.21,9.31,0.03,23.54
18816,0.2139,-0.0355,0.8735,-6.2,8.66,0.03,23.55
18826,0.2073,-0.0392,0.8861,-6.05,6.38,-0.11,23.52
18836,0.1931,-0.0411,0.9109,-6.08,9.48,-0.02,23.52
18846,0.2365,-0.0334,0.8701,-6.02,7.28,0.05,23.53
18856,0.2024,-0.0361,0.8962,-6.08,6.73,-0.09,23.54
18866,0.1995,-0.0408,0.8944,-6.08,9.76,-0.11,23.54
18877,0.2225,-0.0381,0.8702,-6.09,8.43,-0.06,23.5
18887,0.2167,-0.0383,0.8781,-6.06,6.12,-0.05,23.53
18897,0.1959,-0.0431,0.9031,-6.12,8.69,-0.12,23.55
18907,0.2145,-0.0389,0.8878,-6.2,8.78,0.0,23.54
18917,0.2271,-0.042,0.876,-6.23,6.63,0.0,23.54
18927,0.1888,-0.0435,0.8981,-6.06,7.63,0.05,23.54
18937,0.207,-0.0402,0.89,-6.12,9.63,0.08,23.54
18947,0.2324,-0.0411,0.8662,-6.15,5.97,-0.02,23.54
18957,0.1942,-0.0427,0.9033,-6.15,7.45,-0.08,23.53
18967,0.2072,-0.0382,0.8934,-6.14,9.01,-0.02,23.55
18977,0.2205,-0.0383,0.884,-6.09,8.56,-0.06,23.55
18987,0.2072,-0.0385,0.8953,-6.11,6.93,-0.05,23.54
18997,0.1981,-0.0349,0.9017,-6.14,9.77,-0.05,23.53
19007,0.2395,-0.0393,0.8652,-6.06,6.75,-0.12,23.52
19017,0.1951,-0.0426,0.9022,-6.17,7.15,-0.03,23.54
19027,0.2068,-0.0435,0.8959,-6.18,9.8,-0.08,23.57
19037,0.2356,-0.0415,0.8655,-6.11,6.14,-0.02,23.54
19047,0.1948,-0.0446,0.8994,-6.06,7.95,-0.02,23.52
19057,0.2008,-0.0399,0.882,-6.02,9.21,-0.05,23.55
19067,0.2246,-0.0355,0.8627,-6.09,6.72,0.03,23.54
19077,0.213,-0.0316,0.8772,-6.26,5.69,-0.03,23.53
19087,0.1792,-0.0355,0.9001,-6.49,8.81,0.0,23.51
19097,0.2249,-0.0461,0.8588,-6.56,8.32,0.12,23.53
19107,0.2166,-0.0477,0.8682,-6.35,5.89,0.0,23.53
19117,0.1823,-0.0505,0.8988,-6.14,8.67,0.0,23.54
19127,0.2095,-0.0438,0.8844,-6.02,9.27,0.0,23.54
19137,0.2349,-0.03,0.8733,-5.91,5.66,-0.02,23.53
19147,0.1906,-0.0294,0.9276,-6.03,7.65,-0.02,23.54
19157,0.2205,-0.0306,0.9061,-6.11,9.33,0.05,23.54
19167,0.2401,-0.0297,0.8854,-6.2,5.77,-0.11,23.53
19177,0.1973,-0.0425,0.9146,-6.08,8.05,-0.08,23.54
19187,0.209,-0.0426,0.8907,-6.0,9.42,-0.2,23.54
19197,0.239,-0.0477,0.8625,-5.98,6.82,-0.2,23.56
19207,0.2028,-0.0494,0.8887,-6.06,7.08,-0.09,23.56
19217,0.202,-0.0504,0.8944,-5.97,9.5,-0.05,23.53
19227,0.2344,-0.0502,0.864,-5.91,7.69,0.0,23.53
19237,0.2148,-0.0427,0.8815,-5.97,6.53,-0.09,23.54
19247,0.1877,-0.0387,0.9036,-5.89,9.3,-0.03,23.54
19257,0.2194,-0.0387,0.8735,-5.92,8.44,0.03,23.56
19267,0.2218,-0.0393,0.8798,-5.85,6.24,-0.02,23.54
19277,0.1836,-0.0386,0.9088,-5.86,8.12,-0.08,23.54
19287,0.1852,-0.0319,0.9022,-6.09,9.33,-0.08,23.53
19297,0.2247,-0.0375,0.8694,-6.14,6.29,-0.05,23.54
19307,0.1844,-0.0416,0.8992,-6.15,7.82,-0.05,23.56
19317,0.2031,-0.0354,0.8805,-6.11,8.9,-0.05,23.55
19327,0.2185,-0.0354,0.8652,-6.11,7.36,0.03,23.54
19337,0.2081,-0.0331,0.8829,-6.09,6.75,-0.08,23.55
19347,0.1974,-0.0316,0.9011,-6.0,8.35,-0.02,23.55
19357,0.2214,-0.04,0.8893,-6.17,8.4,-0.11,23.55
19367,0.2255,-0.0405,0.8851,-6.34,6.47,-0.09,23.54
19377,0.198,-0.0435,0.901,-6.18,8.21,-0.08,23.55
19388,0.202,-0.0428,0.895,-6.11,8.5,0.02,23.55
19398,0.2131,-0.0361,0.8801,-6.18,8.21,0.03,23.55
19408,0.2291,-0.0361,0.8721,-6.08,6.29,-0.11,23.55
19418,0.1981,-0.0406,0.9099,-6.26,7.57,-0.08,23.57
19428,0.2065,-0.0378,0.8971,-6.18,8.96,0.02,23.56
19438,0.2228,-0.0417,0.8857,-6.09,7.59,-0.09,23.55
19448,0.2128,-0.0432,0.8833,-6.14,7.28,-0.11,23.57
19458,0.2014,-0.0455,0.8849,-6.15,8.18,-0.02,23.54
19468,0.2025,-0.0441,0.8793,-6.15,8.44,-0.02,23.54
19478,0.2183,-0.0377,0.8687,-6.09,7.22,-0.09,23.52
19488,0.203,-0.0376,0.8945,-6.05,6.96,-0.03,23.54
19498,0.1976,-0.0348,0.9008,-6.21,8.95,0.06,23.56
19508,0.2338,-0.0361,0.8745,-6.17,7.37,-0.02,23.57
19518,0.2087,-0.0427,0.9052,-6.09,7.02,-0.14,23.54
19528,0.1986,-0.0403,0.9037,-6.09,9.44,-0.08,23.53
19538,0.2269,-0.0399,0.8606,-6.11,7.92,-0.03,23.56
19548,0.2087,-0.0421,0.8796,-6.11,6.55,-0.08,23.53
19558,0.2002,-0.0452,0.8945,-6.11,8.75,-0.03,23.54
19568,0.2241,-0.0438,0.8827,-6.06,7.22,-0.05,23.56
19578,0.2076,-0.0391,0.9021,-6.17,7.54,-0.17,23.54
19588,0.218,-0.0389,0.8896,-5.95,8.4,-0.11,23.55
19598,0.2114,-0.042,0.886,-6.05,7.39,-0.09,23.53
19608,0.2025,-0.0405,0.8824,-6.12,8.37,-0.11,23.54
19618,0.2103,-0.0437,0.8708,-6.21,7.63,0.0,23.53
19628,0.2081,-0.0396,0.8888,-6.17,6.85,-0.05,23.57
19638,0.2031,-0.0349,0.9104,-6.2,8.24,-0.08,23.56
19648,0.2218,-0.0361,0.9015,-6.17,8.46,-0.05,23.57
19658,0.2238,-0.0396,0.8872,-6.18,7.22,-0.05,23.55
19668,0.2067,-0.0421,0.8993,-6.09,8.27,-0.08,23.55
19678,0.2087,-0.0424,0.8838,-6.24,8.69,-0.02,23.55
19688,0.2058,-0.0438,0.8867,-6.14,8.99,-0.06,23.54
19698,0.2168,-0.0427,0.8612,-6.18,7.74,0.0,23.55
19708,0.2072,-0.0398,0.8765,-6.17,7.02,0.03,23.56
19718,0.2045,-0.042,0.8965,-6.14,7.07,-0.02,23.55
19728,0.2072,-0.0343,0.9043,-6.2,8.55,-0.08,23.55
19738,0.2208,-0.0369,0.8962,-6.17,8.23,-0.03,23.57
19748,0.2166,-0.0344,0.8964,-6.21,6.73,-0.15,23.56
19758,0.2015,-0.0371,0.9077,-6.12,8.84,-0.06,23.55
19768,0.2189,-0.0419,0.8799,-6.06,8.31,-0.02,23.54
19778,0.2058,-0.0488,0.8746,-6.09,7.97,-0.03,23.56
19788,0.2045,-0.0411,0.874,-6.15,8.38,0.0,23.55
19798,0.2173,-0.0413,0.8676,-6.03,7.34,-0.11,23.55
19808,0.2141,-0.0427,0.8792,-6.0,6.76,-0.02,23.55
19818,0.2069,-0.0349,0.8979,-6.06,7.37,0.05,23.57
19828,0.2101,-0.0334,0.905,-6.23,8.14,-0.08,23.55
19838,0.2198,-0.0343,0.8977,-6.15,7.79,-0.11,23.56
19848,0.2074,-0.0419,0.8951,-6.05,7.97,-0.06,23.57
19858,0.209,-0.042,0.8776,-5.92,8.55,-0.03,23.56
19868,0.2198,-0.0448,0.8549,-6.0,7.22,-0.08,23.54
19878,0.1991,-0.0458,0.875,-6.03,6.96,-0.05,23.54
19888,0.1904,-0.0356,0.8965,-6.11,8.89,0.02,23.53
19898,0.2245,-0.0341,0.8862,-6.06,7.57,-0.02,23.57
19908,0.2202,-0.0321,0.9003,-6.08,6.46,-0.06,23.55
19918,0.1989,-0.0361,0.9231,-6.23,8.5,-0.06,23.54
19928,0.2089,-0.0365,0.8984,-6.26,9.07,0.02,23.54
19938,0.2231,-0.0411,0.8726,-6.18,8.05,-0.05,23.56
19948,0.2253,-0.0387,0.8706,-6.12,7.51,-0.05,23.57
19958,0.1963,-0.0436,0.8794,-6.09,7.88,-0.06,23.54
19968,0.2003,-0.0413,0.8752,-6.06,8.02,0.0,23.53
19978,0.2078,-0.0372,0.8835,-6.14,7.48,-0.03,23.55
19988,0.2217,-0.0352,0.8893,-6.26,6.56,-0.11,23.54
19999,0.2605,-0.0249,0.8549,-5.89,8.56,-0.02,23.53
20009,0.1616,-0.0409,0.9437,-6.37,6.0,-0.09,23.53
20019,0.239,-0.0393,0.8738,-6.18,11.8,-0.08,23.55
20029,0.2142,-0.042,0.8792,-6.0,5.13,-0.05,23.56
20039,0.1937,-0.0421,0.8835,-6.15,9.79,-0.06,23.54
20049,0.2312,-0.0449,0.8578,-6.05,6.75,-0.06,23.56
20059,0.1957,-0.0411,0.8962,-6.03,6.56,-0.06,23.56
20069,0.2073,-0.0348,0.9106,-6.11,9.77,0.0,23.57
20079,0.218,-0.0452,0.9061,-6.05,7.3,-0.09,23.54
20089,0.2194,-0.0349,0.9028,-6.03,8.0,-0.03,23.54
20099,0.1816,-0.0453,0.9008,-6.09,9.13,-0.09,23.53
20109,0.2443,-0.0403,0.8446,-6.17,8.37,-0.06,23.56
20119,0.1932,-0.0414,0.8677,-6.08,6.81,-0.06,23.55
20129,0.2041,-0.0381,0.8646,-6.06,8.56,-0.02,23.58
20139,0.2292,-0.0354,0.8575,-6.0,6.11,-0.05,23.54
20149,0.2146,-0.0353,0.8917,-6.02,6.53,-0.06,23.56
20159,0.1967,-0.0328,0.9215,-6.14,7.66,0.03,23.55
20169,0.2157,-0.0333,0.9017,-6.11,9.73,-0.09,23.55
20179,0.229,-0.0398,0.8796,-6.18,6.17,0.0,23.54
20189,0.1915,-0.0422,0.9043,-6.17,8.92,-0.08,23.57
20199,0.2129,-0.0469,0.8732,-6.06,8.43,-0.05,23.56
20209,0.218,-0.0437,0.8647,-6.14,6.79,-0.11,23.55
20219,0.2018,-0.0387,0.884,-6.2,7.3,0.02,23.54
20229,0.2039,-0.0354,0.8922,-6.18,8.18,-0.03,23.54
20239,0.2238,-0.037,0.8784,-6.15,7.15,-0.03,23.57
20249,0.2095,-0.0396,0.9042,-6.18,7.18,-0.14,23.57
20259,0.2086,-0.0409,0.9036,-6.03,8.66,-0.11,23.58
20269,0.2203,-0.0416,0.8873,-6.14,8.18,-0.11,23.53
20279,0.2087,-0.0448,0.8773,-6.09,7.85,-0.09,23.55
20289,0.1958,-0.0447,0.8812,-6.05,8.56,0.09,23.54
20299,0.1799,-0.0535,0.8834,-6.11,10.47,-0.03,23.54
20309,0.2323,-0.0393,0.842,-6.06,5.28,0.02,23.55
20319,0.1831,-0.0317,0.9108,-6.2,7.08,-0.05,23.54
20329,0.2229,-0.0438,0.9016,-6.11,9.1,0.03,23.55
20339,0.2372,-0.0347,0.902,-6.08,6.46,-0.05,23.55
20349,0.2058,-0.0366,0.907,-6.09,7.71,-0.06,23.56
20359,0.2007,-0.0393,0.913,-6.05,8.55,-0.08,23.57
20369,0.2198,-0.0415,0.8773,-6.09,8.55,-0.08,23.55
20379,0.2134,-0.0419,0.8724,-6.15,7.05,-0.06,23.56
20389,0.1997,-0.0422,0.876,-6.03,8.18,-0.03,23.54
20399,0.21,-0.0366,0.8695,-6.14,7.25,-0.11,23.56
20409,0.2047,-0.0339,0.8857,-6.11,7.24,0.0,23.55
20419,0.2086,-0.0378,0.9008,-6.09,7.3,-0.09,23.57
20429,0.2094,-0.0358,0.9082,-6.15,8.05,0.03,23.57
20439,0.2227,-0.0427,0.9011,-6.12,7.94,0.05,23.56
20450,0.2198,-0.0406,0.9,-6.18,7.16,-0.09,23.55
20460,0.1979,-0.0426,0.9005,-6.14,8.64,-0.03,23.56
20470,0.2147,-0.0402,0.8705,-6.18,8.7,-0.02,23.55
20480,0.2125,-0.0466,0.8573,-5.97,7.28,-0.11,23.57
20490,0.1978,-0.0453,0.8658,-6.0,7.71,-0.11,23.56
20500,0.2107,-0.037,0.87,-6.08,7.44,-0.02,23.55
20510,0.2129,-0.035,0.8824,-6.09,7.04,-0.08,23.54
20520,0.209,-0.03,0.901,-6.05,7.44,0.0,23.56
20530,0.2084,-0.0319,0.9117,-6.11,8.2,0.03,23.57
20540,0.2217,-0.0336,0.9043,-6.24,7.74,-0.02,23.56
20550,0.2162,-0.0334,0.9059,-6.23,7.57,-0.06,23.55
20560,0.2106,-0.0392,0.9033,-6.17,8.44,-0.05,23.55
20570,0.212,-0.0393,0.8898,-6.18,8.15,-0.06,23.53
20580,0.2056,-0.0394,0.8796,-6.12,8.43,-0.09,23.58
20590,0.2131,-0.0438,0.8599,-6.12,7.82,-0.08,23.57
20600,0.2106,-0.0422,0.8607,-6.2,6.67,0.05,23.57
20610,0.1948,-0.0377,0.8865,-6.14,7.98,-0.06,23.57
20620,0.2146,-0.0369,0.882,-6.15,7.74,0.0,23.56
20630,0.2155,-0.0352,0.8984,-6.12,7.11,-0.08,23.57
20640,0.2112,-0.0378,0.9143,-6.18,7.85,-0.12,23.58
20650,0.2142,-0.0388,0.9038,-6.14,8.7,-0.08,23.59
20660,0.2217,-0.0386,0.8876,-6.12,8.06,-0.12,23.56
20670,0.2168,-0.0382,0.8945,-6.24,7.77,-0.11,23.56
20680,0.2095,-0.0448,0.8767,-6.05,8.47,-0.03,23.57
20690,0.219,-0.0382,0.8605,-6.06,7.31,0.0,23.56
20700,0.2054,-0.0396,0.8708,-6.11,6.89,-0.08,23.56
20710,0.2014,-0.0382,0.8861,-6.0,7.42,-0.02,23.57
20720,0.2129,-0.0349,0.8986,-6.02,7.33,-0.06,23.59
20730,0.2094,-0.0363,0.9054,-6.09,7.48,-0.02,23.58
20740,0.2161,-0.0408,0.9004,-6.14,7.82,-0.05,23.55
20750,0.2041,-0.0424,0.8988,-6.12,8.26,-0.03,23.55
20760,0.2128,-0.041,0.8815,-6.08,8.32,0.03,23.56
20770,0.2122,-0.0404,0.8738,-6.09,7.54,-0.09,23.57
20780,0.2034,-0.0463,0.8831,-6.09,8.5,-0.08,23.55
20790,0.2133,-0.0438,0.8759,-6.08,8.72,0.02,23.57
20800,0.2052,-0.0402,0.8748,-6.03,6.6,-0.05,23.56
20810,0.1971,-0.0377,0.8979,-6.11,8.14,-0.05,23.54
20820,0.2152,-0.0369,0.8856,-6.08,7.8,-0.09,23.57
20830,0.2136,-0.0359,0.8939,-6.17,7.15,0.0,23.57
20840,0.1991,-0.0365,0.9082,-6.09,8.27,0.03,23.58
20850,0.2194,-0.0383,0.8962,-6.14,8.29,-0.09,23.58
20860,0.2222,-0.0386,0.8884,-6.14,7.33,-0.09,23.56
20870,0.2083,-0.0425,0.8978,-6.09,7.86,0.02,23.57
20880,0.2028,-0.0409,0.8927,-6.15,8.56,-0.06,23.57
20890,0.2146,-0.0425,0.8748,-5.95,8.75,-0.05,23.57
20900,0.222,-0.0405,0.8573,-6.15,6.72,-0.05,23.57
20911,0.208,-0.0424,0.8698,-5.97,7.05,0.0,23.57
20921,0.2001,-0.0448,0.8755,-6.15,7.71,-0.08,23.57
20931,0.2079,-0.0414,0.8779,-6.12,7.73,0.02,23.55
20941,0.2151,-0.0389,0.8873,-6.15,7.07,0.03,23.59
20951,0.2017,-0.0376,0.9047,-6.11,7.88,0.03,23.57
20961,0.2097,-0.0374,0.899,-6.2,8.23,-0.02,23.58
20971,0.2144,-0.0366,0.8916,-6.09,7.73,-0.02,23.59
20981,0.215,-0.0432,0.8896,-6.17,7.85,0.05,23.56
20991,0.2053,-0.0419,0.8933,-6.15,8.09,-0.11,23.59
21001,0.2108,-0.0448,0.8834,-5.97,8.61,-0.03,23.58
21011,0.2142,-0.0408,0.8668,-6.14,7.36,-0.08,23.59
21021,0.205,-0.0422,0.8698,-6.05,7.34,-0.06,23.57
21031,0.202,-0.0372,0.8821,-6.02,7.39,-0.11,23.59
21041,0.2084,-0.04,0.8917,-6.08,7.79,-0.05,23.62
21051,0.2083,-0.0387,0.8899,-6.05,7.71,-0.08,23.6
21061,0.2167,-0.0392,0.9014,-6.12,7.45,-0.09,23.57
21071,0.2134,-0.0393,0.9121,-6.09,8.05,-0.02,23.57
21081,0.2163,-0.0427,0.9028,-6.08,8.02,-0.06,23.57
21091,0.2063,-0.0426,0.8926,-6.08,8.14,-0.02,23.59
21101,0.1997,-0.0424,0.8754,-6.03,8.95,0.0,23.58
21111,0.2198,-0.0422,0.8522,-6.05,7.33,-0.06,23.58
21121,0.2014,-0.0386,0.87,-6.0,6.66,-0.02,23.58
21131,0.1984,-0.0402,0.8903,-6.0,8.21,-0.06,23.56
21141,0.2173,-0.0388,0.8889,-6.11,7.39,-0.03,23.59
21151,0.2155,-0.0388,0.9022,-6.17,7.08,-0.08,23.6
21161,0.2057,-0.0398,0.9169,-6.23,8.29,-0.02,23.59
21171,0.2179,-0.0408,0.8975,-6.2,8.11,0.0,23.58
21181,0.2107,-0.0464,0.8838,-6.14,7.92,-0.05,23.58
21191,0.1985,-0.0466,0.8772,-6.06,8.75,-0.08,23.57
21201,0.2162,-0.0421,0.8527,-6.0,7.79,-0.05,23.6
21211,0.2063,-0.0437,0.8633,-6.11,6.43,-0.03,23.6
21221,0.1904,-0.0372,0.8934,-6.11,8.03,-0.05,23.56
21231,0.2196,-0.0359,0.8871,-6.15,7.56,-0.09,23.58
21241,0.2174,-0.0382,0.9054,-6.11,6.92,0.02,23.58
21251,0.2091,-0.0409,0.921,-6.12,8.4,-0.05,23.56
21261,0.2146,-0.0396,0.9022,-6.23,8.56,-0.05,23.57
21271,0.2124,-0.042,0.8845,-6.18,8.58,-0.11,23.57
21281,0.2167,-0.0416,0.8638,-6.05,7.63,-0.12,23.59
21291,0.2056,-0.0416,0.8662,-6.05,7.51,-0.08,23.59
21301,0.2,-0.038,0.8781,-6.08,7.47,0.02,23.58
21311,0.2048,-0.0349,0.8834,-6.17,8.03,-0.02,23.57
21321,0.2217,-0.0375,0.8945,-6.14,7.05,0.03,23.58
21332,0.214,-0.0405,0.905,-6.06,7.1,-0.03,23.58
21342,0.2048,-0.038,0.9122,-6.18,7.91,-0.05,23.58
21352,0.2208,-0.0394,0.8966,-6.2,7.92,-0.03,23.6
21362,0.2073,-0.0409,0.8932,-6.11,8.24,-0.09,23.57
21372,0.2078,-0.0422,0.876,-6.06,8.08,-0.03,23.57
21382,0.2083,-0.0404,0.8649,-6.03,7.48,-0.06,23.59
21392,0.2153,-0.0403,0.877,-6.08,7.21,-0.06,23.59
21402,0.2074,-0.0387,0.8839,-6.08,6.9,-0.02,23.6
21412,0.212,-0.0419,0.8947,-6.14,8.32,-0.05,23.58
21423,0.2188,-0.0388,0.8934,-6.18,7.34,-0.05,23.58
21433,0.2109,-0.04,0.9048,-6.2,7.82,-0.08,23.59
21443,0.209,-0.041,0.8906,-6.06,8.47,0.0,23.59
21453,0.2107,-0.0399,0.8809,-6.12,8.08,0.05,23.61
21463,0.2133,-0.0389,0.8739,-6.02,7.68,-0.02,23.59
21473,0.2095,-0.0388,0.8759,-6.0,7.59,0.02,23.59
21483,0.2113,-0.0387,0.8781,-6.11,7.59,0.02,23.58
21493,0.2062,-0.0385,0.8916,-6.17,7.8,0.03,23.57
21503,0.2142,-0.0365,0.8949,-6.2,8.06,0.0,23.58
21513,0.219,-0.0381,0.8939,-6.12,7.22,-0.11,23.58
21523,0.2098,-0.0394,0.8933,-6.14,7.39,0.0,23.57
21533,0.2114,-0.04,0.8806,-6.05,8.26,-0.05,23.58
21543,0.2142,-0.0391,0.8771,-6.18,7.66,-0.08,23.57
21553,0.2101,-0.0405,0.8807,-6.11,7.4,-0.06,23.6
21563,0.2089,-0.0388,0.8871,-6.11,7.57,0.0,23.58
21573,0.2079,-0.0408,0.8926,-6.06,7.76,-0.03,23.58
21583,0.2074,-0.0408,0.8933,-6.11,8.08,-0.14,23.59
21593,0.2145,-0.0408,0.8813,-6.05,8.02,-0.08,23.58
21603,0.2112,-0.037,0.8785,-6.24,7.44,-0.08,23.59
21613,0.2104,-0.038,0.8812,-6.21,7.69,-0.05,23.61
21623,0.2161,-0.0403,0.8743,-6.14,7.27,-0.08,23.59
21633,0.2015,-0.0365,0.9016,-6.08,8.24,-0.08,23.59
21643,0.2203,-0.0411,0.8933,-6.12,8.27,-0.08,23.59
21653,0.222,-0.0402,0.8872,-6.02,6.72,-0.06,23.58
21663,0.1923,-0.0417,0.9054,-6.14,8.38,-0.03,23.6
21673,0.2167,-0.0403,0.8705,-6.06,8.92,-0.12,23.6
21683,0.2223,-0.0403,0.8676,-6.06,6.56,-0.11,23.61
21693,0.2115,-0.0371,0.874,-6.0,6.5,-0.12,23.6
21703,0.197,-0.0397,0.9005,-6.08,8.29,-0.06,23.58
21713,0.2188,-0.0403,0.8856,-6.09,8.23,-0.03,23.58
21723,0.2206,-0.0397,0.8878,-6.09,6.89,-0.06,23.62
21733,0.1993,-0.0398,0.8937,-6.09,7.66,-0.12,23.59
21743,0.207,-0.041,0.8884,-6.15,9.01,-0.09,23.6
21753,0.2205,-0.0382,0.8701,-6.06,7.05,-0.05,23.58
21763,0.2056,-0.0422,0.8923,-6.09,7.19,-0.09,23.6
21773,0.1995,-0.0427,0.9026,-6.14,8.64,-0.06,23.6
21783,0.2177,-0.0393,0.886,-6.14,8.27,-0.05,23.6
21793,0.2191,-0.0399,0.8828,-6.02,7.21,-0.02,23.59
21803,0.1993,-0.0438,0.8912,-6.09,7.97,-0.06,23.6
21813,0.209,-0.0413,0.8735,-6.18,8.58,-0.06,23.58
21823,0.2184,-0.0404,0.8667,-6.14,6.56,-0.03,23.58
21833,0.2045,-0.0405,0.8949,-5.94,7.37,-0.09,23.59
21843,0.2081,-0.0387,0.9008,-6.09,8.03,-0.02,23.59
21853,0.2183,-0.0388,0.895,-6.06,8.09,-0.03,23.58
21863,0.2172,-0.0422,0.8903,-6.14,7.19,-0.02,23.6
21873,0.1984,-0.0402,0.8911,-6.11,8.35,-0.03,23.58
21883,0.2163,-0.0375,0.8676,-6.15,7.89,-0.05,23.59
21893,0.2056,-0.0348,0.8767,-6.06,6.95,-0.11,23.58
21903,0.2041,-0.04,0.8898,-6.09,7.69,-0.11,23.57
21913,0.2073,-0.0406,0.891,-6.2,7.69,-0.08,23.57
21923,0.2139,-0.0367,0.8953,-6.14,7.48,-0.06,23.59
21933,0.2148,-0.0431,0.9023,-6.08,7.62,-0.06,23.58
21943,0.2117,-0.0408,0.9026,-5.98,7.83,0.0,23.59
21953,0.2128,-0.0419,0.8787,-6.18,8.66,-0.03,23.58
21963,0.2201,-0.0442,0.8589,-6.15,6.58,-0.06,23.57
21973,0.1947,-0.0376,0.8821,-6.11,7.76,-0.02,23.58
21983,0.2137,-0.0378,0.8833,-6.09,7.91,-0.05,23.59
21993,0.2142,-0.0409,0.8983,-6.08,7.15,0.02,23.57
22003,0.223,-0.0392,0.9001,-6.0,7.73,-0.02,23.58
22013,0.2125,-0.0387,0.906,-6.17,7.73,-0.05,23.57
22023,0.2051,-0.0381,0.891,-6.18,9.04,-0.08,23.56
22033,0.2238,-0.0402,0.866,-6.05,7.62,0.03,23.62
22043,0.2063,-0.0393,0.877,-6.11,7.24,-0.11,23.59
22053,0.2075,-0.0383,0.8813,-6.08,7.74,-0.03,23.6
22063,0.2101,-0.0367,0.8832,-6.05,7.36,0.0,23.62
22073,0.2039,-0.0381,0.8988,-6.12,7.91,0.0,23.59
22083,0.2141,-0.0353,0.8939,-6.11,8.31,-0.05,23.57
22093,0.2188,-0.0408,0.8904,-6.15,7.45,0.0,23.6
22103,0.2021,-0.0424,0.8929,-6.05,7.86,0.05,23.59
22113,0.2021,-0.0398,0.8807,-6.09,8.75,-0.06,23.61
22123,0.2212,-0.0376,0.8707,-6.09,7.48,0.06,23.6
22133,0.2025,-0.036,0.8864,-6.12,6.84,0.0,23.6
22143,0.213,-0.0413,0.8994,-6.11,8.46,-0.09,23.59
22153,0.2219,-0.0403,0.8889,-6.14,7.53,-0.03,23.61
22163,0.2128,-0.0427,0.8977,-6.15,7.91,-0.06,23.61
22173,0.2067,-0.0389,0.8909,-6.15,8.47,0.03,23.61
22183,0.2167,-0.0466,0.877,-6.12,7.65,-0.03,23.61
22193,0.2039,-0.042,0.8773,-6.09,7.51,-0.03,23.6
22203,0.2052,-0.0415,0.8759,-6.09,8.46,0.02,23.62
22213,0.2125,-0.0378,0.8701,-6.14,7.04,-0.09,23.6
22223,0.2039,-0.0386,0.896,-6.08,7.56,-0.06,23.63
22233,0.2126,-0.0378,0.9036,-6.23,7.62,0.0,23.6
22243,0.2172,-0.0397,0.9048,-6.14,8.29,-0.03,23.61
22253,0.2203,-0.0408,0.8943,-6.2,7.68,-0.05,23.62
22263,0.2052,-0.0403,0.8906,-6.08,8.24,-0.03,23.59
22273,0.2168,-0.042,0.8755,-6.15,8.27,-0.12,23.61
22283,0.2131,-0.0402,0.8663,-6.0,7.18,-0.03,23.6
22293,0.2037,-0.0414,0.8663,-6.17,7.45,-0.05,23.57
22303,0.2025,-0.0392,0.8778,-6.09,7.82,-0.02,23.59
22313,0.2137,-0.0386,0.8793,-6.03,7.3,0.02,23.62
22323,0.2147,-0.038,0.885,-6.14,7.1,0.0,23.6
22333,0.2059,-0.0372,0.9047,-6.15,7.36,-0.11,23.61
22343,0.2158,-0.0396,0.8973,-6.08,8.21,-0.08,23.6
22353,0.223,-0.0382,0.8999,-6.27,7.79,-0.03,23.59
22363,0.2172,-0.0387,0.8979,-6.08,7.8,-0.05,23.6
22373,0.2122,-0.0417,0.89,-6.18,8.03,-0.03,23.62
22383,0.2006,-0.0415,0.8877,-6.14,8.53,0.0,23.62
22393,0.2104,-0.0417,0.8672,-6.11,8.18,-0.06,23.61
22403,0.2151,-0.0438,0.8621,-5.97,6.81,-0.06,23.59
22413,0.2024,-0.0406,0.8906,-6.12,7.18,-0.06,23.6
22423,0.2092,-0.0394,0.8895,-6.08,8.12,-0.08,23.59
22433,0.218,-0.0369,0.8844,-6.12,7.18,-0.06,23.59
22443,0.1969,-0.0349,0.9012,-6.06,7.77,-0.03,23.62
22453,0.2104,-0.0394,0.8876,-6.0,8.79,0.03,23.6
22463,0.2247,-0.0355,0.8793,-6.09,6.85,-0.14,23.6
22473,0.1995,-0.04,0.9031,-6.12,7.54,-0.08,23.6
22483,0.2084,-0.0431,0.9032,-6.2,8.29,0.0,23.62
22493,0.2096,-0.0392,0.8993,-6.05,8.32,-0.09,23.63
22503,0.2216,-0.0408,0.8859,-6.05,8.09,0.02,23.64
22513,0.2163,-0.0396,0.8796,-6.26,7.34,-0.08,23.61
22523,0.2003,-0.0406,0.8856,-6.14,8.12,0.0,23.62
22533,0.2069,-0.0409,0.8713,-6.02,8.27,-0.05,23.6
22544,0.2111,-0.0386,0.8661,-6.09,7.73,-0.08,23.62
22554,0.2131,-0.0387,0.8673,-6.09,6.79,0.06,23.62
22564,0.2041,-0.0355,0.8896,-6.08,6.78,-0.05,23.61
22574,0.1958,-0.0408,0.9138,-6.18,8.69,-0.02,23.59
22584,0.231,-0.0449,0.9055,-6.2,8.02,-0.02,23.6
22594,0.2186,-0.0408,0.9059,-6.15,7.01,-0.11,23.61
22604,0.1998,-0.042,0.9087,-6.17,9.16,-0.08,23.62
22614,0.2177,-0.0432,0.8756,-6.2,8.52,0.06,23.62
22624,0.2108,-0.0433,0.8645,-6.11,7.37,-0.05,23.6
22634,0.1973,-0.0402,0.8712,-6.0,8.29,-0.03,23.62
22644,0.2034,-0.0411,0.8658,-5.95,8.52,0.0,23.62
22654,0.2112,-0.0388,0.8694,-6.14,6.32,-0.03,23.61
22664,0.1987,-0.0342,0.8989,-6.15,7.08,-0.09,23.6
22674,0.1981,-0.036,0.9004,-6.12,7.47,-0.09,23.63
22684,0.22,-0.0387,0.9067,-6.29,7.97,-0.06,23.61
22694,0.2206,-0.0374,0.8956,-6.21,7.54,-0.06,23.6
22704,0.2073,-0.04,0.9014,-6.18,8.38,-0.05,23.59
22714,0.2119,-0.0374,0.8838,-6.26,8.27,-0.03,23.6
22724,0.2139,-0.0443,0.8782,-6.06,8.03,-0.03,23.61
22734,0.2117,-0.0444,0.8762,-6.02,7.39,-0.09,23.59
22744,0.205,-0.0422,0.8865,-6.08,8.03,-0.02,23.6
22754,0.2089,-0.041,0.8828,-6.09,8.31,0.05,23.6
22764,0.224,-0.041,0.8729,-6.17,7.25,-0.02,23.62
22774,0.2069,-0.038,0.8855,-6.06,7.19,-0.03,23.62
22784,0.1978,-0.0383,0.8864,-6.15,8.58,-0.05,23.59
22794,0.2069,-0.0382,0.876,-6.12,8.53,0.03,23.6
22804,0.2137,-0.0369,0.8867,-6.15,6.7,-0.09,23.61
22814,0.2017,-0.0386,0.9031,-6.17,7.94,0.02,23.61
22824,0.2128,-0.0369,0.8949,-6.17,8.26,-0.11,23.64
22834,0.2168,-0.0396,0.8944,-6.03,7.69,-0.06,23.64
22844,0.2119,-0.0421,0.891,-6.14,7.69,-0.12,23.62
22854,0.2167,-0.0382,0.8889,-6.2,7.71,-0.08,23.59
22864,0.2072,-0.038,0.8896,-6.18,8.21,-0.03,23.61
22874,0.2217,-0.0457,0.8728,-5.97,7.5,-0.06,23.61
22884,0.2059,-0.0436,0.8898,-5.98,7.4,-0.05,23.62
22894,0.2048,-0.0408,0.8833,-6.0,8.49,-0.09,23.61
22904,0.2174,-0.0398,0.8693,-6.11,7.36,-0.09,23.6
22914,0.2125,-0.0392,0.8755,-6.03,7.07,-0.08,23.61
22924,0.212,-0.0397,0.8827,-6.06,7.77,-0.08,23.6
22934,0.2128,-0.0416,0.8828,-6.08,7.1,0.03,23.62
22944,0.2012,-0.0399,0.89,-6.17,7.6,-0.08,23.61
22954,0.207,-0.0336,0.8867,-6.2,8.41,-0.06,23.61
22964,0.2179,-0.0408,0.887,-6.17,7.02,-0.06,23.6
22974,0.2076,-0.0413,0.8918,-5.98,7.22,-0.09,23.63
22984,0.2118,-0.0415,0.9092,-6.14,8.32,-0.02,23.63
22994,0.2054,-0.038,0.9006,-6.14,8.2,-0.05,23.63
23004,0.2219,-0.0411,0.8904,-6.17,7.77,0.06,23.6
23014,0.22,-0.0419,0.8918,-6.2,7.68,-0.08,23.62
23024,0.2081,-0.0436,0.8955,-6.23,8.27,-0.12,23.62
23034,0.2103,-0.0441,0.884,-6.15,8.43,-0.05,23.6
23044,0.2161,-0.041,0.8738,-6.11,7.76,-0.09,23.64
23054,0.2155,-0.0417,0.8674,-6.06,7.16,-0.12,23.61
23064,0.2059,-0.0424,0.8834,-6.11,7.6,-0.03,23.63
23074,0.2087,-0.0376,0.8726,-6.11,7.69,0.06,23.62
23084,0.2136,-0.0385,0.8805,-5.95,7.27,-0.05,23.61
23094,0.2052,-0.0398,0.8907,-5.95,7.15,-0.08,23.62
23104,0.2034,-0.037,0.8966,-5.98,8.17,0.0,23.61
23114,0.2155,-0.0369,0.8788,-6.02,7.56,0.08,23.62
23124,0.2081,-0.0422,0.8966,-6.06,7.16,-0.08,23.63
23134,0.1998,-0.0402,0.8977,-6.03,8.38,-0.11,23.63
23144,0.218,-0.0399,0.8849,-6.09,7.8,-0.09,23.62
23155,0.2173,-0.0381,0.8862,-6.2,7.47,-0.03,23.61
23165,0.2144,-0.04,0.8951,-6.18,7.6,-0.05,23.61
23175,0.2123,-0.041,0.897,-6.09,8.17,-0.15,23.62
23185,0.2139,-0.0382,0.8804,-6.17,8.05,-0.06,23.63
23195,0.208,-0.0381,0.8784,-6.08,7.59,-0.09,23.59
23205,0.2039,-0.0405,0.8807,-6.14,7.92,0.02,23.59
23215,0.2085,-0.0369,0.8818,-6.08,7.76,-0.03,23.61
23225,0.2103,-0.0381,0.8845,-6.06,7.57,-0.06,23.62
23235,0.209,-0.0389,0.8872,-6.12,7.54,-0.05,23.64
23245,0.2085,-0.0372,0.8923,-6.14,7.4,-0.02,23.63
23255,0.208,-0.037,0.8912,-6.14,7.92,-0.05,23.65
23265,0.2118,-0.0363,0.8906,-6.23,7.69,-0.09,23.63
23275,0.2106,-0.0415,0.8992,-6.17,7.71,-0.08,23.64
23285,0.2094,-0.0411,0.9015,-6.15,8.38,-0.06,23.63
23295,0.2175,-0.0381,0.8881,-6.17,8.02,-0.05,23.61
23305,0.2168,-0.0419,0.8929,-6.24,7.86,-0.06,23.61
23315,0.215,-0.0422,0.8866,-6.15,8.21,-0.11,23.62
23325,0.2229,-0.0413,0.8776,-6.17,7.59,-0.08,23.62
23335,0.2048,-0.0414,0.8853,-6.12,7.91,-0.08,23.6
23345,0.2141,-0.0411,0.8813,-6.17,8.18,-0.05,23.6
23355,0.2164,-0.0387,0.8809,-6.17,7.02,-0.05,23.62
23365,0.2047,-0.0413,0.8921,-6.11,7.86,-0.06,23.6
23375,0.2043,-0.0398,0.8831,-6.17,7.97,0.0,23.62
23385,0.2102,-0.0352,0.8739,-6.09,7.53,-0.02,23.62
23395,0.2035,-0.0378,0.8824,-6.12,7.22,0.05,23.62
23405,0.2003,-0.04,0.8888,-6.12,8.32,0.06,23.62
23415,0.219,-0.0408,0.8756,-6.08,7.21,-0.02,23.61
23425,0.202,-0.0396,0.8959,-6.15,6.99,-0.06,23.6
23435,0.2025,-0.0381,0.8951,-6.15,8.72,0.03,23.61
23445,0.2227,-0.0404,0.8862,-6.12,7.66,0.0,23.63
23455,0.2131,-0.041,0.8899,-6.14,7.57,-0.09,23.64
23465,0.2153,-0.0424,0.9006,-6.11,8.27,-0.09,23.62
23475,0.2177,-0.0406,0.8864,-6.21,7.74,-0.02,23.61
23485,0.2091,-0.0422,0.89,-6.14,7.74,-0.05,23.64
23495,0.2042,-0.0385,0.8901,-6.14,8.18,0.0,23.63
23505,0.2089,-0.0422,0.8827,-6.2,8.7,-0.03,23.64
23515,0.2224,-0.0403,0.874,-6.12,7.66,0.02,23.62
23525,0.1978,-0.0421,0.9023,-6.11,7.91,-0.12,23.63
23535,0.2159,-0.0402,0.885,-6.18,8.35,-0.02,23.62
23545,0.2092,-0.04,0.8817,-6.09,7.47,-0.03,23.62
23555,0.2089,-0.0417,0.8809,-6.09,8.44,0.02,23.64
23565,0.218,-0.0398,0.8716,-6.12,7.94,-0.05,23.63
23575,0.2072,-0.0428,0.88,-6.08,7.25,-0.09,23.62
23585,0.2092,-0.0397,0.8879,-6.11,8.03,-0.06,23.64
23595,0.2151,-0.0437,0.8918,-6.14,7.22,-0.03,23.66
23605,0.2081,-0.0438,0.8969,-6.14,7.57,-0.05,23.64
23615,0.2059,-0.0359,0.8938,-6.12,8.27,0.0,23.63
23625,0.2181,-0.0394,0.8859,-6.24,7.57,-0.05,23.62
23635,0.2102,-0.0364,0.8948,-6.15,7.33,-0.06,23.62
23645,0.2062,-0.0413,0.9016,-6.2,8.52,0.02,23.64
23655,0.2114,-0.0414,0.8959,-6.12,8.49,-0.08,23.62
23666,0.214,-0.0405,0.8947,-6.27,8.2,-0.05,23.63
23676,0.2173,-0.0389,0.8887,-6.26,7.63,-0.06,23.62
23686,0.2144,-0.0396,0.8879,-6.08,7.85,0.0,23.62
23696,0.2155,-0.0448,0.8822,-6.06,7.76,0.0,23.63
23706,0.2101,-0.0437,0.8872,-6.03,8.11,-0.02,23.64
23716,0.2137,-0.041,0.8772,-6.05,7.79,-0.02,23.61
23726,0.1998,-0.042,0.8776,-6.09,7.89,-0.05,23.62
23736,0.2101,-0.0436,0.8752,-6.0,7.79,-0.03,23.64
23746,0.2135,-0.0404,0.8798,-6.02,7.39,-0.02,23.61
23756,0.2128,-0.0392,0.8878,-6.14,7.33,-0.05,23.62
23767,0.2064,-0.0365,0.8939,-6.0,7.48,0.09,23.62
23777,0.2023,-0.0383,0.899,-6.14,8.43,-0.08,23.63
23787,0.2244,-0.0349,0.8801,-6.02,7.57,-0.06,23.63
23797,0.2111,-0.0381,0.8936,-6.09,6.96,0.03,23.62
23807,0.2037,-0.0366,0.8988,-6.09,8.27,-0.03,23.61
23817,0.2119,-0.0399,0.8888,-6.12,8.66,-0.08,23.61
23827,0.2264,-0.042,0.8816,-6.11,6.82,-0.05,23.61
23837,0.196,-0.0404,0.9025,-6.09,8.11,-0.06,23.62
23847,0.2141,-0.0402,0.8832,-6.12,8.7,-0.08,23.61
23857,0.2219,-0.0415,0.8676,-6.03,6.73,-0.02,23.62
23867,0.1964,-0.0422,0.8962,-6.17,7.71,0.03,23.63
23877,0.2098,-0.0417,0.8906,-6.15,8.58,-0.03,23.61
23887,0.2201,-0.0426,0.8817,-6.02,7.37,-0.02,23.61
23897,0.2036,-0.0417,0.8972,-6.12,7.44,-0.02,23.62
23907,0.2037,-0.0438,0.8921,-6.15,8.73,-0.06,23.62
23917,0.2144,-0.043,0.8701,-6.14,7.6,-0.06,23.61
23927,0.2008,-0.0414,0.8763,-6.12,7.56,-0.08,23.63
23937,0.2098,-0.0388,0.8711,-6.05,7.69,-0.03,23.62
23947,0.215,-0.0352,0.8787,-6.03,6.96,-0.06,23.62
23957,0.209,-0.0361,0.9037,-6.08,7.21,-0.09,23.64
23967,0.2126,-0.0354,0.912,-6.2,8.11,-0.03,23.61
23977,0.2164,-0.0358,0.9126,-6.18,7.85,-0.14,23.6
23987,0.2112,-0.038,0.9056,-6.15,8.49,-0.12,23.64
23997,0.212,-0.037,0.8934,-6.15,8.79,-0.06,23.64
24007,0.2261,-0.0383,0.8713,-6.18,7.1,-0.11,23.62
24017,0.1976,-0.037,0.8923,-6.09,7.69,0.03,23.63
24027,0.2047,-0.04,0.8909,-6.17,8.99,-0.08,23.61
24037,0.2238,-0.0383,0.8677,-6.26,7.39,-0.08,23.61
24047,0.205,-0.0417,0.8867,-6.09,7.36,-0.15,23.62
24057,0.205,-0.0425,0.8811,-6.18,8.58,-0.02,23.63
24067,0.2148,-0.045,0.8716,-6.15,7.4,-0.05,23.61
24077,0.2152,-0.0433,0.8667,-6.03,7.1,0.0,23.62
24087,0.2009,-0.0414,0.8782,-6.05,7.25,0.0,23.63
24097,0.196,-0.0365,0.8965,-6.06,8.09,-0.12,23.62
24107,0.2133,-0.0394,0.8965,-6.11,8.02,-0.08,23.62
24117,0.2194,-0.0382,0.901,-6.17,7.4,-0.06,23.61
24127,0.2126,-0.0356,0.9117,-6.18,8.09,-0.05,23.64
24137,0.2125,-0.0391,0.9047,-6.14,8.53,-0.08,23.65
24147,0.2147,-0.0408,0.8838,-6.14,8.5,0.05,23.63
24157,0.2174,-0.0444,0.8755,-6.08,7.5,-0.03,23.64
24167,0.2031,-0.0405,0.8774,-6.11,7.79,-0.09,23.63
24177,0.2131,-0.0439,0.8707,-6.09,7.85,-0.03,23.62
24187,0.2084,-0.04,0.8833,-6.08,7.11,-0.11,23.6
24197,0.2129,-0.0417,0.8861,-6.09,7.51,0.02,23.63
24207,0.2084,-0.0389,0.8916,-6.08,7.39,-0.02,23.62
24217,0.2017,-0.036,0.8965,-6.21,8.67,-0.08,23.62
24227,0.2278,-0.0397,0.8806,-6.08,7.63,-0.02,23.63
24237,0.2169,-0.0382,0.9025,-6.14,6.72,-0.09,23.64
24247,0.2095,-0.0341,0.9149,-6.2,8.82,-0.06,23.63
24257,0.2317,-0.037,0.8864,-6.21,8.09,-0.08,23.62
24267,0.2195,-0.0417,0.8895,-6.2,7.21,0.0,23.64
24277,0.1973,-0.0411,0.8947,-6.2,8.93,-0.08,23.64
24287,0.1981,-0.0446,0.8807,-6.2,9.36,-0.08,23.61
24297,0.2228,-0.0428,0.8479,-6.14,6.79,0.0,23.64
24307,0.2051,-0.0406,0.8549,-6.12,7.28,-0.06,23.63
24317,0.2035,-0.0458,0.86,-6.11,7.57,0.05,23.61
24327,0.1918,-0.0369,0.9015,-6.18,7.02,0.05,23.63
24337,0.182,-0.036,0.9275,-6.17,9.3,0.12,23.62
24347,0.2352,-0.0348,0.8827,-6.08,7.04,0.03,23.66
24357,0.1953,-0.0375,0.9091,-6.12,7.24,-0.11,23.65
24367,0.199,-0.0378,0.9072,-6.15,10.09,-0.17,23.67
24377,0.2352,-0.0376,0.8673,-6.06,6.87,-0.11,23.62
24387,0.2001,-0.0444,0.8929,-6.14,7.24,-0.15,23.61
24397,0.2029,-0.0435,0.8862,-6.2,8.89,-0.08,23.63
24407,0.2296,-0.0431,0.8606,-6.11,6.6,-0.06,23.63
24417,0.1993,-0.0437,0.9038,-6.08,6.7,-0.12,23.61
24427,0.2072,-0.0431,0.9077,-6.05,9.07,-0.11,23.62
24437,0.2329,-0.0375,0.8802,-6.12,7.39,0.05,23.62
24447,0.2081,-0.0344,0.8826,-5.95,7.48,-0.12,23.63
24457,0.2106,-0.0316,0.8796,-6.09,8.64,0.03,23.64
24467,0.218,-0.0309,0.8672,-6.18,7.36,-0.08,23.64
24477,0.2139,-0.035,0.8899,-6.12,7.1,-0.08,23.65
24488,0.2021,-0.0468,0.8961,-6.18,7.74,-0.05,23.65
24499,0.2032,-0.0508,0.8853,-6.09,8.03,-0.06,23.65
24509,0.2074,-0.0413,0.8698,-5.97,7.86,-0.02,23.63
24519,0.2137,-0.0262,0.8624,-6.06,6.64,0.06,23.63
24529,0.1985,-0.0396,0.8936,-6.12,7.8,-0.09,23.65
24539,0.2186,-0.0297,0.8771,-6.06,8.44,-0.08,23.62
24549,0.2244,-0.0344,0.8785,-6.21,7.01,-0.08,23.65
24559,0.2056,-0.0383,0.9098,-6.09,8.17,0.03,23.62
24569,0.2284,-0.0396,0.905,-6.2,8.4,-0.06,23.62
24579,0.2303,-0.0503,0.9032,-6.18,6.78,-0.09,23.62
24589,0.213,-0.0513,0.9208,-6.09,7.94,0.0,23.62
24599,0.2111,-0.0443,0.9033,-6.09,8.63,0.0,23.63
24609,0.2101,-0.0399,0.8755,-6.05,8.23,0.06,23.64
24619,0.1964,-0.0387,0.868,-6.05,7.73,0.03,23.64
24629,0.1882,-0.0343,0.8649,-6.17,8.35,-0.06,23.65
24639,0.2086,-0.0397,0.8599,-6.02,6.95,0.03,23.62
24649,0.1936,-0.0417,0.8865,-6.09,7.19,-0.06,23.63
24659,0.2067,-0.043,0.894,-6.08,8.06,-0.08,23.64
24669,0.2081,-0.0371,0.8893,-6.11,7.76,-0.09,23.65
24679,0.2059,-0.0421,0.8864,-6.06,8.11,-0.05,23.62
24689,0.2104,-0.0408,0.8749,-6.09,7.97,-0.05,23.63
24699,0.2028,-0.0358,0.8785,-6.06,7.45,-0.02,23.61
24709,0.2078,-0.0388,0.8865,-6.11,8.05,0.02,23.63
24719,0.2239,-0.0394,0.8904,-6.09,7.28,-0.05,23.64
24729,0.2133,-0.0343,0.9188,-6.05,7.53,-0.09,23.62
24739,0.2251,-0.0361,0.9137,-6.21,8.7,-0.08,23.63
24749,0.2333,-0.0393,0.8895,-6.15,7.54,-0.21,23.62
24759,0.2068,-0.0419,0.8915,-6.06,7.57,-0.12,23.63
24769,0.1957,-0.0413,0.8817,-6.15,8.79,0.0,23.65
24779,0.2136,-0.0396,0.8623,-6.15,7.91,0.02,23.65
24790,0.2203,-0.0354,0.8555,-6.14,7.16,0.02,23.64
24800,0.2021,-0.035,0.8813,-6.12,6.99,0.0,23.63
24811,0.1981,-0.0388,0.8942,-6.08,7.68,0.0,23.63
24821,0.2139,-0.0344,0.8982,-6.17,8.41,-0.08,23.63
24831,0.2251,-0.0394,0.8944,-6.15,7.21,-0.03,23.62
24841,0.2094,-0.0468,0.9102,-6.15,7.92,-0.02,23.64
24851,0.2042,-0.0424,0.8983,-6.12,9.25,-0.02,23.64
24861,0.2261,-0.0426,0.8708,-6.11,7.48,0.02,23.63
24871,0.2106,-0.0376,0.8818,-6.15,6.35,0.0,23.66
24881,0.1917,-0.0376,0.905,-6.12,8.61,0.06,23.64
24891,0.2207,-0.0392,0.8838,-6.2,8.21,0.06,23.63
24901,0.217,-0.0343,0.8806,-6.15,6.99,-0.12,23.66
24911,0.1969,-0.0369,0.8972,-6.08,8.21,-0.02,23.61
24921,0.2111,-0.0377,0.8724,-6.12,8.44,-0.09,23.63
24931,0.2135,-0.0431,0.8713,-6.15,7.39,0.0,23.63
24941,0.2086,-0.042,0.8817,-6.09,7.6,-0.02,23.62
24951,0.2067,-0.0378,0.8947,-6.14,7.68,-0.05,23.62
24961,0.2075,-0.0381,0.9026,-6.11,8.35,-0.03,23.64
24971,0.226,-0.0367,0.8956,-6.18,7.63,-0.08,23.63
24981,0.2203,-0.0354,0.8999,-6.06,7.6,-0.08,23.64
24991,0.2029,-0.0405,0.8994,-6.15,8.32,-0.15,23.64
25001,0.2102,-0.0358,0.8817,-6.14,9.07,-0.03,23.62
25011,0.2305,-0.0387,0.8582,-6.17,6.84,0.0,23.63
25021,0.1975,-0.0447,0.8877,-6.03,6.55,-0.03,23.65
25031,0.1945,-0.0437,0.908,-6.08,9.13,-0.11,23.64
25041,0.2333,-0.0409,0.885,-6.0,7.51,-0.03,23.63
25051,0.2131,-0.0403,0.8967,-6.14,6.55,-0.08,23.62
25061,0.1902,-0.043,0.9091,-6.18,9.15,-0.09,23.66
25071,0.2152,-0.0416,0.8656,-6.06,8.82,0.0,23.65
25081,0.2207,-0.0426,0.8492,-6.17,6.23,-0.09,23.63
25091,0.1932,-0.0396,0.8823,-6.12,7.27,-0.03,23.65
25101,0.2042,-0.0406,0.8938,-6.2,8.72,0.03,23.65
25111,0.2302,-0.0377,0.8866,-6.15,6.9,-0.05,23.64
25121,0.2118,-0.0394,0.9094,-6.05,7.33,-0.03,23.62
25131,0.2122,-0.0376,0.9071,-6.15,8.35,-0.03,23.65
25141,0.2112,-0.0408,0.8914,-6.09,8.31,-0.03,23.65
25151,0.2112,-0.0438,0.8784,-6.15,7.92,-0.02,23.68
25161,0.2004,-0.0396,0.8735,-6.26,8.23,0.0,23.65
25171,0.2087,-0.0426,0.8643,-6.17,8.14,-0.05,23.65
25181,0.2188,-0.0385,0.8732,-6.2,6.15,-0.05,23.66
25191,0.1963,-0.0397,0.9124,-6.11,8.24,-0.02,23.64
25201,0.2175,-0.0386,0.8984,-6.21,8.29,-0.06,23.61
25211,0.2256,-0.0399,0.8976,-6.21,7.27,-0.03,23.64
25221,0.2174,-0.0425,0.9069,-6.2,7.6,-0.03,23.63
25231,0.2026,-0.0438,0.9017,-6.15,8.78,0.08,23.64
25241,0.2144,-0.0442,0.8713,-6.17,8.81,-0.09,23.65
25251,0.2158,-0.0436,0.8589,-6.11,6.53,0.0,23.64
25261,0.1951,-0.041,0.8763,-6.09,7.1,-0.09,23.64
25271,0.1938,-0.0388,0.8873,-6.21,8.17,0.02,23.65
25281,0.207,-0.0382,0.8812,-6.21,7.74,-0.05,23.66
25291,0.2124,-0.0416,0.8916,-6.08,7.05,-0.09,23.66
25301,0.199,-0.0394,0.9113,-6.12,8.46,-0.06,23.66
25311,0.229,-0.0408,0.8923,-6.14,7.85,0.05,23.67
25321,0.2181,-0.041,0.8977,-6.09,7.16,-0.12,23.68
25331,0.205,-0.0444,0.8925,-6.05,8.78,-0.11,23.67
25341,0.2119,-0.0441,0.8756,-6.06,8.26,-0.06,23.65
25351,0.2179,-0.0466,0.8634,-5.94,7.45,0.06,23.64
25361,0.2064,-0.0439,0.8861,-6.08,7.27,0.0,23.65
25371,0.2062,-0.0393,0.879,-6.0,7.94,-0.05,23.65
25381,0.2065,-0.0359,0.8793,-6.0,7.19,-0.05,23.65
25391,0.1958,-0.0333,0.8965,-6.08,7.94,-0.02,23.65
25401,0.2097,-0.0361,0.8846,-6.09,7.94,-0.02,23.69
25411,0.2158,-0.0411,0.886,-6.17,7.18,-0.12,23.68
25421,0.2096,-0.0444,0.8936,-6.06,7.44,-0.05,23.65
25431,0.2102,-0.0382,0.8994,-6.08,8.27,-0.11,23.66
25441,0.2175,-0.0414,0.8925,-6.06,8.61,-0.09,23.66
25451,0.2216,-0.0382,0.8923,-6.17,7.33,-0.11,23.66
25461,0.2073,-0.04,0.8933,-5.95,7.94,-0.06,23.65
25471,0.2052,-0.0446,0.8867,-6.12,8.61,-0.03,23.69
25481,0.2157,-0.0374,0.8678,-6.0,7.83,0.0,23.66
25491,0.2107,-0.0392,0.8635,-5.98,7.73,0.0,23.67
25501,0.2031,-0.0356,0.8779,-6.05,7.01,-0.03,23.7
25511,0.1985,-0.0319,0.9021,-6.09,8.24,0.03,23.67
25521,0.2128,-0.0374,0.8931,-6.12,8.23,0.0,23.67
25531,0.2151,-0.041,0.8959,-6.08,7.21,-0.05,23.68
25541,0.2073,-0.0409,0.9099,-5.98,8.11,-0.08,23.64
25551,0.2053,-0.0386,0.9111,-6.14,8.47,-0.08,23.65
25561,0.226,-0.0471,0.8928,-6.09,7.54,-0.06,23.67
25571,0.2085,-0.0452,0.8987,-6.06,8.17,-0.15,23.67
25581,0.2161,-0.0404,0.8864,-6.02,8.63,-0.05,23.65
25591,0.2295,-0.0385,0.8739,-5.97,7.63,-0.17,23.66
25601,0.2238,-0.0343,0.8761,-6.12,7.48,-0.08,23.68
25611,0.2014,-0.0372,0.8835,-6.06,7.71,-0.14,23.68
25621,0.2083,-0.0394,0.876,-6.08,7.66,0.0,23.64
25631,0.2211,-0.0302,0.8619,-6.06,9.1,-0.03,23.67
25641,0.2117,-0.0529,0.8705,-5.95,5.88,0.0,23.64
25651,0.175,-0.0317,0.9026,-6.18,9.25,-0.05,23.66
25661,0.2416,-0.0375,0.8586,-6.02,7.22,0.0,23.65
25671,0.1957,-0.0372,0.8982,-6.21,5.88,-0.02,23.65
25681,0.2029,-0.0322,0.8995,-6.15,10.27,-0.09,23.66
25691,0.2402,-0.0361,0.8694,-6.02,6.34,-0.08,23.67
25702,0.2253,-0.0404,0.8839,-5.97,6.56,-0.05,23.68
25712,0.196,-0.04,0.9108,-6.08,8.32,0.0,23.69
25722,0.2189,-0.0389,0.8885,-6.0,8.84,-0.05,23.67
25732,0.2197,-0.0385,0.8837,-5.98,7.51,0.02,23.64
25742,0.2118,-0.0356,0.8909,-6.11,7.22,-0.05,23.68
25752,0.2029,-0.0363,0.8917,-6.02,8.37,-0.09,23.63
25762,0.2179,-0.0333,0.877,-6.14,7.71,-0.09,23.67
25772,0.2036,-0.0348,0.8824,-6.06,7.4,-0.02,23.64
25782,0.1995,-0.0416,0.8827,-6.12,8.23,0.03,23.68
25792,0.2141,-0.043,0.8663,-6.0,7.54,0.0,23.69
25802,0.2056,-0.0378,0.8829,-6.08,6.7,-0.08,23.67
25813,0.2001,-0.0432,0.8842,-6.17,6.82,-0.05,23.67
25823,0.1996,-0.0367,0.8958,-6.17,8.41,-0.08,23.67
25833,0.2174,-0.0364,0.8928,-6.03,7.86,-0.09,23.67
25843,0.2166,-0.0319,0.8995,-6.17,7.27,-0.11,23.67
25853,0.2114,-0.0344,0.9021,-6.17,8.2,0.02,23.65
25863,0.2203,-0.0396,0.8931,-6.14,7.69,-0.08,23.66
25873,0.2139,-0.0449,0.8965,-6.06,8.15,-0.09,23.66
25883,0.2166,-0.0469,0.8804,-6.06,8.08,-0.08,23.69
25893,0.2101,-0.0466,0.881,-6.08,7.51,-0.11,23.69
25903,0.2084,-0.0474,0.8804,-6.05,7.95,-0.05,23.66
25913,0.2046,-0.0443,0.8704,-6.0,7.66,-0.02,23.67
25923,0.201,-0.0375,0.8699,-5.92,7.76,0.0,23.67
25933,0.2032,-0.0413,0.8698,-5.95,7.37,-0.08,23.67
25943,0.2041,-0.0432,0.8737,-6.06,7.3,-0.09,23.69
25953,0.1896,-0.0414,0.884,-6.06,8.24,-0.17,23.67
25963,0.2068,-0.0364,0.8867,-5.89,8.31,-0.06,23.66
25973,0.2227,-0.0377,0.8824,-5.91,6.66,-0.14,23.7
25983,0.2069,-0.0392,0.9069,-6.02,7.33,-0.06,23.68
25993,0.2147,-0.0428,0.8988,-5.91,8.73,-0.05,23.66
26003,0.2279,-0.0388,0.8866,-5.94,6.89,-0.12,23.67
26013,0.2097,-0.0372,0.9099,-5.95,8.29,0.0,23.67
26023,0.2136,-0.0331,0.8837,-5.92,9.51,-0.15,23.67
26033,0.2277,-0.0388,0.8746,-5.86,6.37,0.0,23.69
26043,0.2139,-0.0254,0.8936,-6.0,6.61,0.03,23.69
26053,0.2106,-0.0303,0.9136,-6.06,8.64,-0.02,23.67
26063,0.2333,-0.0229,0.8999,-6.27,7.11,-0.02,23.69
26073,0.2235,-0.0254,0.9244,-6.34,7.56,0.03,23.68
26083,0.224,-0.0323,0.9263,-6.4,8.53,0.06,23.67
26093,0.2277,-0.0354,0.9137,-6.49,8.64,-0.08,23.69
26103,0.2317,-0.0416,0.8936,-6.27,8.03,-0.11,23.68
26113,0.2102,-0.0551,0.8878,-6.27,7.74,0.0,23.67
26123,0.1986,-0.0598,0.8707,-6.29,9.16,-0.06,23.68
26133,0.2036,-0.0543,0.8529,-6.05,8.0,-0.02,23.69
26143,0.1887,-0.061,0.8468,-6.06,7.28,-0.06,23.64
26153,0.1842,-0.0505,0.8525,-6.05,8.63,0.08,23.69
26163,0.2061,-0.0411,0.8406,-6.0,7.24,0.0,23.65
26173,0.1958,-0.0404,0.8676,-5.97,6.38,0.06,23.69
26183,0.1869,-0.0399,0.8937,-5.98,8.02,-0.09,23.65
26193,0.2036,-0.0306,0.8878,-6.05,8.06,-0.09,23.65
26203,0.2041,-0.0366,0.8964,-5.98,7.68,-0.05,23.66
26213,0.2146,-0.0354,0.8845,-6.06,7.22,-0.09,23.65
26223,0.2036,-0.0344,0.9056,-5.98,7.83,-0.06,23.69
26233,0.2059,-0.0366,0.8979,-6.06,8.43,0.0,23.67
26243,0.2196,-0.0359,0.8848,-6.05,7.28,0.02,23.67
26253,0.2186,-0.0343,0.8909,-6.09,6.89,-0.06,23.65
26263,0.207,-0.0317,0.905,-6.15,8.17,-0.02,23.66
26273,0.2163,-0.036,0.896,-6.14,8.27,0.02,23.67
26283,0.2246,-0.0328,0.8878,-6.14,7.68,0.0,23.68
26293,0.2103,-0.038,0.8965,-6.12,7.59,-0.03,23.67
26303,0.2067,-0.042,0.8878,-6.17,8.06,-0.09,23.66
26313,0.2043,-0.0463,0.8795,-6.14,8.15,-0.06,23.67
26323,0.2151,-0.0449,0.87,-6.21,7.5,-0.08,23.67
26333,0.1984,-0.0459,0.882,-6.14,7.79,-0.03,23.69
26343,0.2023,-0.0447,0.8823,-6.15,8.29,-0.05,23.7
26353,0.2156,-0.0398,0.8811,-6.15,7.57,0.03,23.67
26363,0.203,-0.0415,0.8984,-6.17,7.37,-0.08,23.66
26373,0.2084,-0.0388,0.9005,-6.15,8.4,0.03,23.66
26383,0.2173,-0.0405,0.8903,-6.17,7.82,-0.08,23.68
26393,0.2164,-0.0394,0.8879,-6.17,7.18,-0.08,23.67
26403,0.2061,-0.0393,0.8947,-6.11,8.08,-0.09,23.69
26414,0.2139,-0.0369,0.8882,-6.09,7.94,0.02,23.67
26424,0.2137,-0.0363,0.8857,-6.12,7.73,-0.02,23.69
26434,0.2076,-0.0349,0.8861,-6.17,7.88,0.03,23.67
26444,0.2173,-0.0328,0.8768,-6.14,7.94,-0.08,23.68
26454,0.2146,-0.037,0.8765,-6.29,6.76,-0.02,23.68
26464,0.1953,-0.0369,0.8976,-6.2,7.74,0.0,23.67
26474,0.2009,-0.0367,0.8942,-6.23,8.52,-0.02,23.65
26484,0.2205,-0.0385,0.8796,-6.14,7.16,-0.03,23.68
26494,0.2003,-0.0416,0.9005,-6.15,7.28,-0.03,23.66
26504,0.2018,-0.0403,0.9042,-6.24,9.18,0.08,23.64
26514,0.2306,-0.0391,0.881,-6.18,7.34,0.02,23.69
26524,0.2114,-0.0366,0.8992,-6.21,7.08,-0.05,23.66
26534,0.2058,-0.0371,0.8962,-6.23,8.99,-0.06,23.67
26544,0.2181,-0.0403,0.8922,-6.26,8.5,-0.09,23.66
26554,0.2103,-0.0358,0.8745,-6.24,7.22,0.02,23.67
26564,0.2058,-0.0369,0.8756,-6.29,7.89,-0.05,23.67
26574,0.215,-0.0414,0.8679,-6.27,6.96,0.02,23.68
26584,0.2074,-0.0374,0.8846,-6.24,7.15,-0.02,23.67
26594,0.2053,-0.0342,0.8933,-6.34,7.94,-0.11,23.68
26604,0.2162,-0.0386,0.8877,-6.21,7.63,-0.11,23.68
26614,0.2102,-0.0436,0.9056,-6.21,7.89,-0.08,23.7
26624,0.2219,-0.0437,0.896,-6.15,8.02,-0.02,23.66
26634,0.2159,-0.0476,0.892,-6.17,7.89,-0.09,23.69
26644,0.2145,-0.0466,0.8882,-6.18,8.08,-0.05,23.68
26654,0.2151,-0.0513,0.884,-6.05,7.86,0.05,23.68
26664,0.2227,-0.0475,0.8748,-6.03,7.36,-0.03,23.67
26674,0.2019,-0.0448,0.8912,-6.06,8.63,-0.06,23.69
26684,0.2173,-0.0403,0.8683,-6.09,7.82,0.02,23.68
26694,0.2107,-0.0345,0.8712,-6.14,6.84,0.0,23.69
26704,0.1912,-0.0354,0.8917,-6.18,8.31,0.0,23.69
26714,0.2175,-0.0305,0.8645,-6.06,7.82,0.02,23.68
26724,0.1973,-0.0354,0.8906,-6.15,6.79,-0.11,23.69
26734,0.2035,-0.0344,0.9045,-6.12,8.34,0.05,23.69
26744,0.2155,-0.0337,0.9097,-6.21,8.14,0.0,23.67
26754,0.2279,-0.0358,0.8981,-6.26,7.54,-0.08,23.68
26764,0.2168,-0.0392,0.8979,-6.17,7.57,-0.02,23.69
26774,0.2045,-0.0493,0.8995,-6.06,8.5,-0.08,23.69
26785,0.2081,-0.045,0.903,-6.21,8.89,0.0,23.67
26795,0.2208,-0.0493,0.8801,-6.11,8.14,-0.12,23.68
26805,0.2117,-0.0488,0.8732,-6.12,7.91,-0.06,23.64
26815,0.2075,-0.0496,0.8654,-6.09,7.31,0.0,23.68
26825,0.2006,-0.0431,0.8691,-6.05,7.76,0.08,23.67
26835,0.2103,-0.0399,0.8798,-6.02,7.13,-0.06,23.67
26845,0.2095,-0.0328,0.8922,-6.12,7.34,-0.03,23.67
26855,0.2117,-0.0366,0.9006,-6.14,7.59,-0.06,23.68
26865,0.2114,-0.0417,0.9037,-6.15,8.14,0.02,23.69
26875,0.2133,-0.0444,0.9058,-6.21,8.11,-0.02,23.68
26885,0.2081,-0.0437,0.895,-6.06,8.64,-0.08,23.69
26895,0.2129,-0.0414,0.8687,-6.2,7.89,-0.03,23.69
26905,0.203,-0.0415,0.8751,-6.15,7.82,-0.06,23.69
26915,0.2031,-0.0405,0.8722,-6.17,7.94,0.06,23.68
26925,0.2102,-0.04,0.8672,-6.15,7.42,-0.06,23.7
26935,0.208,-0.0363,0.8857,-6.11,7.31,-0.09,23.68
26945,0.215,-0.0366,0.8976,-6.05,7.88,-0.06,23.69
26955,0.2249,-0.0377,0.8972,-6.15,7.22,-0.05,23.68
26965,0.2086,-0.0387,0.9143,-6.17,8.03,0.03,23.69
26975,0.22,-0.0444,0.8833,-6.15,8.47,-0.06,23.71
26985,0.2111,-0.0425,0.8754,-6.21,7.48,-0.03,23.69
26995,0.205,-0.042,0.8683,-6.12,7.73,-0.02,23.71
27005,0.202,-0.0424,0.8687,-6.11,7.48,-0.08,23.67
27015,0.2102,-0.0408,0.881,-6.08,7.11,-0.08,23.68
27025,0.2031,-0.0363,0.9015,-6.14,7.77,-0.06,23.68
27035,0.2126,-0.0385,0.902,-6.17,8.02,-0.06,23.68
27045,0.214,-0.0358,0.8855,-6.27,7.57,-0.08,23.67
27055,0.208,-0.0382,0.8903,-6.18,8.23,-0.09,23.68
27065,0.2155,-0.0398,0.8754,-6.2,7.65,-0.08,23.67
27075,0.2112,-0.0376,0.8909,-6.11,7.74,-0.08,23.69
27085,0.2104,-0.0354,0.8983,-6.17,8.55,-0.02,23.69
27095,0.2307,-0.0349,0.8871,-6.03,7.48,0.02,23.68
27105,0.2101,-0.0394,0.8976,-6.11,6.98,-0.09,23.69
27115,0.1991,-0.0403,0.9036,-6.15,9.37,0.0,23.68
27126,0.2124,-0.0422,0.8802,-6.2,9.22,-0.09,23.68
27136,0.2292,-0.0439,0.8597,-6.15,7.15,-0.11,23.67
27146,0.2051,-0.0475,0.8785,-6.12,6.58,0.06,23.69
27156,0.1838,-0.0453,0.895,-6.05,8.15,-0.08,23.7
27166,0.234,-0.0364,0.8611,-6.11,7.19,-0.06,23.71
27176,0.2095,-0.0402,0.8976,-6.12,6.47,0.02,23.68
27186,0.1902,-0.0376,0.9025,-6.18,9.79,-0.08,23.69
27196,0.2302,-0.0361,0.8591,-6.14,7.33,-0.02,23.71
27206,0.207,-0.0383,0.8881,-6.2,6.6,-0.05,23.69
27239,0.2155,-0.037,0.8861,-6.09,8.99,-0.05,23.69
27249,0.1973,-0.036,0.9028,-6.21,7.07,-0.2,23.69
27259,0.2084,-0.04,0.889,-6.2,8.7,-0.05,23.69
27269,0.2101,-0.0374,0.8823,-6.15,7.68,-0.11,23.68
27279,0.2151,-0.041,0.8789,-6.08,7.56,-0.08,23.69
27289,0.2001,-0.0419,0.8954,-6.12,7.53,0.12,23.71
27299,0.2137,-0.0408,0.8851,-6.18,8.98,0.05,23.69
27309,0.2341,-0.0413,0.8773,-6.05,6.24,0.09,23.67
27319,0.2057,-0.0438,0.9066,-6.09,7.85,0.18,23.68
27329,0.2106,-0.0425,0.8961,-6.12,8.87,0.11,23.67
27339,0.2206,-0.0394,0.8788,-6.03,7.18,-0.03,23.69
27349,0.215,-0.0406,0.8821,-6.06,7.25,-0.06,23.69
27359,0.2096,-0.0394,0.901,-6.24,8.31,0.03,23.69
27369,0.2258,-0.0383,0.8882,-6.06,8.02,-0.12,23.7
27379,0.2146,-0.038,0.8925,-6.05,6.96,-0.03,23.67
27389,0.2026,-0.0411,0.8981,-6.09,8.73,0.0,23.69
27399,0.2124,-0.0388,0.8831,-6.21,8.11,0.17,23.67
27409,0.2173,-0.0425,0.8695,-6.06,6.85,0.09,23.69
27419,0.1913,-0.0432,0.895,-6.06,7.79,0.05,23.71
27429,0.2142,-0.035,0.8806,-6.06,8.67,0.06,23.71
