t_ms,accel_x_g,accel_y_g,accel_z_g,gyro_x_dps,gyro_y_dps,gyro_z_dps,imu_temp_c
3273,0.1952,-0.0176,0.881,-6.18,7.51,-0.02,24.76
3283,0.1903,-0.0198,0.8837,-6.15,7.24,-0.09,24.77
3293,0.1848,-0.0149,0.903,-6.17,7.94,-0.05,24.76
3303,0.1906,-0.0173,0.9033,-6.21,7.85,-0.09,24.76
3313,0.1918,-0.0182,0.9034,-6.18,8.03,-0.03,24.78
3323,0.1891,-0.0208,0.8958,-6.21,8.09,-0.08,24.78
3333,0.1879,-0.0226,0.899,-6.23,7.89,-0.09,24.8
3343,0.1875,-0.0205,0.9026,-6.18,8.06,-0.15,24.75
3353,0.1912,-0.0215,0.8862,-6.12,7.59,-0.02,24.78
3363,0.1815,-0.0192,0.8904,-6.12,8.14,-0.09,24.75
3373,0.1859,-0.0197,0.8903,-6.26,8.32,0.02,24.76
3383,0.1945,-0.0189,0.884,-6.24,7.68,-0.08,24.77
3393,0.1877,-0.02,0.8904,-6.11,7.48,0.0,24.79
3403,0.1803,-0.02,0.8979,-6.18,8.14,-0.06,24.79
3413,0.1942,-0.0203,0.8857,-6.21,7.65,-0.03,24.8
3423,0.184,-0.0156,0.8833,-6.06,7.42,0.05,24.79
3433,0.179,-0.0178,0.8933,-6.24,7.79,-0.05,24.75
3443,0.1929,-0.022,0.8755,-6.21,7.5,-0.03,24.77
3453,0.186,-0.0225,0.8864,-6.17,7.01,-0.09,24.78
3463,0.1785,-0.0184,0.8987,-6.2,7.77,0.0,24.79
3473,0.1764,-0.02,0.8967,-6.12,7.94,-0.12,24.8
3483,0.1895,-0.0183,0.8945,-6.27,7.76,-0.06,24.79
3493,0.186,-0.0167,0.8979,-6.26,7.73,-0.05,24.79
3503,0.1899,-0.0181,0.8958,-6.23,7.63,0.08,24.78
3513,0.1848,-0.0199,0.9161,-6.21,8.12,0.02,24.77
3523,0.1995,-0.0183,0.9036,-6.09,8.21,-0.02,24.78
3533,0.1973,-0.0223,0.9021,-6.23,7.65,-0.09,24.79
3543,0.1857,-0.02,0.9061,-6.15,8.41,0.0,24.8
3553,0.1915,-0.0205,0.8947,-6.2,8.66,0.0,24.81
3563,0.1969,-0.0214,0.8754,-6.23,7.28,-0.03,24.79
3573,0.1749,-0.0193,0.8969,-6.17,7.47,-0.06,24.8
3583,0.183,-0.0211,0.8811,-6.14,9.66,-0.06,24.81
3593,0.2013,-0.019,0.864,-6.15,6.53,0.06,24.82
3603,0.1688,-0.0195,0.8918,-6.17,7.51,0.03,24.81
3613,0.1763,-0.0168,0.8945,-6.24,8.95,-0.03,24.82
3623,0.1965,-0.0166,0.8818,-6.21,8.15,-0.03,24.78
3633,0.2034,-0.0154,0.8695,-6.18,5.5,-0.06,24.8
3643,0.1635,-0.0229,0.9182,-6.14,8.75,-0.08,24.81
3653,0.2026,-0.0192,0.885,-6.14,7.92,0.0,24.81
3663,0.1895,-0.0217,0.9091,-6.24,7.59,0.0,24.81
3673,0.1937,-0.022,0.8955,-6.12,8.15,-0.08,24.8
3683,0.1957,-0.0226,0.8953,-6.09,7.63,-0.05,24.81
3693,0.1823,-0.0212,0.8995,-6.2,7.65,0.0,24.84
3703,0.1814,-0.021,0.9026,-6.15,8.79,-0.03,24.82
3713,0.1926,-0.0222,0.8867,-6.37,8.09,0.02,24.8
3723,0.1876,-0.0229,0.8865,-6.15,7.62,0.06,24.79
3733,0.1846,-0.0203,0.8846,-6.21,8.09,0.03,24.82
3743,0.1833,-0.0203,0.8781,-6.14,7.86,-0.03,24.79
3753,0.1904,-0.0175,0.8772,-6.18,7.36,0.03,24.81
3763,0.1854,-0.0171,0.8861,-6.21,7.37,-0.02,24.82
3773,0.1791,-0.0171,0.8906,-6.11,7.59,-0.05,24.8
3783,0.1876,-0.0173,0.8983,-6.11,8.03,-0.03,24.81
3793,0.2,-0.0155,0.8831,-6.24,7.42,-0.02,24.82
3803,0.1864,-0.0212,0.9082,-6.31,7.47,-0.03,24.8
3813,0.1887,-0.0153,0.9094,-6.23,8.41,-0.05,24.82
3823,0.1879,-0.019,0.9049,-6.37,7.71,-0.05,24.83
3833,0.186,-0.0214,0.9073,-6.29,8.67,0.02,24.82
3843,0.1992,-0.0225,0.8927,-6.27,7.89,-0.02,24.82
3853,0.1901,-0.025,0.8937,-6.21,7.07,0.02,24.79
3863,0.1704,-0.0203,0.8997,-6.21,8.72,-0.11,24.81
3873,0.1895,-0.0229,0.8795,-6.02,8.78,0.03,24.85
3883,0.1992,-0.0266,0.8685,-6.17,7.3,-0.08,24.83
3893,0.1982,-0.0198,0.8694,-6.14,7.01,0.05,24.8
3903,0.1709,-0.0182,0.8916,-6.23,8.61,0.03,24.79
3913,0.1932,-0.0188,0.877,-6.12,7.79,0.03,24.81
3923,0.1963,-0.016,0.8823,-6.14,6.7,-0.06,24.82
3933,0.1888,-0.0159,0.8927,-6.21,7.1,-0.05,24.84
3943,0.1803,-0.0198,0.9092,-6.26,8.11,0.0,24.82
3953,0.1935,-0.019,0.9011,-6.26,8.17,0.0,24.83
3963,0.1918,-0.0231,0.8982,-6.18,7.25,-0.08,24.8
3973,0.179,-0.0254,0.9025,-6.23,8.26,0.0,24.84
3983,0.1871,-0.0236,0.8961,-6.17,8.24,0.03,24.84
3993,0.1869,-0.0159,0.8917,-6.2,7.56,-0.09,24.84
4003,0.1837,-0.0182,0.8821,-6.26,7.68,-0.06,24.84
4013,0.1808,-0.02,0.8947,-6.31,7.88,-0.06,24.83
4023,0.1851,-0.0144,0.8944,-6.24,8.21,0.0,24.81
4033,0.1986,-0.0223,0.8925,-6.12,7.88,-0.05,24.83
4043,0.1885,-0.02,0.8995,-6.26,7.16,-0.09,24.81
4053,0.1841,-0.0195,0.9039,-6.26,8.63,-0.03,24.82
4063,0.2025,-0.0211,0.8853,-6.31,7.65,-0.08,24.84
4073,0.1924,-0.0227,0.8881,-6.17,7.21,-0.15,24.83
4083,0.1754,-0.0179,0.9032,-6.18,8.96,-0.05,24.82
4093,0.2065,-0.0179,0.873,-6.14,7.8,-0.03,24.84
4103,0.2085,-0.0192,0.8844,-6.18,7.01,0.05,24.84
4113,0.1801,-0.0217,0.8949,-6.09,7.91,-0.03,24.84
4123,0.181,-0.0182,0.8926,-6.15,7.94,-0.09,24.84
4133,0.1783,-0.0217,0.8961,-6.23,8.38,-0.08,24.84
4143,0.1923,-0.0138,0.8632,-6.2,7.74,-0.05,24.82
4153,0.1858,-0.0156,0.8811,-6.23,6.95,0.0,24.84
4163,0.1881,-0.0192,0.8947,-6.24,7.69,-0.05,24.83
4173,0.1893,-0.0148,0.8961,-6.15,8.44,-0.02,24.8
4183,0.2063,-0.0233,0.8805,-6.18,7.37,0.03,24.82
4193,0.191,-0.0164,0.8955,-6.26,6.76,-0.12,24.84
4203,0.1866,-0.0262,0.9031,-6.14,8.49,-0.09,24.82
4213,0.2008,-0.024,0.8898,-6.14,6.85,-0.02,24.83
4223,0.168,-0.0215,0.9086,-6.09,8.08,-0.05,24.84
4233,0.1869,-0.0233,0.8899,-6.17,8.58,-0.02,24.84
4243,0.1996,-0.0181,0.8749,-6.24,7.21,-0.09,24.83
4253,0.1923,-0.0201,0.8901,-6.15,7.1,-0.05,24.84
4263,0.1785,-0.0226,0.9012,-6.29,7.65,-0.11,24.81
4273,0.1902,-0.0266,0.8914,-6.23,8.81,-0.06,24.86
4283,0.2104,-0.0183,0.8804,-6.26,6.89,-0.08,24.84
4293,0.1913,-0.0275,0.9023,-6.26,7.31,-0.06,24.83
4303,0.1871,-0.0187,0.9039,-6.17,8.61,0.02,24.83
4313,0.2003,-0.0231,0.8805,-6.18,7.91,0.0,24.83
4323,0.1926,-0.0186,0.8875,-6.27,6.7,-0.09,24.84
4333,0.1766,-0.0256,0.9003,-6.15,8.23,0.02,24.85
4343,0.1874,-0.0193,0.8928,-6.21,8.31,-0.03,24.85
4353,0.1969,-0.024,0.8883,-6.31,7.37,0.06,24.86
4363,0.1844,-0.0184,0.9126,-6.26,7.69,-0.08,24.84
4373,0.1835,-0.0161,0.9092,-6.2,8.81,-0.05,24.86
4383,0.2045,-0.0115,0.886,-6.29,8.08,-0.06,24.87
4393,0.1959,-0.0112,0.8864,-6.21,6.96,-0.08,24.85
4403,0.1753,-0.0138,0.9054,-6.23,8.87,-0.05,24.84
4413,0.1826,-0.0105,0.8894,-6.17,8.53,0.0,24.84
4423,0.1913,-0.0182,0.8851,-6.26,8.03,-0.11,24.86
4433,0.1998,-0.0145,0.882,-6.2,7.18,-0.09,24.84
4443,0.1765,-0.017,0.9047,-6.2,8.02,-0.08,24.85
4453,0.1864,-0.017,0.8887,-6.27,8.76,-0.11,24.83
4463,0.1997,-0.0225,0.8818,-6.18,7.34,-0.05,24.86
4473,0.1854,-0.0175,0.8916,-6.21,7.8,-0.03,24.84
4483,0.1807,-0.0217,0.8873,-6.23,8.38,0.06,24.87
4493,0.186,-0.0251,0.8895,-6.17,8.02,0.08,24.87
4503,0.1841,-0.0239,0.8826,-6.21,8.21,0.0,24.84
4513,0.1913,-0.0197,0.8521,-6.03,7.45,0.06,24.87
4523,0.1694,-0.0197,0.8824,-6.27,6.26,-0.06,24.87
4533,0.1703,-0.0134,0.9121,-6.11,9.11,-0.06,24.87
4543,0.204,-0.0074,0.9004,-6.2,7.71,-0.03,24.85
4553,0.2091,-0.0062,0.9111,-6.23,6.4,-0.12,24.87
4563,0.1798,-0.0148,0.9452,-6.2,8.98,-0.12,24.89
4573,0.1982,-0.0166,0.9131,-6.35,9.01,-0.11,24.87
4583,0.209,-0.0243,0.8859,-6.27,7.13,-0.08,24.85
4593,0.1799,-0.0287,0.9023,-6.31,7.71,-0.03,24.85
4603,0.1854,-0.0242,0.8997,-6.31,9.02,-0.05,24.87
4613,0.2094,-0.0234,0.8744,-6.34,7.77,0.05,24.87
4623,0.1917,-0.0197,0.8845,-6.03,7.11,-0.02,24.86
4633,0.178,-0.0203,0.8948,-6.17,8.73,-0.03,24.86
4643,0.2006,-0.0153,0.8689,-6.27,8.38,-0.06,24.86
4653,0.1941,-0.0208,0.8666,-6.15,6.82,-0.02,24.87
4663,0.1801,-0.0135,0.8816,-6.12,7.19,-0.08,24.84
4673,0.177,-0.0221,0.8888,-6.2,8.32,-0.05,24.87
4683,0.1949,-0.0125,0.8835,-6.15,7.94,-0.06,24.89
4693,0.1951,-0.0109,0.8872,-6.09,6.78,0.0,24.87
4703,0.1888,-0.0134,0.9069,-6.18,7.5,-0.02,24.85
4713,0.1869,-0.0203,0.9093,-6.11,8.58,-0.03,24.87
4723,0.2006,-0.0128,0.8949,-6.18,7.66,-0.05,24.82
4733,0.1862,-0.0222,0.9038,-6.29,7.62,-0.08,24.86
4743,0.1813,-0.0251,0.8999,-6.23,8.47,-0.06,24.87
4753,0.1937,-0.0264,0.8835,-6.15,7.86,-0.63,24.88
4763,0.1836,-0.0278,0.8862,-6.15,7.36,-0.03,24.86
4773,0.1737,-0.0293,0.8939,-6.18,8.47,-0.05,24.86
4783,0.1876,-0.0205,0.8899,-6.18,8.55,-0.02,24.89
4793,0.1992,-0.0233,0.8801,-6.17,7.59,0.02,24.89
4803,0.1844,-0.0204,0.8896,-6.15,7.48,0.05,24.89
4813,0.179,-0.0216,0.8951,-6.26,8.56,-0.03,24.88
4823,0.1951,-0.0192,0.8755,-6.21,7.91,-0.05,24.87
4833,0.1998,-0.015,0.8785,-6.12,6.58,-0.06,24.87
4843,0.1824,-0.0125,0.8926,-6.14,7.11,-0.12,24.89
4853,0.1792,-0.0187,0.8901,-6.15,8.0,0.14,24.88
4863,0.1868,-0.0179,0.8929,-6.31,7.36,0.0,24.85
4873,0.1863,-0.0157,0.9031,-6.32,7.66,-0.05,24.88
4883,0.1844,-0.0226,0.9003,-6.27,7.73,-0.05,24.86
4893,0.1792,-0.0217,0.9077,-6.26,8.11,-0.02,24.88
4903,0.1813,-0.0193,0.8975,-6.26,8.6,-0.11,24.87
4913,0.1959,-0.0199,0.887,-6.2,7.86,0.05,24.89
4923,0.189,-0.0199,0.8899,-6.14,7.56,-0.09,24.88
4933,0.1815,-0.0144,0.8983,-6.15,7.86,-0.12,24.86
4943,0.187,-0.0201,0.8958,-6.21,8.31,-0.03,24.9
4953,0.202,-0.0219,0.8964,-6.23,8.0,0.0,24.86
4963,0.2007,-0.0172,0.8983,-6.18,7.37,-0.03,24.89
4973,0.1824,-0.0234,0.8978,-6.15,8.31,0.06,24.89
4983,0.1891,-0.0206,0.8896,-6.18,8.64,-0.05,24.89
4993,0.1984,-0.0146,0.8748,-6.18,7.65,-0.03,24.89
5003,0.1915,-0.0206,0.8783,-6.14,6.76,0.0,24.88
5013,0.1653,-0.0182,0.8971,-6.09,8.41,-0.11,24.88
5023,0.1907,-0.0131,0.8737,-6.15,8.14,-0.08,24.89
5033,0.1923,-0.0187,0.8662,-6.09,6.31,0.02,24.86
5043,0.1787,-0.0148,0.8964,-6.2,7.21,-0.03,24.88
5053,0.168,-0.0123,0.8993,-6.27,8.4,0.0,24.87
5063,0.1918,-0.0161,0.8896,-6.18,7.8,-0.08,24.87
5073,0.1882,-0.0209,0.9019,-6.2,7.3,-0.15,24.88
5083,0.1833,-0.0198,0.9132,-6.27,8.37,-0.03,24.9
5093,0.1862,-0.0282,0.9061,-6.21,8.5,-0.02,24.88
5103,0.2,-0.0228,0.8954,-6.29,7.98,-0.18,24.9
5113,0.1941,-0.0184,0.8976,-6.21,7.8,-0.11,24.9
5123,0.1887,-0.0272,0.8887,-6.14,8.21,0.03,24.87
5133,0.1814,-0.0239,0.8849,-6.12,8.27,-0.03,24.87
5143,0.1869,-0.0201,0.8762,-6.15,8.29,-0.02,24.89
5153,0.1934,-0.0184,0.8795,-6.23,7.16,-0.05,24.89
5163,0.1797,-0.0117,0.8853,-6.12,7.65,-0.06,24.92
5173,0.1857,-0.0126,0.8929,-6.14,7.95,-0.06,24.89
5183,0.1949,-0.0188,0.8976,-6.14,7.8,-0.02,24.88
5193,0.1953,-0.0104,0.8962,-6.14,7.59,-0.08,24.89
5203,0.1838,-0.0188,0.8966,-6.18,7.74,-0.09,24.88
5213,0.1847,-0.0203,0.9022,-6.14,8.29,-0.06,24.9
5223,0.1857,-0.019,0.8865,-6.24,7.95,-0.05,24.88
5233,0.1895,-0.0132,0.8776,-6.12,7.66,0.05,24.88
5243,0.1782,-0.0227,0.8888,-6.17,7.02,0.0,24.89
5253,0.1798,-0.0128,0.9032,-6.14,8.46,-0.03,24.89
5263,0.2056,-0.021,0.8794,-6.14,7.25,-0.03,24.91
5273,0.1875,-0.0245,0.8994,-6.21,6.52,-0.03,24.91
5283,0.1796,-0.0239,0.9202,-6.24,8.82,-0.02,24.9
5293,0.1973,-0.0203,0.8973,-6.32,8.02,-0.03,24.9
5303,0.1915,-0.0265,0.9,-6.24,7.53,-0.08,24.88
5313,0.1804,-0.0171,0.901,-6.26,8.61,-0.08,24.92
5323,0.1935,-0.0192,0.8838,-6.14,8.41,-0.09,24.92
5333,0.1974,-0.0232,0.8713,-6.2,7.39,-0.08,24.92
5343,0.1836,-0.016,0.8807,-6.23,7.45,-0.03,24.91
5353,0.178,-0.0164,0.8774,-6.17,7.88,0.06,24.93
5363,0.1887,-0.0126,0.88,-6.21,7.65,0.03,24.91
5373,0.1831,-0.0092,0.8961,-6.18,7.69,-0.03,24.9
5383,0.1907,-0.0118,0.8979,-6.17,7.5,-0.14,24.9
5393,0.1866,-0.0165,0.9064,-6.17,7.51,-0.08,24.9
5403,0.1882,-0.0143,0.9105,-6.09,8.38,-0.12,24.91
5413,0.1947,-0.0248,0.8977,-6.27,8.34,0.0,24.94
5423,0.1908,-0.0314,0.8943,-6.02,7.39,-0.06,24.9
5433,0.1801,-0.0215,0.9021,-6.18,8.4,-0.08,24.89
5443,0.192,-0.0231,0.8885,-6.11,7.97,-0.03,24.88
5453,0.1888,-0.0211,0.8914,-6.23,7.77,0.02,24.9
5463,0.1847,-0.0198,0.8903,-6.17,8.14,-0.06,24.89
5473,0.1903,-0.0203,0.8785,-6.17,7.57,0.09,24.9
5483,0.1776,-0.0254,0.8873,-6.12,8.26,-0.02,24.92
5493,0.199,-0.0134,0.874,-6.05,7.48,0.0,24.91
5503,0.1818,-0.0206,0.8878,-6.14,7.37,-0.02,24.91
5513,0.1874,-0.0166,0.8907,-6.11,7.98,-0.03,24.93
5523,0.1978,-0.0151,0.8862,-6.2,7.62,-0.02,24.92
5533,0.1984,-0.0117,0.896,-6.2,7.07,-0.06,24.91
5543,0.1823,-0.0178,0.8993,-6.14,7.8,0.0,24.93
5553,0.1821,-0.0083,0.8944,-6.09,7.68,-0.09,24.93
5563,0.182,-0.0192,0.9042,-6.21,8.17,-0.03,24.91
5573,0.1924,-0.0198,0.8981,-6.23,7.68,-0.15,24.9
5583,0.1752,-0.0208,0.9015,-6.21,7.92,-0.03,24.94
5593,0.1857,-0.0244,0.897,-6.21,8.58,-0.03,24.91
5603,0.1969,-0.0284,0.8901,-6.18,7.47,-0.06,24.91
5613,0.1896,-0.0205,0.8932,-6.2,7.76,-0.05,24.92
5623,0.1857,-0.0312,0.8921,-6.12,8.17,0.0,24.91
5633,0.1884,-0.0215,0.8788,-6.14,7.95,-0.06,24.92
5643,0.1934,-0.0228,0.8733,-6.15,7.57,0.0,24.93
5653,0.1792,-0.0275,0.8743,-6.14,7.15,-0.02,24.91
5663,0.1761,-0.0255,0.8846,-6.2,8.05,-0.05,24.91
5673,0.1871,-0.0186,0.8789,-6.12,7.51,-0.02,24.92
5683,0.1846,-0.0238,0.8907,-6.26,7.01,-0.08,24.93
5693,0.1788,-0.0176,0.8931,-6.15,7.79,-0.12,24.92
5703,0.1887,-0.0156,0.8955,-6.18,7.42,0.0,24.96
5713,0.1874,-0.0211,0.9047,-6.2,7.5,-0.05,24.94
5723,0.1871,-0.0182,0.9042,-6.09,7.85,0.02,24.92
5733,0.1869,-0.0178,0.9041,-6.26,7.71,-0.02,24.91
5743,0.1892,-0.0245,0.9066,-6.15,7.98,0.02,24.92
5753,0.1931,-0.0173,0.9,-6.15,7.88,0.05,24.92
5763,0.1829,-0.0182,0.9,-6.18,8.23,-0.05,24.91
5773,0.188,-0.0226,0.8928,-6.18,8.38,-0.06,24.92
5783,0.1873,-0.016,0.8857,-6.09,7.59,0.0,24.94
5793,0.182,-0.0159,0.89,-6.21,7.85,0.03,24.92
5803,0.1821,-0.0234,0.8948,-6.17,8.14,0.06,24.93
5813,0.1899,-0.0145,0.892,-6.14,8.08,-0.03,24.94
5823,0.1973,-0.0186,0.8809,-6.31,7.36,0.0,24.93
5833,0.1973,-0.017,0.8823,-6.26,7.13,-0.06,24.92
5844,0.1738,-0.0177,0.9026,-6.18,7.69,-0.06,24.92
5854,0.188,-0.02,0.8926,-6.27,8.58,0.02,24.9
5864,0.1902,-0.0242,0.8851,-6.31,7.76,-0.03,24.93
5874,0.189,-0.0161,0.8895,-6.24,7.47,-0.03,24.92
5884,0.1733,-0.0227,0.8998,-6.23,8.17,-0.08,24.91
5894,0.1932,-0.0177,0.8873,-6.18,8.35,-0.06,24.91
5904,0.197,-0.014,0.8899,-6.2,7.8,-0.09,24.93
5914,0.1875,-0.0159,0.9027,-6.17,7.91,-0.05,24.92
5924,0.1926,-0.0221,0.9034,-6.34,8.78,-0.05,24.93
5934,0.1995,-0.0167,0.8932,-6.17,8.64,0.03,24.93
5944,0.187,-0.0193,0.9004,-6.23,7.22,-0.06,24.93
5954,0.1819,-0.0193,0.8956,-6.21,8.85,-0.05,24.92
5964,0.1847,-0.0173,0.8909,-6.17,8.81,-0.06,24.93
5974,0.1866,-0.0208,0.8688,-6.09,7.08,-0.02,24.92
5984,0.1786,-0.0183,0.8788,-6.15,7.27,-0.02,24.94
5994,0.1764,-0.0103,0.8789,-6.15,8.0,0.02,24.92
6004,0.1964,-0.0154,0.8782,-6.24,7.62,0.02,24.92
6014,0.1929,-0.0132,0.8933,-6.2,6.69,-0.06,24.93
6024,0.1857,-0.0081,0.9017,-6.15,6.84,0.03,24.91
6034,0.1903,-0.0145,0.9106,-6.21,8.43,0.0,24.94
6044,0.1984,-0.0156,0.9067,-6.24,7.63,0.02,24.93
6054,0.191,-0.0175,0.9133,-6.26,7.68,-0.03,24.94
6064,0.189,-0.0181,0.9087,-6.12,7.95,-0.11,24.92
6074,0.181,-0.0227,0.8975,-6.32,8.38,-0.14,24.93
6084,0.1757,-0.0198,0.8934,-6.21,8.38,-0.06,24.93
6094,0.1838,-0.0267,0.874,-6.2,7.83,-0.02,24.94
6104,0.1763,-0.0265,0.8833,-6.2,7.6,0.02,24.94
6114,0.1825,-0.0205,0.8784,-6.2,8.11,0.03,24.93
6124,0.183,-0.0254,0.8779,-6.12,7.91,-0.02,24.94
6134,0.1956,-0.0259,0.8816,-6.08,7.59,-0.08,24.92
6144,0.188,-0.0209,0.8867,-6.21,7.56,-0.02,24.94
6154,0.1851,-0.0253,0.9032,-6.11,7.95,0.0,24.94
6164,0.1853,-0.0232,0.9022,-6.21,8.64,-0.11,24.91
6174,0.21,-0.0128,0.8823,-6.24,7.24,0.05,24.92
6184,0.1857,-0.0189,0.9014,-6.23,6.98,-0.05,24.94
6194,0.1781,-0.0137,0.8984,-6.23,8.73,-0.11,24.94
6204,0.1943,-0.0166,0.881,-6.32,7.71,-0.05,24.97
6214,0.1858,-0.0175,0.8827,-6.23,6.64,-0.08,24.94
6224,0.1713,-0.0132,0.8895,-6.24,8.15,-0.09,24.96
6234,0.1852,-0.0138,0.874,-6.23,7.98,-0.08,24.94
6244,0.1904,-0.0214,0.8835,-6.21,6.87,-0.12,24.96
6254,0.1797,-0.0181,0.9001,-6.26,7.76,-0.06,24.93
6264,0.1902,-0.0145,0.8942,-6.26,8.06,0.06,24.94
6275,0.1935,-0.0243,0.8933,-6.15,7.89,-0.06,24.93
6285,0.1968,-0.0167,0.8992,-6.2,7.3,-0.05,24.94
6295,0.1909,-0.0226,0.901,-6.18,7.65,0.03,24.96
6305,0.1858,-0.022,0.9072,-6.21,8.14,0.02,24.95
6315,0.1786,-0.0177,0.8961,-6.08,8.14,-0.17,24.94
6325,0.1866,-0.0142,0.886,-6.23,8.02,-0.05,24.92
6335,0.1807,-0.019,0.8887,-6.2,7.65,-0.06,24.94
6345,0.1781,-0.0116,0.8925,-6.17,8.12,0.05,24.97
6355,0.1814,-0.017,0.897,-6.29,8.03,-0.08,24.95
6365,0.1877,-0.0182,0.8982,-6.27,8.09,0.02,24.94
6375,0.1957,-0.0151,0.8933,-6.18,7.57,-0.08,24.93
6385,0.1904,-0.0194,0.9031,-6.26,7.83,-0.09,24.94
6395,0.1909,-0.0205,0.9117,-6.31,8.24,-0.03,24.95
6405,0.192,-0.0188,0.9045,-6.27,8.55,-0.03,24.96
6415,0.2043,-0.0229,0.894,-6.27,7.62,-0.05,24.95
6425,0.1837,-0.0291,0.8816,-6.15,7.44,-0.08,24.92
6435,0.1744,-0.0175,0.8899,-6.2,8.46,0.0,24.94
6445,0.1797,-0.0104,0.8871,-6.27,8.98,0.46,24.95
6455,0.1969,-0.0132,0.8691,-6.14,6.66,-0.09,24.95
6465,0.177,-0.0193,0.8889,-6.08,7.47,-0.2,24.95
6475,0.187,-0.0188,0.8861,-6.2,8.52,-0.05,24.97
6485,0.1893,-0.0197,0.8912,-6.15,7.91,-0.11,24.95
6495,0.2024,-0.0154,0.8918,-6.29,7.27,-0.02,24.94
6505,0.2012,-0.0195,0.9047,-6.2,7.02,0.02,24.94
6515,0.1815,-0.0165,0.9218,-6.24,8.47,0.03,24.95
6525,0.1923,-0.0126,0.9044,-6.38,8.81,-0.08,24.94
6535,0.2014,-0.0201,0.885,-6.31,7.33,-0.02,24.95
6545,0.1819,-0.0239,0.897,-6.17,7.28,-0.08,24.93
6555,0.1744,-0.0265,0.8972,-6.18,8.93,-0.08,24.95
6565,0.1945,-0.0308,0.8705,-6.24,7.97,-0.08,24.93
6575,0.1868,-0.0281,0.8728,-6.11,7.13,-0.11,24.94
6585,0.1782,-0.0182,0.8792,-6.14,7.62,0.02,24.97
6595,0.1833,-0.0215,0.8759,-6.09,8.37,-0.03,24.94
6605,0.1971,-0.0168,0.8788,-6.11,7.13,0.06,24.96
6615,0.1825,-0.0161,0.8898,-6.15,7.02,-0.09,24.96
6625,0.182,-0.0164,0.9004,-6.08,8.03,-0.06,24.95
6635,0.1915,-0.0215,0.8904,-6.14,7.57,-0.02,24.96
6645,0.1912,-0.0095,0.896,-6.21,6.93,-0.02,24.95
6655,0.1753,-0.0204,0.9128,-6.24,8.15,0.02,24.95
6665,0.1913,-0.0166,0.9027,-6.14,8.35,-0.02,24.96
6675,0.191,-0.0129,0.8994,-6.17,7.54,0.0,24.95
6685,0.1879,-0.0143,0.907,-6.29,8.18,-0.15,24.95
6695,0.1907,-0.0177,0.8961,-6.21,7.74,-0.14,24.95
6705,0.1864,-0.0161,0.895,-6.12,7.83,0.0,24.95
6715,0.181,-0.0281,0.8995,-6.31,8.53,0.0,24.95
6725,0.2001,-0.025,0.8844,-6.2,8.12,-0.08,24.95
6735,0.1935,-0.0242,0.8838,-6.31,6.99,-0.02,24.97
6745,0.1797,-0.0221,0.8948,-6.26,8.11,0.06,24.97
6755,0.1895,-0.0192,0.8958,-6.23,8.24,-0.03,24.95
6765,0.1945,-0.0143,0.8821,-6.2,7.74,-0.09,24.94
6775,0.1891,-0.0233,0.8911,-6.2,7.57,-0.05,24.97
6785,0.1866,-0.0146,0.9001,-6.12,7.86,-0.11,24.96
6795,0.1884,-0.0216,0.901,-6.18,8.34,-0.02,24.97
6805,0.1875,-0.0275,0.8871,-6.24,7.3,-0.03,24.96
6815,0.184,-0.022,0.8967,-6.27,7.66,-0.11,24.94
6825,0.1783,-0.02,0.8959,-6.18,8.46,-0.03,24.97
6835,0.1954,-0.0188,0.8865,-6.17,7.83,0.03,24.98
6845,0.1843,-0.0201,0.8845,-6.23,7.54,-0.08,24.97
6855,0.1742,-0.0167,0.8778,-6.15,7.98,-0.05,24.97
6865,0.1688,-0.0183,0.8744,-6.23,8.12,-0.02,24.96
6875,0.186,-0.0139,0.8641,-6.27,7.4,-0.08,24.96
6885,0.1731,-0.0253,0.8835,-6.18,6.79,-0.06,24.98
6895,0.1707,-0.0206,0.9001,-6.05,7.95,-0.11,24.96
6905,0.1842,-0.0099,0.8925,-6.21,7.56,-0.03,24.97
6915,0.1821,-0.0096,0.9077,-6.23,8.69,-0.12,24.95
6925,0.2178,-0.019,0.8888,-6.14,6.78,-0.09,24.93
6935,0.194,-0.0143,0.9128,-6.18,7.08,0.0,24.99
6947,0.207,-0.0216,0.9056,-6.2,6.85,-0.05,24.96
6957,0.1827,-0.0286,0.9274,-6.14,8.78,-0.08,24.95
6967,0.2058,-0.0248,0.9041,-6.21,8.11,-0.11,24.95
6977,0.1897,-0.0269,0.9126,-6.2,8.29,-0.02,24.95
6987,0.1932,-0.0176,0.9006,-6.14,8.61,-0.06,24.97
6997,0.1957,-0.0155,0.8831,-6.17,8.06,-0.03,24.97
7007,0.1859,-0.0121,0.8854,-6.31,7.44,0.0,24.97
7017,0.1747,-0.0167,0.8807,-6.32,8.32,-0.05,24.97
7027,0.1807,-0.0135,0.8705,-6.12,7.51,-0.06,24.96
7037,0.1814,-0.021,0.8741,-6.23,7.47,0.06,24.97
7047,0.1821,-0.0172,0.8844,-6.15,7.33,-0.02,24.94
7057,0.1731,-0.0181,0.8987,-6.15,8.18,-0.09,24.96
7067,0.1899,-0.0214,0.8937,-6.24,7.97,0.02,24.98
7077,0.1895,-0.0273,0.892,-6.26,7.28,-0.09,24.95
7087,0.1865,-0.0216,0.9008,-6.14,7.86,0.02,24.95
7097,0.1865,-0.026,0.8988,-6.23,8.69,-0.06,24.97
7107,0.2023,-0.0249,0.8895,-6.17,8.08,-0.06,24.97
7117,0.2057,-0.0195,0.8932,-6.17,6.9,-0.12,24.96
7127,0.1754,-0.0168,0.9042,-6.17,7.94,-0.05,24.96
7137,0.1704,-0.0214,0.8998,-6.11,8.92,-0.06,24.97
7147,0.1987,-0.0122,0.8729,-6.23,7.01,-0.09,24.98
7157,0.1923,-0.0126,0.877,-6.18,6.69,-0.12,24.97
7167,0.1781,-0.0159,0.9006,-6.24,8.34,-0.03,24.96
7177,0.2015,-0.0033,0.8967,-6.27,7.63,-0.03,24.97
7187,0.184,-0.012,0.9153,-6.29,8.12,0.03,24.97
7197,0.2079,-0.0198,0.8805,-6.26,7.22,-0.09,24.94
7207,0.1797,-0.0176,0.8943,-6.31,7.44,0.03,24.96
7217,0.1614,-0.0189,0.8995,-6.34,9.4,-0.03,24.98
7227,0.1968,-0.0244,0.8539,-6.23,8.41,-0.05,24.96
7237,0.1907,-0.0159,0.8665,-6.18,5.97,-0.02,24.97
7247,0.1719,-0.0171,0.8929,-6.24,8.49,-0.08,24.95
7257,0.1979,-0.0217,0.8811,-6.23,7.54,-0.03,24.97
7267,0.1938,-0.0187,0.8918,-6.27,7.15,-0.12,24.97
7277,0.1902,-0.0179,0.8865,-6.21,7.71,0.0,24.98
7287,0.1921,-0.022,0.8926,-6.23,7.15,-0.08,24.98
7297,0.1774,-0.0186,0.9099,-6.31,8.2,-0.06,24.98
7307,0.1973,-0.0234,0.8967,-6.27,8.14,-0.08,25.0
7317,0.189,-0.0212,0.8961,-6.24,7.39,-0.08,24.96
7327,0.1851,-0.0176,0.8967,-6.23,7.82,-0.09,24.96
7337,0.1951,-0.0227,0.8972,-6.15,8.12,0.03,24.99
7347,0.2063,-0.0182,0.9025,-6.15,7.3,-0.09,24.97
7357,0.1938,-0.0183,0.9166,-6.2,7.94,-0.09,24.99
7367,0.1995,-0.0194,0.9052,-6.18,8.9,-0.17,25.0
7377,0.2019,-0.0238,0.8816,-6.17,7.69,-0.03,24.98
7387,0.1881,-0.0176,0.8802,-6.15,7.85,-0.09,24.98
7397,0.182,-0.0219,0.8756,-6.24,8.0,-0.06,24.97
7407,0.1688,-0.016,0.8782,-6.2,8.06,-0.05,24.98
7417,0.1759,-0.0134,0.8608,-6.29,7.37,-0.09,24.98
7427,0.167,-0.0184,0.877,-6.27,7.36,0.02,24.99
7437,0.1791,-0.0182,0.8816,-6.35,7.97,-0.06,24.97
7447,0.1921,-0.0183,0.8799,-6.2,7.65,0.11,24.98
7458,0.1932,-0.0209,0.886,-6.18,7.08,-0.03,24.99
7468,0.1947,-0.0192,0.9086,-6.15,7.83,-0.14,24.97
7478,0.2043,-0.0187,0.9026,-6.17,7.45,-0.14,24.99
7488,0.1956,-0.0229,0.912,-6.21,6.79,-0.09,24.98
7498,0.1838,-0.0226,0.9216,-6.17,8.84,-0.08,24.99
7508,0.2002,-0.0206,0.8951,-6.12,8.53,-0.02,25.0
7518,0.1978,-0.0167,0.8832,-6.2,6.66,-0.03,24.99
7528,0.1617,-0.0157,0.9031,-6.17,8.81,-0.11,24.98
7538,0.1877,-0.0128,0.8713,-6.14,8.43,-0.05,24.99
7548,0.1761,-0.0125,0.8798,-6.34,7.11,0.0,24.98
7560,0.1775,-0.0109,0.8917,-6.2,7.27,-0.17,24.98
7570,0.1765,-0.0145,0.8809,-6.24,8.4,-0.05,24.99
7580,0.1874,-0.0227,0.8781,-6.21,6.85,0.02,24.97
7590,0.1749,-0.0156,0.9059,-6.32,8.08,-0.02,24.97
7600,0.2006,-0.021,0.8969,-6.37,8.11,0.03,24.97
7610,0.2019,-0.0251,0.9073,-6.34,6.76,-0.08,24.99
7620,0.1902,-0.0229,0.9146,-6.24,7.86,-0.03,24.99
7630,0.1902,-0.0215,0.9194,-6.17,8.31,-0.05,24.99
7640,0.1989,-0.0161,0.9016,-6.14,8.49,-0.08,24.99
7650,0.201,-0.0183,0.8955,-6.12,7.63,-0.09,25.02
7660,0.1681,-0.0256,0.906,-6.18,7.56,0.0,24.99
7670,0.2102,-0.0189,0.8663,-6.06,9.05,-0.02,24.98
7680,0.1837,-0.0149,0.879,-6.15,5.65,-0.06,24.98
7690,0.1742,-0.0201,0.8914,-5.97,10.02,0.03,24.99
7700,0.2062,-0.0197,0.8567,-6.12,6.58,-0.03,25.0
7710,0.1803,-0.0111,0.8921,-6.18,6.87,-0.02,25.01
7720,0.1808,-0.0063,0.8931,-6.15,9.53,-0.06,25.01
7730,0.2175,-0.0138,0.8717,-6.08,6.0,0.02,25.0
7740,0.1727,-0.0145,0.9126,-6.14,7.68,-0.06,25.01
7750,0.1881,-0.0159,0.9047,-6.2,8.64,-0.09,24.99
7760,0.1942,-0.0221,0.8816,-6.2,7.37,0.0,24.97
7770,0.1759,-0.014,0.8909,-6.21,8.0,-0.05,25.0
7780,0.1774,-0.0198,0.8812,-6.12,7.97,-0.05,24.99
7790,0.1801,-0.0189,0.8696,-6.2,7.53,-0.05,25.0
7800,0.1724,-0.0184,0.8739,-6.23,7.68,-0.12,24.99
7810,0.1786,-0.0139,0.8879,-6.29,8.06,-0.05,25.0
7820,0.196,-0.0178,0.8813,-6.27,7.27,-0.06,25.0
7830,0.1874,-0.0149,0.8973,-6.23,7.44,-0.06,25.01
7840,0.187,-0.016,0.8984,-6.31,7.97,-0.02,25.0
7850,0.1931,-0.0231,0.8975,-6.21,8.18,-0.14,24.99
7860,0.2029,-0.0221,0.8993,-6.32,7.59,-0.05,25.0
7870,0.1992,-0.0276,0.907,-6.21,7.8,-0.05,25.0
7880,0.1981,-0.0314,0.9034,-6.18,7.8,-0.09,24.99
7890,0.191,-0.026,0.9038,-6.09,7.85,-0.02,24.99
7900,0.1946,-0.0226,0.9106,-6.23,8.18,0.09,25.01
7910,0.1963,-0.0222,0.9037,-6.24,7.94,-0.09,24.99
7920,0.187,-0.0165,0.8992,-6.18,7.85,-0.05,24.99
7930,0.1766,-0.0211,0.8972,-6.18,8.55,-0.11,25.0
7940,0.1855,-0.0199,0.8772,-6.12,8.05,0.0,24.99
7950,0.1801,-0.0154,0.8656,-6.26,7.39,-0.09,24.99
7960,0.1693,-0.0129,0.8743,-6.21,7.59,-0.03,24.99
7970,0.1781,-0.0165,0.8732,-6.21,8.06,0.05,24.99
7980,0.1855,-0.0079,0.8805,-6.08,7.36,-0.03,24.99
7990,0.1812,-0.0144,0.8938,-6.18,7.31,-0.09,25.0
8000,0.1718,-0.0173,0.8907,-6.21,8.64,-0.06,25.01
8010,0.1793,-0.0226,0.8571,-6.32,7.85,0.06,24.99
8020,0.1653,-0.0219,0.8899,-6.31,7.66,0.08,24.99
8030,0.1848,-0.0286,0.9094,-6.08,8.41,0.02,25.01
8040,0.2051,-0.0073,0.9038,-6.2,7.24,0.03,25.01
8050,0.1981,-0.0159,0.9318,-6.21,7.82,-0.08,25.03
8060,0.2012,-0.01,0.9323,-6.24,7.65,-0.05,25.0
8070,0.1938,-0.0129,0.929,-6.17,9.04,-0.14,24.99
8080,0.2079,-0.025,0.8856,-6.23,8.2,-0.14,24.99
8090,0.1907,-0.0342,0.8838,-6.24,7.5,-0.11,24.99
8100,0.1768,-0.0365,0.8851,-6.18,8.4,0.05,25.0
8110,0.1847,-0.0383,0.8777,-6.21,8.49,0.05,25.01
8120,0.1925,-0.0333,0.8618,-6.23,7.15,-0.02,24.98
8130,0.1777,-0.02,0.873,-6.15,7.34,0.05,25.03
8140,0.1729,-0.0129,0.8739,-5.94,7.56,0.11,25.0
8150,0.1724,-0.0096,0.8871,-6.14,8.2,-0.05,24.99
8160,0.1832,-0.0114,0.8751,-6.12,7.48,-0.09,25.02
8171,0.1843,-0.0223,0.8763,-6.23,7.07,-0.06,25.01
8181,0.1736,-0.0232,0.896,-6.2,7.57,-0.09,25.0
8191,0.1824,-0.0197,0.8906,-6.2,7.66,0.0,25.01
8201,0.1844,-0.0193,0.8951,-6.15,7.47,-0.06,24.98
8211,0.1927,-0.0145,0.9038,-6.23,7.53,0.02,24.99
8221,0.1937,-0.012,0.9178,-6.4,7.56,0.03,24.99
8231,0.1969,-0.0131,0.915,-6.24,8.06,0.06,25.01
8241,0.1993,-0.0121,0.908,-6.38,7.8,-0.05,25.0
8251,0.1882,-0.0181,0.9108,-6.24,8.6,-0.06,25.0
8261,0.2053,-0.0219,0.8932,-6.34,8.09,-0.17,25.02
8271,0.1938,-0.0266,0.8881,-6.34,7.68,-0.12,25.03
8281,0.1804,-0.027,0.8898,-6.27,8.7,0.0,25.0
8291,0.2012,-0.0316,0.8768,-6.2,8.23,-0.08,24.99
8301,0.2013,-0.0221,0.8712,-6.15,7.04,0.02,24.99
8311,0.1595,-0.0143,0.8777,-6.35,7.37,0.05,24.98
8321,0.1848,-0.0284,0.8943,-6.15,9.92,0.02,24.99
8331,0.2039,-0.0148,0.8754,-6.21,5.79,-0.08,25.01
8341,0.174,-0.0127,0.8892,-6.11,7.39,0.03,25.0
8351,0.1631,-0.0205,0.9064,-6.26,8.72,-0.11,25.0
8361,0.1989,-0.0162,0.8932,-6.24,8.75,-0.05,25.03
8371,0.2006,-0.016,0.8835,-6.27,6.55,-0.05,25.0
8381,0.1744,-0.0281,0.8982,-6.21,7.86,-0.02,25.02
8391,0.1815,-0.019,0.8954,-6.14,8.69,-0.06,25.02
8401,0.2001,-0.0127,0.8816,-6.21,7.66,0.03,25.0
8411,0.1906,-0.017,0.8928,-6.18,7.31,0.03,25.02
8421,0.1864,-0.0132,0.8895,-6.26,8.21,0.03,24.99
8431,0.1858,-0.0149,0.8906,-6.29,7.62,-0.08,25.01
8441,0.1848,-0.0201,0.8938,-6.27,8.03,0.03,25.0
8451,0.1959,-0.0117,0.8837,-6.24,7.59,-0.14,25.01
8461,0.1903,-0.026,0.9016,-6.27,7.25,-0.03,25.02
8471,0.1877,-0.0259,0.911,-6.27,7.83,-0.05,25.01
8481,0.1866,-0.0226,0.8972,-6.26,8.34,-0.06,25.0
8491,0.1952,-0.0167,0.8971,-6.18,7.68,-0.02,25.02
8501,0.1896,-0.0264,0.8986,-6.23,7.54,0.03,25.0
8511,0.1823,-0.0182,0.9032,-6.26,8.18,-0.06,25.02
8521,0.1833,-0.0234,0.8885,-6.29,8.18,-0.09,25.01
8531,0.1896,-0.0259,0.8936,-6.23,7.71,-0.09,25.02
8541,0.1908,-0.0219,0.8925,-6.27,7.8,-0.06,25.01
8551,0.1816,-0.0201,0.8949,-6.21,8.58,-0.05,25.0
8561,0.1962,-0.0221,0.8759,-6.15,8.2,-0.03,25.01
8571,0.1909,-0.0164,0.8771,-6.11,7.24,0.02,25.01
8581,0.1785,-0.0193,0.8822,-6.18,8.21,-0.14,25.02
8591,0.1924,-0.0175,0.8757,-6.14,7.92,-0.02,25.01
8601,0.1891,-0.0132,0.8848,-6.27,7.18,-0.15,25.01
8611,0.1893,-0.0193,0.8936,-6.27,7.42,0.09,25.04
8621,0.1932,-0.0209,0.8995,-6.21,7.65,-0.08,25.01
8631,0.1924,-0.0197,0.8927,-6.26,7.51,-0.06,25.01
8641,0.1873,-0.0183,0.8969,-6.21,7.31,-0.15,25.02
8651,0.1807,-0.0247,0.9087,-6.23,8.05,-0.05,25.03
8661,0.1949,-0.0205,0.8989,-6.29,8.2,-0.02,25.02
8671,0.1775,-0.0259,0.8933,-6.23,7.89,-0.08,24.99
8681,0.1807,-0.0231,0.8912,-6.21,8.09,-0.09,25.03
8691,0.1851,-0.026,0.8833,-6.15,7.94,-0.06,25.01
8701,0.1885,-0.0173,0.8783,-6.14,7.57,-0.05,25.03
8711,0.1825,-0.0262,0.8801,-6.09,7.51,0.0,25.02
8721,0.1812,-0.0159,0.8969,-6.18,7.94,0.02,25.01
8731,0.1935,-0.019,0.8882,-6.21,7.69,-0.06,25.03
8741,0.1935,-0.0142,0.8973,-6.21,6.76,-0.03,25.03
8751,0.1761,-0.0209,0.9186,-6.29,8.4,-0.02,25.05
8761,0.1924,-0.0175,0.9067,-6.24,8.46,0.0,25.02
8771,0.2002,-0.0251,0.8983,-6.2,7.34,-0.06,25.02
8781,0.1864,-0.0203,0.9061,-6.15,7.65,-0.09,25.02
8791,0.1821,-0.0267,0.8986,-6.29,8.89,0.0,25.03
8801,0.1969,-0.0251,0.8824,-6.2,7.98,-0.02,25.01
8811,0.1998,-0.0232,0.8805,-6.2,7.65,-0.03,25.04
8821,0.1809,-0.0184,0.8834,-6.14,7.45,-0.06,25.01
8831,0.182,-0.0259,0.8817,-6.14,8.38,-0.08,25.03
8841,0.1913,-0.0172,0.8722,-6.21,7.73,-0.08,25.03
8851,0.1879,-0.0183,0.8745,-6.14,7.01,0.05,25.01
8861,0.1764,-0.0212,0.8904,-6.2,7.71,-0.06,25.04
8871,0.1886,-0.0171,0.8932,-6.31,7.79,-0.12,25.05
8881,0.1932,-0.0166,0.894,-6.23,7.24,-0.09,25.01
8891,0.1851,-0.0209,0.9053,-6.24,7.18,-0.06,25.03
8901,0.1804,-0.0189,0.9116,-6.17,8.82,-0.06,25.01
8911,0.1971,-0.0227,0.8965,-6.24,7.86,-0.05,25.02
8921,0.1918,-0.0217,0.8888,-6.23,7.8,0.05,25.03
8931,0.1814,-0.0223,0.891,-6.23,7.53,0.03,25.02
8941,0.1785,-0.0231,0.8837,-6.14,8.47,-0.05,25.0
8951,0.1884,-0.0242,0.8796,-6.24,7.91,-0.02,25.03
8961,0.1877,-0.0149,0.8804,-6.18,7.36,-0.09,25.01
8971,0.1802,-0.0187,0.8949,-6.24,7.82,-0.06,25.03
8981,0.1843,-0.0221,0.8911,-6.2,7.5,-0.14,25.02
8991,0.1829,-0.0164,0.9048,-6.21,7.92,-0.05,25.06
9001,0.1901,-0.0204,0.8956,-6.21,7.57,-0.15,25.03
9011,0.1884,-0.0223,0.9062,-6.18,7.48,-0.03,25.02
9021,0.1749,-0.0197,0.912,-6.17,8.58,-0.06,25.02
9031,0.197,-0.0186,0.889,-6.2,8.44,-0.02,25.03
9041,0.1931,-0.0283,0.8806,-6.2,7.18,0.03,25.02
9051,0.1831,-0.0178,0.8867,-6.23,7.83,0.02,25.04
9061,0.181,-0.0216,0.8756,-6.17,8.75,0.0,25.04
9071,0.2014,-0.019,0.8645,-6.2,7.05,0.02,25.03
9081,0.1792,-0.0194,0.8866,-6.27,7.07,0.03,25.04
9091,0.1758,-0.0156,0.8798,-6.27,7.71,0.02,25.03
9101,0.1947,-0.0209,0.8878,-6.32,7.62,-0.03,25.04
9111,0.1923,-0.0168,0.9026,-6.23,7.07,-0.14,25.06
9121,0.187,-0.0206,0.9147,-6.26,7.71,-0.05,25.02
9131,0.184,-0.0227,0.9165,-6.27,8.5,-0.06,25.02
9141,0.2007,-0.0214,0.8966,-6.21,8.27,-0.08,25.06
9151,0.1904,-0.0181,0.8948,-6.29,7.69,-0.11,25.05
9161,0.1855,-0.0265,0.8909,-6.31,7.76,-0.08,25.05
9171,0.1785,-0.0184,0.8888,-6.27,8.75,-0.02,25.04
9181,0.192,-0.0148,0.8716,-6.15,8.24,0.0,25.06
9191,0.1907,-0.0173,0.8745,-6.17,6.9,0.02,25.02
9201,0.1746,-0.0165,0.8942,-6.21,7.91,-0.03,25.03
9211,0.1882,-0.0157,0.8855,-6.21,8.23,0.03,25.03
9221,0.1986,-0.0204,0.8853,-6.18,7.22,-0.05,25.04
9231,0.1853,-0.0159,0.8948,-6.29,7.11,-0.03,25.04
9241,0.1816,-0.0197,0.9033,-6.32,8.32,-0.06,25.01
9251,0.1923,-0.0172,0.8942,-6.14,8.15,-0.06,25.03
9261,0.1996,-0.0176,0.891,-6.24,7.25,-0.02,25.04
9271,0.1819,-0.0171,0.9028,-6.26,7.3,-0.02,25.04
9282,0.1875,-0.0225,0.8958,-6.15,6.84,-0.06,25.02
9292,0.1891,-0.0206,0.905,-6.24,8.52,-0.05,25.02
9302,0.1956,-0.0214,0.8912,-6.24,7.48,-0.02,25.05
9312,0.183,-0.0242,0.8995,-6.2,7.74,-0.05,25.03
9322,0.1803,-0.0176,0.903,-6.27,8.55,0.02,25.02
9332,0.1869,-0.0171,0.8901,-6.26,8.37,-0.03,25.04
9342,0.1893,-0.0237,0.8871,-6.09,7.62,-0.06,25.03
9352,0.1813,-0.0132,0.8887,-6.09,8.02,-0.06,25.05
9362,0.1897,-0.0144,0.8809,-6.12,8.21,-0.05,25.02
9372,0.1909,-0.0209,0.8875,-6.24,7.04,-0.14,25.06
9382,0.1832,-0.0154,0.8967,-6.24,7.88,0.03,25.02
9392,0.1904,-0.0172,0.8923,-6.27,8.12,-0.12,25.04
9402,0.1952,-0.022,0.8922,-6.21,7.42,-0.03,25.06
9412,0.1884,-0.0222,0.9022,-6.17,7.82,-0.09,25.06
9422,0.1896,-0.0221,0.8969,-6.23,8.05,-0.03,25.04
9432,0.1877,-0.0226,0.8955,-6.18,7.88,-0.08,25.06
9442,0.194,-0.019,0.8865,-6.23,7.6,-0.15,25.05
9452,0.1846,-0.0159,0.9033,-6.23,7.77,-0.09,25.04
9462,0.1754,-0.02,0.9143,-6.27,8.23,-0.03,25.05
9472,0.1941,-0.0146,0.8961,-6.21,8.17,-0.11,25.07
9482,0.1844,-0.0205,0.9069,-6.18,7.53,0.03,25.05
9492,0.1827,-0.0256,0.9078,-6.15,8.21,-0.02,25.07
9502,0.1782,-0.0166,0.8995,-6.27,8.29,0.0,25.07
9512,0.1819,-0.0157,0.889,-6.2,8.78,0.03,25.06
9522,0.1919,-0.0186,0.8676,-6.14,7.53,-0.05,25.05
9532,0.1846,-0.0121,0.8798,-6.15,7.31,-0.08,25.05
9542,0.1866,-0.0179,0.8789,-6.12,7.76,-0.09,25.05
9552,0.1908,-0.0189,0.8832,-6.2,7.59,-0.02,25.07
9562,0.1901,-0.0179,0.8877,-6.31,7.73,-0.08,25.05
9572,0.2018,-0.0179,0.8895,-6.12,7.13,-0.02,25.05
9582,0.193,-0.0226,0.9061,-6.27,6.93,-0.06,25.02
9592,0.1841,-0.022,0.9269,-6.2,8.49,0.02,25.04
9602,0.1847,-0.0245,0.9058,-6.34,9.01,-0.02,25.04
9612,0.1987,-0.0288,0.8881,-6.21,7.91,-0.02,25.05
9622,0.1884,-0.0173,0.8925,-6.24,6.81,-0.06,25.05
9632,0.1656,-0.0175,0.9114,-6.18,8.93,-0.02,25.07
9642,0.1951,-0.0244,0.8815,-6.27,8.63,-0.08,25.07
9652,0.1896,-0.0182,0.8774,-6.26,7.15,-0.05,25.06
9662,0.1829,-0.0173,0.8901,-6.23,7.92,0.06,25.05
9672,0.186,-0.0242,0.8778,-6.24,8.08,-0.02,25.07
9682,0.1917,-0.0122,0.8831,-6.15,7.6,-0.11,25.07
9692,0.1908,-0.0195,0.8799,-6.12,7.57,-0.02,25.08
9702,0.1931,-0.0181,0.8907,-6.23,6.92,-0.05,25.05
9712,0.1869,-0.0204,0.9042,-6.21,7.74,-0.15,25.04
9722,0.1893,-0.0175,0.9017,-6.31,8.26,-0.09,25.05
9732,0.1925,-0.0262,0.8818,-6.23,7.62,-0.03,25.07
9742,0.1885,-0.0197,0.892,-6.15,7.74,0.03,25.06
9752,0.1804,-0.0227,0.8918,-6.27,8.08,-0.02,25.06
9762,0.1917,-0.0221,0.8844,-6.21,8.0,-0.06,25.07
9772,0.1908,-0.0219,0.8922,-6.2,7.31,-0.12,25.06
9782,0.1859,-0.0188,0.9012,-6.24,7.62,-0.02,25.09
9792,0.1819,-0.0243,0.9069,-6.2,8.03,-0.06,25.09
9802,0.1903,-0.0186,0.8885,-6.15,8.0,-0.03,25.07
9812,0.184,-0.0219,0.8958,-6.2,7.65,-0.03,25.05
9822,0.1866,-0.0216,0.8906,-6.17,8.05,0.0,25.07
9832,0.1886,-0.0176,0.8901,-6.24,7.77,-0.09,25.07
9842,0.1866,-0.0162,0.8831,-6.23,8.02,-0.09,25.07
9852,0.1949,-0.0236,0.8789,-6.2,7.11,0.02,25.07
9862,0.1743,-0.0189,0.891,-6.15,7.86,0.05,25.07
9872,0.1852,-0.0173,0.8862,-6.26,8.31,-0.08,25.05
9882,0.1976,-0.0178,0.8812,-6.14,7.08,-0.03,25.06
9892,0.1895,-0.0134,0.8915,-6.15,7.04,-0.08,25.06
9902,0.1826,-0.015,0.9011,-6.15,7.88,-0.03,25.07
9912,0.196,-0.021,0.9037,-6.21,8.12,-0.06,25.05
9922,0.1973,-0.0192,0.9056,-6.21,7.77,-0.08,25.05
9932,0.1875,-0.0201,0.9082,-6.32,7.63,-0.09,25.05
9942,0.1794,-0.0302,0.9028,-6.2,8.79,-0.05,25.05
9952,0.1929,-0.0201,0.8904,-6.14,7.98,-0.08,25.02
9962,0.1846,-0.0212,0.8835,-6.15,8.0,0.06,25.06
9972,0.1832,-0.0219,0.8772,-6.23,7.71,-0.06,25.06
9982,0.1782,-0.0176,0.8772,-6.2,7.57,-0.06,25.06
9992,0.1809,-0.0188,0.886,-6.17,7.79,0.02,25.05
10002,0.1864,-0.0186,0.8844,-6.05,8.12,-0.18,25.05
10012,0.1898,-0.0122,0.8953,-6.15,6.95,-0.17,25.06
10022,0.1825,-0.0165,0.9028,-6.2,7.74,0.02,25.04
10032,0.1917,-0.0181,0.9053,-6.27,8.34,-0.03,25.06
10042,0.2085,-0.0148,0.8899,-6.21,7.4,-0.06,25.07
10052,0.1849,-0.0173,0.9048,-6.12,7.65,0.03,25.08
10062,0.1854,-0.0167,0.902,-6.24,8.26,-0.05,25.06
10072,0.1891,-0.0153,0.8936,-6.2,8.26,-0.06,25.06
10082,0.1886,-0.0153,0.8911,-6.29,7.69,-0.12,25.04
10092,0.1891,-0.022,0.8821,-6.23,8.0,0.0,25.05
10102,0.1895,-0.0144,0.8845,-6.24,7.34,-0.08,25.08
10112,0.1793,-0.0188,0.8818,-6.18,8.18,0.0,25.07
10122,0.1865,-0.0167,0.8823,-6.23,8.08,-0.06,25.07
10132,0.1868,-0.0137,0.876,-6.26,7.13,-0.08,25.07
10142,0.1801,-0.0201,0.8998,-6.17,7.82,0.02,25.09
10152,0.1887,-0.0192,0.8923,-6.32,7.89,-0.09,25.07
10162,0.192,-0.0099,0.9021,-6.35,8.0,-0.06,25.06
10172,0.2006,-0.0223,0.9001,-6.29,7.24,-0.03,25.07
10182,0.1836,-0.017,0.9199,-6.23,8.31,0.02,25.09
10192,0.1934,-0.0226,0.9003,-6.2,8.34,0.02,25.07
10202,0.1951,-0.0209,0.8883,-6.17,7.71,0.02,25.07
10212,0.186,-0.0259,0.8837,-6.27,7.68,-0.02,25.05
10222,0.1837,-0.014,0.8831,-6.18,8.17,-0.12,25.08
10232,0.194,-0.0175,0.8774,-6.23,7.62,0.03,25.1
10242,0.1918,-0.014,0.8881,-6.27,7.21,-0.03,25.08
10252,0.188,-0.0151,0.9008,-6.2,7.56,-0.08,25.08
10262,0.1863,-0.0193,0.9019,-6.21,8.03,-0.08,25.07
10272,0.187,-0.0203,0.901,-6.18,8.7,-0.08,25.09
10282,0.1998,-0.0145,0.885,-6.18,7.98,-0.05,25.08
10292,0.1979,-0.0209,0.8861,-6.18,6.82,-0.05,25.04
10302,0.1755,-0.0242,0.9021,-6.23,8.14,-0.05,25.07
10312,0.1893,-0.0166,0.8887,-6.18,9.01,-0.05,25.06
10322,0.1989,-0.0188,0.8757,-6.23,7.45,-0.03,25.07
10332,0.1871,-0.0162,0.8894,-6.32,6.98,-0.03,25.05
10342,0.1775,-0.0167,0.8984,-6.23,8.46,-0.05,25.03
10352,0.197,-0.0203,0.8918,-6.31,7.95,0.03,25.05
10362,0.192,-0.0234,0.8977,-6.29,7.74,-0.08,25.06
10372,0.1906,-0.0168,0.9031,-6.24,8.12,-0.03,25.06
10382,0.1949,-0.0266,0.89,-6.21,7.94,0.06,25.08
10392,0.1913,-0.0228,0.8893,-6.14,8.14,-0.02,25.08
10402,0.1864,-0.0188,0.8726,-6.15,7.89,-0.11,25.08
10412,0.1886,-0.0172,0.8716,-6.15,7.73,-0.02,25.08
10422,0.1857,-0.0221,0.8776,-6.18,7.18,-0.03,25.08
10432,0.1844,-0.0101,0.8755,-6.11,7.71,0.0,25.07
10442,0.1895,-0.0188,0.8768,-6.27,6.98,0.0,25.08
10452,0.1848,-0.0165,0.9022,-6.24,7.11,-0.08,25.05
10462,0.1752,-0.0153,0.915,-6.2,8.53,-0.02,25.06
10472,0.1946,-0.0189,0.8969,-6.21,7.97,-0.08,25.06
10482,0.1926,-0.021,0.9136,-6.2,7.15,-0.11,25.07
10492,0.1827,-0.0194,0.9153,-6.18,8.63,-0.05,25.07
10502,0.1989,-0.0229,0.8987,-6.27,8.29,-0.03,25.08
10512,0.1979,-0.0238,0.8918,-6.24,8.02,-0.12,25.08
10522,0.1923,-0.0228,0.8879,-6.21,7.83,-0.06,25.08
10532,0.1852,-0.0227,0.8815,-6.18,8.23,0.0,25.09
10542,0.1919,-0.0222,0.8795,-6.23,8.12,0.0,25.07
10552,0.1868,-0.0145,0.8741,-6.14,7.39,0.02,25.06
10562,0.1765,-0.0208,0.8872,-6.24,7.63,0.03,25.07
10572,0.1796,-0.0226,0.8942,-6.12,8.27,-0.02,25.06
10582,0.1901,-0.0197,0.8911,-6.26,7.92,0.0,25.08
10592,0.1866,-0.0206,0.8885,-6.32,6.99,0.0,25.09
10602,0.1754,-0.0226,0.9028,-6.18,8.32,-0.05,25.09
10612,0.1906,-0.0171,0.8853,-6.14,8.29,-0.03,25.07
10622,0.1964,-0.0148,0.8811,-6.27,7.07,0.03,25.07
10632,0.1852,-0.021,0.8854,-6.2,7.51,0.05,25.08
10642,0.1842,-0.0168,0.8945,-6.21,8.47,-0.08,25.09
10652,0.2019,-0.0193,0.8785,-6.27,7.34,-0.02,25.06
10662,0.1915,-0.0217,0.8925,-6.17,7.13,-0.06,25.07
10672,0.1747,-0.0164,0.9032,-6.2,8.18,-0.02,25.08
10682,0.1909,-0.021,0.8927,-6.23,8.17,0.06,25.07
10692,0.1941,-0.0203,0.8962,-6.15,7.34,-0.02,25.07
10702,0.1772,-0.0168,0.9091,-6.21,8.06,-0.11,25.08
10712,0.1868,-0.0195,0.9006,-6.21,8.43,-0.08,25.05
10722,0.1853,-0.0212,0.8865,-6.18,8.15,-0.03,25.07
10732,0.1825,-0.0171,0.9006,-6.24,7.77,-0.02,25.07
10742,0.1776,-0.0208,0.8978,-6.2,8.43,-0.02,25.07
10752,0.1929,-0.0178,0.8894,-6.17,7.77,-0.05,25.09
10762,0.1864,-0.0168,0.894,-6.27,7.63,-0.02,25.07
10772,0.1892,-0.0171,0.8977,-6.26,7.73,-0.05,25.08
10782,0.1803,-0.0215,0.9011,-6.23,8.11,-0.03,25.05
10792,0.2014,-0.0154,0.8923,-6.23,7.73,-0.05,25.06
10802,0.1941,-0.0261,0.8956,-6.32,7.73,-0.03,25.07
10812,0.1909,-0.0167,0.9,-6.31,8.09,-0.06,25.1
10822,0.1958,-0.0231,0.8844,-6.2,7.86,-0.06,25.1
10832,0.1907,-0.02,0.8889,-6.15,7.82,0.02,25.08
10842,0.183,-0.0243,0.8827,-6.18,8.41,0.0,25.08
10852,0.1969,-0.0128,0.8717,-6.23,7.65,-0.08,25.07
10862,0.1849,-0.0208,0.8812,-6.21,7.36,0.05,25.09
10872,0.1888,-0.0167,0.8939,-6.15,7.77,0.02,25.08
10882,0.1913,-0.0168,0.8889,-6.23,7.73,0.0,25.1
10892,0.1893,-0.0208,0.8926,-6.23,7.59,0.0,25.08
10902,0.191,-0.0221,0.8942,-6.15,7.47,0.0,25.07
10912,0.1833,-0.0172,0.8969,-6.12,7.89,-0.03,25.09
10922,0.1848,-0.02,0.8942,-6.18,7.95,0.0,25.08
10932,0.1876,-0.0172,0.8857,-6.21,7.73,-0.08,25.08
10942,0.1862,-0.0153,0.8906,-6.26,7.39,-0.09,25.09
10952,0.1835,-0.0167,0.8928,-6.15,7.95,0.02,25.09
10962,0.1899,-0.0186,0.8914,-6.18,7.85,-0.11,25.09
10972,0.1862,-0.0198,0.8956,-6.21,7.44,-0.03,25.08
10982,0.181,-0.0193,0.8961,-6.24,7.79,-0.03,25.08
10992,0.1844,-0.0214,0.8922,-6.23,8.31,0.0,25.09
11002,0.1908,-0.0153,0.8939,-6.23,7.42,-0.03,25.07
11012,0.1816,-0.0184,0.9023,-6.27,7.82,-0.02,25.07
11022,0.1893,-0.0172,0.9032,-6.24,8.43,-0.09,25.11
11032,0.192,-0.0201,0.8994,-6.29,7.86,-0.11,25.1
11042,0.1935,-0.0162,0.9069,-6.26,7.89,-0.09,25.11
11052,0.1899,-0.0212,0.8994,-6.11,8.43,-0.08,25.09
11062,0.2021,-0.0208,0.895,-6.21,8.21,-0.08,25.08
11072,0.1896,-0.025,0.8878,-6.29,7.82,-0.08,25.08
11082,0.1904,-0.0236,0.8826,-6.23,8.09,-0.05,25.08
11092,0.1833,-0.0221,0.8754,-6.24,7.69,-0.09,25.07
11102,0.1865,-0.0167,0.8788,-6.14,8.32,0.0,25.07
11112,0.194,-0.0249,0.8746,-6.14,7.37,-0.05,25.09
11122,0.1864,-0.0137,0.8846,-6.18,7.04,-0.06,25.08
11132,0.174,-0.0212,0.8922,-6.08,8.08,-0.02,25.09
11142,0.1926,-0.0172,0.8853,-6.15,7.6,-0.06,25.08
11152,0.1875,-0.019,0.8939,-6.17,7.01,-0.08,25.09
11162,0.1808,-0.0159,0.9086,-6.26,7.69,0.0,25.07
11172,0.1886,-0.0276,0.9061,-6.21,8.21,-0.05,25.07
11182,0.1969,-0.0171,0.8984,-6.15,7.6,-0.02,25.08
11192,0.1863,-0.0256,0.9021,-6.18,8.0,-0.05,25.09
11202,0.1866,-0.02,0.894,-6.11,8.38,0.0,25.09
11212,0.1938,-0.0208,0.8812,-6.11,7.74,0.08,25.09
11222,0.1831,-0.0153,0.8887,-6.15,7.5,-0.11,25.1
11232,0.1842,-0.0188,0.8932,-6.23,8.05,-0.03,25.06
11242,0.1847,-0.0142,0.8925,-6.24,7.8,0.0,25.09
11252,0.1924,-0.0182,0.8931,-6.27,7.85,0.0,25.09
11262,0.1913,-0.0189,0.9,-6.29,7.66,-0.05,25.11
11272,0.1951,-0.0162,0.8995,-6.27,7.71,-0.11,25.11
11282,0.1885,-0.0236,0.9037,-6.26,7.77,0.02,25.09
11292,0.1842,-0.0244,0.9048,-6.15,8.6,0.0,25.09
11302,0.197,-0.0226,0.8887,-6.27,8.11,-0.03,25.06
11312,0.1912,-0.0225,0.8849,-6.14,7.73,-0.02,25.11
11322,0.1821,-0.0236,0.8789,-6.23,7.95,-0.08,25.07
11332,0.1849,-0.0156,0.8763,-6.2,8.06,0.02,25.08
11342,0.188,-0.0193,0.8763,-6.23,7.77,0.02,25.1
11352,0.197,-0.0156,0.8735,-6.11,7.27,-0.08,25.12
11362,0.1835,-0.0145,0.8853,-6.26,7.16,-0.06,25.1
11372,0.1874,-0.0157,0.8881,-6.27,7.68,0.02,25.09
11382,0.1901,-0.0181,0.899,-6.23,7.54,-0.06,25.08
11392,0.1895,-0.0144,0.8934,-6.14,7.68,-0.06,25.08
11402,0.1875,-0.0212,0.9015,-6.26,7.45,0.0,25.1
11412,0.1819,-0.021,0.8979,-6.18,8.24,-0.06,25.11
11422,0.1914,-0.0201,0.8901,-6.18,7.82,0.0,25.12
11432,0.1906,-0.0188,0.8859,-6.12,7.19,0.05,25.07
11442,0.1888,-0.0214,0.8916,-6.24,7.33,-0.03,25.1
11452,0.1797,-0.0137,0.8929,-6.21,8.15,-0.06,25.11
11462,0.1868,-0.0178,0.8967,-6.32,7.71,0.02,25.11
11472,0.1909,-0.0194,0.8937,-6.23,7.8,0.06,25.12
11482,0.1929,-0.0154,0.9011,-6.23,7.51,-0.06,25.08
11492,0.1858,-0.0194,0.9009,-6.31,7.63,-0.12,25.1
11502,0.1805,-0.0199,0.9056,-6.2,8.72,-0.12,25.1
11512,0.1986,-0.0177,0.8855,-6.23,8.06,-0.06,25.1
11522,0.194,-0.0226,0.8884,-6.29,7.22,-0.09,25.11
11532,0.1785,-0.0223,0.8923,-6.12,8.31,-0.02,25.1
11542,0.1877,-0.0208,0.882,-6.18,8.7,-0.08,25.1
11552,0.2008,-0.0181,0.8617,-6.24,7.22,0.06,25.09
11562,0.1844,-0.0162,0.8904,-6.21,6.85,-0.02,25.13
11572,0.1727,-0.0128,0.9027,-6.27,8.14,-0.05,25.09
11582,0.1943,-0.0156,0.8865,-6.27,8.12,0.03,25.1
11592,0.1978,-0.0209,0.8945,-6.26,6.76,0.03,25.07
11602,0.1863,-0.0172,0.9219,-6.2,7.62,-0.12,25.09
11612,0.184,-0.0247,0.9216,-6.26,8.72,-0.02,25.11
11622,0.1936,-0.0238,0.9,-6.23,8.64,-0.05,25.12
11632,0.1931,-0.0177,0.8875,-6.26,7.83,-0.02,25.09
11642,0.1836,-0.0244,0.8894,-6.17,7.91,0.02,25.09
11652,0.1836,-0.021,0.8815,-6.11,8.27,-0.06,25.1
11662,0.1829,-0.0188,0.874,-6.21,7.97,0.0,25.1
11672,0.1899,-0.0155,0.8724,-6.29,7.42,0.0,25.1
11682,0.1906,-0.0161,0.8785,-6.17,7.22,-0.03,25.12
11692,0.1859,-0.009,0.8953,-6.26,7.31,-0.08,25.11
11702,0.1886,-0.0177,0.8997,-6.21,7.65,-0.03,25.09
11712,0.1926,-0.0172,0.9027,-6.27,7.45,-0.02,25.08
11722,0.1837,-0.0179,0.9048,-6.24,8.08,-0.03,25.09
11732,0.1941,-0.017,0.8975,-6.31,8.0,-0.03,25.09
11742,0.1893,-0.026,0.8901,-6.21,7.56,-0.05,25.1
11752,0.188,-0.0173,0.8986,-6.2,8.06,0.03,25.1
11762,0.1853,-0.0248,0.8925,-6.31,8.31,-0.03,25.13
11772,0.1959,-0.0195,0.8838,-6.24,7.69,-0.05,25.09
11782,0.1831,-0.019,0.8865,-6.21,7.47,-0.12,25.12
11792,0.191,-0.0215,0.8898,-6.29,7.76,0.0,25.1
11802,0.189,-0.0262,0.8868,-6.24,7.59,-0.08,25.1
11812,0.1863,-0.0153,0.8846,-6.2,7.59,-0.02,25.11
11822,0.1736,-0.0184,0.8925,-6.26,8.24,-0.03,25.07
11832,0.1978,-0.0135,0.875,-6.27,7.5,-0.03,25.12
11843,0.1901,-0.0132,0.8795,-6.2,6.98,-0.05,25.1
11853,0.1807,-0.0117,0.8947,-6.2,7.28,-0.08,25.1
11863,0.1847,-0.0233,0.9137,-6.37,7.83,-0.06,25.11
11873,0.1835,-0.0176,0.9034,-6.43,8.2,0.0,25.09
11883,0.1907,-0.0211,0.8949,-6.21,8.32,-0.05,25.13
11893,0.1887,-0.0233,0.8889,-6.14,7.77,0.0,25.11
11903,0.1908,-0.0155,0.8929,-6.12,7.91,-0.06,25.11
11913,0.1814,-0.0182,0.8857,-6.15,7.82,0.02,25.11
11923,0.1958,-0.0223,0.882,-6.14,7.56,0.0,25.1
11933,0.1826,-0.0155,0.895,-6.26,7.66,-0.08,25.11
11943,0.1898,-0.0175,0.9071,-6.21,8.2,-0.02,25.12
11953,0.1943,-0.0199,0.9006,-6.29,7.88,-0.15,25.1
11963,0.1975,-0.0164,0.895,-6.24,7.18,-0.08,25.12
11973,0.1711,-0.0201,0.9064,-6.2,8.31,-0.03,25.12
11983,0.1917,-0.019,0.8801,-6.23,9.08,-0.03,25.1
11993,0.1874,-0.0188,0.8717,-6.26,7.21,-0.02,25.1
12003,0.178,-0.0162,0.8782,-6.11,7.63,0.11,25.1
12013,0.1776,-0.0232,0.8854,-6.27,8.21,-0.06,25.1
12023,0.1904,-0.011,0.8765,-6.31,7.68,-0.05,25.1
12033,0.1835,-0.0167,0.879,-6.26,6.93,0.0,25.11
12043,0.1808,-0.0144,0.9088,-6.2,7.68,0.02,25.1
12053,0.1963,-0.0208,0.905,-6.2,8.46,-0.06,25.11
12063,0.2056,-0.017,0.896,-6.2,6.87,0.0,25.11
12073,0.1835,-0.0275,0.9104,-6.21,7.73,-0.06,25.11
12083,0.1776,-0.0186,0.9042,-6.17,9.1,-0.09,25.13
12093,0.2008,-0.0234,0.874,-6.17,8.24,0.11,25.12
12103,0.192,-0.0197,0.8755,-6.09,6.38,0.0,25.11
12113,0.1667,-0.0173,0.8936,-6.2,8.38,0.0,25.1
12123,0.1711,-0.0144,0.8834,-6.31,8.63,-0.05,25.11
12133,0.193,-0.0162,0.8854,-6.2,6.84,0.08,25.1
12143,0.1857,-0.0071,0.8926,-6.26,7.18,-0.09,25.1
12153,0.1823,-0.0167,0.8955,-6.35,7.82,0.02,25.1
12163,0.1854,-0.0184,0.9003,-6.24,8.08,-0.02,25.1
12173,0.1914,-0.0173,0.8986,-6.32,7.82,-0.09,25.13
12183,0.1864,-0.0233,0.9036,-6.24,8.15,-0.09,25.1
12193,0.194,-0.0215,0.8909,-6.2,7.97,-0.17,25.09
12203,0.1877,-0.0187,0.8876,-6.17,8.09,-0.02,25.11
12213,0.1879,-0.0203,0.8823,-6.2,7.74,-0.02,25.11
12223,0.182,-0.021,0.8911,-6.21,7.68,0.0,25.1
12233,0.1766,-0.0187,0.8918,-6.12,8.24,-0.11,25.11
12243,0.1908,-0.0157,0.8735,-6.17,7.79,-0.03,25.11
12253,0.1892,-0.0156,0.8856,-6.26,6.87,-0.05,25.12
12263,0.1775,-0.0156,0.9072,-6.14,7.91,0.02,25.13
12273,0.1852,-0.0138,0.9027,-6.26,8.61,-0.02,25.12
12283,0.2008,-0.0225,0.8914,-6.2,7.28,0.0,25.11
12293,0.1854,-0.0179,0.8972,-6.2,7.62,-0.02,25.11
12303,0.1783,-0.021,0.9032,-6.34,8.55,-0.02,25.13
12313,0.1945,-0.0228,0.892,-6.15,8.6,-0.05,25.13
12323,0.1996,-0.0239,0.8815,-6.27,7.34,-0.06,25.12
12333,0.1805,-0.0198,0.887,-6.18,7.89,-0.02,25.13
12343,0.176,-0.0265,0.8866,-6.12,7.95,-0.06,25.11
12353,0.1843,-0.0176,0.8792,-6.15,8.43,-0.08,25.13
12363,0.196,-0.0197,0.8661,-6.26,7.01,-0.06,25.11
12373,0.1813,-0.0161,0.8873,-6.24,6.95,-0.12,25.09
12383,0.1746,-0.0179,0.905,-6.23,8.27,-0.14,25.11
12393,0.1936,-0.0126,0.8922,-6.32,7.76,-0.03,25.1
12403,0.1959,-0.0222,0.9032,-6.27,7.01,-0.03,25.12
12413,0.1875,-0.0151,0.9083,-6.38,7.71,-0.11,25.11
12423,0.1836,-0.0223,0.9135,-6.34,8.55,-0.11,25.13
12433,0.1984,-0.0237,0.8973,-6.26,8.41,-0.09,25.12
12443,0.1941,-0.024,0.8958,-6.31,7.63,-0.08,25.13
12453,0.1766,-0.0206,0.8971,-6.21,8.78,-0.02,25.12
12463,0.186,-0.0291,0.8778,-6.29,8.5,-0.02,25.12
12473,0.1866,-0.0194,0.8719,-6.21,7.94,0.0,25.13
12483,0.1887,-0.0197,0.8673,-6.23,7.13,-0.06,25.11
12493,0.1803,-0.0208,0.8879,-6.2,7.54,-0.03,25.11
12503,0.1879,-0.017,0.8967,-6.18,8.12,-0.06,25.12
12513,0.1984,-0.0178,0.882,-6.18,7.21,0.02,25.12
12523,0.191,-0.0215,0.8982,-6.18,7.15,0.03,25.12
12533,0.1825,-0.0237,0.9014,-6.2,8.11,-0.09,25.14
12543,0.1913,-0.0166,0.8922,-6.27,7.85,-0.09,25.12
12553,0.1855,-0.0245,0.8832,-6.21,7.74,0.05,25.12
12563,0.1818,-0.0208,0.8898,-6.2,7.6,-0.03,25.14
12573,0.1848,-0.0193,0.8865,-6.12,7.79,-0.05,25.14
12583,0.1892,-0.0188,0.8881,-6.17,7.24,-0.02,25.1
12593,0.1796,-0.0193,0.9009,-6.21,7.6,-0.09,25.11
12603,0.1865,-0.014,0.9075,-6.27,8.14,-0.2,25.13
12613,0.1931,-0.0195,0.9003,-6.29,7.56,-0.12,25.12
12623,0.1868,-0.0178,0.9155,-6.23,7.77,-0.12,25.1
12633,0.1838,-0.0217,0.9108,-6.23,8.78,-0.14,25.14
12643,0.1982,-0.0215,0.8895,-6.24,8.24,0.06,25.13
12653,0.1956,-0.0237,0.8898,-6.2,7.44,-0.03,25.15
12663,0.1835,-0.022,0.8945,-6.11,8.26,-0.03,25.13
12673,0.184,-0.0248,0.8898,-6.23,8.44,0.0,25.14
12683,0.1947,-0.0165,0.8781,-6.14,7.8,-0.11,25.12
12693,0.1848,-0.0195,0.8821,-6.18,7.36,-0.05,25.13
12703,0.181,-0.02,0.8839,-6.21,8.34,0.02,25.13
12713,0.1931,-0.0223,0.8726,-6.21,7.53,-0.02,25.12
12723,0.1858,-0.0127,0.8799,-6.26,6.64,0.03,25.13
12733,0.1724,-0.0215,0.9093,-6.26,8.24,0.02,25.1
12743,0.1951,-0.014,0.9008,-6.27,8.2,-0.08,25.14
12753,0.1984,-0.0161,0.8945,-6.23,7.05,-0.08,25.12
12764,0.1979,-0.0172,0.8947,-6.21,6.64,-0.03,25.13
12774,0.1899,-0.0176,0.8943,-6.27,6.87,0.0,25.14
12784,0.1765,-0.0149,0.9027,-6.17,9.33,-0.02,25.12
12794,0.2007,-0.0222,0.8793,-6.32,7.56,-0.05,25.11
12804,0.1899,-0.0187,0.8878,-6.18,6.84,-0.03,25.13
12814,0.1837,-0.0203,0.9038,-6.32,7.3,-0.03,25.13
12824,0.1785,-0.0197,0.8976,-6.2,8.6,-0.03,25.14
12834,0.1902,-0.0164,0.8882,-6.24,8.08,-0.09,25.14
12844,0.1893,-0.0194,0.8845,-6.24,7.42,-0.09,25.12
12854,0.1852,-0.0183,0.8959,-6.26,7.6,0.02,25.14
12865,0.1775,-0.0193,0.9008,-6.32,7.74,-0.09,25.12
12875,0.1858,-0.0161,0.8938,-6.17,8.37,-0.06,25.1
12885,0.1954,-0.0212,0.8865,-6.12,7.21,0.0,25.12
12895,0.179,-0.0167,0.9003,-6.18,7.54,0.02,25.12
12905,0.1761,-0.0177,0.9014,-6.24,8.79,-0.03,25.13
12915,0.1967,-0.0155,0.8835,-6.24,7.66,-0.15,25.15
12925,0.1838,-0.0156,0.9033,-6.17,6.96,-0.11,25.12
12935,0.1812,-0.0144,0.9065,-6.29,8.67,-0.06,25.13
12945,0.1965,-0.0215,0.9019,-6.2,8.12,0.02,25.12
12955,0.1914,-0.0188,0.8944,-6.21,7.91,-0.2,25.12
12965,0.1858,-0.0209,0.8922,-6.15,8.18,-0.05,25.12
12975,0.1873,-0.0199,0.8723,-6.17,7.89,-0.05,25.15
12985,0.1793,-0.0228,0.8901,-6.15,8.11,-0.06,25.14
12995,0.1892,-0.0157,0.8822,-6.21,8.4,-0.08,25.12
13005,0.1967,-0.0205,0.8666,-6.14,6.98,-0.05,25.14
13015,0.1793,-0.0162,0.8909,-6.23,6.79,0.02,25.12
13025,0.1786,-0.019,0.9,-6.23,8.87,-0.08,25.12
13035,0.1989,-0.019,0.8862,-6.17,7.34,-0.05,25.14
13045,0.1925,-0.0215,0.8975,-6.21,7.22,-0.05,25.14
13055,0.184,-0.0182,0.9001,-6.18,7.94,-0.03,25.15
13065,0.1813,-0.0211,0.9015,-6.2,8.32,-0.06,25.13
13075,0.1985,-0.0205,0.8857,-6.21,8.02,0.03,25.14
13085,0.1953,-0.0206,0.8903,-6.31,6.89,-0.03,25.14
13095,0.1832,-0.0194,0.8999,-6.12,8.11,0.03,25.14
13105,0.1893,-0.0217,0.8914,-6.2,8.37,-0.11,25.13
13115,0.1956,-0.0197,0.8876,-6.15,7.69,-0.05,25.15
13125,0.1847,-0.0238,0.8856,-6.21,7.48,-0.08,25.13
13135,0.1761,-0.0197,0.8821,-6.21,8.11,-0.06,25.12
13145,0.1897,-0.0161,0.88,-6.15,7.69,0.0,25.15
13155,0.1864,-0.0162,0.8822,-6.27,7.18,-0.06,25.13
13165,0.1786,-0.0231,0.8984,-6.2,7.94,-0.09,25.12
13175,0.1896,-0.0178,0.8843,-6.17,8.14,-0.05,25.13
13185,0.1946,-0.0155,0.8844,-6.26,7.05,-0.05,25.14
13195,0.1793,-0.0215,0.9049,-6.23,7.47,-0.09,25.14
13205,0.1863,-0.017,0.9052,-6.26,8.56,-0.09,25.13
13215,0.1932,-0.0164,0.8949,-6.24,7.91,-0.08,25.14
13225,0.1913,-0.0188,0.9012,-6.27,7.74,-0.08,25.14
13235,0.1895,-0.0212,0.8955,-6.14,8.0,-0.09,25.14
13245,0.1903,-0.0133,0.8915,-6.27,7.97,-0.06,25.14
13255,0.1897,-0.027,0.9017,-6.18,7.65,-0.05,25.14
13265,0.1875,-0.0175,0.8976,-6.2,8.11,-0.08,25.14
13275,0.1913,-0.0199,0.8921,-6.14,8.56,-0.08,25.14
13285,0.1998,-0.0211,0.8784,-6.24,7.33,-0.09,25.12
13295,0.1857,-0.0264,0.8931,-6.17,7.5,-0.06,25.14
13305,0.1816,-0.0187,0.887,-6.21,8.32,0.0,25.14
13315,0.1836,-0.0238,0.8772,-6.18,8.63,0.03,25.14
13325,0.2003,-0.0162,0.8687,-6.08,7.04,-0.02,25.12
13335,0.1801,-0.0165,0.8796,-6.14,6.79,-0.12,25.15
13345,0.1748,-0.0183,0.8927,-6.18,7.92,-0.05,25.13
13355,0.1882,-0.0165,0.8898,-6.35,7.97,-0.09,25.15
13365,0.1929,-0.011,0.8936,-6.26,6.81,-0.05,25.13
13375,0.1827,-0.0217,0.9141,-6.21,7.79,-0.05,25.15
13385,0.1888,-0.0208,0.9131,-6.24,8.23,-0.05,25.14
13395,0.1945,-0.0204,0.9102,-6.21,8.38,0.03,25.14
13405,0.2019,-0.0219,0.8899,-6.15,7.85,-0.11,25.15
13415,0.1865,-0.0242,0.8992,-6.18,7.6,-0.05,25.13
13425,0.1842,-0.019,0.8967,-6.2,8.52,-0.05,25.15
13435,0.1865,-0.0178,0.8837,-6.2,8.34,-0.06,25.16
13445,0.1888,-0.0161,0.8749,-6.24,7.59,-0.03,25.16
13455,0.1882,-0.0172,0.8804,-6.37,7.08,-0.08,25.14
13465,0.1805,-0.0199,0.9041,-6.32,7.6,-0.05,25.15
13475,0.1812,-0.0176,0.9159,-6.35,8.12,-0.05,25.14
13485,0.1975,-0.0172,0.8954,-6.29,8.05,0.02,25.14
13495,0.194,-0.0208,0.8977,-6.23,7.4,-0.05,25.13
13505,0.1954,-0.0211,0.9017,-6.14,7.86,0.0,25.14
13515,0.1869,-0.0197,0.9028,-6.15,8.55,-0.05,25.15
13525,0.1829,-0.0212,0.8781,-6.21,8.52,-0.12,25.13
13535,0.192,-0.0187,0.8745,-6.05,7.68,-0.09,25.14
13545,0.1868,-0.0179,0.8794,-6.21,7.59,-0.06,25.15
13555,0.1898,-0.0166,0.877,-6.23,7.44,-0.05,25.15
13565,0.1862,-0.0222,0.8923,-6.27,7.48,-0.05,25.14
13575,0.1851,-0.0151,0.899,-6.26,7.63,-0.08,25.14
13585,0.1898,-0.0184,0.903,-6.24,7.8,-0.06,25.15
13595,0.1931,-0.0173,0.8997,-6.17,7.94,-0.08,25.15
13605,0.1949,-0.0205,0.899,-6.21,7.79,-0.09,25.14
13615,0.186,-0.0192,0.8983,-6.24,7.91,-0.12,25.15
13625,0.1853,-0.027,0.8917,-6.27,8.55,-0.08,25.14
13635,0.1956,-0.016,0.8793,-6.24,7.91,-0.09,25.16
13645,0.1914,-0.0231,0.8855,-6.21,7.3,0.03,25.14
13655,0.1859,-0.0215,0.8905,-6.24,7.59,0.0,25.15
13665,0.1818,-0.0225,0.8865,-6.23,8.4,-0.05,25.15
13675,0.1913,-0.0173,0.8752,-6.23,7.83,-0.03,25.14
13685,0.1877,-0.0229,0.8832,-6.2,6.9,-0.03,25.15
13695,0.1776,-0.015,0.8931,-6.14,7.82,-0.05,25.14
13705,0.1805,-0.0192,0.901,-6.2,8.11,-0.03,25.13
13715,0.1935,-0.0221,0.8947,-6.24,7.83,-0.06,25.16
13725,0.1837,-0.022,0.8971,-6.2,7.34,-0.15,25.13
13735,0.1831,-0.0179,0.8978,-6.09,8.26,-0.02,25.13
13745,0.1904,-0.0256,0.891,-6.2,7.63,-0.05,25.15
13755,0.1792,-0.02,0.9001,-6.2,7.92,-0.09,25.17
13765,0.189,-0.0225,0.8916,-6.15,8.84,-0.03,25.17
13775,0.2039,-0.0229,0.8854,-6.15,7.21,-0.06,25.17
13785,0.1832,-0.0231,0.8943,-6.11,7.33,-0.03,25.15
13795,0.1777,-0.0181,0.8882,-6.14,8.61,-0.12,25.14
13805,0.1919,-0.0181,0.8738,-6.18,7.85,-0.11,25.15
13815,0.192,-0.0183,0.8807,-6.2,6.95,-0.11,25.13
13825,0.1799,-0.0132,0.8976,-6.23,7.4,-0.08,25.14
13835,0.1803,-0.0238,0.8953,-6.23,8.73,0.0,25.16
13845,0.1991,-0.0138,0.8918,-6.27,7.27,-0.18,25.15
13855,0.1844,-0.0178,0.9014,-6.21,7.36,-0.06,25.14
13865,0.1824,-0.0187,0.9077,-6.18,7.94,-0.08,25.14
13875,0.1838,-0.0219,0.9052,-6.23,8.46,0.0,25.14
13885,0.1997,-0.0193,0.894,-6.26,7.94,0.03,25.17
13895,0.1931,-0.0253,0.8925,-6.27,7.47,-0.06,25.17
13905,0.1768,-0.0215,0.8995,-6.2,8.38,-0.05,25.14
13915,0.1956,-0.0228,0.8757,-6.27,8.38,0.02,25.14
13925,0.1929,-0.0201,0.8822,-6.27,7.08,-0.03,25.14
13935,0.1748,-0.0211,0.8872,-6.18,8.0,-0.03,25.15
13945,0.1871,-0.0138,0.8784,-6.23,7.69,-0.09,25.14
13955,0.1936,-0.0166,0.8807,-6.14,7.22,-0.05,25.14
13965,0.1803,-0.0154,0.8997,-6.26,7.01,-0.08,25.12
13975,0.1693,-0.0137,0.9092,-6.2,8.99,-0.02,25.12
13985,0.1996,-0.017,0.891,-6.31,7.89,0.08,25.14
13995,0.194,-0.0173,0.8943,-6.11,6.63,-0.12,25.17
14005,0.1727,-0.0173,0.922,-6.32,8.37,-0.08,25.15
14015,0.192,-0.0219,0.8982,-6.27,8.82,-0.02,25.14
14025,0.1996,-0.0215,0.892,-6.18,7.48,0.0,25.15
14035,0.1855,-0.0223,0.8992,-6.26,7.5,-0.02,25.14
14045,0.1793,-0.0226,0.9,-6.23,8.76,-0.06,25.14
14055,0.1951,-0.0259,0.8755,-6.2,8.26,-0.03,25.14
14065,0.1919,-0.0122,0.8745,-6.21,7.19,-0.03,25.16
14075,0.1779,-0.0177,0.8805,-6.27,7.73,-0.03,25.14
14085,0.187,-0.0154,0.8826,-6.24,7.92,-0.02,25.14
14095,0.1937,-0.0138,0.8922,-6.21,7.31,-0.05,25.14
14105,0.1873,-0.017,0.9039,-6.27,7.48,-0.08,25.14
14115,0.1887,-0.0195,0.9065,-6.17,8.06,-0.05,25.15
14125,0.1996,-0.0182,0.9023,-6.2,7.86,-0.09,25.16
14135,0.1943,-0.0205,0.901,-6.26,7.36,-0.08,25.16
14145,0.1849,-0.0284,0.9094,-6.17,8.63,-0.03,25.16
14155,0.1887,-0.0227,0.8928,-6.23,8.67,-0.09,25.15
14165,0.1991,-0.0234,0.8693,-6.11,7.86,0.03,25.17
14175,0.2015,-0.0208,0.8691,-6.17,7.21,-0.03,25.19
14185,0.1847,-0.0187,0.8842,-6.17,7.15,-0.02,25.15
14195,0.1753,-0.0203,0.8951,-6.35,8.49,-0.02,25.13
14205,0.1975,-0.0193,0.8802,-6.17,8.08,0.02,25.15
14215,0.1919,-0.0177,0.8779,-6.26,6.95,-0.05,25.14
14225,0.1733,-0.0172,0.8812,-6.23,7.47,-0.02,25.17
14235,0.1808,-0.0186,0.892,-6.26,7.71,-0.11,25.13
14245,0.1873,-0.0137,0.8967,-6.2,7.37,-0.17,25.14
14255,0.1918,-0.0153,0.9131,-6.31,7.8,-0.03,25.16
14265,0.193,-0.0256,0.9065,-6.31,7.65,-0.12,25.17
14277,0.1946,-0.0122,0.9099,-6.29,7.62,-0.2,25.15
14288,0.1864,-0.0161,0.9047,-6.31,8.12,-0.06,25.16
14298,0.1968,-0.0187,0.9038,-6.18,7.83,-0.03,25.17
14308,0.1924,-0.0208,0.9031,-6.15,7.68,-0.08,25.16
14318,0.1833,-0.0211,0.9022,-6.27,8.2,-0.03,25.15
14328,0.1874,-0.0244,0.8931,-6.18,8.35,-0.03,25.14
14338,0.1895,-0.0176,0.8848,-6.12,8.14,-0.09,25.15
14348,0.1832,-0.0212,0.8853,-6.2,8.26,-0.03,25.16
14358,0.1892,-0.016,0.8772,-6.12,7.6,-0.02,25.18
14368,0.1897,-0.0166,0.8889,-6.31,7.21,-0.08,25.14
14378,0.188,-0.0151,0.8916,-6.18,7.47,0.0,25.16
14388,0.1753,-0.0216,0.899,-6.21,8.17,-0.09,25.17
14398,0.1863,-0.0176,0.8975,-6.2,8.31,-0.06,25.17
14408,0.1945,-0.0217,0.8971,-6.15,7.6,-0.03,25.16
14418,0.1849,-0.0189,0.8959,-6.24,7.62,-0.09,25.16
14428,0.1851,-0.0205,0.8904,-6.2,8.14,-0.08,25.16
14438,0.1885,-0.0165,0.8884,-6.24,7.98,0.03,25.16
14448,0.1855,-0.0217,0.9032,-6.29,7.85,-0.11,25.16
14458,0.1903,-0.0145,0.8947,-6.29,8.05,-0.05,25.16
14468,0.1935,-0.0172,0.8883,-6.32,7.77,0.08,25.16
14478,0.1891,-0.0227,0.8978,-6.27,7.54,-0.08,25.16
14489,0.1781,-0.0135,0.9019,-6.18,8.02,-0.11,25.17
14499,0.1917,-0.021,0.8955,-6.27,8.52,-0.02,25.14
14509,0.2002,-0.0243,0.8812,-6.26,7.48,0.0,25.15
14519,0.1917,-0.0225,0.889,-6.18,7.15,-0.08,25.15
14529,0.1826,-0.0193,0.8943,-6.2,8.06,-0.02,25.18
14539,0.1833,-0.0223,0.8865,-6.14,8.49,-0.03,25.17
14549,0.1924,-0.0155,0.8734,-6.23,7.68,0.05,25.16
14559,0.1942,-0.0164,0.8737,-6.24,6.99,-0.14,25.13
14569,0.1777,-0.0171,0.8916,-6.21,7.37,-0.05,25.15
14579,0.1825,-0.015,0.894,-6.18,8.11,0.0,25.15
14589,0.1884,-0.0149,0.8948,-6.32,7.65,-0.05,25.18
14599,0.1926,-0.0184,0.8961,-6.31,7.45,-0.09,25.16
14609,0.1879,-0.0229,0.9121,-6.26,7.5,-0.05,25.16
14619,0.1804,-0.0198,0.9163,-6.32,8.53,0.0,25.16
14629,0.1975,-0.0271,0.8999,-6.23,8.44,-0.02,25.15
14639,0.1936,-0.0249,0.8951,-6.29,7.66,0.0,25.15
14649,0.1882,-0.0237,0.8938,-6.21,8.35,-0.05,25.16
14659,0.1799,-0.0272,0.8802,-6.24,8.4,-0.05,25.16
14669,0.1924,-0.0236,0.8707,-6.2,7.82,-0.05,25.16
14679,0.1855,-0.0148,0.8722,-6.14,7.05,-0.02,25.14
14689,0.1801,-0.0181,0.885,-6.21,7.73,0.05,25.16
14699,0.1899,-0.0229,0.8823,-6.24,7.71,-0.05,25.14
14709,0.1891,-0.0153,0.8936,-6.26,6.89,-0.06,25.16
14719,0.1826,-0.0217,0.9061,-6.18,7.98,0.03,25.17
14729,0.1887,-0.0247,0.8994,-6.34,7.85,-0.02,25.17
14739,0.1862,-0.0193,0.897,-6.21,7.79,-0.06,25.15
14749,0.1838,-0.0201,0.8942,-6.17,8.27,-0.02,25.18
14759,0.1909,-0.019,0.8848,-6.24,7.69,-0.02,25.17
14769,0.1877,-0.0173,0.8896,-6.34,7.18,-0.09,25.14
14779,0.1818,-0.0222,0.901,-6.24,7.76,-0.02,25.15
14789,0.181,-0.0209,0.9014,-6.31,8.64,0.0,25.16
14799,0.1942,-0.0201,0.895,-6.21,7.66,-0.03,25.17
14809,0.187,-0.0206,0.9017,-6.14,7.56,-0.12,25.15
14819,0.1831,-0.0226,0.9086,-6.17,8.38,0.02,25.17
14829,0.1868,-0.0226,0.8914,-6.2,8.61,-0.06,25.13
14839,0.194,-0.0253,0.887,-6.26,7.62,-0.08,25.16
14849,0.1886,-0.0254,0.889,-6.12,7.71,-0.06,25.16
14859,0.188,-0.0178,0.8812,-6.11,7.79,-0.02,25.17
14869,0.1777,-0.0237,0.8839,-6.2,8.26,0.0,25.15
14879,0.1962,-0.0182,0.8771,-6.2,7.77,-0.06,25.16
14889,0.192,-0.0165,0.8877,-6.17,6.53,-0.08,25.17
14899,0.1824,-0.0172,0.9033,-6.15,7.73,0.02,25.19
14909,0.1823,-0.0221,0.9005,-6.21,8.21,-0.08,25.17
14919,0.1925,-0.0157,0.8912,-6.24,7.66,-0.02,25.14
14929,0.1801,-0.0221,0.8984,-6.38,7.37,-0.02,25.17
14939,0.1836,-0.0173,0.8982,-6.17,8.35,-0.08,25.13
14949,0.1898,-0.0181,0.8876,-6.2,7.92,-0.08,25.16
14959,0.1902,-0.0193,0.8876,-6.23,6.89,-0.08,25.15
14969,0.1729,-0.0261,0.9059,-6.09,8.5,-0.02,25.14
14979,0.1896,-0.0215,0.8938,-6.2,8.38,-0.06,25.16
14989,0.1881,-0.0251,0.8813,-6.21,7.83,0.02,25.18
14999,0.1908,-0.0215,0.8813,-6.06,7.71,-0.02,25.18
15009,0.1862,-0.0184,0.8911,-6.21,7.25,0.11,25.16
15019,0.1812,-0.0193,0.8932,-6.2,8.18,-0.03,25.18
15029,0.1903,-0.0192,0.8748,-6.2,7.54,-0.06,25.13
15039,0.1832,-0.0144,0.8811,-6.12,6.75,-0.02,25.17
15049,0.1743,-0.0172,0.9071,-6.26,7.79,-0.06,25.16
15059,0.1852,-0.0148,0.8961,-6.21,8.2,0.0,25.17
15069,0.1898,-0.0123,0.8903,-6.14,7.19,0.02,25.17
15079,0.1804,-0.0183,0.907,-6.24,7.33,-0.05,25.16
15089,0.1787,-0.0171,0.9176,-6.24,8.55,-0.03,25.18
15099,0.1942,-0.0181,0.9039,-6.11,8.72,-0.06,25.17
15109,0.1943,-0.0179,0.9006,-6.14,7.63,-0.03,25.18
15119,0.1836,-0.0209,0.9058,-6.31,8.53,-0.11,25.17
15129,0.1938,-0.0201,0.89,-6.23,8.75,-0.03,25.17
15139,0.1963,-0.0216,0.8817,-6.24,7.66,-0.08,25.16
15149,0.1877,-0.0197,0.8926,-6.2,8.03,0.0,25.18
15159,0.1838,-0.0172,0.8895,-6.37,8.15,0.03,25.19
15169,0.1912,-0.0153,0.8894,-6.24,8.02,0.02,25.17
15179,0.191,-0.0164,0.8828,-6.24,7.37,-0.05,25.16
15189,0.1851,-0.0149,0.8982,-6.27,7.94,-0.09,25.18
15199,0.1937,-0.0219,0.8953,-6.26,7.91,-0.06,25.19
15209,0.1958,-0.0225,0.8892,-6.27,7.73,-0.05,25.18
15219,0.1801,-0.0243,0.8892,-6.27,8.02,-0.08,25.19
15229,0.1897,-0.0221,0.8811,-6.18,8.0,-0.02,25.19
15239,0.1913,-0.0243,0.8843,-6.17,7.19,0.0,25.17
15249,0.1827,-0.0156,0.8875,-6.23,7.89,-0.02,25.18
15259,0.1805,-0.0232,0.8871,-6.24,8.37,0.0,25.18
15269,0.2001,-0.0167,0.8732,-6.2,7.19,-0.03,25.18
15279,0.1826,-0.02,0.8901,-6.26,6.82,-0.06,25.19
15289,0.1786,-0.0167,0.9027,-6.26,8.05,-0.08,25.19
15299,0.1902,-0.0229,0.897,-6.23,8.05,-0.09,25.15
15309,0.1962,-0.0133,0.8917,-6.27,6.79,-0.03,25.19
15319,0.1761,-0.0205,0.903,-6.18,7.95,-0.05,25.2
15329,0.1827,-0.0203,0.8993,-6.23,8.09,-0.12,25.19
15339,0.1904,-0.0181,0.8894,-6.17,8.0,-0.09,25.17
15349,0.1862,-0.0177,0.8929,-6.2,7.47,-0.05,25.18
15359,0.1819,-0.0256,0.894,-6.12,8.11,-0.05,25.21
15369,0.1871,-0.0167,0.8905,-6.15,8.03,-0.06,25.17
15379,0.1871,-0.0165,0.8831,-6.29,7.62,-0.05,25.18
15389,0.1791,-0.0214,0.896,-6.23,7.95,-0.05,25.18
15399,0.1895,-0.0182,0.8909,-6.31,7.92,-0.06,25.17
15409,0.1858,-0.0177,0.8971,-6.24,7.91,-0.03,25.15
15419,0.1908,-0.0221,0.8892,-6.26,7.63,-0.09,25.17
15429,0.1824,-0.0199,0.8965,-6.12,7.74,-0.02,25.17
15439,0.1754,-0.0186,0.8994,-6.26,8.37,0.05,25.17
15449,0.1909,-0.0197,0.8866,-6.18,8.29,-0.03,25.17
15459,0.1982,-0.0144,0.8776,-6.24,7.02,-0.06,25.19
15469,0.177,-0.0114,0.9,-6.2,7.57,0.03,25.18
15479,0.1772,-0.0166,0.8944,-6.29,7.95,0.03,25.17
15489,0.1832,-0.0164,0.8936,-6.15,8.03,-0.11,25.19
15499,0.1813,-0.0151,0.9008,-6.35,7.73,0.0,25.19
15509,0.1863,-0.0167,0.9036,-6.17,7.97,-0.06,25.18
15519,0.191,-0.0184,0.8987,-6.29,7.91,-0.11,25.18
15529,0.1871,-0.0186,0.895,-6.29,7.65,0.05,25.19
15539,0.1855,-0.0251,0.903,-6.18,8.56,-0.06,25.2
15549,0.1932,-0.0208,0.8925,-6.21,8.43,-0.03,25.18
15559,0.1965,-0.0219,0.8826,-6.23,7.97,-0.03,25.16
15569,0.1838,-0.0237,0.88,-6.2,7.66,0.08,25.18
15579,0.1838,-0.0173,0.8755,-6.18,7.89,-0.09,25.18
15589,0.1857,-0.0135,0.8715,-6.17,7.44,-0.03,25.18
15599,0.1888,-0.0177,0.8794,-6.15,7.62,0.03,25.18
15609,0.1893,-0.019,0.8815,-6.2,7.28,-0.03,25.19
15619,0.1852,-0.014,0.9016,-6.29,7.18,-0.12,25.2
15629,0.1841,-0.0195,0.9072,-6.37,7.88,-0.08,25.18
15639,0.1957,-0.0195,0.9023,-6.24,8.0,-0.05,25.18
15649,0.188,-0.0181,0.9001,-6.27,7.86,-0.06,25.16
15659,0.1884,-0.0217,0.8943,-6.23,7.91,-0.09,25.18
15669,0.181,-0.0216,0.8978,-6.17,8.17,-0.05,25.18
15679,0.1921,-0.0159,0.881,-6.35,7.65,-0.05,25.17
15689,0.1798,-0.0234,0.8959,-6.21,7.66,0.03,25.19
15699,0.1824,-0.0204,0.8998,-6.23,8.49,0.03,25.19
15709,0.1946,-0.0154,0.8881,-6.17,7.89,-0.02,25.19
15719,0.1929,-0.0177,0.8972,-6.2,7.37,0.0,25.21
15729,0.1808,-0.0223,0.9008,-6.17,8.49,-0.03,25.18
15739,0.1976,-0.0201,0.8933,-6.35,7.97,-0.03,25.19
15749,0.1959,-0.0229,0.8834,-6.18,7.48,-0.03,25.19
15759,0.1772,-0.022,0.8906,-6.06,7.63,-0.06,25.18
15769,0.1746,-0.0223,0.8854,-6.26,8.52,0.0,25.17
15779,0.1903,-0.0193,0.871,-6.24,7.92,0.05,25.19
15789,0.188,-0.0172,0.8809,-6.23,6.66,-0.03,25.19
15799,0.1743,-0.0106,0.8995,-6.29,7.89,0.03,25.21
15809,0.1882,-0.0175,0.9047,-6.35,8.26,-0.08,25.17
15821,0.1799,-0.0173,0.9073,-6.26,8.06,-0.09,25.18
15831,0.1909,-0.0106,0.9062,-6.27,7.89,-0.12,25.17
15841,0.1945,-0.0215,0.9032,-6.31,7.68,-0.02,25.19
15851,0.1844,-0.0198,0.9133,-6.18,7.73,-0.03,25.19
15861,0.1893,-0.0206,0.9089,-6.27,8.85,-0.03,25.2
15871,0.1993,-0.0226,0.8958,-6.17,7.97,-0.06,25.2
15881,0.1847,-0.0225,0.8923,-6.23,8.41,0.0,25.18
15891,0.1826,-0.0225,0.8773,-6.24,8.52,-0.08,25.18
15901,0.1914,-0.019,0.8656,-6.2,7.68,0.0,25.18
15911,0.1865,-0.0171,0.8782,-6.27,6.87,0.02,25.19
15921,0.1727,-0.0129,0.8926,-6.35,7.71,-0.05,25.16
15931,0.1873,-0.0197,0.9,-6.27,8.46,-0.06,25.2
15941,0.2021,-0.0215,0.8923,-6.31,7.24,-0.09,25.19
15951,0.1893,-0.0195,0.9067,-6.23,7.51,-0.08,25.19
15961,0.1838,-0.0226,0.9089,-6.21,8.5,-0.08,25.2
15971,0.1982,-0.0229,0.8895,-6.21,8.03,-0.09,25.19
15981,0.192,-0.0206,0.8925,-6.23,7.22,0.02,25.21
15991,0.1774,-0.0249,0.8967,-6.24,8.47,-0.02,25.21
16001,0.1941,-0.0227,0.8822,-6.27,8.27,-0.03,25.18
16011,0.1971,-0.0176,0.8651,-6.18,6.81,0.02,25.19
16022,0.1786,-0.0193,0.8798,-6.26,6.5,-0.06,25.2
16033,0.1709,-0.0195,0.8988,-6.18,7.73,-0.09,25.19
16043,0.1749,-0.0145,0.8947,-6.27,8.7,0.02,25.17
16053,0.2017,-0.0156,0.8729,-6.23,7.54,0.03,25.19
16063,0.1869,-0.0151,0.8909,-6.23,6.4,-0.03,25.19
16073,0.1748,-0.0131,0.9149,-6.31,8.56,-0.06,25.19
16083,0.1998,-0.0201,0.9015,-6.29,8.14,-0.05,25.2
16093,0.1979,-0.0231,0.8962,-6.27,7.39,-0.05,25.19
16103,0.1833,-0.0222,0.8994,-6.26,7.59,-0.09,25.17
16113,0.1798,-0.0198,0.9042,-6.32,8.87,-0.08,25.2
16123,0.2061,-0.0239,0.8801,-6.26,8.41,-0.09,25.19
16133,0.1951,-0.02,0.8824,-6.26,6.78,-0.05,25.17
16143,0.1753,-0.0187,0.8965,-6.24,8.24,-0.11,25.21
16153,0.1849,-0.0234,0.8929,-6.27,8.56,-0.03,25.19
16163,0.1908,-0.0133,0.8746,-6.24,7.28,-0.03,25.2
16173,0.1885,-0.0168,0.8771,-6.17,7.45,0.0,25.2
16183,0.1873,-0.0181,0.88,-6.29,6.95,-0.02,25.19
16193,0.173,-0.0155,0.9075,-6.21,8.24,-0.09,25.2
16203,0.194,-0.0168,0.8961,-6.18,8.06,0.02,25.22
16213,0.2018,-0.0187,0.8837,-6.17,7.04,-0.03,25.19
16223,0.1847,-0.0233,0.9022,-6.24,6.96,-0.03,25.19
16233,0.1702,-0.0201,0.9141,-6.24,9.33,-0.11,25.18
16243,0.2048,-0.0276,0.8933,-6.23,7.94,-0.03,25.19
16253,0.1948,-0.0226,0.8866,-6.27,7.04,0.0,25.19
16263,0.1678,-0.0243,0.9044,-6.24,8.72,-0.08,25.21
16273,0.198,-0.0219,0.8781,-6.14,8.5,-0.05,25.19
16283,0.191,-0.0234,0.8748,-6.18,6.78,-0.02,25.21
16293,0.1696,-0.0199,0.8829,-6.15,8.35,-0.06,25.22
16303,0.1874,-0.0206,0.8702,-6.2,7.77,-0.06,25.23
16313,0.1934,-0.0149,0.8805,-6.18,6.93,-0.05,25.19
16323,0.1769,-0.0132,0.8967,-6.35,7.31,-0.14,25.21
16333,0.1849,-0.0153,0.8976,-6.21,8.11,-0.08,25.22
16343,0.1957,-0.0146,0.8989,-6.32,7.3,-0.09,25.2
16353,0.1829,-0.0149,0.9155,-6.15,7.57,0.0,25.2
16363,0.1844,-0.019,0.9073,-6.14,8.6,-0.06,25.2
16373,0.1844,-0.0182,0.8926,-6.23,7.98,-0.03,25.19
16383,0.1835,-0.0194,0.8937,-6.23,8.47,0.02,25.21
16393,0.1958,-0.0221,0.8831,-6.31,8.05,-0.03,25.17
16403,0.1863,-0.0229,0.889,-6.15,7.34,-0.02,25.19
16413,0.1786,-0.0216,0.8947,-6.15,8.55,0.0,25.19
16423,0.1886,-0.0243,0.8843,-6.17,8.21,-0.05,25.21
16433,0.1945,-0.0192,0.877,-6.23,7.18,-0.09,25.2
16443,0.1816,-0.0139,0.8864,-6.15,7.65,0.02,25.19
16453,0.1805,-0.0166,0.8827,-6.2,8.26,0.0,25.18
16463,0.1985,-0.0168,0.8754,-6.12,7.36,-0.05,25.22
16473,0.1848,-0.0171,0.8917,-6.17,6.89,-0.09,25.2
16483,0.1815,-0.0172,0.8967,-6.23,8.37,-0.11,25.22
16493,0.1903,-0.0157,0.892,-6.26,7.62,0.0,25.22
16503,0.193,-0.0135,0.8964,-6.21,7.28,-0.05,25.19
16513,0.1802,-0.0168,0.903,-6.18,7.91,-0.06,25.19
16523,0.1893,-0.014,0.8997,-6.26,8.29,-0.09,25.19
16533,0.1893,-0.02,0.895,-6.27,7.56,-0.05,25.22
16543,0.1848,-0.0176,0.8988,-6.29,7.69,0.05,25.19
16553,0.1772,-0.0211,0.8977,-6.21,8.61,-0.03,25.19
16563,0.1949,-0.0144,0.8822,-6.27,8.05,-0.03,25.19
16573,0.1862,-0.0247,0.8884,-6.23,7.36,-0.05,25.22
16583,0.186,-0.0159,0.8865,-6.17,7.8,-0.06,25.23
16593,0.1833,-0.0188,0.8921,-6.27,8.06,-0.06,25.22
16603,0.1978,-0.0177,0.8881,-6.29,7.69,0.02,25.2
16613,0.1891,-0.0201,0.8987,-6.14,7.74,-0.09,25.23
16623,0.1941,-0.016,0.911,-6.26,7.77,-0.09,25.21
16633,0.1887,-0.0247,0.9135,-6.24,7.94,-0.05,25.2
16643,0.1969,-0.0201,0.9011,-6.23,8.31,-0.08,25.21
16653,0.1888,-0.0211,0.8927,-6.17,8.08,-0.02,25.2
16663,0.1836,-0.0222,0.8809,-6.17,8.18,-0.02,25.2
16673,0.1809,-0.0253,0.8749,-6.23,8.02,-0.05,25.22
16683,0.1729,-0.0166,0.8656,-6.18,8.0,-0.05,25.19
16693,0.1785,-0.0215,0.8639,-6.2,7.62,-0.08,25.2
16703,0.1807,-0.0164,0.8712,-6.15,7.34,-0.08,25.2
16713,0.1798,-0.0157,0.8927,-6.15,7.16,-0.05,25.19
16723,0.1786,-0.0104,0.9015,-6.26,7.79,0.03,25.23
16733,0.1936,-0.0201,0.9011,-6.24,7.48,-0.06,25.21
16743,0.205,-0.0167,0.9087,-6.23,7.28,-0.06,25.21
16753,0.1826,-0.0242,0.9327,-6.21,8.24,0.03,25.21
16763,0.2067,-0.0272,0.9075,-6.31,8.76,-0.09,25.22
16773,0.199,-0.0233,0.9016,-6.34,7.16,0.0,25.22
16783,0.1769,-0.0172,0.9033,-6.23,8.56,-0.02,25.2
16793,0.1842,-0.0203,0.8885,-6.18,8.72,-0.02,25.21
16803,0.1952,-0.0155,0.8735,-6.29,7.44,-0.14,25.2
16813,0.176,-0.02,0.8848,-6.31,7.31,-0.03,25.19
16823,0.1716,-0.0215,0.8848,-6.21,7.69,-0.06,25.19
16833,0.1782,-0.0216,0.8857,-6.17,8.31,-0.03,25.18
16843,0.1859,-0.0254,0.8875,-6.23,7.48,0.0,25.17
16853,0.1841,-0.0243,0.8898,-6.21,7.94,-0.03,25.19
16863,0.1914,-0.0194,0.8909,-6.26,7.92,0.02,25.18
16873,0.1945,-0.0181,0.8962,-6.26,7.95,-0.03,25.18
16883,0.192,-0.0186,0.895,-6.21,7.73,-0.11,25.2
16893,0.1945,-0.0182,0.8951,-6.29,7.77,-0.05,25.19
16903,0.1929,-0.0165,0.8876,-6.23,7.89,-0.03,25.19
16913,0.1891,-0.0262,0.8951,-6.26,7.88,-0.03,25.18
16923,0.1964,-0.0233,0.8867,-6.34,7.56,-0.09,25.19
16933,0.1902,-0.0225,0.8915,-6.24,7.21,-0.05,25.2
16943,0.1819,-0.0234,0.8945,-6.24,7.82,-0.08,25.22
16953,0.1823,-0.021,0.8967,-6.06,8.4,-0.08,25.21
16963,0.1877,-0.0175,0.8811,-6.26,7.76,-0.08,25.22
16973,0.1847,-0.0211,0.8904,-6.23,7.1,-0.06,25.21
16983,0.1698,-0.0223,0.8931,-6.34,8.43,-0.11,25.2
16993,0.1934,-0.0209,0.8801,-6.27,8.0,-0.06,25.2
17003,0.1887,-0.0227,0.8911,-6.21,6.99,-0.03,25.19
17013,0.1825,-0.016,0.9036,-6.24,8.11,-0.05,25.21
17023,0.1936,-0.0179,0.8904,-6.24,7.98,-0.06,25.19
17033,0.1954,-0.0225,0.8912,-6.18,7.08,-0.03,25.2
17043,0.1793,-0.0262,0.9066,-6.21,7.98,-0.11,25.22
17053,0.1844,-0.0178,0.912,-6.21,8.87,0.02,25.19
17063,0.2035,-0.0209,0.8789,-6.17,7.6,0.02,25.19
17073,0.176,-0.0212,0.9067,-6.27,7.22,-0.08,25.19
17083,0.1692,-0.0192,0.9037,-6.24,9.85,-0.05,25.21
17093,0.2047,-0.0226,0.8661,-6.27,7.4,-0.09,25.21
17103,0.1791,-0.0243,0.8857,-6.17,6.87,-0.02,25.21
17113,0.1721,-0.0198,0.8978,-6.23,8.78,-0.05,25.23
17123,0.1951,-0.02,0.8828,-6.14,8.11,0.0,25.19
17133,0.1926,-0.0214,0.8772,-6.27,7.15,-0.06,25.19
17143,0.1832,-0.0131,0.8884,-6.21,7.22,-0.02,25.21
17153,0.1775,-0.0112,0.8983,-6.27,8.38,0.02,25.19
17163,0.1936,-0.0208,0.8927,-6.31,8.11,-0.06,25.21
17173,0.1914,-0.0168,0.8895,-6.21,7.33,-0.08,25.22
17183,0.1835,-0.0225,0.9005,-6.29,7.4,-0.09,25.22
17193,0.186,-0.0251,0.908,-6.23,8.46,-0.02,25.2
17203,0.1964,-0.0232,0.8979,-6.2,8.35,-0.06,25.21
17213,0.1949,-0.0225,0.8875,-6.29,7.42,0.03,25.2
17223,0.1874,-0.0233,0.9015,-6.21,8.02,-0.02,25.19
17233,0.1946,-0.016,0.8873,-6.15,8.08,-0.09,25.22
17243,0.184,-0.0193,0.8871,-6.2,7.86,-0.05,25.2
17253,0.183,-0.0203,0.8829,-6.15,8.14,-0.06,25.2
17263,0.1924,-0.0148,0.8787,-6.15,7.74,-0.09,25.19
17273,0.1866,-0.0178,0.8872,-6.29,6.99,-0.11,25.18
17286,0.1923,-0.0184,0.8873,-6.24,8.37,-0.11,25.22
17296,0.1871,-0.0206,0.8792,-6.21,7.07,-0.03,25.19
17306,0.178,-0.016,0.8937,-6.27,8.14,0.06,25.19
17316,0.1837,-0.0204,0.8962,-6.23,8.37,-0.06,25.22
17326,0.1888,-0.0126,0.8817,-6.37,7.18,-0.02,25.19
17336,0.1821,-0.0221,0.8818,-6.27,7.27,-0.05,25.22
17346,0.1829,-0.0176,0.8928,-6.17,7.71,-0.02,25.21
17356,0.1831,-0.0215,0.9001,-6.23,7.8,-0.02,25.21
17366,0.191,-0.0201,0.9009,-6.26,7.95,-0.06,25.2
17376,0.1907,-0.0221,0.8962,-6.29,7.71,-0.11,25.22
17386,0.186,-0.0198,0.9034,-6.24,8.14,0.02,25.24
17396,0.1855,-0.024,0.8966,-6.31,8.06,0.0,25.22
17406,0.1895,-0.0167,0.8921,-6.2,7.98,-0.17,25.23
17416,0.1816,-0.0161,0.89,-6.23,8.06,-0.03,25.21
17426,0.186,-0.0193,0.8849,-6.21,7.95,-0.03,25.22
17436,0.1903,-0.0192,0.8853,-6.2,7.86,-0.08,25.21
17446,0.1824,-0.0143,0.8878,-6.26,7.6,0.03,25.2
17456,0.1829,-0.017,0.8887,-6.18,7.85,-0.06,25.19
17466,0.1864,-0.0144,0.894,-6.34,7.76,-0.05,25.21
17476,0.1852,-0.0129,0.9001,-6.21,7.54,-0.05,25.21
17486,0.1865,-0.0171,0.9115,-6.27,8.18,-0.02,25.21
17496,0.1968,-0.0205,0.9011,-6.26,7.77,-0.14,25.22
17506,0.1807,-0.0232,0.8989,-6.14,8.06,0.0,25.22
17516,0.1794,-0.0237,0.8983,-6.27,8.32,-0.03,25.25
17526,0.1984,-0.0245,0.8698,-6.2,7.5,-0.09,25.22
17536,0.2032,-0.0175,0.8721,-6.09,7.05,-0.11,25.22
17546,0.1843,-0.0236,0.8877,-6.31,7.53,0.0,25.22
17556,0.1837,-0.0195,0.8867,-6.2,8.24,-0.03,25.24
17566,0.1876,-0.0171,0.876,-6.14,7.56,-0.05,25.19
17576,0.1891,-0.0149,0.875,-6.23,6.9,0.0,25.21
17586,0.1758,-0.0151,0.9058,-6.27,7.63,-0.14,25.23
17596,0.1896,-0.0123,0.9022,-6.34,8.49,-0.06,25.21
17606,0.202,-0.0221,0.8971,-6.27,7.15,0.03,25.22
17616,0.1907,-0.0206,0.92,-6.32,7.74,-0.08,25.21
17626,0.1836,-0.0247,0.9103,-6.31,8.75,0.0,25.21
17636,0.1893,-0.0171,0.8855,-6.32,8.37,0.02,25.23
17646,0.1898,-0.0222,0.8779,-6.26,7.5,0.0,25.24
17656,0.186,-0.017,0.8868,-6.21,7.79,-0.08,25.19
17666,0.1842,-0.0189,0.8777,-6.26,8.55,-0.03,25.2
17676,0.1982,-0.0155,0.8743,-6.24,6.93,-0.08,25.23
17686,0.1849,-0.0173,0.9009,-6.29,7.25,-0.02,25.26
17696,0.1877,-0.0176,0.9152,-6.31,8.26,-0.08,25.22
17706,0.2004,-0.0233,0.8895,-6.24,7.85,-0.03,25.22
17716,0.1749,-0.0217,0.9061,-6.34,7.56,0.0,25.22
17726,0.1737,-0.0171,0.8954,-6.29,10.05,-0.03,25.23
17736,0.2178,-0.02,0.8629,-6.26,6.53,-0.02,25.24
17746,0.17,-0.0184,0.9065,-6.21,6.73,-0.03,25.23
17756,0.172,-0.0171,0.9091,-6.31,9.98,0.0,25.24
17766,0.2129,-0.0237,0.8712,-6.15,7.16,0.03,25.27
17776,0.1824,-0.0223,0.9022,-6.12,6.17,-0.02,25.23
17786,0.1653,-0.0179,0.9062,-6.26,10.46,-0.03,25.24
17796,0.2152,-0.016,0.858,-6.37,6.93,0.02,25.24
17806,0.1805,-0.0198,0.8981,-6.14,6.0,-0.03,25.22
17816,0.1686,-0.0182,0.915,-6.32,9.21,-0.02,25.24
17826,0.2052,-0.022,0.8853,-6.24,8.26,-0.03,25.25
17836,0.1958,-0.0173,0.8884,-6.12,6.15,-0.15,25.25
17846,0.1636,-0.0178,0.9148,-6.23,9.22,-0.09,25.25
17856,0.1754,-0.0197,0.896,-6.29,9.47,-0.05,25.22
17866,0.2045,-0.0172,0.8739,-6.21,5.89,-0.05,25.26
17876,0.1703,-0.0216,0.9091,-6.24,7.94,-0.05,25.26
17886,0.1821,-0.0234,0.9009,-6.24,9.16,0.03,25.25
17896,0.2029,-0.0194,0.8795,-6.23,7.91,-0.05,25.23
17906,0.1903,-0.0201,0.8872,-6.29,6.29,-0.06,25.23
17916,0.1675,-0.0216,0.9094,-6.27,8.46,-0.02,25.22
17926,0.1802,-0.0194,0.8896,-6.26,9.24,-0.02,25.23
17936,0.2029,-0.0133,0.8687,-6.27,6.98,-0.02,25.23
17946,0.1803,-0.0248,0.9086,-6.26,6.61,-0.03,25.22
17957,0.1736,-0.0204,0.9241,-6.27,7.77,-0.09,25.23
17967,0.1854,-0.0219,0.911,-6.31,9.82,-0.09,25.24
17977,0.2106,-0.0219,0.8755,-6.27,6.73,-0.08,25.22
17987,0.1748,-0.0262,0.8981,-6.24,7.54,0.02,25.23
17997,0.1814,-0.0173,0.8939,-6.38,8.92,-0.06,25.22
18007,0.2013,-0.0234,0.8755,-6.26,7.54,-0.08,25.24
18017,0.1897,-0.0222,0.8911,-6.26,6.5,-0.02,25.24
18027,0.1659,-0.02,0.9124,-6.27,8.96,-0.05,25.27
18037,0.2035,-0.0227,0.8779,-6.17,8.4,0.06,25.26
18047,0.1984,-0.0244,0.886,-6.21,5.94,-0.09,25.23
18057,0.1624,-0.0204,0.9077,-6.2,8.96,-0.12,25.24
18067,0.1842,-0.025,0.8763,-6.23,8.58,0.03,25.23
18077,0.1938,-0.022,0.8705,-6.14,6.72,-0.03,25.23
18087,0.1696,-0.0197,0.899,-6.12,7.33,-0.03,25.24
18097,0.1732,-0.0228,0.9054,-6.23,9.15,0.02,25.25
18107,0.2012,-0.0242,0.8857,-6.21,7.62,-0.09,25.25
18117,0.1858,-0.0179,0.894,-6.15,6.78,-0.09,25.22
18127,0.1711,-0.0183,0.8977,-6.15,8.79,-0.03,25.24
18137,0.2008,-0.0156,0.8778,-6.18,7.92,0.0,25.24
18147,0.1962,-0.012,0.8893,-6.18,6.53,-0.03,25.23
18157,0.1798,-0.0111,0.8966,-6.15,6.85,-0.06,25.26
18167,0.1757,-0.0172,0.9105,-6.29,9.27,-0.03,25.25
18177,0.2026,-0.016,0.8787,-6.24,7.83,-0.08,25.25
18187,0.1884,-0.0181,0.894,-6.29,6.78,-0.02,25.24
18197,0.1626,-0.0219,0.9078,-6.21,9.01,0.0,25.24
18207,0.1938,-0.0129,0.8789,-6.24,8.34,-0.03,25.24
18217,0.1931,-0.0187,0.8638,-6.24,6.35,-0.03,25.25
18227,0.178,-0.0181,0.892,-6.27,6.92,-0.05,25.27
18237,0.1681,-0.0212,0.9178,-6.32,9.13,-0.03,25.25
18247,0.2084,-0.0199,0.8859,-6.32,7.82,-0.08,25.24
18257,0.1967,-0.0267,0.8978,-6.23,6.29,-0.09,25.26
18267,0.1749,-0.0265,0.9067,-6.23,8.89,-0.08,25.25
18277,0.1887,-0.019,0.8823,-6.2,8.78,-0.14,25.25
18287,0.2051,-0.0181,0.869,-6.23,6.75,-0.03,25.24
18297,0.174,-0.0217,0.9082,-6.23,7.1,-0.09,25.25
18307,0.172,-0.0129,0.9125,-6.31,9.8,-0.02,25.24
18317,0.2063,-0.0204,0.8684,-6.15,7.68,0.0,25.24
18327,0.188,-0.0171,0.8846,-6.15,6.23,0.05,25.25
18337,0.1628,-0.0148,0.9114,-6.24,9.16,-0.08,25.24
18347,0.1959,-0.0148,0.8798,-6.35,8.35,0.0,25.23
18357,0.1936,-0.0175,0.8838,-6.21,6.52,-0.05,25.25
18367,0.1628,-0.0105,0.9056,-6.27,8.15,-0.05,25.27
18377,0.182,-0.0131,0.8823,-6.24,8.49,-0.06,25.23
18387,0.1962,-0.0145,0.8831,-6.24,7.02,-0.12,25.23
18397,0.1786,-0.017,0.8969,-6.27,7.5,-0.15,25.26
18407,0.1827,-0.0258,0.9,-6.29,8.44,-0.11,25.24
18417,0.1946,-0.0233,0.8822,-6.21,7.88,-0.09,25.21
18427,0.1915,-0.0256,0.885,-6.32,7.15,-0.14,25.23
18437,0.1837,-0.024,0.8981,-6.32,7.6,-0.03,25.25
18447,0.191,-0.0278,0.9075,-6.29,8.32,0.03,25.24
18457,0.2007,-0.0211,0.9011,-6.27,7.73,0.06,25.25
18467,0.1951,-0.0247,0.8978,-6.21,7.37,-0.03,25.23
18477,0.1736,-0.0239,0.9121,-6.15,8.49,-0.02,25.23
18487,0.1962,-0.0157,0.885,-6.15,8.76,-0.03,25.25
18497,0.1992,-0.0194,0.8774,-6.2,6.99,-0.06,25.25
18507,0.1774,-0.0167,0.892,-6.2,7.48,-0.11,25.22
18517,0.1741,-0.0156,0.8959,-6.27,8.58,-0.12,25.27
18527,0.1981,-0.0115,0.8832,-6.31,7.53,-0.02,25.26
18537,0.1836,-0.0168,0.8966,-6.29,7.25,-0.06,25.25
18547,0.1753,-0.0156,0.8959,-6.31,8.41,-0.06,25.25
18557,0.1882,-0.0144,0.8802,-6.21,8.05,-0.12,25.24
18567,0.1967,-0.0194,0.8785,-6.21,6.98,-0.12,25.24
18577,0.1808,-0.0214,0.9005,-6.24,7.66,0.02,25.26
18587,0.1899,-0.0238,0.8993,-6.26,7.91,-0.05,25.26
18597,0.1989,-0.0287,0.8934,-6.26,7.28,0.0,25.23
18607,0.1858,-0.025,0.9187,-6.17,7.91,-0.05,25.24
18617,0.1903,-0.0234,0.8995,-6.2,8.66,-0.02,25.26
18627,0.1927,-0.0216,0.8864,-6.21,7.51,-0.06,25.25
18637,0.1825,-0.0214,0.8868,-6.14,7.8,-0.11,25.24
18647,0.1823,-0.0177,0.8845,-6.26,8.2,-0.03,25.25
18657,0.1781,-0.02,0.8807,-6.23,7.69,-0.03,25.24
18667,0.1813,-0.0178,0.8948,-6.2,8.0,-0.02,25.24
18677,0.1925,-0.0178,0.8878,-6.14,7.82,-0.02,25.24
18687,0.1932,-0.0195,0.8987,-6.31,7.1,0.0,25.26
18697,0.1791,-0.0209,0.9089,-6.21,8.29,-0.03,25.23
18707,0.1929,-0.0189,0.8878,-6.26,8.55,-0.03,25.24
18717,0.1903,-0.0204,0.8827,-6.21,7.54,-0.05,25.24
18727,0.1937,-0.019,0.8799,-6.17,7.13,-0.06,25.27
18737,0.1698,-0.0161,0.8929,-6.29,7.68,0.0,25.24
18747,0.1813,-0.0167,0.8916,-6.17,8.66,-0.03,25.26
18757,0.1992,-0.0221,0.8881,-6.34,6.84,-0.05,25.26
18767,0.1884,-0.0221,0.9039,-6.17,7.3,-0.05,25.26
18777,0.1794,-0.0233,0.9106,-6.17,8.29,-0.09,25.28
18787,0.1904,-0.0255,0.8967,-6.15,8.44,-0.05,25.24
18797,0.1853,-0.0212,0.8904,-6.15,7.68,-0.11,25.2
18807,0.1937,-0.0134,0.8811,-6.17,7.71,-0.12,25.23
18817,0.1776,-0.0164,0.8851,-6.23,7.79,-0.11,25.27
18827,0.179,-0.0144,0.8828,-6.23,8.05,0.02,25.24
18837,0.1838,-0.0189,0.889,-6.23,7.59,-0.02,25.26
18847,0.1929,-0.0208,0.9011,-6.24,7.79,-0.06,25.27
18857,0.1921,-0.0226,0.8976,-6.23,7.33,0.0,25.28
18867,0.1827,-0.0194,0.9021,-6.24,7.4,-0.06,25.24
18877,0.1796,-0.0228,0.9048,-6.17,9.05,0.0,25.24
18887,0.1996,-0.0173,0.8784,-6.27,8.09,0.02,25.26
18897,0.1935,-0.0167,0.8805,-6.32,6.76,-0.02,25.27
18907,0.1758,-0.0184,0.8998,-6.29,8.21,-0.12,25.25
18917,0.1888,-0.0177,0.8857,-6.21,7.98,-0.06,25.26
18927,0.192,-0.0159,0.8923,-6.31,7.57,-0.08,25.25
18937,0.1908,-0.0232,0.8982,-6.24,7.65,-0.12,25.26
18947,0.1868,-0.0212,0.9001,-6.21,8.47,-0.05,25.25
18957,0.1946,-0.0183,0.886,-6.31,7.83,-0.06,25.25
18967,0.1891,-0.0198,0.8818,-6.21,7.27,-0.03,25.25
18977,0.1788,-0.0197,0.8892,-6.17,7.71,0.0,25.24
18987,0.1847,-0.0159,0.8882,-6.23,7.95,-0.02,25.26
18997,0.1875,-0.0189,0.8934,-6.24,7.79,-0.02,25.25
19007,0.1964,-0.0194,0.899,-6.26,7.94,-0.09,25.25
19017,0.1929,-0.0199,0.9043,-6.21,7.22,0.0,25.24
19027,0.1827,-0.0215,0.9022,-6.27,8.17,0.02,25.25
19037,0.1847,-0.0192,0.8944,-6.17,8.72,-0.11,25.26
19047,0.1996,-0.0183,0.8716,-6.26,7.31,-0.12,25.27
19057,0.1885,-0.0211,0.886,-6.35,6.76,-0.06,25.25
19067,0.173,-0.02,0.9078,-6.27,8.9,-0.08,25.27
19077,0.1971,-0.0188,0.8896,-6.43,8.32,-0.05,25.27
19087,0.202,-0.0206,0.8884,-6.2,6.75,-0.06,25.25
19097,0.1809,-0.0205,0.9126,-6.2,7.8,-0.08,25.25
19107,0.1873,-0.0137,0.8939,-6.24,8.96,-0.09,25.27
19117,0.1958,-0.0205,0.8707,-6.31,7.56,-0.08,25.26
19127,0.1884,-0.0182,0.8876,-6.29,6.93,0.02,25.26
19137,0.1769,-0.0166,0.9034,-6.26,8.24,0.0,25.26
19147,0.1918,-0.0211,0.8943,-6.37,8.44,-0.06,25.27
19157,0.1964,-0.0245,0.885,-6.14,7.25,-0.06,25.26
19167,0.1836,-0.019,0.8947,-6.26,7.37,-0.05,25.25
19177,0.1758,-0.0223,0.9017,-6.23,8.4,0.0,25.29
19187,0.1953,-0.0205,0.8804,-6.12,8.32,-0.06,25.26
19197,0.2036,-0.0201,0.8828,-6.21,6.82,-0.09,25.26
19207,0.1718,-0.0188,0.9043,-6.21,7.69,-0.12,25.27
19217,0.1874,-0.0193,0.8938,-6.23,8.93,-0.02,25.27
19227,0.1979,-0.0182,0.8831,-6.29,7.04,-0.06,25.26
19237,0.1776,-0.0203,0.8975,-6.14,7.48,-0.09,25.24
19247,0.1812,-0.022,0.8984,-6.27,8.75,0.0,25.26
19257,0.2032,-0.0146,0.8744,-6.26,7.15,-0.12,25.25
19267,0.1697,-0.0205,0.9012,-6.29,7.42,-0.11,25.29
19277,0.1799,-0.0183,0.8959,-6.26,8.85,-0.09,25.26
19287,0.204,-0.0226,0.8822,-6.2,7.53,-0.03,25.26
19297,0.1881,-0.0189,0.8982,-6.26,6.67,0.05,25.28
19307,0.1593,-0.0234,0.912,-6.18,9.8,-0.03,25.29
19317,0.1906,-0.019,0.8815,-6.27,9.07,-0.03,25.27
19327,0.1814,-0.0154,0.8827,-6.21,6.76,-0.02,25.26
19337,0.1753,-0.0175,0.8939,-6.26,8.26,-0.05,25.27
19347,0.1875,-0.0168,0.8911,-6.2,7.89,-0.12,25.26
19357,0.1967,-0.0109,0.8888,-6.32,6.92,0.05,25.26
19367,0.1733,-0.0325,0.9149,-6.15,8.78,0.02,25.25
19377,0.2083,-0.0181,0.8798,-6.09,7.76,-0.06,25.27
19387,0.1672,-0.0264,0.9053,-6.26,7.15,0.05,25.29
19397,0.2075,-0.0216,0.8724,-6.2,7.5,-0.02,25.28
19407,0.1837,-0.0225,0.899,-6.24,6.49,-0.08,25.26
19417,0.1716,-0.0188,0.9216,-6.32,9.51,-0.09,25.26
19427,0.2109,-0.0198,0.8763,-6.26,7.91,-0.03,25.27
19437,0.2062,-0.0175,0.8832,-6.23,6.72,-0.11,25.28
19447,0.1691,-0.0139,0.906,-6.2,9.34,-0.11,25.25
19457,0.2048,-0.0171,0.8654,-6.29,7.45,0.0,25.28
19467,0.1825,-0.0186,0.8892,-6.27,6.46,0.02,25.26
19477,0.1635,-0.015,0.9021,-6.18,9.24,-0.03,25.29
19487,0.1661,-0.019,0.9084,-6.24,9.47,0.0,25.27
19497,0.2148,-0.0156,0.8689,-6.15,7.13,-0.02,25.26
19507,0.1725,-0.0203,0.903,-6.24,7.04,-0.02,25.3
19517,0.1671,-0.0143,0.9006,-6.37,9.88,0.0,25.27
19527,0.2168,-0.0156,0.8632,-6.21,7.59,-0.08,25.26
19537,0.1917,-0.014,0.8884,-6.34,5.86,-0.05,25.28
19547,0.1672,-0.0183,0.9186,-6.26,9.62,-0.03,25.27
19557,0.2101,-0.0216,0.8861,-6.26,8.24,-0.02,25.27
19567,0.2004,-0.0184,0.8845,-6.2,6.82,-0.05,25.27
19577,0.1628,-0.0193,0.9174,-6.2,8.37,-0.05,25.28
19587,0.2035,-0.0156,0.8751,-6.15,8.49,-0.02,25.26
19597,0.2014,-0.0179,0.8749,-6.2,6.24,-0.08,25.28
19607,0.1715,-0.0193,0.901,-6.21,7.3,-0.06,25.28
19617,0.1771,-0.0217,0.9083,-6.15,9.71,0.03,25.27
19627,0.2059,-0.0172,0.882,-6.34,7.5,-0.03,25.28
19637,0.1981,-0.0221,0.8824,-6.12,7.54,-0.03,25.27
19647,0.1818,-0.0171,0.8876,-6.24,6.06,-0.02,25.25
19657,0.1752,-0.0156,0.9004,-6.23,10.05,-0.02,25.28
19667,0.2151,-0.0172,0.8595,-6.2,6.37,0.0,25.28
19677,0.1753,-0.017,0.9104,-6.24,7.1,-0.05,25.28
19687,0.1777,-0.0179,0.9052,-6.18,9.34,0.03,25.28
19697,0.2151,-0.0168,0.8704,-6.15,6.98,-0.08,25.27
19707,0.1506,-0.0087,0.9128,-6.31,7.71,-0.03,25.28
19717,0.2111,-0.0118,0.8654,-6.18,11.83,-0.09,25.28
19727,0.1866,-0.0299,0.8693,-6.12,1.22,0.02,25.28
19737,0.1423,-0.0123,0.962,-6.61,16.46,-0.18,25.28
19747,0.2728,-0.0138,0.8297,-6.11,2.29,0.05,25.27
19757,0.1307,-0.0146,0.9491,-6.41,9.95,-0.12,25.28
19767,0.2513,-0.0183,0.8445,-6.23,7.22,0.0,25.28
19777,0.166,-0.021,0.8992,-6.21,5.15,-0.03,25.28
19787,0.1807,-0.0209,0.8928,-6.35,10.34,-0.03,25.26
19797,0.2006,-0.0216,0.8881,-6.32,6.44,-0.12,25.28
19807,0.1803,-0.0253,0.905,-6.26,7.86,-0.05,25.26
19817,0.1805,-0.0188,0.9117,-6.31,8.63,-0.05,25.27
19827,0.1908,-0.0269,0.8783,-6.05,8.38,0.02,25.27
19837,0.1716,-0.0188,0.8882,-6.21,7.02,-0.06,25.28
19847,0.1914,-0.0149,0.8776,-6.23,9.45,-0.05,25.26
19857,0.1967,-0.0172,0.8807,-6.26,5.07,-0.03,25.27
19867,0.1595,-0.0194,0.9249,-6.32,9.27,-0.05,25.27
19877,0.2065,-0.016,0.8817,-6.21,8.53,-0.06,25.3
19887,0.1869,-0.0211,0.8873,-6.27,5.98,0.02,25.29
19897,0.1715,-0.0205,0.9019,-6.17,9.54,-0.06,25.27
19907,0.2025,-0.016,0.8748,-6.29,7.68,-0.02,25.27
19917,0.1992,-0.0172,0.8794,-6.15,6.12,0.03,25.28
19927,0.1559,-0.0193,0.9222,-6.41,8.53,-0.11,25.27
19937,0.2078,-0.0181,0.8787,-6.11,8.89,0.03,25.25
19947,0.1893,-0.0134,0.8947,-6.18,6.12,0.06,25.28
19957,0.183,-0.0231,0.8956,-6.15,7.92,-0.02,25.28
19967,0.1757,-0.0223,0.8928,-6.27,8.31,-0.11,25.28
19977,0.1979,-0.0179,0.8767,-6.21,8.21,-0.08,25.29
19987,0.1931,-0.0225,0.8859,-6.2,6.21,-0.09,25.28
19997,0.1735,-0.0194,0.9133,-6.23,8.53,-0.02,25.29
20007,0.1936,-0.0259,0.8905,-6.23,8.92,-0.11,25.28
20017,0.2021,-0.0236,0.8765,-6.17,6.44,-0.09,25.3
20027,0.1698,-0.0253,0.9084,-6.17,8.46,-0.06,25.31
20037,0.1892,-0.0181,0.8817,-6.21,8.17,-0.02,25.29
20047,0.1904,-0.02,0.8903,-6.21,7.57,-0.06,25.3
20057,0.1815,-0.0156,0.9012,-6.18,7.76,-0.06,25.29
20067,0.1863,-0.0106,0.8872,-6.31,8.64,-0.06,25.28
20077,0.1956,-0.0128,0.8857,-6.21,6.17,-0.02,25.26
20087,0.1674,-0.024,0.9039,-6.32,8.99,-0.05,25.29
20097,0.1753,-0.017,0.897,-6.21,9.21,-0.05,25.32
20107,0.1986,-0.0254,0.8793,-6.24,7.13,-0.06,25.29
20117,0.1857,-0.0205,0.8959,-6.34,6.79,-0.08,25.28
20127,0.1697,-0.0197,0.9128,-6.38,9.08,-0.08,25.29
20137,0.205,-0.0233,0.8793,-6.12,8.02,-0.17,25.29
20147,0.1827,-0.0341,0.8984,-6.15,5.92,0.0,25.3
20157,0.1696,-0.0197,0.9087,-6.24,9.88,0.03,25.28
20167,0.1893,-0.016,0.8921,-6.23,9.07,0.09,25.29
20177,0.1901,-0.0151,0.8943,-6.26,6.6,-0.05,25.3
20187,0.167,-0.0209,0.9167,-6.37,9.76,-0.02,25.28
20197,0.2043,-0.0117,0.8833,-6.26,8.89,0.02,25.27
20207,0.1978,-0.0134,0.8872,-6.14,6.37,-0.03,25.27
20217,0.1682,-0.0211,0.9055,-6.38,8.47,-0.06,25.27
20227,0.1947,-0.0194,0.8789,-6.35,8.92,-0.08,25.29
20237,0.1932,-0.0201,0.8789,-6.26,6.24,-0.08,25.27
20247,0.1638,-0.026,0.9119,-6.29,8.82,-0.18,25.27
20257,0.1982,-0.0214,0.8842,-6.15,8.35,0.05,25.27
20267,0.1902,-0.0239,0.8893,-6.23,6.35,-0.05,25.29
20277,0.1652,-0.0188,0.9058,-6.26,9.16,0.05,25.28
20287,0.2019,-0.0177,0.8721,-6.29,7.62,-0.05,25.29
20297,0.1976,-0.0194,0.8929,-6.14,6.02,-0.05,25.32
20307,0.172,-0.014,0.9191,-6.26,9.24,-0.12,25.29
20317,0.2168,-0.0164,0.882,-6.18,8.17,0.03,25.3
20327,0.1888,-0.0156,0.8853,-6.18,6.76,0.09,25.31
20337,0.177,-0.0062,0.8932,-6.47,10.98,-0.15,25.27
20347,0.2438,-0.0059,0.8282,-6.17,3.01,-0.03,25.27
20357,0.1375,-0.0312,0.9377,-6.15,9.65,-0.12,25.28
20367,0.2087,-0.0294,0.8881,-6.35,8.24,0.0,25.28
20377,0.197,-0.0178,0.897,-6.2,7.19,0.05,25.3
20387,0.1816,-0.0205,0.8972,-6.24,7.19,0.03,25.28
20397,0.1781,-0.0162,0.907,-6.2,8.92,0.03,25.28
20407,0.2026,-0.014,0.8771,-6.24,7.3,0.06,25.31
20417,0.1805,-0.0183,0.8987,-6.2,7.02,-0.06,25.3
20427,0.1873,-0.0237,0.8997,-6.31,9.19,-0.14,25.32
20437,0.2145,-0.0217,0.873,-6.2,7.18,-0.08,25.29
20447,0.1757,-0.0266,0.8949,-6.32,7.05,-0.05,25.28
20457,0.1782,-0.0146,0.8953,-6.34,9.3,-0.03,25.3
20467,0.2065,-0.015,0.8763,-6.15,6.98,0.03,25.31
20477,0.1812,-0.012,0.8927,-6.27,6.85,0.08,25.29
20487,0.1707,-0.0197,0.9103,-6.26,9.19,-0.02,25.29
20497,0.2062,-0.0167,0.8817,-6.29,7.33,0.03,25.3
20507,0.176,-0.0201,0.9034,-6.26,7.13,-0.02,25.3
20517,0.1809,-0.0222,0.8971,-6.27,9.59,-0.08,25.28
20527,0.2112,-0.0222,0.8755,-6.23,6.61,-0.05,25.27
20537,0.1783,-0.0193,0.9033,-6.24,6.98,0.0,25.32
20547,0.1753,-0.0251,0.9048,-6.26,9.71,0.02,25.3
20557,0.2153,-0.0173,0.8669,-6.18,6.6,-0.09,25.29
20567,0.1686,-0.0234,0.899,-6.24,7.66,0.0,25.27
20577,0.1855,-0.0118,0.8851,-6.29,8.79,-0.02,25.29
20587,0.2001,-0.0189,0.8779,-6.06,6.9,-0.12,25.31
20597,0.1772,-0.0126,0.9073,-6.27,6.95,-0.03,25.29
20607,0.1793,-0.0228,0.9056,-6.34,9.33,-0.02,25.29
20617,0.2069,-0.0273,0.8809,-6.23,6.63,-0.06,25.3
20627,0.1708,-0.0216,0.9043,-6.18,7.85,0.02,25.29
20637,0.1917,-0.0173,0.8882,-6.27,8.87,0.0,25.29
20647,0.2095,-0.0206,0.875,-6.12,6.21,-0.03,25.29
20657,0.1658,-0.0181,0.9143,-6.29,7.98,-0.06,25.3
20667,0.1921,-0.0215,0.8872,-6.27,9.28,-0.06,25.29
20677,0.1992,-0.0205,0.8733,-6.29,6.56,-0.03,25.26
20687,0.1677,-0.0183,0.9042,-6.17,8.17,-0.08,25.27
20697,0.1783,-0.0188,0.8917,-6.18,8.63,0.03,25.32
20707,0.2045,-0.0197,0.8723,-6.18,7.22,-0.05,25.29
20717,0.1979,-0.0112,0.8833,-6.29,6.2,-0.02,25.3
20727,0.1787,-0.0181,0.9026,-6.23,9.24,0.03,25.3
20737,0.2073,-0.0187,0.8799,-6.23,6.66,0.0,25.28
20747,0.1711,-0.0161,0.9023,-6.2,7.59,-0.06,25.29
20757,0.1824,-0.015,0.8926,-6.26,8.92,-0.09,25.29
20767,0.1965,-0.0237,0.8846,-6.24,7.11,-0.09,25.26
20777,0.1829,-0.0187,0.903,-6.26,7.77,-0.09,25.29
20787,0.1821,-0.0223,0.8914,-6.23,8.69,0.02,25.28
20797,0.1945,-0.0232,0.8813,-6.26,7.37,0.05,25.29
20807,0.181,-0.0214,0.8889,-6.23,7.45,-0.08,25.31
20817,0.2,-0.015,0.8834,-6.26,8.12,-0.03,25.3
20827,0.1913,-0.0204,0.8878,-6.34,6.63,-0.11,25.31
20837,0.1755,-0.0165,0.9135,-6.31,8.99,-0.08,25.32
20847,0.2039,-0.0203,0.8765,-6.21,7.83,-0.08,25.33
20857,0.1874,-0.0184,0.8933,-6.26,6.79,-0.02,25.32
20867,0.1737,-0.0164,0.9001,-6.29,7.66,-0.12,25.29
20877,0.2042,-0.0149,0.8788,-6.23,7.56,-0.03,25.29
20887,0.1975,-0.0242,0.887,-6.26,6.27,-0.05,25.29
20897,0.1724,-0.017,0.911,-6.24,8.6,-0.11,25.3
20907,0.2002,-0.0227,0.8811,-6.29,8.44,-0.08,25.31
20917,0.1929,-0.021,0.8839,-6.26,6.29,0.0,25.3
20927,0.1671,-0.0231,0.9095,-6.4,8.98,-0.08,25.31
20937,0.2035,-0.011,0.8732,-6.17,8.11,-0.02,25.32
20947,0.193,-0.0231,0.886,-6.2,6.06,0.02,25.29
20957,0.1698,-0.0166,0.9154,-6.35,8.78,0.0,25.32
20967,0.2024,-0.0232,0.8837,-6.26,8.05,-0.03,25.3
20977,0.1897,-0.0216,0.8942,-6.23,6.79,0.02,25.29
20987,0.1727,-0.0194,0.905,-6.26,9.1,-0.06,25.29
20997,0.2059,-0.0171,0.8767,-6.08,7.89,-0.06,25.28
21007,0.1891,-0.0206,0.8888,-6.18,6.47,-0.08,25.31
21017,0.175,-0.021,0.9109,-6.27,9.08,-0.05,25.32
21027,0.205,-0.0184,0.8739,-6.23,7.28,0.05,25.3
21037,0.174,-0.0234,0.8916,-6.17,6.98,-0.09,25.28
21047,0.1759,-0.0172,0.8945,-6.27,8.96,-0.14,25.31
21057,0.2048,-0.0175,0.8779,-6.24,6.89,-0.05,25.3
21067,0.1709,-0.0221,0.911,-6.34,7.42,-0.05,25.31
21077,0.188,-0.0239,0.8978,-6.24,9.1,-0.06,25.3
21087,0.2039,-0.0182,0.8816,-6.14,6.34,-0.08,25.32
21097,0.174,-0.0175,0.9058,-6.26,7.82,-0.06,25.28
21107,0.1847,-0.0234,0.8917,-6.15,8.82,-0.12,25.29
21118,0.2034,-0.0192,0.8773,-6.23,7.48,-0.09,25.3
21128,0.1776,-0.0212,0.8978,-6.27,6.92,-0.06,25.31
21138,0.1699,-0.0242,0.9105,-6.14,8.32,0.03,25.31
21148,0.2013,-0.0225,0.874,-6.18,7.28,0.0,25.29
21158,0.1766,-0.0209,0.8914,-6.09,7.4,-0.14,25.31
21168,0.1793,-0.019,0.8959,-6.23,8.76,-0.08,25.3
21178,0.2045,-0.0172,0.8749,-6.2,7.01,-0.05,25.3
21188,0.1747,-0.0178,0.8998,-6.31,7.6,-0.02,25.3
21199,0.1749,-0.0208,0.9075,-6.18,8.99,-0.02,25.3
21209,0.2026,-0.0187,0.879,-6.2,7.66,-0.05,25.27
21219,0.1821,-0.0173,0.9008,-6.29,6.93,-0.08,25.31
21229,0.1759,-0.0222,0.9067,-6.2,9.19,-0.02,25.28
21239,0.2058,-0.0156,0.8759,-6.21,7.27,-0.11,25.32
21249,0.1818,-0.0229,0.9011,-6.29,6.75,-0.05,25.3
21259,0.181,-0.0201,0.9036,-6.27,9.13,-0.11,25.33
21269,0.1997,-0.0237,0.8802,-6.2,7.66,-0.08,25.31
21279,0.1855,-0.0165,0.8903,-6.34,7.37,0.0,25.31
21289,0.1873,-0.0221,0.8975,-6.32,8.02,-0.06,25.31
21299,0.1841,-0.0184,0.8992,-6.26,7.88,-0.05,25.3
21309,0.1866,-0.0215,0.8933,-6.24,8.5,0.0,25.31
21319,0.2012,-0.0227,0.877,-6.26,6.96,0.02,25.3
21329,0.1926,-0.0216,0.882,-6.2,6.12,-0.06,25.29
21339,0.1742,-0.012,0.8972,-6.31,9.63,-0.02,25.32
21349,0.2134,-0.0198,0.8705,-6.31,6.47,-0.03,25.29
21359,0.17,-0.0192,0.9111,-6.29,7.18,-0.05,25.31
21369,0.1846,-0.0197,0.9025,-6.23,9.53,-0.11,25.3
21379,0.2094,-0.0231,0.879,-6.27,6.56,-0.02,25.33
21389,0.1758,-0.0226,0.9008,-6.26,7.4,-0.02,25.31
21399,0.1847,-0.0145,0.8981,-6.29,9.45,-0.06,25.29
21409,0.2126,-0.0187,0.8702,-6.2,6.44,-0.03,25.32
21419,0.192,-0.0201,0.8868,-6.24,6.08,-0.08,25.32
21429,0.1836,-0.017,0.9006,-6.15,9.59,-0.08,25.32
21439,0.2087,-0.0221,0.8687,-6.2,6.55,0.02,25.31
21449,0.1752,-0.0206,0.8969,-6.26,7.3,-0.09,25.32
21459,0.178,-0.0132,0.9003,-6.29,9.16,0.02,25.31
21469,0.2042,-0.0173,0.8777,-6.26,7.21,-0.06,25.31
21479,0.1754,-0.021,0.9056,-6.29,7.36,-0.12,25.3
21489,0.1827,-0.0156,0.8938,-6.23,9.22,-0.02,25.32
21499,0.2036,-0.0217,0.8763,-6.29,7.27,-0.08,25.31
21509,0.1682,-0.019,0.9044,-6.29,7.63,-0.05,25.3
21519,0.1688,-0.0177,0.9049,-6.29,9.04,-0.05,25.33
21529,0.2065,-0.0198,0.8801,-6.37,6.26,0.0,25.32
21539,0.1837,-0.0223,0.9053,-6.35,6.82,-0.06,25.3
21549,0.1749,-0.0162,0.9115,-6.32,9.5,-0.05,25.29
21559,0.203,-0.0181,0.8776,-6.24,6.37,-0.03,25.32
21569,0.1825,-0.0181,0.8962,-6.29,7.01,-0.08,25.32
21579,0.1808,-0.0173,0.8942,-6.23,8.85,-0.09,25.34
21589,0.2069,-0.0171,0.875,-6.17,6.72,-0.03,25.3
21599,0.1711,-0.0203,0.9059,-6.34,7.28,-0.11,25.3
21609,0.1799,-0.0184,0.9022,-6.24,9.3,-0.12,25.3
21619,0.2014,-0.0165,0.8809,-6.23,6.85,-0.02,25.3
21629,0.172,-0.0188,0.9016,-6.29,7.83,-0.02,25.34
21639,0.187,-0.0178,0.885,-6.23,8.79,-0.11,25.31
21649,0.2,-0.0166,0.8838,-6.34,6.64,-0.03,25.31
21659,0.1725,-0.0187,0.9113,-6.24,8.79,-0.09,25.33
21669,0.2021,-0.0219,0.8829,-6.17,8.15,-0.02,25.31
21679,0.1924,-0.0179,0.8907,-6.26,5.98,-0.03,25.29
21689,0.1664,-0.0201,0.9127,-6.29,9.18,-0.05,25.32
21699,0.201,-0.0181,0.8774,-6.27,8.17,-0.03,25.31
21709,0.1935,-0.0193,0.8893,-6.26,6.49,0.0,25.3
21719,0.171,-0.0248,0.9039,-6.4,8.63,-0.06,25.32
21729,0.1851,-0.0206,0.9003,-6.27,9.11,-0.05,25.3
21739,0.189,-0.017,0.886,-6.37,6.79,-0.02,25.31
21749,0.172,-0.0193,0.9027,-6.26,8.92,-0.11,25.31
21759,0.2002,-0.0179,0.8776,-6.15,7.73,-0.06,25.28
21769,0.1897,-0.0161,0.8936,-6.34,6.82,-0.06,25.32
21779,0.175,-0.0214,0.911,-6.31,9.04,-0.05,25.33
21789,0.207,-0.0203,0.8745,-6.12,7.28,-0.08,25.33
21799,0.1709,-0.0178,0.9043,-6.31,7.57,-0.03,25.33
21809,0.1816,-0.0194,0.8922,-6.23,8.93,0.0,25.34
21819,0.2,-0.0204,0.8766,-6.2,6.6,-0.05,25.33
21829,0.1705,-0.0182,0.9131,-6.27,8.09,-0.14,25.32
21839,0.1875,-0.022,0.8835,-6.2,8.81,0.0,25.32
21849,0.2013,-0.0229,0.88,-6.2,6.34,-0.05,25.3
21859,0.1647,-0.0192,0.9106,-6.27,8.53,-0.03,25.31
21869,0.1969,-0.0181,0.8826,-6.24,8.66,-0.02,25.33
21879,0.1941,-0.0242,0.8824,-6.21,6.41,0.02,25.3
21889,0.1694,-0.0135,0.9115,-6.31,8.44,-0.05,25.31
21899,0.1938,-0.0238,0.8843,-6.2,8.61,-0.03,25.32
21909,0.1964,-0.0206,0.88,-6.31,6.5,-0.05,25.32
21919,0.1725,-0.0205,0.9043,-6.26,8.34,-0.05,25.35
21929,0.1923,-0.0172,0.8898,-6.27,8.4,0.0,25.32
21939,0.1982,-0.0205,0.8795,-6.29,6.81,-0.09,25.3
21949,0.177,-0.0193,0.9071,-6.26,7.8,-0.02,25.34
21959,0.1842,-0.0215,0.8938,-6.32,8.61,-0.05,25.32
21969,0.1927,-0.0182,0.8875,-6.35,8.09,-0.14,25.31
21979,0.1979,-0.0172,0.8802,-6.37,7.19,-0.09,25.32
21989,0.1844,-0.0156,0.8973,-6.21,6.96,-0.02,25.31
21999,0.1755,-0.0192,0.9044,-6.35,9.07,-0.03,25.3
22009,0.2021,-0.0186,0.8842,-6.15,8.21,0.02,25.32
22019,0.1969,-0.022,0.882,-6.24,6.32,-0.06,25.32
22029,0.1674,-0.0195,0.9077,-6.18,8.31,-0.03,25.31
22039,0.1915,-0.0173,0.8793,-6.26,8.84,-0.05,25.33
22049,0.1993,-0.0168,0.8799,-6.11,6.37,-0.05,25.34
22059,0.1711,-0.0173,0.9041,-6.29,8.21,-0.08,25.34
22069,0.2014,-0.024,0.8857,-6.14,8.27,-0.05,25.32
22079,0.1919,-0.0156,0.8884,-6.26,6.64,-0.05,25.33
22089,0.1735,-0.0229,0.9077,-6.24,8.53,-0.05,25.32
22099,0.1959,-0.0206,0.8888,-6.31,7.79,-0.06,25.33
22109,0.1851,-0.0189,0.8983,-6.23,7.57,0.03,25.31
22119,0.1901,-0.0178,0.8932,-6.23,8.0,-0.09,25.32
22129,0.1925,-0.0194,0.8881,-6.12,7.63,-0.09,25.3
22139,0.1785,-0.0164,0.8958,-6.31,7.77,-0.02,25.31
22149,0.1868,-0.016,0.889,-6.18,8.63,-0.06,25.32
22159,0.202,-0.0219,0.8762,-6.24,6.87,-0.08,25.34
22169,0.1801,-0.0179,0.9005,-6.15,7.77,-0.06,25.32
22179,0.1876,-0.0166,0.8898,-6.29,8.56,0.0,25.32
22189,0.1971,-0.0199,0.8774,-6.24,6.9,-0.05,25.32
22199,0.183,-0.0177,0.8932,-6.38,7.15,-0.06,25.32
22209,0.1816,-0.0168,0.8944,-6.21,8.44,-0.08,25.34
22219,0.2012,-0.0217,0.8843,-6.2,7.18,-0.05,25.33
22229,0.1744,-0.0182,0.9111,-6.23,7.65,-0.06,25.33
22239,0.1837,-0.0167,0.9008,-6.26,9.59,-0.05,25.32
22249,0.2072,-0.0198,0.8719,-6.2,6.37,-0.05,25.34
22259,0.1732,-0.02,0.9042,-6.26,7.79,-0.08,25.32
22269,0.1943,-0.0162,0.8909,-6.29,9.01,-0.05,25.32
22279,0.2015,-0.0212,0.8807,-6.24,6.56,-0.11,25.33
22289,0.1669,-0.0189,0.9144,-6.26,8.49,-0.06,25.32
22299,0.2047,-0.0214,0.881,-6.21,8.76,-0.06,25.34
22309,0.198,-0.022,0.882,-6.27,5.74,-0.12,25.33
22319,0.1599,-0.0181,0.9163,-6.32,9.6,-0.14,25.32
22329,0.2081,-0.016,0.8756,-6.18,8.0,-0.03,25.32
22339,0.1907,-0.0175,0.8898,-6.23,5.73,-0.05,25.34
22349,0.1674,-0.0211,0.9189,-6.26,7.76,0.02,25.31
22359,0.2139,-0.0166,0.8695,-6.23,7.82,0.02,25.34
22369,0.1844,-0.022,0.8912,-6.2,6.17,0.02,25.31
22379,0.1713,-0.0208,0.9052,-6.29,8.96,0.03,25.32
22389,0.199,-0.0186,0.8787,-6.21,8.26,-0.08,25.33
22399,0.1976,-0.0181,0.8853,-6.21,6.14,0.0,25.32
22409,0.1698,-0.0203,0.9163,-6.2,8.31,-0.08,25.32
22419,0.2017,-0.0157,0.8842,-6.18,8.66,-0.08,25.35
22429,0.1942,-0.0232,0.8822,-6.14,6.47,-0.02,25.34
22439,0.1671,-0.0195,0.9028,-6.27,8.47,-0.06,25.34
22449,0.1989,-0.0193,0.8805,-6.18,8.44,-0.09,25.32
22459,0.1953,-0.014,0.8855,-6.31,6.17,-0.06,25.32
22469,0.1665,-0.022,0.9131,-6.38,8.93,-0.09,25.32
22479,0.199,-0.0253,0.8796,-6.21,8.35,-0.05,25.33
22489,0.193,-0.0215,0.8793,-6.21,6.14,0.06,25.33
22499,0.162,-0.02,0.9082,-6.27,8.92,0.02,25.37
22509,0.2032,-0.0203,0.8735,-6.18,8.2,0.0,25.33
22519,0.1908,-0.0182,0.886,-6.29,6.15,-0.06,25.32
22529,0.1666,-0.0216,0.9144,-6.27,9.22,-0.03,25.3
22539,0.204,-0.0253,0.8864,-6.31,8.24,0.03,25.31
22549,0.1903,-0.0203,0.8927,-6.21,6.35,-0.06,25.33
22559,0.1644,-0.0209,0.9098,-6.27,9.01,-0.03,25.32
22569,0.2065,-0.0153,0.8711,-6.24,7.91,-0.11,25.29
22579,0.1897,-0.0182,0.8948,-6.27,6.31,0.0,25.3
22589,0.1624,-0.0179,0.9194,-6.31,9.45,-0.06,25.32
22599,0.214,-0.0227,0.8768,-6.15,7.95,-0.05,25.31
22609,0.1902,-0.0209,0.8872,-6.21,5.89,-0.09,25.32
22619,0.1647,-0.0214,0.9126,-6.21,9.85,-0.08,25.31
22629,0.2141,-0.02,0.8727,-6.21,7.16,-0.03,25.34
22639,0.1772,-0.0162,0.9034,-6.27,6.52,-0.05,25.3
22649,0.16,-0.0148,0.9119,-6.26,8.72,-0.03,25.32
22659,0.2095,-0.0148,0.8628,-6.2,7.19,0.02,25.35
22669,0.1748,-0.0145,0.8895,-6.2,6.67,-0.03,25.32
22679,0.1647,-0.0149,0.9011,-6.29,9.48,-0.09,25.31
22689,0.2064,-0.0249,0.8673,-6.21,7.68,-0.02,25.33
22699,0.1907,-0.0281,0.8926,-6.21,5.94,-0.15,25.32
22709,0.1624,-0.0223,0.9125,-6.24,9.4,-0.02,25.33
22719,0.2063,-0.0176,0.8788,-6.2,8.31,-0.02,25.34
22729,0.1931,-0.0211,0.8909,-6.17,6.11,0.03,25.35
22739,0.1693,-0.0126,0.9163,-6.32,9.37,-0.08,25.33
22749,0.2146,-0.0165,0.8668,-6.23,7.63,-0.09,25.32
22759,0.1885,-0.0155,0.8993,-6.21,6.23,-0.11,25.35
22769,0.1725,-0.0209,0.9131,-6.35,9.65,-0.03,25.33
22779,0.2124,-0.0247,0.879,-6.26,7.28,-0.02,25.33
22789,0.1824,-0.0229,0.8986,-6.17,6.52,-0.08,25.35
22799,0.1675,-0.0132,0.9103,-6.23,10.17,-0.05,25.35
22809,0.2119,-0.0126,0.8624,-6.24,7.05,0.02,25.32
22819,0.1731,-0.0166,0.8971,-6.24,6.43,0.05,25.35
22829,0.1687,-0.0122,0.9053,-6.27,9.66,-0.06,25.34
22839,0.2064,-0.0236,0.869,-6.31,7.4,-0.08,25.32
22851,0.1924,-0.0259,0.8899,-6.31,9.24,-0.05,25.34
22861,0.184,-0.021,0.8934,-6.2,6.38,-0.06,25.35
22871,0.1703,-0.0181,0.9075,-6.21,7.76,-0.06,25.33
22881,0.1844,-0.0179,0.8975,-6.32,9.6,0.02,25.34
22891,0.1947,-0.0177,0.8879,-6.21,6.14,0.0,25.3
22901,0.1713,-0.0179,0.9114,-6.32,7.21,-0.03,25.34
22911,0.1797,-0.0215,0.9033,-6.32,9.88,-0.05,25.32
22921,0.2135,-0.0208,0.8702,-6.27,6.44,-0.06,25.32
22931,0.1635,-0.0217,0.9102,-6.21,7.65,-0.05,25.34
22941,0.1819,-0.0173,0.8898,-6.37,9.66,-0.06,25.32
22952,0.2094,-0.014,0.8702,-6.27,8.03,-0.08,25.36
22962,0.1957,-0.0157,0.8829,-6.14,5.92,-0.06,25.36
22972,0.1621,-0.0205,0.9155,-6.32,8.79,-0.08,25.33
22982,0.2013,-0.0172,0.8878,-6.24,9.16,-0.05,25.32
22992,0.2052,-0.0226,0.8784,-6.21,6.05,-0.02,25.33
23002,0.1664,-0.0162,0.8984,-6.24,8.08,-0.03,25.35
23012,0.1879,-0.02,0.8862,-6.24,8.95,-0.06,25.36
23022,0.2058,-0.0195,0.8807,-6.23,6.64,0.0,25.32
23032,0.1703,-0.0212,0.9117,-6.24,7.3,-0.05,25.3
23042,0.1765,-0.021,0.9043,-6.29,9.36,0.02,25.34
23052,0.2083,-0.0212,0.8778,-6.35,7.36,-0.06,25.35
23062,0.1823,-0.0168,0.8932,-6.29,7.07,-0.03,25.34
23072,0.1735,-0.0188,0.8982,-6.29,8.78,-0.05,25.34
23082,0.2041,-0.0155,0.8733,-6.17,7.91,-0.03,25.34
23092,0.1821,-0.024,0.8894,-6.18,6.31,-0.14,25.36
23102,0.1708,-0.0204,0.9061,-6.21,9.24,-0.06,25.35
23112,0.2083,-0.0212,0.8788,-6.23,7.39,0.0,25.36
23122,0.193,-0.0203,0.8896,-6.24,6.49,-0.08,25.36
23132,0.1663,-0.0223,0.907,-6.27,8.9,-0.06,25.35
23142,0.1974,-0.0177,0.89,-6.21,8.69,0.03,25.36
23152,0.2112,-0.0189,0.8767,-6.29,5.89,-0.03,25.34
23162,0.1676,-0.0248,0.9113,-6.27,7.73,0.02,25.35
23172,0.1862,-0.0214,0.8972,-6.21,9.56,-0.08,25.36
23182,0.2003,-0.0137,0.8735,-6.17,6.99,-0.03,25.34
23192,0.177,-0.0197,0.8887,-6.18,7.63,0.0,25.35
23202,0.1821,-0.0176,0.8916,-6.31,7.65,-0.02,25.36
23212,0.1929,-0.0164,0.8979,-6.21,8.12,-0.02,25.34
23222,0.1912,-0.02,0.9012,-6.31,7.37,-0.08,25.34
23232,0.1819,-0.0201,0.9019,-6.32,8.82,-0.03,25.33
23242,0.2024,-0.0209,0.876,-6.2,7.22,-0.06,25.34
23252,0.1666,-0.0184,0.8943,-6.24,7.07,-0.03,25.35
23262,0.1707,-0.0208,0.8929,-6.24,10.24,-0.09,25.34
23272,0.2156,-0.0189,0.8575,-6.24,5.6,-0.08,25.33
23282,0.1602,-0.0199,0.9159,-6.24,7.95,-0.02,25.33
23292,0.1881,-0.0182,0.8917,-6.35,9.54,-0.15,25.34
23302,0.2102,-0.0206,0.8771,-6.23,6.34,-0.06,25.35
23312,0.1686,-0.0231,0.9113,-6.24,7.22,-0.03,25.32
23322,0.1808,-0.0208,0.9053,-6.29,10.0,-0.08,25.36
23332,0.2198,-0.0192,0.8716,-6.18,6.26,0.02,25.34
23342,0.1699,-0.0193,0.9094,-6.34,7.08,-0.05,25.34
23352,0.1799,-0.0165,0.9042,-6.34,9.94,-0.08,25.35
23362,0.2136,-0.0168,0.8674,-6.21,6.56,-0.08,25.34
23372,0.1683,-0.0154,0.9039,-6.35,7.28,-0.03,25.35
23382,0.1575,-0.0162,0.9073,-6.29,9.21,0.0,25.34
23392,0.2087,-0.014,0.8687,-6.29,6.78,-0.06,25.35
23402,0.1781,-0.0178,0.8901,-6.23,6.56,0.02,25.32
23412,0.1613,-0.0183,0.9156,-6.4,9.44,0.03,25.34
23422,0.2112,-0.022,0.8724,-6.32,7.79,-0.05,25.33
23432,0.1918,-0.0186,0.8827,-6.2,6.34,-0.05,25.35
23442,0.1622,-0.0216,0.915,-6.37,9.3,-0.11,25.36
23452,0.2095,-0.0199,0.8756,-6.26,8.5,0.02,25.35
23462,0.1942,-0.0264,0.8894,-6.27,5.85,-0.09,25.33
23472,0.17,-0.0126,0.9141,-6.37,9.24,-0.08,25.34
23482,0.2051,-0.0249,0.8823,-6.24,8.47,0.03,25.36
23492,0.1979,-0.0157,0.8843,-6.24,6.08,-0.02,25.35
23502,0.1636,-0.0181,0.906,-6.23,8.81,-0.03,25.33
23512,0.1932,-0.0125,0.8865,-6.26,8.89,-0.03,25.36
23522,0.2058,-0.0128,0.8696,-6.15,6.26,-0.12,25.37
23532,0.1641,-0.0143,0.9097,-6.24,7.94,-0.09,25.34
23542,0.1921,-0.0209,0.8887,-6.35,9.1,-0.12,25.35
23552,0.2037,-0.0201,0.8805,-6.26,6.29,-0.08,25.34
23562,0.1842,-0.0221,0.9008,-6.26,6.81,-0.12,25.33
23572,0.1758,-0.0211,0.9041,-6.29,9.19,-0.09,25.35
23582,0.2065,-0.0209,0.8748,-6.21,7.48,0.02,25.36
23592,0.1829,-0.0203,0.9047,-6.35,6.2,-0.02,25.35
23602,0.1604,-0.0265,0.9139,-6.31,9.54,-0.02,25.37
23612,0.2009,-0.0212,0.8716,-6.17,8.18,0.03,25.36
23622,0.1935,-0.0212,0.8826,-6.15,6.2,0.02,25.34
23632,0.1648,-0.0198,0.9098,-6.41,8.35,0.0,25.36
23642,0.1947,-0.0151,0.8862,-6.2,9.18,-0.03,25.34
23652,0.2117,-0.0095,0.8771,-6.23,5.6,-0.08,25.34
23662,0.1653,-0.0172,0.9198,-6.32,8.78,-0.03,25.34
23672,0.2079,-0.0151,0.8854,-6.34,8.85,-0.05,25.36
23682,0.2029,-0.0208,0.8838,-6.27,6.09,-0.08,25.36
23692,0.1704,-0.0183,0.9182,-6.32,8.61,0.03,25.35
23702,0.2053,-0.0209,0.8816,-6.24,8.75,0.12,25.33
23712,0.2034,-0.0254,0.8859,-6.24,5.97,-0.11,25.35
23722,0.1691,-0.0253,0.9183,-6.4,8.41,-0.03,25.35
23732,0.1891,-0.0229,0.894,-6.41,9.6,-0.14,25.36
23742,0.2023,-0.0262,0.863,-6.21,6.34,-0.06,25.36
23752,0.1503,-0.0181,0.8981,-6.29,7.77,-0.05,25.38
23762,0.175,-0.0229,0.8783,-6.2,9.85,0.03,25.38
23772,0.2056,-0.019,0.8601,-6.17,5.05,-0.08,25.37
23782,0.1501,-0.0148,0.9266,-6.37,8.76,-0.11,25.35
23792,0.2118,-0.016,0.889,-6.31,8.99,0.03,25.34
23802,0.2148,-0.0154,0.8898,-6.18,5.69,0.06,25.36
23812,0.1755,-0.0178,0.9214,-6.31,8.26,-0.08,25.37
23822,0.1957,-0.0195,0.9004,-6.21,9.63,-0.03,25.35
23832,0.2157,-0.024,0.8756,-6.2,6.2,-0.06,25.39
23842,0.1616,-0.0193,0.9089,-6.32,7.82,0.02,25.37
23852,0.1755,-0.0181,0.9163,-6.37,9.82,0.03,25.36
23862,0.2015,-0.0254,0.89,-6.29,7.05,-0.02,25.35
23872,0.1543,-0.0488,0.8965,-6.35,7.5,-0.05,25.36
23882,0.1603,-0.0027,0.8435,-6.24,10.14,-0.05,25.37
23892,0.1956,-0.0013,0.8149,-6.12,5.07,-0.15,25.35
23902,0.1512,-0.0131,0.8953,-6.29,8.08,-0.17,25.36
23912,0.1981,-0.0133,0.8787,-6.26,9.04,-0.17,25.37
23922,0.2203,-0.0244,0.8854,-6.27,5.3,-0.14,25.35
23932,0.1818,-0.0352,0.9414,-6.35,8.37,-0.02,25.37
23942,0.2162,-0.0294,0.9321,-6.34,9.28,0.11,25.36
23952,0.241,-0.0297,0.9047,-6.17,6.15,0.12,25.34
23962,0.1758,-0.0181,0.9464,-6.27,8.06,0.09,25.38
23972,0.1655,-0.0143,0.9254,-6.26,10.47,0.06,25.37
23983,0.2026,-0.02,0.8705,-6.21,7.89,0.0,25.37
23993,0.1754,-0.0267,0.8794,-6.14,6.14,-0.02,25.36
24003,0.1366,-0.0216,0.9026,-6.31,8.98,-0.09,25.37
24013,0.1815,-0.0299,0.8546,-6.2,8.7,0.0,25.35
24023,0.1788,-0.0289,0.8508,-6.15,5.56,0.02,25.36
24033,0.1503,-0.0145,0.881,-6.18,8.81,-0.09,25.36
24043,0.1958,-0.0067,0.8591,-6.18,8.41,-0.05,25.36
24053,0.1958,-0.009,0.8708,-6.11,6.09,-0.05,25.38
24063,0.1699,-0.0057,0.9127,-6.29,8.73,-0.14,25.35
24073,0.2098,-0.0095,0.8853,-6.14,8.4,-0.12,25.35
24083,0.2106,-0.0176,0.9092,-6.2,5.89,-0.12,25.35
24093,0.1783,-0.0118,0.939,-6.37,8.56,-0.03,25.37
24103,0.2086,-0.0137,0.9154,-6.31,8.96,-0.14,25.36
24113,0.2094,-0.0231,0.8925,-6.21,6.23,-0.03,25.34
24123,0.174,-0.0186,0.9125,-6.34,8.05,-0.05,25.37
24133,0.1786,-0.0192,0.8958,-6.38,9.82,-0.05,25.36
24143,0.2106,-0.0231,0.8542,-6.24,6.53,0.0,25.36
24153,0.1599,-0.028,0.9004,-6.27,7.4,-0.05,25.36
24163,0.178,-0.0156,0.8812,-6.38,9.66,-0.08,25.36
24173,0.2061,-0.0245,0.8643,-6.14,6.72,-0.05,25.36
24183,0.1804,-0.0204,0.892,-6.23,7.04,-0.03,25.38
24193,0.1799,-0.0203,0.9075,-6.29,9.88,-0.02,25.37
24203,0.2286,-0.0227,0.8678,-6.26,6.72,0.02,25.36
24213,0.2001,-0.025,0.8915,-6.24,5.62,0.03,25.37
24223,0.1641,-0.0161,0.9312,-6.17,9.47,0.0,25.37
24233,0.2118,-0.0199,0.8779,-6.17,6.67,0.03,25.37
24243,0.1948,-0.0145,0.8901,-6.24,6.08,-0.09,25.36
24253,0.1556,-0.0151,0.9177,-6.14,9.34,-0.02,25.34
24263,0.1978,-0.0137,0.8682,-6.21,8.18,-0.05,25.36
24273,0.1895,-0.0188,0.8777,-6.26,6.32,-0.05,25.35
24283,0.1647,-0.0167,0.9054,-6.29,8.49,-0.05,25.39
24293,0.1931,-0.0167,0.88,-6.18,8.79,-0.02,25.36
24303,0.2085,-0.0204,0.8748,-6.32,5.92,-0.14,25.37
24313,0.1691,-0.0161,0.912,-6.17,8.46,-0.05,25.39
24323,0.1937,-0.0155,0.8878,-6.26,9.02,0.03,25.35
24333,0.2073,-0.0201,0.8784,-6.2,6.82,-0.02,25.37
24343,0.184,-0.0198,0.9034,-6.24,7.05,-0.03,25.37
24353,0.1722,-0.0219,0.9097,-6.18,9.42,0.0,25.35
24363,0.2094,-0.0232,0.8737,-6.27,7.85,0.0,25.36
24373,0.1838,-0.0222,0.8867,-6.21,6.11,-0.02,25.36
24383,0.1597,-0.019,0.9019,-6.31,9.22,0.03,25.36
24393,0.2004,-0.0228,0.8711,-6.24,8.11,-0.05,25.37
24403,0.1932,-0.0205,0.8832,-6.26,5.92,-0.06,25.34
24413,0.1593,-0.0195,0.9143,-6.32,9.24,-0.03,25.36
24423,0.2074,-0.017,0.8759,-6.21,8.06,-0.06,25.36
24433,0.1973,-0.021,0.8892,-6.23,6.24,-0.06,25.34
24443,0.1703,-0.0173,0.9131,-6.34,8.56,0.03,25.37
24453,0.1914,-0.0228,0.8944,-6.26,8.92,0.05,25.38
24463,0.2078,-0.0221,0.8833,-6.31,6.55,0.0,25.34
24473,0.1757,-0.0217,0.9043,-6.29,7.6,-0.06,25.34
24483,0.1808,-0.0189,0.8984,-6.23,8.98,-0.05,25.37
24493,0.2023,-0.0197,0.8765,-6.23,7.19,-0.12,25.35
24503,0.1765,-0.0172,0.8984,-6.23,7.37,-0.09,25.36
24513,0.1671,-0.0164,0.8925,-6.23,9.36,-0.05,25.35
24523,0.2021,-0.0148,0.866,-6.23,7.42,-0.05,25.33
24533,0.1862,-0.0184,0.892,-6.21,6.41,-0.03,25.34
24543,0.1705,-0.0208,0.9117,-6.26,8.73,-0.03,25.36
24553,0.2009,-0.0217,0.8926,-6.21,8.08,-0.03,25.34
24563,0.1946,-0.0173,0.8925,-6.17,6.92,-0.03,25.35
24573,0.1715,-0.0156,0.9133,-6.27,8.49,0.05,25.37
24583,0.1962,-0.0155,0.8838,-6.31,8.55,-0.02,25.36
24593,0.1967,-0.0188,0.8817,-6.35,6.6,-0.03,25.35
24603,0.167,-0.0237,0.9076,-6.32,8.08,-0.05,25.37
24613,0.1842,-0.0234,0.8892,-6.27,9.66,-0.06,25.38
24623,0.2123,-0.0222,0.869,-6.27,6.11,-0.05,25.39
24633,0.1603,-0.0156,0.9069,-6.35,7.86,-0.02,25.35
24643,0.1936,-0.02,0.8831,-6.26,9.25,-0.09,25.39
24653,0.2056,-0.0167,0.8737,-6.14,5.79,-0.06,25.37
24663,0.1636,-0.019,0.9178,-6.29,8.09,-0.08,25.37
24673,0.1879,-0.0199,0.8979,-6.35,9.34,0.08,25.37
24683,0.209,-0.0197,0.8778,-6.27,6.82,-0.08,25.39
24693,0.1782,-0.0154,0.9067,-6.21,7.04,-0.11,25.36
24703,0.1725,-0.0183,0.9072,-6.35,9.42,0.0,25.38
24713,0.2112,-0.0177,0.8773,-6.26,7.62,-0.09,25.37
24723,0.193,-0.022,0.8929,-6.14,6.12,-0.11,25.36
24733,0.1595,-0.017,0.9165,-6.32,9.73,0.02,25.37
24743,0.2145,-0.0193,0.8689,-6.26,7.92,-0.02,25.39
24753,0.1841,-0.0131,0.8964,-6.32,6.12,-0.05,25.39
24763,0.1692,-0.0194,0.9049,-6.31,9.65,-0.08,25.36
24773,0.2119,-0.0225,0.8705,-6.27,7.04,-0.09,25.38
24783,0.1764,-0.0192,0.9017,-6.37,6.76,-0.08,25.36
24793,0.1753,-0.0187,0.901,-6.38,9.76,-0.06,25.37
24803,0.2159,-0.0229,0.8729,-6.18,6.75,-0.03,25.39
24813,0.1772,-0.0193,0.8982,-6.18,6.84,-0.05,25.37
24823,0.1694,-0.017,0.9071,-6.27,9.48,0.0,25.38
24833,0.2136,-0.0155,0.8671,-6.27,7.36,0.0,25.39
24843,0.1835,-0.0204,0.8976,-6.26,6.37,-0.08,25.37
24853,0.1725,-0.0128,0.9148,-6.37,9.33,-0.08,25.37
24863,0.213,-0.0226,0.8821,-6.29,8.09,-0.02,25.36
24873,0.196,-0.0198,0.8955,-6.27,6.17,-0.08,25.37
24883,0.17,-0.0239,0.9078,-6.23,7.48,0.03,25.37
24893,0.1975,-0.0178,0.8718,-6.37,8.72,0.02,25.39
24903,0.2012,-0.0219,0.8632,-6.18,6.12,-0.08,25.36
24913,0.1757,-0.0146,0.8872,-6.29,6.27,-0.08,25.38
24923,0.1604,-0.0233,0.9087,-6.34,9.37,0.02,25.37
24933,0.2006,-0.0221,0.8837,-6.24,8.12,0.0,25.37
24943,0.1981,-0.0237,0.8962,-6.24,6.31,-0.12,25.37
24953,0.1654,-0.0138,0.9226,-6.24,8.98,-0.09,25.39
24963,0.2031,-0.0206,0.8855,-6.32,8.73,-0.12,25.38
24973,0.2067,-0.0153,0.8833,-6.27,5.89,-0.06,25.37
24983,0.1703,-0.0177,0.9067,-6.21,8.27,-0.06,25.36
24993,0.1953,-0.0181,0.887,-6.27,9.13,0.02,25.37
25003,0.202,-0.0199,0.8696,-6.18,5.92,-0.02,25.38
25013,0.1558,-0.0199,0.9132,-6.32,8.64,-0.06,25.37
25023,0.1963,-0.0195,0.8802,-6.29,8.95,0.0,25.38
25033,0.2081,-0.0208,0.8812,-6.21,5.42,0.05,25.39
25043,0.1621,-0.0194,0.9171,-6.32,8.9,-0.08,25.37
25053,0.2095,-0.0172,0.8765,-6.26,8.63,-0.05,25.39
25063,0.2009,-0.02,0.8812,-6.17,5.77,-0.06,25.37
25073,0.1582,-0.0183,0.916,-6.35,9.18,-0.08,25.39
25083,0.2007,-0.0204,0.8722,-6.27,8.64,0.06,25.4
25093,0.203,-0.0236,0.8828,-6.2,5.54,0.0,25.4
25103,0.158,-0.0215,0.9255,-6.23,9.25,-0.08,25.39
25113,0.2094,-0.0173,0.8745,-6.29,8.69,0.0,25.37
25123,0.1904,-0.0208,0.8843,-6.2,5.68,-0.02,25.37
25133,0.1598,-0.0156,0.9091,-6.2,9.66,-0.08,25.39
25143,0.2009,-0.0181,0.8749,-6.26,8.2,-0.08,25.39
25153,0.1998,-0.0201,0.8827,-6.27,5.53,-0.15,25.38
25163,0.163,-0.0239,0.9287,-6.31,9.07,-0.09,25.39
25173,0.1858,-0.0262,0.9104,-6.14,9.22,-0.08,25.38
25183,0.2001,-0.0262,0.9114,-6.34,7.76,0.02,25.39
25193,0.2036,-0.0146,0.889,-6.14,6.56,-0.08,25.39
25203,0.1489,-0.0189,0.9199,-6.34,9.22,-0.05,25.37
25213,0.2219,-0.0181,0.8524,-6.18,8.26,-0.03,25.37
25223,0.163,-0.022,0.9009,-6.34,4.82,-0.02,25.38
25233,0.1732,-0.0175,0.9061,-6.41,12.72,-0.03,25.39
25243,0.2285,-0.0238,0.8618,-6.11,4.06,-0.02,25.38
25253,0.1545,-0.0222,0.9202,-6.18,8.95,0.0,25.4
25263,0.1892,-0.0184,0.8833,-6.29,8.96,0.03,25.37
25273,0.208,-0.0187,0.8713,-6.12,6.58,-0.03,25.38
25283,0.1788,-0.0208,0.9088,-6.31,6.69,0.0,25.38
25293,0.1709,-0.0159,0.911,-6.32,9.63,-0.05,25.37
25303,0.2026,-0.02,0.8789,-6.27,7.54,-0.03,25.38
25313,0.1903,-0.0248,0.8956,-6.2,6.78,-0.03,25.37
25323,0.1735,-0.0205,0.9075,-6.27,9.02,-0.12,25.41
25333,0.2024,-0.0233,0.8674,-6.32,8.29,-0.06,25.38
25343,0.1918,-0.0138,0.8728,-6.29,6.32,0.0,25.39
25353,0.1681,-0.0151,0.9055,-6.29,8.09,-0.09,25.39
25363,0.1871,-0.0122,0.8925,-6.31,8.79,-0.08,25.38
25373,0.1969,-0.0219,0.885,-6.21,7.01,-0.08,25.39
25383,0.182,-0.0157,0.9022,-6.2,7.62,-0.08,25.39
25393,0.1837,-0.0214,0.8966,-6.27,8.52,-0.08,25.38
25403,0.2015,-0.0171,0.8782,-6.31,7.34,-0.02,25.39
25413,0.1848,-0.0211,0.9011,-6.26,7.45,-0.12,25.37
25423,0.189,-0.0189,0.8997,-6.38,8.63,0.02,25.37
25433,0.2072,-0.0212,0.8927,-6.31,7.54,-0.09,25.38
25443,0.1899,-0.0134,0.9031,-6.27,7.33,-0.02,25.4
25453,0.1793,-0.0173,0.8973,-6.29,8.32,-0.08,25.4
25463,0.1902,-0.0206,0.884,-6.34,7.69,-0.02,25.37
25473,0.181,-0.0154,0.8868,-6.24,7.59,-0.05,25.37
25483,0.181,-0.0159,0.8828,-6.27,7.91,-0.06,25.37
25493,0.1774,-0.0195,0.8833,-6.29,7.77,-0.02,25.39
25503,0.1854,-0.0208,0.8917,-6.31,7.71,-0.08,25.37
25513,0.1964,-0.0176,0.8912,-6.27,7.94,-0.11,25.37
25523,0.1909,-0.0209,0.8929,-6.37,7.33,-0.05,25.38
25533,0.1796,-0.0221,0.9041,-6.24,8.23,-0.05,25.38
25543,0.1841,-0.0178,0.8903,-6.23,8.49,-0.11,25.39
25553,0.2002,-0.0181,0.8744,-6.27,7.16,-0.03,25.41
25563,0.1974,-0.0201,0.8817,-6.29,6.98,0.02,25.37
25573,0.1825,-0.0228,0.9064,-6.26,8.58,0.02,25.42
25583,0.192,-0.0182,0.9011,-6.27,8.41,-0.09,25.39
25593,0.1917,-0.0214,0.8981,-6.18,7.5,-0.02,25.38
25603,0.1866,-0.0203,0.9014,-6.2,7.88,-0.14,25.39
25613,0.1864,-0.0188,0.889,-6.2,8.32,0.03,25.37
25623,0.1884,-0.0162,0.8745,-6.18,7.76,-0.06,25.4
25633,0.187,-0.0201,0.8699,-6.2,7.13,-0.09,25.42
25643,0.1744,-0.0161,0.8956,-6.15,7.77,-0.08,25.39
25653,0.1906,-0.022,0.8971,-6.29,8.17,0.02,25.42
25663,0.2025,-0.0194,0.8951,-6.24,7.18,-0.06,25.41
25673,0.1851,-0.0201,0.9054,-6.29,7.56,-0.06,25.38
25683,0.179,-0.0216,0.8994,-6.24,9.21,-0.02,25.36
25693,0.2029,-0.0176,0.8706,-6.23,7.66,-0.03,25.4
25703,0.1868,-0.0219,0.8826,-6.34,6.41,-0.02,25.39
25713,0.1691,-0.0157,0.9044,-6.14,8.56,-0.08,25.37
25723,0.1918,-0.0222,0.8844,-6.18,8.61,-0.02,25.38
25733,0.2074,-0.0216,0.8879,-6.31,6.5,-0.06,25.39
25743,0.175,-0.0221,0.9163,-6.32,7.65,-0.02,25.39
25753,0.1864,-0.0182,0.9019,-6.12,9.4,-0.03,25.41
25763,0.2106,-0.0214,0.8726,-6.34,7.16,-0.11,25.4
25773,0.1842,-0.0183,0.8896,-6.18,6.67,-0.03,25.4
25783,0.172,-0.0216,0.8987,-6.15,9.01,0.0,25.4
25793,0.2004,-0.0183,0.8772,-6.29,7.92,-0.05,25.41
25803,0.1925,-0.0182,0.8793,-6.24,6.99,-0.09,25.42
25813,0.1755,-0.0217,0.9048,-6.17,7.65,0.02,25.41
25823,0.1749,-0.019,0.8978,-6.23,8.9,-0.02,25.39
25833,0.1891,-0.0189,0.8794,-6.21,8.11,0.02,25.39
25843,0.1802,-0.0164,0.8795,-6.29,7.47,-0.02,25.38
25853,0.1764,-0.0183,0.8884,-6.31,7.71,0.0,25.4
25863,0.1835,-0.0161,0.8938,-6.24,7.89,-0.06,25.41
25873,0.197,-0.0234,0.9032,-6.2,7.6,0.0,25.41
25883,0.1871,-0.0251,0.9095,-6.32,7.47,-0.03,25.42
25893,0.181,-0.0183,0.9077,-6.34,8.7,-0.02,25.39
25903,0.1948,-0.019,0.8932,-6.24,8.37,-0.02,25.4
25913,0.1979,-0.0186,0.8843,-6.26,7.16,-0.05,25.4
25923,0.1777,-0.0173,0.8879,-6.18,7.91,-0.02,25.37
25933,0.1826,-0.0145,0.8864,-6.21,8.55,-0.02,25.38
25943,0.1992,-0.0154,0.8784,-6.27,7.62,-0.05,25.4
25953,0.1863,-0.0162,0.8926,-6.32,6.82,-0.06,25.4
25963,0.1696,-0.0189,0.9095,-6.24,8.78,-0.06,25.4
25973,0.1918,-0.0193,0.8844,-6.26,8.46,-0.02,25.37
25983,0.1985,-0.0232,0.875,-6.29,6.58,-0.09,25.37
25993,0.1719,-0.0186,0.8978,-6.26,7.48,-0.06,25.4
26003,0.1792,-0.0144,0.8953,-6.35,8.81,-0.05,25.39
26013,0.1986,-0.017,0.8873,-6.2,7.36,-0.08,25.42
26023,0.1959,-0.0199,0.8954,-6.29,6.93,0.0,25.4
26033,0.1791,-0.021,0.9086,-6.27,8.31,-0.03,25.39
26043,0.193,-0.0228,0.8881,-6.24,8.92,0.02,25.39
26053,0.2075,-0.0221,0.8723,-6.23,6.69,-0.06,25.39
26063,0.1808,-0.0125,0.8977,-6.18,6.98,-0.03,25.4
26073,0.1776,-0.0175,0.9034,-6.27,9.18,-0.08,25.38
26083,0.2013,-0.0116,0.8805,-6.26,7.85,-0.15,25.36
26093,0.1859,-0.0143,0.8878,-6.18,6.56,-0.06,25.39
26103,0.1692,-0.0168,0.9098,-6.26,8.4,-0.05,25.38
26113,0.1833,-0.0208,0.899,-6.23,9.27,-0.06,25.37
26123,0.2096,-0.0179,0.8701,-6.31,6.9,-0.11,25.37
26133,0.1783,-0.0258,0.8899,-6.26,6.89,0.03,25.38
26143,0.1744,-0.0199,0.9008,-6.21,8.79,-0.08,25.37
26153,0.1974,-0.0201,0.8843,-6.23,8.4,0.05,25.39
26163,0.1946,-0.0173,0.8843,-6.27,7.02,-0.06,25.4
26173,0.1849,-0.0201,0.8999,-6.31,7.71,0.0,25.4
26183,0.1826,-0.0197,0.8977,-6.32,8.18,-0.05,25.39
26193,0.1837,-0.0219,0.8961,-6.26,8.5,-0.03,25.37
26203,0.2007,-0.022,0.8839,-6.17,7.44,-0.05,25.4
26213,0.1805,-0.0208,0.8934,-6.32,7.1,-0.02,25.42
26223,0.1768,-0.0162,0.9034,-6.34,8.84,0.02,25.36
26233,0.199,-0.0179,0.8851,-6.29,7.97,-0.09,25.39
26243,0.1925,-0.022,0.8914,-6.21,7.02,-0.05,25.42
26253,0.1819,-0.0188,0.8911,-6.26,7.47,-0.09,25.41
26263,0.1774,-0.0203,0.8976,-6.23,8.4,-0.08,25.38
26273,0.193,-0.0178,0.8804,-6.29,8.08,-0.03,25.39
26283,0.1917,-0.0188,0.8837,-6.29,6.9,-0.02,25.39
26293,0.1765,-0.0239,0.895,-6.18,7.83,-0.06,25.4
26303,0.1897,-0.0184,0.8971,-6.2,8.44,0.03,25.4
26313,0.2002,-0.022,0.8938,-6.24,7.48,-0.08,25.41
26323,0.1851,-0.0249,0.8971,-6.23,7.57,-0.06,25.4
26333,0.1803,-0.0258,0.8867,-6.15,8.29,-0.12,25.41
26343,0.1931,-0.0161,0.8812,-6.23,7.59,-0.09,25.39
26353,0.1813,-0.0214,0.8848,-6.26,7.36,-0.05,25.39
26363,0.1824,-0.0153,0.8958,-6.27,8.05,-0.03,25.39
26373,0.1934,-0.0193,0.8899,-6.24,7.59,-0.06,25.37
26383,0.1937,-0.0189,0.902,-6.35,7.04,-0.09,25.41
26393,0.183,-0.0233,0.9158,-6.29,7.74,-0.03,25.41
26403,0.1777,-0.0164,0.9077,-6.29,9.39,-0.03,25.39
26413,0.1965,-0.0212,0.8677,-6.24,7.88,0.02,25.39
26423,0.1827,-0.0195,0.876,-6.24,6.98,-0.08,25.39
26433,0.1708,-0.0173,0.8882,-6.29,8.38,-0.09,25.4
26443,0.1925,-0.0181,0.8817,-6.24,8.0,-0.09,25.41
26453,0.1885,-0.0205,0.8898,-6.24,7.21,-0.09,25.38
26463,0.1899,-0.0222,0.9059,-6.21,7.68,-0.06,25.41
26473,0.1871,-0.0178,0.9066,-6.37,7.85,-0.11,25.37
26483,0.1842,-0.021,0.906,-6.26,8.58,-0.02,25.4
26493,0.2023,-0.0183,0.891,-6.2,8.14,-0.06,25.39
26503,0.1953,-0.0216,0.8813,-6.21,7.15,-0.15,25.39
26513,0.1769,-0.0168,0.8888,-6.24,8.05,-0.17,25.42
26523,0.1869,-0.0178,0.8859,-6.26,8.43,-0.08,25.41
26533,0.1992,-0.0107,0.8802,-6.27,7.45,-0.11,25.39
26543,0.1923,-0.0219,0.9025,-6.35,6.72,-0.05,25.38
26553,0.1808,-0.0178,0.9135,-6.38,8.15,-0.05,25.37
26563,0.1831,-0.02,0.9033,-6.23,8.96,-0.08,25.41
26573,0.1978,-0.019,0.8821,-6.27,8.02,-0.06,25.39
26583,0.1912,-0.0209,0.8853,-6.11,7.24,-0.03,25.41
26593,0.1799,-0.0197,0.8812,-6.4,7.89,-0.02,25.39
26603,0.1884,-0.0182,0.8772,-6.32,7.73,-0.02,25.39
26613,0.1854,-0.0216,0.8945,-6.18,7.42,-0.09,25.41
26623,0.1882,-0.0187,0.9044,-6.31,7.8,-0.06,25.42
26633,0.1926,-0.0173,0.9032,-6.31,7.82,-0.02,25.43
26643,0.1923,-0.0203,0.9021,-6.23,7.79,-0.06,25.38
26653,0.1876,-0.0212,0.9014,-6.27,8.09,-0.11,25.4
26663,0.1951,-0.025,0.8927,-6.24,7.94,-0.05,25.39
26673,0.1875,-0.0223,0.8859,-6.32,7.74,-0.06,25.4
26683,0.1763,-0.0225,0.886,-6.18,8.56,-0.08,25.4
26693,0.192,-0.0153,0.8708,-6.24,7.89,-0.06,25.39
26703,0.1863,-0.0187,0.8757,-6.24,6.56,-0.06,25.4
26713,0.1746,-0.0166,0.8921,-6.2,7.85,-0.03,25.4
26723,0.1866,-0.0172,0.891,-6.29,8.02,0.02,25.41
26733,0.1985,-0.0144,0.8844,-6.27,6.99,-0.05,25.4
26743,0.1842,-0.0248,0.9066,-6.24,7.45,-0.06,25.39
26753,0.183,-0.015,0.9072,-6.24,8.61,-0.06,25.42
26763,0.187,-0.0208,0.9019,-6.34,8.49,0.03,25.41
26773,0.1993,-0.0154,0.891,-6.29,7.34,-0.02,25.41
26783,0.1863,-0.0215,0.8989,-6.24,7.63,-0.03,25.39
26793,0.1848,-0.0162,0.8984,-6.24,7.85,-0.02,25.41
26803,0.1807,-0.0249,0.8955,-6.2,8.6,-0.02,25.39
26813,0.2004,-0.0216,0.8865,-6.31,7.47,0.03,25.39
26823,0.1924,-0.0237,0.8966,-6.18,7.56,-0.09,25.41
26833,0.1884,-0.0215,0.899,-6.23,8.15,-0.02,25.39
26843,0.1876,-0.0231,0.8868,-6.26,8.46,-0.05,25.38
26853,0.1924,-0.0148,0.8759,-6.23,7.4,-0.05,25.42
26863,0.1838,-0.0182,0.8749,-6.17,7.44,-0.05,25.39
26873,0.1752,-0.0156,0.8885,-6.21,8.09,-0.09,25.41
26883,0.1864,-0.0145,0.882,-6.32,7.86,-0.11,25.39
26893,0.1877,-0.0212,0.8973,-6.27,7.42,-0.09,25.41
26903,0.1877,-0.0156,0.8951,-6.18,7.54,-0.09,25.39
26913,0.1837,-0.0189,0.9127,-6.23,8.06,-0.15,25.41
26923,0.1925,-0.0212,0.897,-6.21,8.15,0.05,25.41
26933,0.1958,-0.0226,0.8982,-6.23,7.66,-0.06,25.39
26943,0.1864,-0.0212,0.9053,-6.26,7.65,-0.03,25.4
26953,0.1803,-0.0256,0.903,-6.29,8.82,-0.09,25.41
26963,0.1926,-0.0221,0.8749,-6.26,7.82,-0.06,25.42
26973,0.1947,-0.0182,0.8755,-6.24,7.22,0.0,25.42
26983,0.1753,-0.02,0.8948,-6.18,8.03,-0.02,25.37
26993,0.1864,-0.0159,0.89,-6.29,8.2,0.02,25.39
27003,0.1908,-0.0153,0.8883,-6.31,7.63,-0.03,25.41
27013,0.1821,-0.0161,0.8929,-6.32,7.57,-0.06,25.41
27023,0.1776,-0.0153,0.9008,-6.32,8.11,-0.09,25.39
27033,0.2035,-0.0071,0.9082,-6.03,7.04,-0.03,25.4
27043,0.1139,-0.0295,0.9803,-6.47,12.41,0.0,25.42
27053,0.3137,-0.0009,0.7784,-6.02,-2.0,0.05,25.39
27063,0.09,-0.0197,0.9854,-6.34,15.57,-0.11,25.41
27073,0.2191,-0.0172,0.864,-6.47,7.01,-0.05,25.42
27083,0.2076,-0.0197,0.8658,-6.18,6.27,-0.11,25.42
27093,0.1516,-0.0262,0.9155,-6.32,8.63,-0.12,25.4
27103,0.21,-0.0233,0.8584,-6.15,8.9,0.0,25.41
27113,0.1941,-0.0256,0.8794,-6.2,5.79,0.03,25.4
27123,0.179,-0.0242,0.8979,-6.24,8.41,0.03,25.42
27133,0.193,-0.0189,0.8912,-6.31,7.97,0.02,25.4
27143,0.192,-0.0118,0.8896,-6.29,7.3,-0.03,25.41
27153,0.1918,-0.0206,0.9014,-6.29,7.39,-0.21,25.4
27163,0.1777,-0.0122,0.9155,-6.26,8.08,-0.17,25.41
27173,0.1818,-0.0172,0.9082,-6.38,8.76,0.0,25.39
27183,0.1992,-0.0209,0.8883,-6.26,8.06,-0.2,25.42
27193,0.1884,-0.0229,0.8905,-6.23,6.95,-0.05,25.4
27203,0.1732,-0.0159,0.8982,-6.26,9.1,-0.02,25.4
27213,0.1941,-0.0188,0.8807,-6.12,8.05,-0.02,25.39
27223,0.1963,-0.0143,0.8751,-6.2,7.01,-0.09,25.4
27233,0.1747,-0.0192,0.894,-6.27,8.2,0.03,25.4
27243,0.1907,-0.0176,0.8826,-6.24,8.29,-0.05,25.39
27253,0.2024,-0.0177,0.887,-6.23,6.85,-0.03,25.42
27263,0.1857,-0.0206,0.9039,-6.23,7.82,-0.03,25.39
27273,0.1879,-0.0249,0.8921,-6.29,7.63,0.02,25.42
27283,0.1818,-0.021,0.9017,-6.23,8.03,-0.09,25.39
27293,0.1846,-0.0187,0.8932,-6.29,7.85,-0.08,25.39
27303,0.1934,-0.0221,0.8927,-6.26,7.53,-0.03,25.41
27313,0.1813,-0.0236,0.9041,-6.34,7.89,0.0,25.41
27323,0.1931,-0.0205,0.8986,-6.26,8.21,-0.02,25.4
27333,0.1964,-0.0242,0.892,-6.21,7.65,-0.03,25.42
27343,0.1892,-0.0264,0.8988,-6.17,7.85,-0.08,25.41
27353,0.1824,-0.0192,0.8885,-6.18,8.64,-0.05,25.41
27363,0.194,-0.0159,0.8658,-6.21,7.77,-0.02,25.39
27373,0.1847,-0.016,0.882,-6.21,7.05,-0.08,25.42
