t_ms,accel_x_g,accel_y_g,accel_z_g,gyro_x_dps,gyro_y_dps,gyro_z_dps,imu_temp_c
4173,0.2278,-0.0499,0.8754,-6.2,7.54,-0.11,23.25
4223,0.2313,-0.0598,0.8812,-6.2,7.28,-0.03,23.26
4233,0.2299,-0.066,0.8726,-6.18,8.05,-0.08,23.28
4243,0.2279,-0.0653,0.879,-6.0,8.82,-0.09,23.25
4253,0.2218,-0.0592,0.8831,-5.92,8.9,0.0,23.27
4263,0.2196,-0.0587,0.8914,-6.14,8.29,-0.05,23.26
4273,0.2223,-0.0599,0.8848,-6.2,7.86,-0.08,23.27
4283,0.2277,-0.0559,0.8831,-6.18,7.85,-0.08,23.29
4293,0.2272,-0.0551,0.8771,-6.12,8.06,0.15,23.29
4303,0.2247,-0.0533,0.8806,-6.11,8.37,0.02,23.27
4313,0.2207,-0.0491,0.8881,-6.09,8.24,-0.06,23.27
4323,0.2224,-0.0503,0.8921,-6.12,7.77,-0.06,23.28
4333,0.2225,-0.0514,0.8883,-6.14,7.53,-0.15,23.24
4343,0.226,-0.0575,0.8817,-6.21,7.45,-0.21,23.25
4353,0.2212,-0.054,0.8796,-6.12,7.68,-0.11,23.27
4363,0.2216,-0.0609,0.882,-6.09,7.85,-0.23,23.28
4373,0.2228,-0.0664,0.8799,-6.11,7.77,-0.14,23.29
4383,0.2208,-0.0638,0.8837,-6.08,7.44,-0.09,23.27
4393,0.2205,-0.062,0.8856,-6.08,7.28,-0.12,23.26
4403,0.2203,-0.0566,0.8846,-6.11,7.28,-0.06,23.26
4413,0.2258,-0.0543,0.8849,-6.2,7.73,-0.06,23.28
4423,0.2271,-0.0542,0.8811,-6.11,8.06,-0.02,23.28
4433,0.2281,-0.0521,0.8821,-6.02,8.17,-0.02,23.28
4443,0.2229,-0.0475,0.8842,-6.14,8.05,-0.02,23.27
4453,0.224,-0.05,0.8893,-6.2,7.98,-0.12,23.28
4463,0.225,-0.0522,0.8838,-6.31,8.12,-0.03,23.29
4473,0.2238,-0.0522,0.8799,-6.12,8.46,-0.06,23.29
4483,0.2188,-0.0574,0.8831,-6.11,8.92,0.02,23.27
4493,0.217,-0.0593,0.8925,-6.03,8.96,0.0,23.27
4503,0.218,-0.0597,0.8878,-6.08,8.29,0.02,23.27
4513,0.2192,-0.058,0.885,-6.2,7.5,-0.05,23.28
4523,0.2216,-0.0553,0.8829,-6.18,7.34,0.02,23.26
4533,0.2262,-0.0587,0.8811,-6.24,7.95,0.09,23.27
4543,0.2324,-0.0576,0.8761,-6.14,8.35,0.06,23.27
4553,0.2246,-0.0569,0.8867,-6.14,8.38,0.08,23.25
4563,0.2216,-0.0592,0.8876,-6.15,7.95,0.12,23.27
4573,0.2224,-0.0594,0.8817,-6.21,7.48,0.09,23.29
4583,0.2268,-0.0573,0.8816,-6.23,7.19,-0.06,23.28
4593,0.2247,-0.0642,0.879,-5.98,7.68,-0.05,23.29
4603,0.2191,-0.0631,0.8839,-6.02,8.46,0.02,23.27
4613,0.2177,-0.0579,0.8829,-6.05,8.38,0.02,23.29
4623,0.2175,-0.0562,0.8839,-6.02,7.5,-0.06,23.31
4633,0.2211,-0.0559,0.8907,-6.26,7.18,-0.15,23.3
4643,0.2222,-0.0614,0.8788,-6.32,7.71,-0.11,23.28
4653,0.2299,-0.0616,0.874,-6.11,8.34,-0.09,23.28
4663,0.2236,-0.0604,0.8846,-6.05,8.67,-0.03,23.29
4673,0.2196,-0.0602,0.8848,-5.97,8.44,-0.09,23.27
4683,0.223,-0.0581,0.889,-6.08,7.69,-0.11,23.29
4693,0.2249,-0.0559,0.8807,-6.24,7.11,-0.11,23.29
4703,0.2238,-0.0544,0.8782,-6.09,7.33,-0.15,23.27
4713,0.2224,-0.0505,0.8799,-6.02,8.06,-0.09,23.29
4723,0.2234,-0.0554,0.8855,-6.05,8.27,-0.06,23.27
4733,0.2211,-0.0504,0.886,-6.15,7.77,-0.12,23.27
4743,0.218,-0.056,0.8905,-6.27,7.11,-0.05,23.27
4753,0.2197,-0.0581,0.8755,-6.24,7.21,-0.06,23.29
4763,0.2258,-0.0558,0.875,-6.15,7.54,-0.05,23.27
4773,0.2263,-0.0554,0.8774,-6.08,7.89,-0.09,23.29
4783,0.225,-0.0532,0.8878,-6.03,7.95,-0.02,23.3
4793,0.2181,-0.0531,0.8879,-6.14,8.17,0.02,23.3
4803,0.2275,-0.053,0.8811,-6.26,7.56,-0.05,23.29
4813,0.2242,-0.0544,0.8794,-6.24,6.78,0.02,23.27
4823,0.2174,-0.0604,0.8893,-6.23,7.22,0.05,23.28
4833,0.2163,-0.0573,0.8875,-6.12,7.73,-0.05,23.28
4843,0.2266,-0.0596,0.8798,-6.2,7.65,-0.06,23.28
4853,0.2246,-0.0612,0.8828,-6.12,7.08,-0.15,23.27
4863,0.2203,-0.0581,0.8904,-6.14,7.02,-0.18,23.27
4873,0.2245,-0.0607,0.8782,-6.18,7.42,-0.06,23.28
4883,0.2268,-0.0573,0.8776,-6.24,7.73,-0.03,23.3
4893,0.2279,-0.0593,0.8779,-6.15,8.75,-0.09,23.27
4903,0.2244,-0.0629,0.8824,-6.09,9.33,-0.03,23.29
4913,0.2251,-0.0581,0.8849,-5.97,8.96,-0.06,23.27
4923,0.2197,-0.0569,0.8878,-6.18,7.88,-0.14,23.28
4933,0.2179,-0.0533,0.8906,-6.17,7.73,-0.12,23.29
4943,0.2211,-0.0624,0.8826,-6.26,7.88,-0.09,23.29
4953,0.2261,-0.0581,0.8804,-6.2,7.95,-0.17,23.28
4963,0.2192,-0.0604,0.8812,-6.15,7.83,-0.17,23.28
4973,0.2173,-0.0555,0.8907,-5.95,7.47,-0.08,23.3
4983,0.2214,-0.0542,0.8921,-6.21,6.61,-0.2,23.26
4993,0.2284,-0.0549,0.8831,-6.34,6.11,-0.18,23.28
5003,0.2307,-0.0559,0.8759,-6.29,6.82,-0.17,23.27
5013,0.2278,-0.0565,0.8766,-6.18,7.97,-0.14,23.27
5023,0.2239,-0.0583,0.8823,-6.02,8.63,-0.11,23.27
5033,0.2185,-0.0555,0.8853,-6.0,8.38,-0.08,23.27
5043,0.2168,-0.0552,0.8884,-6.21,7.85,-0.15,23.28
5053,0.2209,-0.058,0.8798,-6.31,7.65,-0.14,23.3
5063,0.2244,-0.0571,0.8795,-6.14,8.43,-0.11,23.29
5073,0.2225,-0.0543,0.8837,-6.14,8.99,-0.08,23.28
5083,0.2181,-0.0586,0.8822,-6.05,8.95,-0.12,23.29
5093,0.2206,-0.0607,0.8945,-6.14,8.24,-0.12,23.29
5103,0.2152,-0.0615,0.8868,-6.23,7.59,-0.26,23.3
5113,0.2238,-0.0587,0.8856,-6.03,7.97,-0.08,23.3
5123,0.2286,-0.0518,0.8679,-6.37,7.28,-0.12,23.27
5133,0.2306,-0.0558,0.877,-6.08,7.48,-0.11,23.3
5143,0.218,-0.0575,0.8816,-6.11,8.21,-0.09,23.3
5153,0.2194,-0.0605,0.8917,-6.0,8.2,-0.03,23.3
5163,0.2163,-0.0558,0.8882,-6.15,7.07,-0.06,23.3
5173,0.2198,-0.0504,0.8867,-6.2,6.4,-0.14,23.31
5183,0.2258,-0.0536,0.8783,-6.37,6.9,-0.11,23.3
5193,0.2275,-0.056,0.8741,-6.23,7.8,-0.03,23.3
5203,0.228,-0.0552,0.8828,-6.08,8.53,-0.05,23.29
5213,0.2173,-0.0546,0.8937,-6.03,8.5,0.02,23.28
5223,0.2167,-0.0565,0.8978,-6.15,7.71,-0.05,23.3
5233,0.2268,-0.0574,0.8837,-6.32,6.79,-0.14,23.3
5243,0.228,-0.0597,0.8767,-6.31,6.92,-0.08,23.27
5253,0.2269,-0.0585,0.8772,-6.05,8.05,0.0,23.29
5263,0.2198,-0.0605,0.8873,-5.97,8.52,-0.03,23.29
5273,0.2198,-0.0571,0.8899,-6.08,8.08,0.0,23.29
5283,0.2195,-0.0574,0.8921,-6.12,6.78,-0.06,23.28
5293,0.2218,-0.0559,0.8816,-6.17,6.43,-0.05,23.29
5303,0.2258,-0.0549,0.8752,-6.23,6.81,0.03,23.29
5313,0.2279,-0.0508,0.8773,-6.12,7.73,0.02,23.29
5323,0.2208,-0.0511,0.8812,-5.95,8.34,0.11,23.29
5333,0.2178,-0.0508,0.8931,-5.94,8.23,0.08,23.3
5343,0.2196,-0.0519,0.8843,-6.27,7.69,0.06,23.29
5353,0.222,-0.0522,0.8817,-6.27,7.37,0.11,23.28
5363,0.2219,-0.0525,0.8779,-6.27,7.83,0.02,23.29
5373,0.2207,-0.0533,0.8772,-6.23,8.73,0.06,23.27
5383,0.2241,-0.056,0.8766,-6.15,9.16,0.06,23.3
5393,0.223,-0.0569,0.8857,-6.17,9.05,0.08,23.3
5403,0.2195,-0.0596,0.8905,-6.18,8.89,0.12,23.29
5413,0.2205,-0.0609,0.8849,-6.21,8.24,0.03,23.28
5423,0.2252,-0.0613,0.8788,-6.29,7.57,0.02,23.29
5433,0.2247,-0.0632,0.8792,-6.32,7.83,-0.05,23.31
5443,0.2255,-0.0651,0.8818,-6.27,8.73,-0.05,23.32
5453,0.2301,-0.0692,0.8796,-6.12,9.05,0.03,23.31
5463,0.2241,-0.0664,0.8887,-6.05,8.29,-0.03,23.3
5473,0.2183,-0.0626,0.892,-6.09,7.71,-0.14,23.29
5483,0.2216,-0.0642,0.8877,-6.27,7.22,-0.18,23.3
5493,0.2256,-0.063,0.8779,-6.23,7.39,-0.14,23.29
5503,0.2251,-0.0616,0.8738,-6.17,7.73,-0.18,23.29
5513,0.2195,-0.0614,0.8806,-6.0,8.4,-0.15,23.28
5523,0.2181,-0.0577,0.8882,-6.06,8.15,-0.11,23.3
5533,0.2205,-0.0565,0.8888,-6.09,7.16,-0.14,23.31
5543,0.2213,-0.0551,0.8845,-6.17,6.5,-0.23,23.29
5553,0.2222,-0.053,0.8779,-6.2,6.99,-0.15,23.31
5563,0.2252,-0.0536,0.8745,-6.08,7.63,-0.26,23.28
5573,0.2277,-0.051,0.8809,-6.06,8.0,-0.21,23.29
5583,0.223,-0.0521,0.8895,-6.03,8.11,-0.2,23.31
5593,0.2202,-0.057,0.892,-6.21,7.92,-0.21,23.29
5603,0.2234,-0.059,0.8811,-6.18,7.57,-0.18,23.29
5613,0.2231,-0.0615,0.8817,-6.15,7.51,-0.2,23.31
5623,0.2196,-0.0599,0.8846,-6.21,7.88,-0.15,23.3
5633,0.2277,-0.0616,0.8826,-6.14,7.79,-0.21,23.3
5643,0.2252,-0.0588,0.8807,-6.12,7.22,-0.2,23.28
5653,0.2089,-0.0608,0.8861,-6.23,7.25,-0.14,23.28
5663,0.2095,-0.0562,0.8976,-6.09,7.36,-0.12,23.29
5673,0.2268,-0.0552,0.8744,-6.15,7.1,-0.05,23.29
5683,0.2284,-0.0505,0.8762,-6.14,6.31,-0.08,23.29
5693,0.2294,-0.051,0.8771,-6.21,6.9,-0.02,23.3
5703,0.2211,-0.0499,0.8854,-6.06,7.62,0.02,23.3
5713,0.2247,-0.0509,0.8818,-6.09,7.91,-0.05,23.3
5723,0.2247,-0.049,0.887,-6.17,7.22,0.03,23.31
5733,0.2173,-0.0497,0.8857,-6.17,7.27,0.03,23.32
5743,0.2245,-0.0541,0.8826,-6.27,7.79,0.09,23.31
5753,0.2236,-0.056,0.8737,-6.15,8.41,0.08,23.29
5763,0.2244,-0.0613,0.8831,-6.06,8.7,0.06,23.29
5773,0.2192,-0.052,0.8927,-6.11,9.01,0.11,23.31
5783,0.2239,-0.053,0.8892,-6.21,8.6,0.08,23.31
5793,0.2274,-0.0585,0.8733,-6.21,7.82,0.09,23.3
5803,0.2239,-0.0608,0.8779,-6.09,8.41,0.12,23.32
5813,0.2195,-0.0624,0.8898,-6.12,9.02,0.15,23.3
5823,0.2174,-0.0605,0.8812,-6.14,9.02,0.12,23.29
5833,0.219,-0.0614,0.8844,-6.14,8.09,0.12,23.31
5843,0.2169,-0.0597,0.8892,-6.32,8.03,0.03,23.3
5853,0.224,-0.059,0.88,-6.18,8.02,0.03,23.28
5863,0.2291,-0.0581,0.8781,-6.09,7.66,0.06,23.27
5873,0.2207,-0.0602,0.8905,-6.15,7.95,0.11,23.3
5883,0.223,-0.0596,0.8848,-6.05,8.17,-0.02,23.31
5893,0.2278,-0.0604,0.8788,-6.23,7.42,-0.03,23.3
5903,0.2269,-0.0636,0.8813,-6.26,6.89,-0.03,23.3
5913,0.2225,-0.0629,0.8859,-6.14,7.31,-0.14,23.3
5923,0.2192,-0.0629,0.8818,-6.15,7.73,-0.12,23.29
5933,0.2249,-0.0601,0.8807,-6.08,7.68,-0.15,23.29
5943,0.2218,-0.0632,0.8778,-6.14,7.65,-0.17,23.29
5953,0.2217,-0.0618,0.8832,-6.15,8.11,-0.15,23.3
5963,0.2205,-0.0586,0.8862,-6.03,8.35,-0.23,23.3
5973,0.2225,-0.0603,0.8881,-6.14,8.02,-0.17,23.31
5983,0.2197,-0.0566,0.8801,-6.17,7.63,-0.15,23.29
5993,0.2261,-0.0565,0.8828,-6.14,7.63,-0.17,23.3
6003,0.2252,-0.0549,0.8794,-6.12,7.88,-0.2,23.31
6013,0.223,-0.0551,0.8856,-6.08,8.18,-0.11,23.31
6023,0.22,-0.0511,0.8842,-6.11,8.06,-0.12,23.3
6033,0.2203,-0.0509,0.8812,-6.17,7.66,-0.08,23.3
6043,0.2213,-0.0513,0.885,-6.15,7.25,-0.2,23.31
6053,0.2256,-0.0542,0.8868,-6.26,7.44,-0.18,23.31
6063,0.2216,-0.0575,0.8851,-6.18,7.97,-0.15,23.32
6073,0.2253,-0.0613,0.8813,-6.17,8.4,-0.17,23.3
6083,0.2277,-0.0619,0.8828,-6.17,8.15,-0.17,23.31
6093,0.2233,-0.0605,0.8875,-6.06,7.83,-0.24,23.3
6103,0.2233,-0.0592,0.8881,-6.2,7.45,-0.17,23.29
6113,0.2205,-0.0615,0.8793,-6.21,7.4,-0.15,23.28
6123,0.2288,-0.0596,0.8772,-6.15,7.6,-0.03,23.28
6133,0.2244,-0.0607,0.88,-6.08,8.21,-0.03,23.29
6143,0.2205,-0.0577,0.8876,-5.97,8.4,-0.03,23.31
6153,0.2207,-0.0535,0.8868,-6.05,7.85,-0.05,23.3
6163,0.2191,-0.0526,0.8806,-6.17,7.3,-0.12,23.3
6173,0.2211,-0.0537,0.881,-6.2,7.16,0.05,23.32
6183,0.2279,-0.048,0.8801,-6.06,7.63,0.0,23.32
6193,0.226,-0.0469,0.8827,-6.09,8.17,0.0,23.32
6203,0.22,-0.0518,0.8878,-6.08,8.4,0.06,23.28
6213,0.2195,-0.051,0.8912,-6.06,7.98,0.0,23.28
6223,0.2217,-0.0535,0.8899,-6.2,7.3,0.05,23.32
6233,0.2223,-0.0503,0.8887,-6.18,6.92,0.09,23.28
6243,0.2229,-0.0514,0.8818,-6.18,7.13,0.05,23.29
6253,0.2229,-0.0535,0.8843,-6.14,7.54,0.11,23.29
6264,0.2203,-0.0574,0.8835,-6.09,7.92,0.12,23.29
6274,0.222,-0.0612,0.8853,-6.21,8.29,0.12,23.28
6284,0.2261,-0.0623,0.885,-6.18,7.92,0.09,23.3
6294,0.2206,-0.0653,0.8887,-6.17,7.74,0.12,23.3
6304,0.2258,-0.0643,0.8772,-6.27,7.45,0.09,23.3
6314,0.2297,-0.0632,0.8741,-6.17,7.48,0.05,23.32
6324,0.2244,-0.0654,0.8817,-6.06,8.02,0.02,23.32
6334,0.2213,-0.0574,0.8893,-6.08,8.52,-0.05,23.31
6344,0.2222,-0.0615,0.889,-6.14,8.18,-0.03,23.27
6354,0.2238,-0.0597,0.8806,-6.17,7.59,-0.2,23.3
6364,0.2219,-0.0632,0.8838,-6.15,7.68,-0.23,23.3
6374,0.2278,-0.0634,0.8827,-6.2,8.53,-0.17,23.31
6384,0.2239,-0.0636,0.88,-6.12,8.53,-0.2,23.32
6395,0.2223,-0.0623,0.8816,-6.05,8.21,-0.18,23.31
6405,0.2161,-0.0645,0.8883,-6.12,7.53,-0.32,23.32
6415,0.2206,-0.0609,0.8846,-6.11,7.57,-0.43,23.3
6425,0.228,-0.0599,0.8792,-6.12,7.57,-0.37,23.32
6435,0.2294,-0.0547,0.8796,-6.05,7.66,-0.34,23.31
6445,0.2233,-0.0596,0.8844,-6.09,8.05,-0.35,23.32
6455,0.2181,-0.0562,0.8894,-6.12,8.37,-0.27,23.3
6465,0.223,-0.0582,0.8856,-6.23,8.06,-0.34,23.32
6475,0.2231,-0.0566,0.8833,-6.12,7.37,-0.37,23.3
6485,0.2207,-0.0576,0.887,-6.14,7.57,-0.31,23.32
6495,0.2233,-0.0544,0.8813,-6.06,7.85,-0.21,23.34
6505,0.2213,-0.0515,0.8782,-6.08,7.76,-0.15,23.31
6515,0.2133,-0.0497,0.892,-6.05,7.69,-0.18,23.32
6525,0.2139,-0.0441,0.8885,-6.08,7.77,-0.08,23.31
6535,0.2228,-0.0436,0.8798,-6.17,7.34,-0.05,23.32
6545,0.2272,-0.0421,0.8815,-6.2,7.19,-0.05,23.32
6555,0.2202,-0.0427,0.8806,-6.15,7.97,0.08,23.3
6565,0.222,-0.0458,0.8828,-6.12,8.6,0.09,23.29
6575,0.222,-0.0493,0.8853,-6.09,8.29,0.18,23.32
6585,0.2198,-0.0492,0.8898,-6.11,7.6,0.15,23.32
6595,0.2181,-0.0503,0.8896,-6.17,7.31,0.26,23.34
6605,0.2228,-0.0541,0.8772,-6.2,7.36,0.2,23.31
6615,0.222,-0.0543,0.8774,-6.11,7.85,0.29,23.3
6625,0.2203,-0.0563,0.8799,-6.08,8.37,0.32,23.31
6635,0.2228,-0.0598,0.8823,-6.15,8.24,0.24,23.32
6645,0.2189,-0.0604,0.8878,-6.17,7.73,0.27,23.29
6655,0.2183,-0.0652,0.8894,-6.34,7.97,0.2,23.29
6665,0.2279,-0.0662,0.875,-6.34,7.63,0.12,23.31
6675,0.2324,-0.0686,0.873,-6.18,7.31,0.14,23.32
6685,0.2244,-0.0709,0.886,-5.98,7.77,0.15,23.31
6695,0.219,-0.0701,0.8882,-6.11,8.27,0.14,23.32
6705,0.2266,-0.0691,0.8839,-6.15,7.83,0.05,23.32
6715,0.2274,-0.0681,0.8783,-6.15,6.9,-0.06,23.34
6725,0.2183,-0.0634,0.8885,-6.15,7.3,-0.12,23.33
6735,0.2203,-0.059,0.8845,-6.15,7.5,-0.09,23.32
6745,0.226,-0.0634,0.8787,-6.21,7.4,-0.18,23.34
6755,0.228,-0.0632,0.8842,-6.2,7.39,-0.29,23.31
6765,0.2189,-0.0625,0.8838,-6.12,7.89,-0.37,23.31
6775,0.2228,-0.0642,0.8872,-6.17,7.53,-0.38,23.32
6785,0.229,-0.0613,0.8794,-6.12,6.98,-0.38,23.3
6795,0.2227,-0.063,0.8822,-6.11,7.24,-0.46,23.31
6805,0.2269,-0.0598,0.8801,-6.11,8.09,-0.47,23.33
6815,0.2271,-0.0618,0.8796,-6.09,8.12,-0.46,23.31
6825,0.2224,-0.0577,0.8873,-6.06,7.95,-0.46,23.33
6835,0.2188,-0.0601,0.8884,-6.09,7.44,-0.52,23.33
6845,0.2162,-0.0553,0.8892,-6.06,7.21,-0.41,23.3
6855,0.2186,-0.0553,0.8873,-6.14,7.48,-0.38,23.32
6865,0.226,-0.0516,0.8741,-6.18,7.56,-0.29,23.34
6875,0.2242,-0.0469,0.8866,-5.95,7.24,-0.21,23.31
6885,0.217,-0.0436,0.8903,-6.05,7.63,-0.08,23.31
6895,0.2272,-0.0376,0.88,-6.14,7.25,-0.05,23.32
6905,0.229,-0.0403,0.8773,-6.06,6.76,0.06,23.31
6915,0.2188,-0.0402,0.8875,-6.06,7.54,0.09,23.32
6925,0.2157,-0.0355,0.8882,-6.11,8.06,0.24,23.33
6935,0.2223,-0.0408,0.8812,-6.26,7.69,0.24,23.31
6945,0.2192,-0.0444,0.8816,-6.24,7.24,0.2,23.33
6955,0.2195,-0.0479,0.8867,-6.14,7.95,0.24,23.32
6965,0.2269,-0.0531,0.8821,-6.23,8.23,0.26,23.33
6975,0.2268,-0.0541,0.8795,-6.17,8.49,0.32,23.33
6985,0.222,-0.0604,0.88,-6.24,8.92,0.34,23.32
6995,0.2216,-0.0663,0.8859,-6.08,9.19,0.38,23.32
7005,0.2246,-0.0712,0.8879,-6.09,9.6,0.35,23.33
7015,0.224,-0.0719,0.8835,-6.05,8.76,0.35,23.34
7025,0.2214,-0.0725,0.8868,-6.02,8.29,0.32,23.33
7035,0.22,-0.0674,0.887,-6.15,8.08,0.27,23.32
7045,0.2214,-0.0648,0.8816,-6.03,8.37,0.18,23.34
7055,0.2264,-0.0627,0.8842,-6.14,8.23,0.18,23.32
7065,0.2188,-0.0632,0.8832,-6.03,8.72,0.09,23.32
7075,0.2272,-0.0604,0.8861,-6.03,8.43,0.03,23.3
7085,0.2279,-0.0592,0.8832,-6.23,7.48,-0.09,23.31
7095,0.2258,-0.0616,0.8875,-6.31,7.37,-0.2,23.32
7105,0.2271,-0.0619,0.885,-6.31,7.71,-0.21,23.34
7115,0.2241,-0.0647,0.8834,-6.12,7.92,-0.31,23.34
7125,0.2235,-0.0663,0.8854,-6.0,7.73,-0.29,23.31
7135,0.2163,-0.0645,0.8842,-6.08,7.59,-0.4,23.32
7145,0.2235,-0.0638,0.8843,-6.14,7.04,-0.31,23.34
7155,0.2268,-0.0627,0.876,-6.15,6.79,-0.35,23.32
7165,0.2253,-0.0602,0.8765,-6.08,7.22,-0.29,23.33
7175,0.225,-0.0575,0.8776,-6.02,8.02,-0.18,23.32
7185,0.2229,-0.0551,0.8851,-6.05,8.2,-0.15,23.3
7195,0.2236,-0.0518,0.8833,-6.09,7.92,-0.08,23.32
7205,0.2205,-0.0466,0.8864,-6.05,7.86,-0.12,23.33
7215,0.2244,-0.0437,0.8849,-6.02,7.88,-0.15,23.33
7225,0.2251,-0.0422,0.8846,-6.06,8.0,0.0,23.34
7235,0.2213,-0.0394,0.882,-6.08,8.21,-0.05,23.35
7245,0.2172,-0.0421,0.8926,-6.15,8.47,-0.11,23.32
7255,0.2206,-0.0454,0.8884,-6.21,8.27,-0.06,23.32
7265,0.2188,-0.0475,0.8861,-6.24,7.88,-0.02,23.32
7275,0.2216,-0.0565,0.8857,-6.32,7.65,-0.03,23.31
7285,0.2251,-0.0594,0.8823,-6.26,7.77,0.03,23.32
7295,0.2242,-0.0662,0.8789,-6.21,8.02,0.08,23.33
7305,0.2242,-0.0686,0.8765,-6.18,8.09,-0.02,23.34
7315,0.2217,-0.0697,0.8843,-6.09,8.05,0.06,23.31
7325,0.2234,-0.0647,0.889,-6.2,7.82,0.08,23.32
7335,0.2245,-0.0645,0.8839,-6.18,7.65,-0.02,23.34
7345,0.2245,-0.0641,0.8829,-6.26,7.51,-0.06,23.33
7355,0.2266,-0.0641,0.8783,-6.17,7.68,-0.03,23.33
7365,0.2244,-0.0654,0.8796,-6.12,7.92,-0.05,23.32
7375,0.2251,-0.0631,0.8807,-6.05,7.86,-0.14,23.31
7385,0.2257,-0.0574,0.8866,-6.11,7.4,-0.09,23.33
7395,0.222,-0.0585,0.8872,-6.05,7.3,-0.18,23.34
7405,0.2245,-0.0571,0.8828,-6.15,7.44,-0.21,23.34
7415,0.2236,-0.057,0.8792,-6.06,7.77,-0.14,23.33
7425,0.2234,-0.0542,0.8845,-6.09,8.11,-0.08,23.34
7435,0.2197,-0.056,0.8879,-6.09,8.14,-0.18,23.34
7445,0.2185,-0.0571,0.8906,-6.06,7.66,-0.27,23.32
7455,0.2192,-0.057,0.8818,-6.2,7.24,-0.26,23.34
7465,0.223,-0.0558,0.8832,-6.08,7.21,-0.21,23.32
7475,0.222,-0.0532,0.8806,-6.08,7.36,-0.09,23.33
7485,0.2228,-0.0502,0.8851,-6.02,7.66,-0.06,23.33
7495,0.2203,-0.0468,0.886,-6.14,7.68,-0.02,23.34
7505,0.2214,-0.0518,0.8829,-6.12,7.59,-0.03,23.32
7515,0.2218,-0.0502,0.8824,-6.15,7.54,-0.02,23.32
7525,0.2227,-0.0558,0.8827,-6.27,7.48,-0.05,23.3
7535,0.2222,-0.0566,0.8789,-6.08,7.65,-0.03,23.32
7545,0.2206,-0.0574,0.8799,-6.15,7.71,0.02,23.35
7555,0.2178,-0.057,0.885,-6.05,7.69,-0.02,23.31
7565,0.2192,-0.0603,0.8834,-6.12,7.62,0.02,23.34
7575,0.2229,-0.0587,0.8816,-6.15,7.51,0.05,23.34
7585,0.2229,-0.0552,0.8817,-6.12,7.65,0.0,23.32
7595,0.2227,-0.0586,0.8844,-6.17,7.89,-0.02,23.33
7605,0.2236,-0.0583,0.8813,-6.17,7.95,-0.06,23.32
7615,0.2255,-0.0637,0.8845,-6.15,7.94,-0.06,23.35
7625,0.2278,-0.0619,0.8845,-6.23,7.83,0.02,23.32
7635,0.2233,-0.0657,0.8857,-6.09,7.95,-0.17,23.32
7645,0.2219,-0.0632,0.8817,-6.09,7.94,-0.14,23.33
7655,0.2223,-0.0602,0.8861,-6.03,7.97,-0.15,23.32
7665,0.2238,-0.0581,0.884,-6.05,7.88,-0.09,23.34
7675,0.2235,-0.0575,0.8837,-6.09,7.74,-0.2,23.32
7685,0.2189,-0.056,0.8821,-6.14,8.0,-0.11,23.34
7695,0.22,-0.0574,0.8868,-6.24,8.14,-0.14,23.33
7705,0.2219,-0.0579,0.8829,-6.17,8.11,-0.09,23.34
7715,0.2203,-0.0555,0.8793,-6.14,7.76,-0.06,23.32
7725,0.219,-0.0562,0.8823,-6.08,7.82,-0.14,23.34
7735,0.2198,-0.0549,0.8843,-6.11,7.89,-0.12,23.32
7745,0.2234,-0.0537,0.8835,-6.03,7.94,-0.05,23.31
7755,0.2212,-0.0529,0.8842,-6.11,7.82,-0.02,23.32
7765,0.2223,-0.0485,0.8826,-6.26,7.74,-0.06,23.32
7775,0.219,-0.0535,0.8848,-6.15,7.83,-0.02,23.34
7785,0.222,-0.0555,0.8821,-6.11,7.95,-0.08,23.33
7795,0.2216,-0.0529,0.8822,-6.14,7.94,0.02,23.36
7805,0.2219,-0.0559,0.8804,-6.17,7.85,-0.02,23.34
7815,0.2218,-0.0577,0.8815,-6.08,7.69,-0.02,23.32
7825,0.224,-0.0586,0.881,-6.18,7.57,0.0,23.33
7835,0.2244,-0.0563,0.8831,-6.11,7.63,-0.08,23.33
7845,0.2258,-0.0564,0.8849,-6.17,7.86,-0.06,23.34
7855,0.2195,-0.0592,0.8821,-6.18,8.05,-0.08,23.35
7865,0.2253,-0.0623,0.8883,-6.15,7.85,-0.06,23.34
7875,0.2252,-0.0642,0.8835,-6.21,7.6,-0.14,23.34
7885,0.2236,-0.067,0.8832,-6.21,7.63,-0.14,23.35
7895,0.2236,-0.0675,0.8861,-6.02,7.86,-0.17,23.34
7905,0.2239,-0.0601,0.8855,-6.05,7.89,-0.11,23.34
7915,0.2253,-0.0599,0.8822,-6.06,7.63,-0.15,23.35
7925,0.2201,-0.057,0.8881,-6.03,7.69,-0.15,23.32
7935,0.2205,-0.0525,0.8857,-6.12,7.71,-0.14,23.33
7945,0.2245,-0.0502,0.8801,-6.15,7.69,-0.05,23.34
7955,0.2264,-0.0486,0.8822,-6.11,7.54,-0.06,23.32
7965,0.2184,-0.0472,0.8851,-6.08,7.82,-0.03,23.32
7975,0.219,-0.051,0.8867,-6.12,7.98,-0.08,23.34
7985,0.2191,-0.0475,0.8846,-6.24,7.69,-0.05,23.32
7995,0.222,-0.049,0.8823,-6.11,7.44,-0.06,23.36
8005,0.2218,-0.0525,0.8865,-6.09,7.65,-0.02,23.33
8015,0.2216,-0.0503,0.8795,-6.23,7.82,0.02,23.34
8025,0.2268,-0.0524,0.8805,-6.14,7.94,-0.02,23.34
8035,0.2263,-0.0516,0.8856,-6.18,7.95,0.0,23.34
8045,0.2181,-0.0566,0.885,-6.17,8.12,0.03,23.32
8055,0.2223,-0.0592,0.885,-6.24,8.05,0.11,23.34
8065,0.2263,-0.064,0.8842,-6.15,7.73,-0.02,23.33
8075,0.2238,-0.0613,0.8823,-6.14,7.73,0.05,23.34
8085,0.2231,-0.0643,0.8843,-6.18,7.77,0.02,23.32
8095,0.2233,-0.0623,0.8845,-6.12,7.88,0.02,23.35
8105,0.2186,-0.061,0.8844,-6.12,7.68,-0.03,23.32
8115,0.2217,-0.0618,0.8879,-6.11,7.54,-0.02,23.33
8125,0.2233,-0.0632,0.8832,-6.17,7.47,-0.02,23.33
8135,0.2279,-0.0625,0.8872,-6.29,7.63,-0.08,23.31
8145,0.2251,-0.0635,0.8827,-6.12,7.73,-0.14,23.32
8155,0.2264,-0.0637,0.8807,-6.11,7.74,-0.05,23.32
8165,0.223,-0.0625,0.8879,-6.06,7.59,-0.08,23.33
8176,0.2225,-0.0608,0.8823,-6.09,7.27,-0.17,23.34
8186,0.2178,-0.0558,0.885,-6.03,7.16,-0.15,23.33
8196,0.2233,-0.0553,0.882,-6.11,7.27,-0.12,23.32
8206,0.2206,-0.054,0.8799,-6.11,7.34,-0.12,23.34
8216,0.2223,-0.052,0.8844,-6.05,7.54,-0.17,23.33
8226,0.2195,-0.0502,0.8802,-6.15,7.65,-0.14,23.33
8236,0.222,-0.0524,0.8859,-6.18,7.59,-0.11,23.33
8246,0.2218,-0.0548,0.8826,-6.18,7.53,-0.11,23.33
8256,0.2231,-0.0549,0.886,-6.15,7.59,-0.15,23.35
8266,0.2251,-0.0524,0.8806,-6.18,7.63,-0.08,23.33
8276,0.2207,-0.0542,0.8837,-6.06,7.71,-0.06,23.32
8286,0.2201,-0.0537,0.8854,-6.09,7.94,0.0,23.34
8296,0.2177,-0.0564,0.8815,-6.06,7.94,0.0,23.37
8306,0.2209,-0.0559,0.8787,-6.14,7.65,0.02,23.34
8316,0.2227,-0.0541,0.8864,-6.2,7.6,0.03,23.35
8326,0.2197,-0.0583,0.8887,-6.21,7.76,0.0,23.34
8336,0.2262,-0.056,0.8806,-6.06,8.24,0.05,23.33
8346,0.2327,-0.0538,0.8766,-6.26,7.48,0.02,23.34
8356,0.2238,-0.0543,0.8829,-6.12,7.63,-0.03,23.33
8366,0.2186,-0.058,0.8944,-6.2,8.53,-0.06,23.35
8376,0.223,-0.0568,0.8805,-6.23,8.73,-0.03,23.33
8386,0.2285,-0.0621,0.8802,-6.29,7.28,-0.11,23.34
8396,0.2136,-0.0613,0.8871,-6.17,7.77,-0.09,23.33
8406,0.2195,-0.0638,0.8881,-6.23,8.6,-0.14,23.32
8416,0.233,-0.0637,0.8718,-6.29,8.15,-0.05,23.35
8426,0.2286,-0.0662,0.8834,-6.14,7.42,-0.12,23.35
8436,0.2146,-0.0653,0.891,-6.12,7.91,-0.09,23.35
8446,0.2258,-0.0648,0.8881,-6.06,7.94,-0.11,23.34
8456,0.2279,-0.0619,0.8784,-6.06,7.15,-0.14,23.34
8466,0.2242,-0.0579,0.8824,-6.08,7.39,-0.2,23.33
8476,0.215,-0.0551,0.8821,-6.18,8.05,-0.18,23.32
8486,0.2269,-0.0511,0.88,-6.06,8.02,-0.12,23.33
8496,0.2281,-0.0524,0.8793,-6.15,7.4,-0.09,23.33
8506,0.2177,-0.0491,0.8853,-6.18,8.05,-0.11,23.35
8516,0.2167,-0.056,0.8877,-6.14,8.34,-0.2,23.31
8526,0.2177,-0.0511,0.8856,-6.06,8.18,-0.08,23.32
8536,0.2236,-0.0508,0.886,-6.15,7.65,-0.15,23.34
8546,0.2208,-0.0514,0.8789,-6.32,7.36,-0.17,23.32
8556,0.2244,-0.0544,0.8834,-6.21,7.95,-0.05,23.33
8566,0.2231,-0.054,0.8848,-6.2,8.27,-0.05,23.33
8576,0.225,-0.0541,0.8846,-6.11,8.21,-0.03,23.33
8586,0.2217,-0.0573,0.8861,-6.24,7.79,-0.06,23.34
8596,0.2231,-0.0616,0.8824,-6.31,7.71,0.0,23.34
8606,0.2223,-0.0646,0.8807,-6.2,7.69,0.02,23.34
8616,0.2225,-0.0621,0.8799,-6.15,8.12,-0.02,23.34
8626,0.2206,-0.0602,0.8821,-6.12,8.08,-0.06,23.32
8636,0.2214,-0.0538,0.8806,-6.06,7.97,-0.05,23.34
8646,0.2233,-0.0565,0.8848,-6.11,7.6,-0.06,23.32
8656,0.2234,-0.0559,0.8815,-6.23,7.56,-0.03,23.36
8666,0.2242,-0.0544,0.8829,-6.26,7.97,-0.08,23.34
8676,0.2253,-0.0569,0.8798,-6.23,8.35,-0.06,23.34
8686,0.2239,-0.0624,0.8849,-6.12,8.43,-0.09,23.36
8696,0.2205,-0.0626,0.8861,-6.24,8.14,-0.05,23.35
8706,0.219,-0.0641,0.8845,-6.23,7.98,-0.17,23.35
8716,0.2272,-0.0629,0.8811,-6.06,7.66,-0.14,23.33
8726,0.2222,-0.0571,0.8838,-6.11,7.4,-0.09,23.33
8736,0.2223,-0.0559,0.8811,-6.15,7.5,-0.17,23.35
8747,0.2225,-0.0588,0.8796,-6.14,7.91,-0.05,23.34
8757,0.2234,-0.0603,0.8854,-6.14,8.24,-0.06,23.35
8767,0.2207,-0.0554,0.8842,-6.11,7.91,-0.11,23.34
8777,0.2219,-0.0558,0.8901,-6.12,6.75,-0.18,23.33
8787,0.2181,-0.0479,0.8843,-6.31,6.27,-0.11,23.33
8797,0.2264,-0.0522,0.8802,-6.31,6.7,-0.2,23.33
8807,0.2257,-0.0558,0.8682,-6.09,7.79,-0.02,23.35
8817,0.2242,-0.0559,0.8846,-5.95,8.53,0.0,23.31
8827,0.2167,-0.0531,0.8921,-6.06,8.09,-0.05,23.34
8837,0.2195,-0.0548,0.8962,-6.29,7.16,-0.14,23.36
8847,0.2261,-0.0575,0.8754,-6.38,6.49,-0.14,23.34
8857,0.2297,-0.0586,0.8718,-6.15,7.02,-0.09,23.35
8867,0.223,-0.0615,0.8818,-6.09,8.46,-0.05,23.32
8877,0.2227,-0.0586,0.8876,-5.95,9.1,-0.14,23.35
8887,0.2219,-0.0613,0.8862,-6.23,7.98,-0.09,23.35
8897,0.224,-0.0597,0.8862,-6.15,7.16,-0.14,23.32
8907,0.2244,-0.0588,0.8837,-6.35,7.63,-0.11,23.35
8917,0.2277,-0.0573,0.8754,-6.17,8.44,-0.03,23.36
8927,0.2241,-0.0583,0.8796,-6.09,8.67,-0.03,23.35
8937,0.2186,-0.0582,0.8809,-6.03,8.7,0.0,23.34
8947,0.2162,-0.0544,0.8873,-6.21,8.49,-0.05,23.34
8957,0.222,-0.0553,0.8871,-6.2,8.0,-0.11,23.33
8967,0.2279,-0.0553,0.879,-6.26,7.63,-0.11,23.34
8977,0.2264,-0.0575,0.8795,-6.21,7.6,-0.14,23.35
8987,0.2148,-0.063,0.8887,-6.15,8.92,-0.11,23.34
8997,0.2234,-0.0596,0.8805,-5.95,8.85,-0.14,23.34
9007,0.2281,-0.0585,0.882,-6.03,7.42,-0.21,23.37
9017,0.214,-0.0579,0.8914,-6.31,6.95,-0.09,23.35
9027,0.214,-0.058,0.8854,-6.31,8.12,-0.06,23.35
9037,0.2351,-0.0604,0.87,-6.09,8.34,-0.12,23.35
9047,0.2297,-0.0612,0.8719,-6.09,7.85,-0.06,23.31
9057,0.2158,-0.0591,0.8926,-5.89,8.24,-0.05,23.33
9067,0.2089,-0.057,0.8914,-6.11,8.08,-0.03,23.34
9077,0.2191,-0.0499,0.8845,-6.15,6.82,-0.08,23.36
9087,0.2228,-0.0499,0.8763,-6.24,6.02,-0.12,23.34
9097,0.2177,-0.0482,0.8805,-6.11,7.5,-0.06,23.35
9107,0.2224,-0.0518,0.8835,-6.17,8.47,-0.05,23.34
9117,0.2255,-0.0505,0.8794,-6.11,8.18,-0.06,23.35
9127,0.2225,-0.058,0.8884,-6.23,7.24,-0.12,23.35
9137,0.2184,-0.057,0.8881,-6.18,7.69,-0.05,23.36
9147,0.228,-0.0603,0.8821,-6.18,7.48,-0.06,23.33
9157,0.2273,-0.0576,0.877,-6.08,7.73,-0.05,23.34
9167,0.2217,-0.0612,0.8809,-6.12,8.06,-0.08,23.34
9177,0.2184,-0.0623,0.8823,-6.17,8.46,0.03,23.35
9414,0.2281,-0.0551,0.8779,-6.12,8.56,-0.08,23.38
9424,0.2234,-0.0516,0.8804,-5.94,9.02,-0.09,23.36
9434,0.2129,-0.0553,0.8916,-5.98,8.78,-0.11,23.37
9444,0.2156,-0.0562,0.8887,-6.12,8.4,-0.12,23.34
9454,0.2223,-0.0576,0.8862,-6.2,7.91,-0.09,23.37
9464,0.2266,-0.0547,0.8774,-6.21,7.74,-0.14,23.35
9474,0.2209,-0.0559,0.8856,-6.05,7.98,-0.15,23.35
9484,0.2174,-0.0574,0.8879,-6.21,8.2,-0.06,23.38
9494,0.2198,-0.0604,0.8838,-6.35,7.77,-0.02,23.37
9504,0.223,-0.0579,0.8872,-6.06,7.27,-0.02,23.37
9514,0.2201,-0.0573,0.882,-6.11,7.02,-0.09,23.36
9524,0.2256,-0.0581,0.8816,-6.14,6.61,-0.14,23.36
9534,0.2222,-0.0564,0.8845,-6.2,6.76,-0.08,23.35
9544,0.222,-0.0544,0.8827,-6.23,7.48,-0.08,23.36
9554,0.2236,-0.0541,0.8817,-6.17,8.03,-0.02,23.38
9564,0.2198,-0.056,0.8856,-6.05,8.23,-0.14,23.36
9574,0.2188,-0.0521,0.8859,-6.05,7.71,-0.11,23.35
9584,0.219,-0.0568,0.89,-6.24,7.16,-0.08,23.35
9594,0.2256,-0.0592,0.8817,-6.35,7.39,-0.08,23.36
9604,0.2277,-0.0605,0.8783,-6.15,8.38,-0.06,23.35
9614,0.2306,-0.0623,0.8832,-6.03,9.07,-0.08,23.37
9624,0.218,-0.0612,0.8887,-5.95,8.7,-0.05,23.34
9634,0.2162,-0.0597,0.8943,-6.14,7.69,-0.03,23.33
9644,0.2229,-0.0574,0.8857,-6.29,6.82,-0.03,23.35
9654,0.2256,-0.0588,0.8755,-6.27,7.31,-0.08,23.36
9664,0.2238,-0.0569,0.8754,-6.21,8.4,0.05,23.35
9674,0.2168,-0.0575,0.8801,-5.92,9.07,0.03,23.35
9684,0.2178,-0.0521,0.8931,-6.02,8.47,0.0,23.34
9694,0.2185,-0.057,0.8868,-6.24,7.53,0.0,23.37
9704,0.2207,-0.0551,0.8837,-6.29,6.99,-0.05,23.34
9714,0.2272,-0.0566,0.8855,-6.21,7.63,-0.03,23.35
9724,0.2257,-0.0542,0.8805,-6.08,8.44,-0.05,23.35
9734,0.2219,-0.054,0.8881,-5.95,8.69,-0.08,23.32
9744,0.2164,-0.0546,0.8958,-6.09,8.24,-0.03,23.36
9754,0.2151,-0.0581,0.8896,-6.21,7.47,-0.11,23.34
9764,0.2214,-0.0614,0.8856,-6.23,7.11,-0.17,23.36
9774,0.2228,-0.0608,0.8777,-6.31,7.42,-0.15,23.35
9784,0.2274,-0.0634,0.879,-6.17,7.89,-0.11,23.37
9794,0.2278,-0.0635,0.881,-6.14,8.17,-0.03,23.37
9804,0.2195,-0.0629,0.8849,-6.05,8.08,-0.05,23.36
9814,0.2224,-0.0605,0.8885,-6.03,7.6,-0.08,23.37
9824,0.222,-0.0581,0.8851,-6.06,7.22,-0.06,23.37
9834,0.2223,-0.0568,0.8809,-6.2,7.34,-0.06,23.33
9844,0.2198,-0.0546,0.8805,-6.09,7.94,0.05,23.35
9854,0.2195,-0.0508,0.8871,-6.02,8.37,0.0,23.35
9864,0.2178,-0.0491,0.8875,-6.03,8.2,-0.17,23.36
9874,0.2175,-0.0492,0.8885,-6.12,7.44,-0.06,23.37
9884,0.2196,-0.0504,0.8905,-6.32,7.18,-0.11,23.35
9894,0.2275,-0.0553,0.8801,-6.31,7.37,-0.09,23.37
9904,0.2268,-0.0582,0.8782,-6.24,7.97,-0.12,23.36
9914,0.2244,-0.0619,0.8828,-6.03,8.56,-0.14,23.35
9924,0.2191,-0.0583,0.8876,-6.06,8.24,-0.11,23.35
9935,0.2191,-0.0596,0.8875,-6.15,7.33,-0.17,23.34
9946,0.2238,-0.0608,0.8789,-6.34,7.1,-0.08,23.34
9956,0.2302,-0.0586,0.8771,-6.15,7.45,-0.02,23.36
9966,0.2271,-0.0554,0.8772,-6.14,7.91,-0.05,23.37
9976,0.2244,-0.0587,0.884,-6.14,8.18,0.06,23.36
9986,0.219,-0.0562,0.8898,-6.14,8.0,-0.06,23.37
9996,0.2195,-0.0579,0.8875,-6.23,7.83,-0.03,23.36
10006,0.2194,-0.0587,0.8826,-6.24,7.79,0.06,23.33
10016,0.2198,-0.0557,0.8834,-6.09,7.74,-0.05,23.37
10026,0.2189,-0.0565,0.8816,-6.12,7.76,-0.05,23.39
10036,0.2201,-0.053,0.8832,-6.12,7.73,-0.06,23.39
10046,0.2164,-0.0525,0.8854,-6.15,7.91,-0.12,23.37
10056,0.2194,-0.0518,0.8829,-6.26,7.8,-0.06,23.34
10066,0.2201,-0.0549,0.8875,-6.27,7.77,-0.12,23.37
10076,0.222,-0.0592,0.8837,-6.31,7.82,-0.11,23.36
10086,0.2213,-0.0626,0.8857,-6.15,8.09,0.0,23.35
10096,0.2201,-0.0629,0.8831,-6.12,8.14,-0.12,23.37
10106,0.2255,-0.066,0.8795,-6.11,7.92,-0.14,23.4
10116,0.2196,-0.0651,0.8855,-6.09,7.56,-0.15,23.37
10127,0.2241,-0.0601,0.8853,-6.15,7.56,-0.14,23.36
10137,0.2267,-0.0607,0.8834,-6.17,7.73,-0.12,23.37
10147,0.2224,-0.0587,0.8812,-6.17,8.15,0.0,23.37
10157,0.2217,-0.0591,0.8812,-6.17,8.18,-0.06,23.36
10167,0.2168,-0.0577,0.8856,-6.23,7.95,-0.08,23.37
10177,0.2164,-0.0547,0.8844,-6.15,7.62,-0.05,23.37
10187,0.2229,-0.057,0.8824,-6.14,7.48,-0.06,23.37
10197,0.2227,-0.053,0.88,-6.17,7.65,-0.12,23.36
10207,0.224,-0.0536,0.882,-6.11,7.85,-0.14,23.37
10217,0.2228,-0.0547,0.8835,-6.17,8.12,-0.08,23.36
10227,0.218,-0.0526,0.8873,-6.21,8.0,-0.12,23.38
10237,0.2203,-0.0536,0.8827,-6.12,7.8,-0.08,23.37
10247,0.2158,-0.0516,0.8851,-6.24,7.68,-0.12,23.38
10257,0.219,-0.0535,0.8828,-6.2,7.54,-0.09,23.38
10267,0.2234,-0.0538,0.8794,-6.2,7.79,-0.05,23.36
10277,0.2249,-0.0579,0.8755,-6.21,7.82,-0.08,23.36
10287,0.2239,-0.0631,0.8809,-6.09,7.97,-0.09,23.37
10297,0.2242,-0.0609,0.8882,-6.15,7.92,-0.08,23.38
10307,0.2212,-0.0619,0.8845,-6.05,7.92,-0.11,23.39
10317,0.2258,-0.0597,0.8811,-6.08,7.56,-0.06,23.38
10327,0.2208,-0.0555,0.8827,-5.95,7.5,-0.05,23.38
10337,0.2212,-0.0532,0.8865,-6.05,7.71,-0.03,23.35
10347,0.2197,-0.053,0.8829,-6.18,7.83,0.03,23.36
10357,0.222,-0.0554,0.8801,-6.2,7.85,-0.06,23.37
10367,0.2213,-0.0554,0.8816,-6.21,7.89,0.02,23.35
10377,0.2216,-0.0599,0.885,-6.15,7.97,-0.03,23.37
10387,0.2208,-0.0594,0.8868,-6.02,7.88,-0.08,23.36
10397,0.2192,-0.0581,0.8843,-6.09,7.45,-0.14,23.37
10407,0.2213,-0.0536,0.8829,-6.08,7.34,-0.08,23.35
10417,0.2252,-0.0544,0.8801,-6.15,7.6,-0.03,23.38
10427,0.2244,-0.0564,0.8845,-6.2,8.08,-0.02,23.37
10437,0.2217,-0.059,0.8813,-6.12,8.26,0.0,23.36
10447,0.2207,-0.063,0.8842,-6.14,8.12,-0.05,23.38
10457,0.217,-0.0635,0.8867,-6.24,7.91,-0.05,23.38
10467,0.2214,-0.0599,0.8848,-6.17,7.68,-0.02,23.36
10477,0.2294,-0.0582,0.8824,-6.14,7.47,-0.08,23.38
10487,0.2241,-0.0607,0.8835,-6.23,7.57,-0.14,23.35
10497,0.2238,-0.0571,0.8809,-6.18,7.95,-0.17,23.36
10507,0.2225,-0.0562,0.8829,-6.11,8.14,-0.08,23.37
10517,0.2234,-0.056,0.8846,-6.08,7.98,-0.12,23.37
10527,0.2175,-0.0569,0.8848,-6.06,7.91,-0.08,23.36
10537,0.2188,-0.0542,0.8875,-6.11,7.73,-0.18,23.35
10547,0.2225,-0.0568,0.8784,-6.2,7.74,-0.14,23.37
10557,0.2224,-0.0566,0.8781,-6.2,7.92,-0.12,23.37
10567,0.2222,-0.0587,0.8862,-6.2,8.21,-0.08,23.39
10577,0.2183,-0.0585,0.8856,-6.09,8.31,-0.12,23.38
10587,0.2196,-0.057,0.8878,-6.11,7.79,-0.14,23.37
10597,0.2189,-0.0541,0.8881,-6.17,7.44,-0.11,23.38
10607,0.2227,-0.0554,0.8813,-6.17,7.45,-0.18,23.38
10617,0.2242,-0.0566,0.8794,-6.15,7.94,-0.18,23.37
10627,0.2245,-0.0568,0.8796,-6.2,8.32,-0.14,23.38
10637,0.226,-0.0603,0.8864,-6.24,8.37,-0.11,23.37
10647,0.2213,-0.0608,0.8915,-6.12,8.03,-0.06,23.37
10657,0.2239,-0.0593,0.8856,-6.18,7.69,0.0,23.39
10667,0.2223,-0.0614,0.8853,-6.2,7.66,0.03,23.37
10677,0.2233,-0.0559,0.879,-6.11,7.77,-0.03,23.37
10687,0.2228,-0.0558,0.8777,-6.0,7.71,0.03,23.38
10697,0.2148,-0.0524,0.887,-6.08,7.79,0.05,23.39
10707,0.2141,-0.0494,0.8876,-6.15,7.85,0.03,23.38
10717,0.2222,-0.0491,0.8844,-6.32,7.54,0.02,23.38
10727,0.2227,-0.0499,0.8804,-6.2,7.54,-0.06,23.36
10737,0.2251,-0.0533,0.881,-6.29,7.94,0.02,23.36
10747,0.2212,-0.0579,0.8856,-6.24,8.37,-0.02,23.37
10757,0.2198,-0.0582,0.8882,-6.08,8.08,0.0,23.37
10767,0.2185,-0.0599,0.8865,-6.21,7.42,-0.08,23.38
10777,0.2209,-0.0625,0.8844,-6.23,7.13,-0.03,23.39
10787,0.2235,-0.0616,0.8785,-6.2,7.28,-0.14,23.37
10797,0.2244,-0.0641,0.8784,-6.24,7.89,-0.02,23.36
10807,0.2236,-0.0626,0.8829,-6.15,8.26,-0.09,23.38
10817,0.2205,-0.0657,0.8853,-6.14,8.38,0.0,23.37
10827,0.2238,-0.0686,0.8822,-6.32,8.12,-0.12,23.35
10837,0.2256,-0.0686,0.8824,-6.12,7.89,-0.17,23.39
10847,0.2222,-0.0623,0.8888,-6.09,7.79,-0.11,23.39
10857,0.2213,-0.0553,0.8837,-6.08,7.88,-0.12,23.38
10867,0.2197,-0.0507,0.8882,-6.09,7.91,-0.06,23.38
10877,0.2185,-0.051,0.8807,-6.12,8.0,-0.11,23.37
10887,0.2175,-0.0537,0.8804,-6.18,8.03,-0.14,23.36
10897,0.2179,-0.0503,0.8843,-6.23,8.03,-0.15,23.39
10907,0.2202,-0.05,0.8861,-6.18,7.8,-0.12,23.37
10917,0.2205,-0.0531,0.8833,-6.27,7.56,-0.17,23.38
10927,0.2203,-0.0586,0.8818,-6.31,7.5,-0.21,23.36
10937,0.2228,-0.0596,0.8792,-6.21,7.66,-0.23,23.39
10947,0.2214,-0.0604,0.8877,-6.11,7.68,-0.21,23.41
10957,0.2197,-0.0588,0.8851,-6.12,7.47,-0.32,23.39
10967,0.2218,-0.0602,0.8815,-6.17,7.33,-0.17,23.37
10977,0.2244,-0.0596,0.8787,-6.26,7.45,-0.14,23.38
10987,0.2214,-0.0593,0.8812,-6.21,7.8,0.02,23.37
10997,0.2183,-0.056,0.88,-6.17,8.21,-0.02,23.39
11007,0.2224,-0.0537,0.8878,-6.23,8.23,-0.05,23.36
11017,0.2181,-0.0511,0.8839,-6.27,8.06,-0.05,23.38
11027,0.2223,-0.0525,0.8779,-6.18,7.97,-0.02,23.38
11037,0.2173,-0.048,0.8828,-6.14,8.2,0.0,23.39
11047,0.2201,-0.046,0.8885,-6.17,8.26,0.02,23.39
11058,0.218,-0.0474,0.8889,-6.2,7.91,0.0,23.37
11068,0.2217,-0.0515,0.8824,-6.26,7.48,-0.12,23.38
11078,0.2186,-0.0533,0.8862,-6.38,7.3,-0.09,23.39
11088,0.2177,-0.0585,0.8854,-6.43,7.71,-0.06,23.38
11098,0.2184,-0.0597,0.8806,-6.44,7.95,-0.08,23.4
11108,0.2217,-0.0646,0.8801,-6.29,7.62,-0.12,23.38
11118,0.2212,-0.0659,0.8846,-6.31,7.47,-0.06,23.39
11128,0.2207,-0.0688,0.886,-6.21,7.68,0.0,23.38
11138,0.2264,-0.0688,0.8845,-6.21,7.89,-0.06,23.39
11148,0.2235,-0.0608,0.8844,-6.11,7.71,-0.03,23.39
11158,0.2239,-0.0612,0.8842,-6.12,7.68,-0.03,23.4
11168,0.2212,-0.0551,0.8799,-6.15,7.48,-0.05,23.38
11182,0.2198,-0.056,0.8779,-6.17,7.71,-0.06,23.37
11192,0.2202,-0.0513,0.8831,-6.12,8.11,-0.06,23.39
11202,0.2188,-0.0502,0.8837,-6.05,8.03,-0.09,23.39
11212,0.2209,-0.0499,0.8876,-6.27,7.53,-0.08,23.37
11222,0.2185,-0.0563,0.8826,-6.37,7.4,-0.18,23.39
11232,0.2267,-0.0631,0.879,-6.26,7.68,-0.2,23.39
11242,0.2281,-0.0626,0.88,-6.26,8.21,-0.09,23.38
11252,0.2213,-0.0623,0.8837,-6.02,8.34,-0.11,23.38
11262,0.2181,-0.0647,0.887,-6.05,7.95,-0.09,23.38
11272,0.2129,-0.061,0.8867,-6.12,7.25,-0.23,23.37
11282,0.2211,-0.0579,0.8832,-6.21,6.99,-0.11,23.39
11292,0.2266,-0.058,0.8804,-6.27,7.54,-0.12,23.38
11302,0.2245,-0.056,0.88,-6.27,8.31,-0.06,23.36
11312,0.2251,-0.0529,0.8816,-6.18,8.55,-0.09,23.39
11322,0.2211,-0.0571,0.8862,-6.14,8.2,-0.03,23.38
11332,0.2166,-0.0609,0.8888,-6.23,7.76,-0.11,23.39
11342,0.2218,-0.057,0.8866,-6.2,7.53,-0.17,23.36
11352,0.2227,-0.0586,0.8837,-6.24,7.4,-0.17,23.37
11363,0.2224,-0.0552,0.8848,-6.43,7.69,-0.21,23.4
11373,0.2216,-0.0582,0.8824,-6.47,7.91,-0.11,23.39
11383,0.2197,-0.0596,0.8868,-6.29,8.0,-0.15,23.36
11393,0.2223,-0.0604,0.8834,-6.15,8.17,-0.09,23.39
11403,0.2222,-0.0613,0.8845,-6.17,7.85,-0.17,23.39
11413,0.2207,-0.0579,0.8839,-6.24,7.5,-0.12,23.37
11423,0.2207,-0.0583,0.8818,-6.2,7.56,-0.05,23.37
11433,0.2206,-0.0594,0.8848,-6.12,8.03,0.03,23.37
11443,0.2255,-0.0568,0.8835,-6.17,8.2,0.0,23.41
11453,0.2177,-0.0543,0.882,-6.06,8.02,-0.06,23.39
11463,0.2183,-0.0579,0.8844,-6.15,7.82,-0.05,23.38
11473,0.2189,-0.0529,0.8811,-6.18,7.65,-0.02,23.38
11483,0.2192,-0.0546,0.8839,-6.17,7.62,-0.06,23.41
11493,0.2245,-0.0527,0.8835,-6.21,7.8,-0.06,23.38
11503,0.2279,-0.0558,0.8802,-6.24,8.0,0.03,23.4
11513,0.2235,-0.063,0.8853,-6.18,8.12,-0.05,23.37
11523,0.2153,-0.0616,0.8877,-6.09,7.91,-0.14,23.39
11533,0.222,-0.0585,0.8912,-6.2,7.4,-0.11,23.38
11543,0.2239,-0.0662,0.8816,-6.27,7.11,-0.06,23.39
11553,0.2225,-0.068,0.8799,-6.29,7.89,-0.02,23.39
11563,0.222,-0.0615,0.8729,-6.14,8.78,0.06,23.38
11573,0.2252,-0.0514,0.8896,-5.92,8.4,0.02,23.4
11583,0.2217,-0.0457,0.8849,-6.11,7.19,0.0,23.39
11593,0.2185,-0.0509,0.8868,-6.52,7.07,-0.02,23.39
11603,0.2242,-0.0553,0.8771,-6.44,8.14,0.0,23.39
11613,0.2285,-0.0597,0.8779,-6.12,9.13,0.02,23.4
11623,0.2202,-0.0557,0.8884,-5.98,9.05,0.05,23.4
11633,0.2131,-0.0588,0.8984,-6.18,8.11,-0.08,23.41
11643,0.2167,-0.0591,0.8882,-6.31,6.75,-0.14,23.39
11653,0.228,-0.0636,0.8778,-6.35,6.63,-0.29,23.38
11663,0.2267,-0.0671,0.8771,-6.38,7.76,-0.21,23.38
11673,0.2184,-0.0651,0.8789,-6.23,8.7,-0.14,23.37
11683,0.2137,-0.0685,0.8877,-6.17,8.18,-0.2,23.37
11693,0.2195,-0.0664,0.8879,-6.21,7.42,-0.18,23.39
11703,0.2255,-0.0671,0.8846,-6.46,6.98,-0.23,23.39
11713,0.2297,-0.0651,0.8809,-6.5,7.79,-0.15,23.37
11723,0.2269,-0.0609,0.8802,-6.5,8.32,-0.15,23.39
11733,0.2225,-0.0563,0.881,-6.15,8.08,-0.15,23.39
11743,0.2192,-0.0464,0.8846,-5.91,7.56,-0.11,23.39
11753,0.22,-0.0406,0.8883,-6.11,7.6,-0.12,23.38
11763,0.2209,-0.0444,0.8846,-6.2,7.83,-0.05,23.37
11773,0.2209,-0.0475,0.8779,-6.21,8.11,-0.06,23.38
11783,0.2179,-0.0496,0.8822,-6.17,8.21,-0.03,23.4
11793,0.2142,-0.0524,0.8896,-6.17,8.0,-0.02,23.39
11803,0.2144,-0.0511,0.8922,-6.18,7.36,-0.09,23.39
11813,0.2173,-0.054,0.882,-6.31,7.07,-0.17,23.4
11823,0.2258,-0.0573,0.874,-6.31,7.18,-0.18,23.36
11833,0.2245,-0.0641,0.8793,-6.24,7.91,-0.09,23.36
11843,0.2334,-0.0636,0.879,-6.05,7.88,-0.12,23.41
11853,0.2219,-0.0663,0.8911,-6.2,8.23,-0.05,23.4
11863,0.2239,-0.0649,0.8784,-6.29,7.73,-0.06,23.38
11873,0.2371,-0.0656,0.8739,-6.11,6.58,-0.06,23.39
11883,0.2234,-0.0621,0.8809,-6.24,6.89,-0.03,23.39
11893,0.2247,-0.0588,0.8777,-6.15,7.22,0.12,23.39
11903,0.2059,-0.056,0.891,-6.14,8.17,0.0,23.4
11913,0.208,-0.0548,0.8962,-6.18,8.89,0.09,23.38
11923,0.2274,-0.0493,0.8799,-6.11,7.94,0.09,23.4
11933,0.2366,-0.052,0.8771,-6.24,6.84,0.06,23.39
11943,0.2178,-0.0504,0.882,-6.26,7.54,0.11,23.4
11953,0.2129,-0.0499,0.8865,-6.06,8.67,-0.02,23.41
11963,0.2166,-0.0516,0.8881,-6.17,8.2,-0.06,23.4
11973,0.2155,-0.0514,0.8894,-6.17,7.8,-0.05,23.41
11983,0.2208,-0.0558,0.8868,-6.35,7.44,-0.12,23.36
11993,0.2194,-0.0616,0.8854,-6.37,7.83,-0.05,23.39
12003,0.2275,-0.071,0.8829,-6.34,8.06,-0.2,23.4
12013,0.2262,-0.0701,0.8818,-6.26,8.06,-0.14,23.4
12023,0.2225,-0.068,0.885,-6.15,7.79,-0.11,23.38
12033,0.2209,-0.0668,0.8856,-6.02,7.5,-0.02,23.37
12043,0.225,-0.0653,0.8809,-6.12,7.25,-0.12,23.38
12053,0.2206,-0.0598,0.8789,-6.15,7.34,0.03,23.37
12063,0.2174,-0.0569,0.8813,-6.17,7.85,0.0,23.4
12073,0.2219,-0.0542,0.8889,-6.15,8.14,-0.02,23.39
12083,0.2214,-0.0574,0.8837,-6.2,7.77,0.0,23.38
12093,0.2192,-0.0585,0.8862,-6.21,7.63,-0.14,23.39
12103,0.214,-0.0609,0.8896,-6.06,7.86,-0.17,23.39
12113,0.2244,-0.0591,0.8859,-6.05,8.14,-0.27,23.4
12123,0.2328,-0.0546,0.874,-6.18,7.69,-0.18,23.39
12133,0.2241,-0.0527,0.88,-6.11,7.51,-0.2,23.37
12143,0.2156,-0.0553,0.8866,-6.17,7.97,-0.29,23.39
12153,0.2177,-0.0573,0.8882,-6.15,8.32,-0.23,23.38
12163,0.2209,-0.0586,0.8844,-6.17,7.86,-0.23,23.39
12173,0.2168,-0.0604,0.8804,-6.27,7.74,-0.17,23.39
12183,0.2167,-0.0601,0.8833,-6.18,7.69,-0.06,23.39
12193,0.218,-0.0588,0.8806,-6.23,7.68,-0.11,23.38
12203,0.2196,-0.0565,0.8839,-6.2,7.79,-0.05,23.38
12213,0.2181,-0.0518,0.8882,-6.06,7.73,-0.11,23.39
12223,0.2207,-0.0487,0.8868,-6.05,7.76,-0.08,23.37
12233,0.2207,-0.0507,0.8865,-6.21,7.66,-0.03,23.39
12243,0.219,-0.0538,0.8828,-6.27,7.71,-0.05,23.39
12253,0.2249,-0.0559,0.881,-6.23,7.97,0.02,23.38
12263,0.2194,-0.0564,0.8879,-6.06,8.08,0.03,23.39
12273,0.218,-0.0573,0.8831,-6.08,7.92,0.12,23.39
12283,0.2131,-0.0576,0.8871,-6.17,7.62,0.09,23.38
12293,0.2177,-0.0575,0.8813,-6.21,7.4,0.0,23.39
12305,0.2229,-0.0583,0.8812,-6.17,7.79,0.08,23.38
12315,0.2227,-0.0653,0.8793,-6.26,8.14,0.0,23.39
12325,0.2228,-0.0663,0.88,-6.24,8.15,0.05,23.37
12335,0.2158,-0.0671,0.8846,-6.2,7.83,0.02,23.36
12345,0.2195,-0.0635,0.8888,-6.29,7.73,-0.02,23.39
12355,0.2277,-0.0658,0.8822,-6.31,7.51,-0.05,23.38
12365,0.2239,-0.0601,0.8818,-6.27,7.77,-0.08,23.39
12375,0.2222,-0.0624,0.8829,-6.49,8.53,-0.14,23.41
12385,0.2233,-0.0621,0.8837,-6.31,8.63,-0.15,23.39
12395,0.2263,-0.0685,0.8829,-6.34,8.12,-0.18,23.41
12405,0.2218,-0.0693,0.8887,-6.37,7.79,-0.29,23.4
12415,0.218,-0.069,0.8835,-6.38,7.69,-0.29,23.38
12425,0.2181,-0.0653,0.8837,-6.31,7.47,-0.29,23.39
12435,0.2235,-0.0637,0.8778,-6.26,7.62,-0.29,23.38
12445,0.2252,-0.0591,0.8805,-6.27,8.21,-0.2,23.4
12455,0.2179,-0.0573,0.8826,-6.21,8.7,-0.17,23.37
12465,0.2179,-0.0594,0.8857,-6.17,8.7,-0.14,23.39
12475,0.2159,-0.0547,0.8888,-6.15,8.23,-0.12,23.4
12485,0.2144,-0.0483,0.8873,-6.18,7.74,-0.15,23.39
12495,0.22,-0.046,0.8831,-6.17,7.53,-0.08,23.4
12505,0.2198,-0.0454,0.8822,-6.17,7.86,-0.03,23.41
12515,0.2228,-0.0463,0.8795,-6.09,8.23,-0.08,23.37
12525,0.2195,-0.0485,0.8838,-6.0,8.61,0.08,23.41
12535,0.2128,-0.0485,0.8871,-6.03,8.72,0.11,23.39
12545,0.2136,-0.0502,0.8883,-6.12,8.26,0.15,23.4
12555,0.2147,-0.0508,0.8889,-6.24,7.66,0.08,23.41
12565,0.217,-0.0497,0.8876,-6.4,7.42,0.05,23.4
12575,0.2196,-0.0529,0.8853,-6.46,7.82,0.15,23.39
12585,0.2231,-0.062,0.8846,-6.31,7.95,0.18,23.39
12595,0.2235,-0.0634,0.8853,-6.34,7.82,0.14,23.4
12605,0.2235,-0.0701,0.886,-6.41,7.59,0.12,23.39
12615,0.2214,-0.0723,0.8831,-6.5,7.86,0.14,23.38
12625,0.2218,-0.0696,0.8821,-6.43,7.82,0.09,23.37
12635,0.2231,-0.0674,0.8799,-6.34,7.79,0.03,23.37
12645,0.2227,-0.0665,0.8821,-6.18,7.74,0.06,23.41
12655,0.2218,-0.0674,0.881,-6.26,8.02,-0.02,23.39
12665,0.2211,-0.0686,0.8793,-6.43,8.15,0.0,23.41
12675,0.2238,-0.0704,0.8851,-6.38,8.02,0.02,23.41
12685,0.2231,-0.071,0.887,-6.47,8.02,-0.06,23.4
12695,0.2224,-0.0663,0.8861,-6.53,8.06,-0.23,23.4
12705,0.2198,-0.0663,0.8829,-6.58,8.03,-0.17,23.4
12715,0.2201,-0.0619,0.8839,-6.49,7.86,-0.23,23.4
12725,0.2172,-0.0574,0.8824,-6.2,7.86,-0.23,23.42
12735,0.2145,-0.0548,0.8868,-6.11,7.92,-0.17,23.41
12745,0.2183,-0.0599,0.88,-6.2,7.79,-0.21,23.38
12755,0.2161,-0.0596,0.8894,-6.21,8.02,-0.15,23.42
12765,0.2192,-0.0624,0.884,-6.05,8.35,-0.14,23.42
12775,0.2288,-0.0597,0.8752,-6.05,7.63,-0.21,23.42
12785,0.2205,-0.0515,0.8845,-6.02,7.01,-0.12,23.42
12795,0.2183,-0.0533,0.8843,-6.18,7.22,-0.2,23.41
12805,0.22,-0.0527,0.8859,-6.12,7.47,-0.18,23.4
12815,0.2158,-0.0509,0.8827,-6.06,7.59,-0.15,23.42
12825,0.2131,-0.0546,0.8872,-6.18,7.98,-0.09,23.38
12835,0.2163,-0.0562,0.8817,-6.27,7.94,-0.06,23.41
12845,0.2195,-0.0602,0.8809,-6.15,7.68,-0.08,23.42
12855,0.2173,-0.0562,0.8839,-6.06,7.4,-0.03,23.39
12865,0.2173,-0.0555,0.8857,-6.08,7.82,-0.03,23.39
12875,0.2194,-0.0555,0.8851,-6.12,8.06,-0.03,23.39
12885,0.2244,-0.0552,0.8805,-6.14,7.82,-0.03,23.38
12895,0.219,-0.0596,0.8817,-6.14,7.86,0.03,23.39
12905,0.2203,-0.0575,0.8856,-6.05,7.97,-0.02,23.4
12915,0.2184,-0.0548,0.884,-6.14,8.05,-0.09,23.42
12925,0.2188,-0.0612,0.8824,-6.27,7.79,0.02,23.39
12935,0.2152,-0.0656,0.8843,-6.14,7.69,0.03,23.42
12945,0.2166,-0.0613,0.8812,-6.23,7.5,-0.03,23.38
12955,0.2214,-0.0626,0.8792,-6.14,8.06,-0.08,23.4
12965,0.2216,-0.0645,0.8872,-6.27,8.08,-0.06,23.41
12975,0.2184,-0.0659,0.8815,-6.02,8.52,-0.14,23.4
12985,0.2189,-0.0675,0.8907,-6.03,7.76,-0.14,23.43
12995,0.2159,-0.0623,0.89,-5.98,7.54,-0.17,23.42
13005,0.2177,-0.0612,0.8872,-6.21,7.47,-0.35,23.43
13015,0.213,-0.058,0.8804,-6.31,8.03,-0.61,23.4
13025,0.2079,-0.0597,0.8843,-6.44,8.4,-1.57,23.42
13035,0.2031,-0.0692,0.8851,-6.64,8.6,-2.98,23.38
13045,0.2001,-0.0763,0.8813,-6.29,8.49,-4.79,23.42
13055,0.2234,-0.0677,0.8827,-5.83,7.37,-5.18,23.42
13065,0.2346,-0.0815,0.8898,-5.86,6.96,-4.15,23.41
13075,0.2352,-0.121,0.8967,-7.48,8.78,-1.8,23.41
13085,0.2274,-0.1078,0.8993,-10.26,11.5,0.43,23.4
13095,0.215,-0.0566,0.8923,-11.77,11.74,0.11,23.42
13105,0.2106,-0.0393,0.877,-11.22,9.86,-1.08,23.39
13115,0.2137,-0.0358,0.8772,-10.49,8.78,-2.66,23.42
13125,0.2081,-0.0228,0.8638,-9.21,9.22,-3.57,23.43
13135,0.2222,-0.0417,0.8732,-7.5,8.63,-3.01,23.42
13145,0.2301,-0.0479,0.8638,-6.26,8.72,-1.71,23.41
13155,0.2302,-0.0509,0.8768,-5.62,8.69,-0.58,23.4
13165,0.2128,-0.047,0.8889,-5.53,8.72,0.08,23.41
13175,0.2076,-0.0492,0.9023,-5.56,8.58,0.21,23.4
13185,0.2095,-0.0468,0.8972,-6.32,7.74,-0.03,23.4
13195,0.2114,-0.0486,0.8821,-6.41,6.6,0.0,23.42
13205,0.2092,-0.0499,0.8849,-6.26,6.49,0.08,23.39
13215,0.2183,-0.0504,0.8774,-6.12,7.15,0.11,23.41
13225,0.2205,-0.0537,0.8749,-6.18,7.66,0.11,23.42
13235,0.2108,-0.0609,0.8882,-6.53,8.44,0.17,23.41
13245,0.2109,-0.0662,0.8848,-6.37,8.67,0.2,23.42
13255,0.2213,-0.0765,0.8838,-6.32,7.3,0.12,23.41
13265,0.2172,-0.0806,0.8811,-6.37,6.67,0.09,23.42
13275,0.2145,-0.0782,0.8916,-6.24,6.82,-0.03,23.42
13285,0.2235,-0.0787,0.8778,-6.34,7.1,-0.05,23.43
13296,0.2299,-0.0789,0.8724,-6.29,7.63,0.03,23.42
13306,0.2263,-0.0786,0.876,-6.18,7.94,0.09,23.41
13316,0.22,-0.0747,0.8928,-6.05,8.63,0.08,23.41
13326,0.2155,-0.0713,0.8868,-6.2,8.76,0.05,23.41
13336,0.213,-0.0732,0.8861,-6.38,8.08,0.05,23.42
13346,0.2162,-0.0682,0.8794,-6.37,7.21,0.0,23.41
13356,0.2131,-0.0641,0.8877,-6.55,8.35,-0.06,23.41
13366,0.22,-0.0603,0.8796,-6.5,8.76,0.0,23.42
13376,0.2206,-0.0554,0.8824,-6.52,8.31,-0.05,23.41
13386,0.2109,-0.0574,0.8925,-6.69,8.29,-0.11,23.41
13396,0.214,-0.0563,0.8926,-7.18,8.32,-0.14,23.43
13406,0.2222,-0.0575,0.889,-7.53,8.29,-0.05,23.44
13416,0.2185,-0.0618,0.8878,-7.66,8.24,0.02,23.44
13426,0.218,-0.0645,0.8835,-7.77,8.11,0.15,23.43
13436,0.2175,-0.075,0.8778,-7.82,7.91,0.15,23.41
13446,0.2168,-0.0995,0.8901,-8.61,8.6,-0.2,23.4
13456,0.2061,-0.1333,0.8998,-10.11,10.09,-1.16,23.43
13466,0.2053,-0.0885,0.8945,-10.92,10.63,-2.49,23.41
13476,0.2021,-0.059,0.8917,-11.13,8.75,-3.1,23.42
13486,0.2073,-0.0525,0.8749,-9.92,8.53,-3.34,23.41
13496,0.2317,-0.0371,0.8728,-10.08,9.28,-3.25,23.42
13506,0.2299,-0.0212,0.8564,-9.13,9.45,-2.2,23.41
13516,0.2317,-0.051,0.8737,-7.82,9.13,-0.76,23.41
13526,0.2214,-0.057,0.8799,-7.39,9.91,0.15,23.42
13536,0.2134,-0.0654,0.889,-6.9,10.15,0.76,23.4
13546,0.204,-0.0687,0.8961,-6.63,9.08,0.82,23.43
13556,0.2008,-0.0645,0.8922,-7.04,8.08,0.21,23.41
13566,0.2057,-0.073,0.8867,-7.98,7.94,-1.25,23.42
13576,0.2083,-0.0885,0.8885,-8.93,8.89,-1.88,23.4
13586,0.2155,-0.0901,0.8878,-9.5,10.44,-2.24,23.43
13596,0.2101,-0.0941,0.8865,-10.26,10.78,-2.61,23.4
13606,0.2183,-0.0747,0.8916,-10.56,10.44,-2.6,23.4
13616,0.2169,-0.0637,0.8926,-10.43,9.1,-1.3,23.41
13626,0.2303,-0.063,0.8737,-10.31,9.07,-1.13,23.42
13636,0.2212,-0.1001,0.8887,-10.7,9.94,-1.18,23.4
13646,0.2166,-0.1096,0.8867,-10.89,11.42,-1.27,23.43
13656,0.2024,-0.0864,0.8774,-10.23,9.65,-1.34,23.44
13666,0.2015,-0.0876,0.8794,-9.59,7.76,-1.76,23.41
13676,0.2107,-0.1069,0.8981,-10.56,9.27,-2.53,23.43
13686,0.2148,-0.0781,0.8966,-12.37,11.65,-2.82,23.44
13696,0.2133,-0.0999,0.9043,-13.44,10.95,-2.55,23.41
13706,0.2183,-0.085,0.901,-14.92,11.57,-2.09,23.41
13716,0.2146,-0.0897,0.8975,-16.0,10.58,-1.31,23.4
13726,0.2225,-0.0769,0.8757,-16.38,10.98,-1.44,23.4
13736,0.2211,-0.0946,0.8807,-16.35,11.05,-0.52,23.39
13746,0.2125,-0.066,0.8801,-16.31,12.72,0.55,23.43
13756,0.2179,-0.094,0.8914,-17.01,13.71,0.79,23.43
13766,0.1896,-0.0367,0.879,-16.32,12.21,1.16,23.43
13776,0.2025,-0.0624,0.8665,-14.4,10.17,0.66,23.42
13786,0.2003,-0.0754,0.9067,-15.69,10.76,0.35,23.4
13796,0.1785,-0.0472,0.8811,-16.53,12.82,-0.61,23.41
13806,0.1777,-0.0636,0.8535,-14.72,12.6,-1.18,23.41
13816,0.2009,-0.0991,0.8627,-13.24,11.37,-0.82,23.42
13826,0.2021,-0.1044,0.8531,-10.9,10.78,-0.46,23.44
13836,0.1971,-0.1046,0.8868,-8.5,8.5,0.26,23.43
13846,0.1877,-0.1094,0.87,-7.28,6.98,0.21,23.42
13856,0.2008,-0.1091,0.8619,-6.56,7.05,-0.38,23.42
13866,0.2053,-0.1021,0.8688,-6.52,8.09,-0.41,23.4
13876,0.2007,-0.0918,0.887,-5.69,9.34,-0.11,23.42
13886,0.2076,-0.0907,0.89,-5.88,8.66,0.21,23.44
13896,0.205,-0.1003,0.8909,-7.1,8.47,0.09,23.44
13906,0.2041,-0.1194,0.8898,-8.26,8.49,-0.05,23.41
13916,0.201,-0.1183,0.8766,-7.69,7.74,-0.17,23.42
13926,0.1985,-0.1051,0.8733,-6.2,6.55,-0.2,23.41
13936,0.1934,-0.088,0.8778,-5.18,6.66,-0.11,23.39
13946,0.1963,-0.0823,0.8811,-5.62,8.06,-0.11,23.42
13956,0.1978,-0.0894,0.8854,-6.58,9.71,0.05,23.42
13966,0.1957,-0.0979,0.8938,-7.18,10.31,0.08,23.42
13976,0.1917,-0.104,0.9,-7.33,9.34,0.0,23.42
13986,0.1897,-0.1115,0.8947,-7.79,8.09,-0.23,23.42
13996,0.1998,-0.1133,0.8854,-8.34,7.07,-0.41,23.42
14006,0.2079,-0.1179,0.876,-8.75,7.16,-0.32,23.4
14016,0.2158,-0.1135,0.8704,-8.17,8.41,-0.29,23.43
14026,0.2047,-0.1106,0.8716,-7.54,9.63,-0.03,23.43
14036,0.1951,-0.104,0.8743,-6.89,9.57,0.15,23.45
14046,0.1907,-0.0994,0.8876,-6.7,8.49,0.06,23.45
14056,0.1937,-0.1019,0.8937,-6.72,7.66,0.03,23.44
14066,0.2012,-0.1064,0.8917,-7.05,7.56,-0.09,23.43
14076,0.197,-0.1056,0.8859,-7.4,7.94,-0.11,23.42
14086,0.1942,-0.1044,0.879,-7.31,7.95,-0.11,23.41
14096,0.2004,-0.1042,0.8757,-6.89,7.48,-0.09,23.42
14106,0.2008,-0.0999,0.8818,-6.66,8.0,-0.17,23.42
14116,0.1982,-0.0981,0.8798,-6.09,8.61,-0.09,23.42
14126,0.1967,-0.0959,0.8794,-5.79,8.4,-0.11,23.43
14136,0.1947,-0.0977,0.8821,-5.85,8.11,-0.08,23.42
14146,0.1938,-0.0994,0.8883,-6.12,8.23,-0.17,23.4
14156,0.1959,-0.1082,0.8846,-6.44,8.64,-0.23,23.41
14166,0.2,-0.1166,0.8833,-6.63,8.73,-0.23,23.4
14176,0.1958,-0.1196,0.8772,-6.46,8.15,-0.15,23.44
14186,0.1959,-0.1146,0.8809,-6.02,7.22,-0.26,23.43
14196,0.2014,-0.108,0.8788,-5.74,7.07,-0.46,23.41
14206,0.2045,-0.13,0.8894,-6.26,8.24,-0.81,23.42
14216,0.2047,-0.176,0.9102,-8.58,11.05,-1.95,23.44
14226,0.2028,-0.1627,0.9081,-11.08,12.44,-2.69,23.42
14236,0.1862,-0.1107,0.8981,-11.66,9.91,-3.22,23.45
14246,0.1901,-0.1292,0.9065,-13.11,8.75,-3.45,23.42
14256,0.1783,-0.0819,0.8885,-14.49,11.86,-4.02,23.42
14266,0.2048,-0.0929,0.8954,-16.12,12.21,-3.83,23.4
14276,0.2037,-0.0906,0.8776,-16.66,12.92,-3.07,23.41
14286,0.1993,-0.0936,0.8983,-16.53,12.41,-1.56,23.42
14296,0.1921,-0.0887,0.8783,-16.4,12.21,-0.35,23.41
14306,0.2163,-0.072,0.8672,-15.66,11.16,0.61,23.41
14316,0.2034,-0.0685,0.8577,-14.82,9.91,1.66,23.39
14326,0.1862,-0.105,0.8613,-13.27,10.7,2.17,23.41
14336,0.1743,-0.1255,0.8699,-11.95,12.02,2.23,23.44
14346,0.1858,-0.1255,0.8575,-10.12,10.11,2.11,23.41
14356,0.1777,-0.1224,0.8607,-7.68,7.05,2.03,23.44
14366,0.1674,-0.1165,0.8809,-6.24,7.86,1.57,23.44
14376,0.1824,-0.1086,0.8734,-5.74,8.82,0.7,23.42
14386,0.1953,-0.1112,0.8812,-5.59,8.37,0.23,23.44
14396,0.1704,-0.1122,0.9014,-5.66,7.82,0.23,23.43
14406,0.1727,-0.1129,0.8987,-6.02,8.53,0.18,23.44
14416,0.1957,-0.1198,0.881,-6.58,6.87,-0.03,23.41
14426,0.1912,-0.1267,0.8812,-6.98,6.24,-0.18,23.42
14436,0.1891,-0.1356,0.8813,-6.72,7.62,-0.17,23.42
14446,0.201,-0.1412,0.8676,-6.2,7.63,-0.17,23.44
14456,0.207,-0.1416,0.8666,-5.47,7.01,0.0,23.44
14466,0.2002,-0.1364,0.8754,-4.81,7.11,-0.06,23.43
14476,0.1986,-0.1345,0.8867,-4.76,7.47,-0.02,23.43
14486,0.193,-0.1272,0.8844,-4.87,7.74,0.02,23.44
14496,0.1914,-0.1278,0.8881,-5.53,7.57,-0.05,23.43
14506,0.1803,-0.1263,0.892,-6.05,7.65,-0.14,23.44
14516,0.1823,-0.1254,0.8854,-6.0,7.44,-0.11,23.43
14526,0.1881,-0.1191,0.8838,-6.14,7.3,-0.05,23.45
14536,0.1931,-0.118,0.8813,-6.31,7.45,-0.17,23.44
14546,0.1921,-0.1168,0.8817,-6.37,7.97,-0.2,23.42
14556,0.1938,-0.1149,0.8815,-6.43,7.94,-0.21,23.45
14566,0.197,-0.1119,0.8854,-6.21,7.53,-0.09,23.42
14576,0.1919,-0.1165,0.8867,-6.41,7.48,-0.08,23.44
14586,0.1913,-0.1136,0.8843,-6.76,7.74,-0.08,23.42
14596,0.1874,-0.1207,0.8826,-6.79,7.83,-0.02,23.43
14606,0.1844,-0.1212,0.8816,-6.89,7.89,0.06,23.43
14616,0.1844,-0.1229,0.8839,-6.61,7.89,0.06,23.43
14626,0.1819,-0.1228,0.8815,-6.43,7.57,0.05,23.42
14636,0.1854,-0.1202,0.8839,-6.4,7.36,-0.03,23.43
14646,0.1891,-0.1213,0.8839,-6.31,7.36,-0.06,23.41
14656,0.1899,-0.1165,0.8822,-6.2,7.36,-0.06,23.43
14666,0.1942,-0.12,0.8792,-6.02,7.45,-0.11,23.44
14676,0.1953,-0.1243,0.8792,-5.94,7.71,-0.08,23.42
14686,0.1996,-0.1274,0.8805,-6.15,8.12,-0.08,23.43
14696,0.1904,-0.1299,0.8817,-6.15,8.15,-0.11,23.43
14706,0.1854,-0.1263,0.8804,-5.94,7.76,-0.21,23.44
14717,0.188,-0.1293,0.8787,-5.82,7.39,-0.24,23.42
14728,0.1912,-0.1283,0.8835,-6.14,7.53,-0.29,23.43
14738,0.1973,-0.13,0.8846,-6.38,7.71,-0.21,23.46
14748,0.2001,-0.1261,0.8824,-6.63,8.09,-0.17,23.46
14758,0.1987,-0.1304,0.881,-6.78,8.87,-0.14,23.45
14768,0.1925,-0.1351,0.8804,-6.82,8.96,0.08,23.44
14778,0.1868,-0.1338,0.8846,-6.63,7.65,0.06,23.44
14788,0.1798,-0.126,0.908,-6.32,8.43,-0.15,23.43
14798,0.2129,-0.09,0.8558,-6.24,3.63,-0.24,23.46
14808,0.161,-0.1437,0.9092,-6.09,11.02,-0.15,23.46
14818,0.1445,-0.1334,0.9078,-6.58,12.06,-0.14,23.43
14829,0.1187,-0.1456,0.9142,-6.49,12.27,-0.05,23.44
14839,0.1481,-0.1147,0.8951,-6.17,10.02,-0.15,23.44
14849,0.172,-0.1005,0.8903,-6.14,10.12,-0.29,23.42
14859,0.2073,-0.1061,0.8854,-6.24,8.34,-0.37,23.45
14869,0.2424,-0.1084,0.8525,-6.23,5.5,-0.5,23.45
14879,0.2129,-0.1284,0.8658,-5.82,5.76,-0.38,23.43
14889,0.1992,-0.1426,0.8676,-5.95,6.02,-0.26,23.44
14899,0.1688,-0.1307,0.877,-5.51,7.91,0.0,23.43
14909,0.1724,-0.1328,0.8907,-5.97,8.76,-0.11,23.42
14919,0.1587,-0.1359,0.906,-6.56,9.74,-0.02,23.43
14929,0.1841,-0.1323,0.8866,-6.75,9.66,-0.06,23.44
14939,0.2013,-0.1357,0.8721,-7.04,7.24,-0.23,23.43
14949,0.1863,-0.1362,0.8795,-6.72,6.82,-0.21,23.44
14959,0.1871,-0.1317,0.8807,-6.67,7.21,-0.26,23.44
14969,0.1942,-0.1199,0.8801,-6.43,7.88,-0.2,23.42
14979,0.2084,-0.1252,0.8693,-6.31,7.13,-0.26,23.44
14989,0.1824,-0.1206,0.8921,-6.32,8.08,-0.31,23.45
14999,0.1836,-0.1219,0.8922,-6.52,9.25,-0.32,23.46
15009,0.1985,-0.1193,0.8802,-6.79,7.83,-0.34,23.46
15019,0.1926,-0.1256,0.8798,-6.87,6.64,-0.43,23.46
15029,0.176,-0.1267,0.8967,-7.13,7.98,-0.38,23.46
15040,0.1813,-0.1245,0.8832,-7.01,8.47,-0.26,23.44
15050,0.1954,-0.1233,0.8702,-6.75,7.91,-0.31,23.45
15060,0.201,-0.1218,0.8756,-6.26,7.18,-0.2,23.47
15070,0.1799,-0.1215,0.8878,-6.32,8.21,-0.09,23.44
15080,0.1852,-0.1178,0.8845,-6.47,9.25,-0.05,23.45
15090,0.1978,-0.1161,0.8738,-6.44,7.68,0.03,23.45
15101,0.2018,-0.121,0.8738,-6.38,6.84,-0.06,23.42
15111,0.1827,-0.116,0.8889,-6.32,7.16,-0.06,23.42
15121,0.1853,-0.1149,0.8892,-6.58,8.72,-0.05,23.45
15131,0.1948,-0.1169,0.8737,-6.52,8.03,-0.14,23.43
15141,0.1898,-0.1182,0.8832,-6.38,7.76,-0.02,23.43
15151,0.1813,-0.1206,0.8958,-6.55,8.78,-0.03,23.44
15161,0.1927,-0.1211,0.8848,-6.67,8.47,0.0,23.44
15171,0.1978,-0.1287,0.8807,-6.87,7.25,0.02,23.43
15181,0.1852,-0.1295,0.8892,-7.04,7.89,-0.03,23.43
15191,0.1841,-0.1292,0.8807,-7.02,8.52,-0.05,23.44
15201,0.1934,-0.1304,0.8722,-6.64,7.66,0.02,23.44
15211,0.1909,-0.1335,0.8755,-6.14,6.85,0.05,23.45
15221,0.1798,-0.1295,0.8866,-5.71,7.33,0.12,23.46
15231,0.1882,-0.1271,0.8789,-5.6,7.8,0.2,23.45
15241,0.1909,-0.1174,0.8837,-5.62,7.47,0.21,23.45
15251,0.1825,-0.1169,0.8878,-5.98,7.66,0.18,23.45
15261,0.1818,-0.1187,0.8889,-6.23,8.06,0.06,23.44
15271,0.1882,-0.1194,0.884,-6.53,7.94,-0.12,23.43
15281,0.1975,-0.119,0.8805,-6.81,7.74,-0.11,23.45
15291,0.1943,-0.1249,0.8801,-6.69,7.73,-0.06,23.44
15301,0.1844,-0.1274,0.8838,-6.55,8.09,-0.06,23.44
15311,0.1841,-0.1312,0.8806,-6.26,7.85,-0.15,23.46
15321,0.1902,-0.1353,0.8861,-6.24,7.57,-0.14,23.45
15331,0.1875,-0.1342,0.8849,-6.53,7.76,-0.11,23.41
15341,0.1877,-0.1349,0.8855,-6.67,8.21,-0.11,23.43
15351,0.1924,-0.1312,0.8757,-6.73,7.63,-0.17,23.45
15361,0.1901,-0.1306,0.8835,-6.7,7.18,-0.05,23.45
15371,0.1879,-0.1296,0.8842,-6.82,7.92,-0.06,23.45
15381,0.1902,-0.1287,0.8781,-6.93,8.32,-0.14,23.43
15391,0.1902,-0.1272,0.8812,-6.85,8.24,-0.08,23.42
15401,0.1843,-0.1243,0.8816,-6.53,7.92,-0.08,23.44
15411,0.1836,-0.1217,0.8837,-6.35,7.76,-0.05,23.44
15421,0.1868,-0.1202,0.8853,-6.47,7.63,-0.15,23.42
15431,0.1871,-0.1169,0.8822,-6.56,8.0,-0.15,23.44
15441,0.1877,-0.1216,0.8833,-6.56,8.32,-0.14,23.44
15451,0.1826,-0.1198,0.8831,-6.53,8.56,-0.15,23.44
15461,0.1866,-0.1244,0.8818,-6.26,8.03,-0.09,23.44
15471,0.1877,-0.1259,0.881,-6.06,7.56,-0.09,23.45
15481,0.1859,-0.1309,0.8842,-6.08,7.8,-0.05,23.45
15491,0.1847,-0.1257,0.8798,-5.95,7.98,0.0,23.44
15501,0.1906,-0.1257,0.8834,-6.0,7.89,-0.09,23.43
15511,0.1923,-0.1268,0.8844,-6.37,8.03,-0.05,23.46
15521,0.188,-0.124,0.8813,-6.69,8.69,-0.09,23.45
15531,0.1931,-0.1292,0.8827,-6.7,8.44,0.02,23.45
15541,0.1953,-0.125,0.8805,-6.75,7.92,-0.03,23.44
15551,0.192,-0.1246,0.8851,-6.85,8.09,-0.08,23.44
15561,0.1888,-0.1283,0.8862,-7.13,8.76,-0.08,23.44
15571,0.1902,-0.131,0.8795,-7.31,8.9,-0.05,23.44
15581,0.1898,-0.1309,0.8787,-7.25,8.64,-0.12,23.47
15591,0.1827,-0.1299,0.8848,-7.15,8.66,-0.12,23.44
15601,0.1846,-0.1285,0.8835,-7.19,9.16,-0.18,23.42
15611,0.1852,-0.1267,0.8872,-7.56,9.16,-0.09,23.43
15621,0.1858,-0.1289,0.8855,-7.77,8.61,-0.32,23.45
15631,0.1862,-0.1301,0.8857,-7.92,8.26,-0.34,23.45
15641,0.186,-0.1339,0.8889,-8.02,8.15,-0.35,23.48
15652,0.1924,-0.1317,0.8828,-8.14,8.26,-0.41,23.46
15662,0.1942,-0.1334,0.8766,-8.24,8.2,-0.27,23.44
15672,0.1875,-0.1326,0.8784,-8.32,8.64,-0.37,23.48
15682,0.1858,-0.1294,0.8881,-8.56,9.47,-0.27,23.44
15692,0.1857,-0.126,0.8969,-9.62,9.92,-0.29,23.45
15702,0.1812,-0.123,0.897,-10.92,9.8,-0.44,23.46
15712,0.1788,-0.123,0.8929,-11.97,9.56,-0.55,23.47
15722,0.183,-0.1285,0.8868,-12.58,9.63,-0.7,23.42
15732,0.1896,-0.1334,0.8676,-12.6,9.39,-0.52,23.45
15742,0.1854,-0.136,0.8662,-11.76,9.88,-0.41,23.42
15752,0.1801,-0.1383,0.8662,-10.63,10.34,-0.29,23.46
15762,0.1838,-0.1381,0.8646,-9.36,9.76,-0.21,23.42
15772,0.1847,-0.1351,0.8665,-8.15,8.9,-0.11,23.43
15782,0.1782,-0.1375,0.8756,-7.24,8.21,-0.11,23.45
15792,0.1812,-0.1316,0.8735,-6.47,8.47,-0.03,23.45
15802,0.186,-0.1337,0.8777,-6.17,8.09,0.05,23.45
15812,0.174,-0.1348,0.8928,-6.18,8.41,0.02,23.42
15822,0.1749,-0.135,0.8883,-6.35,8.53,-0.03,23.45
15832,0.1823,-0.1366,0.882,-6.66,7.92,-0.05,23.44
15842,0.1809,-0.1405,0.8809,-6.89,7.48,-0.08,23.45
15852,0.1849,-0.1394,0.8768,-6.87,8.11,-0.08,23.47
15862,0.1918,-0.145,0.8715,-6.81,8.03,-0.09,23.47
15872,0.1849,-0.1484,0.8746,-6.63,8.34,-0.09,23.44
15882,0.1812,-0.1458,0.8824,-6.55,8.84,0.0,23.42
15892,0.1838,-0.147,0.8833,-6.47,8.27,-0.08,23.46
15902,0.1831,-0.1427,0.881,-6.58,7.44,-0.2,23.45
15912,0.1866,-0.1445,0.8821,-6.78,7.18,-0.23,23.44
15922,0.184,-0.1453,0.8783,-7.02,7.5,-0.24,23.44
15932,0.1864,-0.1454,0.8743,-7.18,8.08,-0.29,23.46
15942,0.1771,-0.1467,0.8785,-6.99,8.11,-0.27,23.48
15952,0.1769,-0.1454,0.8809,-6.81,7.8,-0.26,23.46
15962,0.1772,-0.1443,0.8809,-6.7,8.12,-0.32,23.46
15972,0.1852,-0.1425,0.8754,-6.69,7.76,-0.35,23.44
15982,0.187,-0.142,0.8822,-6.95,7.83,-0.4,23.44
15992,0.1835,-0.1411,0.884,-7.02,8.6,-0.32,23.44
16002,0.181,-0.1371,0.8754,-6.99,8.56,-0.29,23.44
16012,0.1807,-0.1353,0.8779,-6.66,7.98,-0.15,23.46
16022,0.1787,-0.1339,0.8837,-6.44,7.4,-0.23,23.45
16032,0.1788,-0.1353,0.8872,-6.43,7.89,-0.09,23.47
16042,0.1788,-0.1343,0.8838,-6.56,8.18,0.0,23.45
16052,0.1802,-0.1318,0.8741,-6.46,7.8,-0.06,23.47
16062,0.1742,-0.1331,0.8792,-6.32,7.18,-0.14,23.47
16072,0.1824,-0.1326,0.8811,-6.2,7.3,0.03,23.45
16082,0.1824,-0.1353,0.8844,-6.38,8.67,0.14,23.47
16092,0.1846,-0.1365,0.8788,-6.53,8.44,0.14,23.43
16102,0.1743,-0.1407,0.8826,-6.24,8.12,0.24,23.42
16112,0.1738,-0.1373,0.8862,-5.89,7.82,0.24,23.45
16122,0.1838,-0.1407,0.8856,-5.83,7.66,0.21,23.44
16132,0.1855,-0.1396,0.8787,-6.06,7.68,0.08,23.43
16142,0.1797,-0.1355,0.8822,-6.08,7.89,0.23,23.45
16152,0.1803,-0.1392,0.8815,-6.06,8.05,0.17,23.44
16162,0.1877,-0.1412,0.8802,-6.15,7.25,0.12,23.45
16172,0.175,-0.1473,0.8878,-6.41,7.56,0.08,23.46
16182,0.1802,-0.152,0.887,-6.56,7.92,0.0,23.44
16192,0.1902,-0.1506,0.8774,-6.44,7.42,-0.12,23.45
16202,0.1896,-0.1523,0.8773,-6.37,7.13,-0.08,23.44
16212,0.1851,-0.1532,0.8762,-6.21,7.62,-0.18,23.45
16222,0.1844,-0.1545,0.8756,-5.89,7.76,-0.14,23.46
16232,0.1853,-0.15,0.8784,-5.73,7.54,-0.05,23.45
16242,0.1774,-0.1475,0.8862,-5.56,7.5,-0.11,23.48
16252,0.1754,-0.1443,0.8917,-5.83,7.77,-0.15,23.43
16262,0.1805,-0.1478,0.8837,-6.05,7.62,-0.23,23.45
16272,0.1819,-0.1418,0.8822,-6.26,7.25,-0.24,23.47
16282,0.1805,-0.142,0.8795,-6.21,7.27,-0.29,23.47
16292,0.1842,-0.1387,0.8794,-5.89,7.42,-0.21,23.48
16302,0.1843,-0.1317,0.8733,-5.65,7.33,-0.27,23.45
16312,0.1866,-0.1305,0.8787,-5.51,7.21,-0.17,23.46
16322,0.1796,-0.1274,0.8859,-5.56,7.94,-0.18,23.48
16332,0.1783,-0.1295,0.887,-5.71,8.2,-0.18,23.44
16342,0.1797,-0.1293,0.8826,-5.83,7.76,-0.12,23.45
16352,0.1752,-0.1326,0.8812,-5.77,7.31,-0.17,23.46
16362,0.1771,-0.1345,0.8861,-5.77,7.39,-0.11,23.44
16372,0.1837,-0.1385,0.8785,-5.76,7.62,0.02,23.44
16382,0.1855,-0.1378,0.8783,-5.73,7.45,0.09,23.48
16392,0.1855,-0.1364,0.8837,-5.71,7.68,0.14,23.47
16402,0.1793,-0.136,0.8835,-5.74,7.8,0.15,23.49
16412,0.1827,-0.1331,0.8838,-6.0,7.97,0.24,23.46
16422,0.1827,-0.1316,0.8881,-6.43,8.11,0.32,23.43
16432,0.1846,-0.1367,0.8846,-6.81,8.37,0.49,23.45
16442,0.183,-0.142,0.8911,-7.13,8.44,0.87,23.46
16452,0.1869,-0.1448,0.8875,-7.18,7.97,1.89,23.46
16462,0.1921,-0.1484,0.8824,-7.28,7.57,3.02,23.44
16472,0.1798,-0.1385,0.8792,-7.62,8.02,3.39,23.45
16482,0.1672,-0.1399,0.8691,-7.6,8.73,2.29,23.46
16492,0.1697,-0.1479,0.8738,-7.02,8.2,0.81,23.45
16502,0.1776,-0.1543,0.8735,-6.49,7.11,0.24,23.45
16512,0.1862,-0.1539,0.8785,-5.89,6.63,0.06,23.44
16522,0.1904,-0.1528,0.8713,-5.51,6.95,0.03,23.44
16532,0.1902,-0.1522,0.8717,-5.33,7.74,0.05,23.44
16542,0.1887,-0.1567,0.8757,-5.27,8.43,0.08,23.44
16552,0.1821,-0.1526,0.8815,-5.24,8.31,0.08,23.44
16562,0.1797,-0.1471,0.8884,-5.31,8.08,0.12,23.45
16572,0.1765,-0.1437,0.8876,-5.73,7.76,0.03,23.44
16582,0.1802,-0.1388,0.8871,-6.21,7.62,0.03,23.47
16592,0.1786,-0.142,0.8859,-6.67,7.68,0.08,23.47
16602,0.1812,-0.1578,0.887,-7.13,8.17,-0.26,23.44
16612,0.1779,-0.1722,0.8885,-7.8,9.24,-0.81,23.45
16622,0.1729,-0.1864,0.9062,-9.13,10.66,-2.09,23.44
16632,0.1635,-0.1375,0.8905,-10.12,10.92,-3.44,23.45
16642,0.1683,-0.1272,0.8884,-9.53,7.88,-2.9,23.48
16652,0.1869,-0.1252,0.8781,-9.88,7.79,-2.56,23.47
16662,0.1945,-0.11,0.8706,-10.58,10.02,-2.37,23.46
16672,0.1945,-0.1301,0.8678,-10.12,10.09,-1.59,23.46
16682,0.182,-0.1393,0.8759,-9.27,9.8,-0.93,23.48
16692,0.1837,-0.1488,0.8779,-8.03,8.52,0.11,23.49
16702,0.176,-0.1162,0.8582,-6.64,7.62,1.33,23.43
16712,0.1714,-0.1324,0.8676,-5.89,6.55,1.18,23.45
16722,0.1763,-0.1418,0.8782,-5.57,7.86,0.12,23.44
16732,0.1782,-0.1433,0.8822,-5.34,8.24,0.12,23.46
16742,0.1768,-0.1395,0.8748,-5.18,6.66,0.15,23.47
16752,0.1821,-0.1328,0.8813,-4.78,5.92,-0.03,23.45
16762,0.191,-0.1219,0.8827,-5.27,6.67,0.0,23.46
16772,0.1965,-0.1492,0.8903,-6.34,9.51,0.24,23.44
16782,0.1628,-0.1487,0.8701,-7.47,10.35,0.26,23.46
16792,0.1593,-0.1439,0.8826,-6.7,7.34,0.06,23.46
16802,0.1796,-0.1572,0.9012,-5.47,6.72,-0.11,23.45
16812,0.1927,-0.1483,0.8712,-5.94,7.86,-0.06,23.46
16822,0.1912,-0.144,0.8721,-6.79,7.31,-0.09,23.47
16832,0.1777,-0.1466,0.8793,-6.11,7.11,0.02,23.46
16842,0.1831,-0.145,0.8793,-5.53,8.4,0.15,23.48
16853,0.1824,-0.1417,0.8787,-6.23,8.81,0.15,23.47
16863,0.1807,-0.1454,0.8777,-6.29,7.97,0.14,23.46
16873,0.1781,-0.1561,0.8816,-6.5,8.02,0.03,23.46
16883,0.1715,-0.17,0.8824,-6.63,8.47,-0.08,23.46
16893,0.1757,-0.1581,0.8627,-5.25,7.94,-0.02,23.46
16903,0.1881,-0.1488,0.8613,-3.83,6.17,-0.09,23.47
16913,0.1847,-0.1425,0.8766,-3.34,6.49,-0.05,23.48
16923,0.1812,-0.1348,0.8947,-4.09,8.53,-0.09,23.48
16933,0.1809,-0.1302,0.9044,-5.65,8.93,-0.09,23.47
16943,0.1783,-0.1335,0.9135,-7.44,8.2,-0.15,23.46
16953,0.1757,-0.1433,0.9158,-9.25,7.65,-0.38,23.47
16963,0.181,-0.1537,0.8883,-10.49,7.05,-0.15,23.45
16973,0.1892,-0.1603,0.8605,-10.4,7.13,0.14,23.46
16983,0.1914,-0.1635,0.8419,-8.82,7.65,0.78,23.45
16993,0.1829,-0.1541,0.8424,-6.53,8.35,1.22,23.46
17003,0.1737,-0.1394,0.85,-4.08,8.58,1.31,23.47
17013,0.1689,-0.129,0.8713,-2.58,8.24,0.64,23.46
17023,0.1676,-0.1282,0.8962,-2.66,7.92,-0.03,23.46
17033,0.1776,-0.1283,0.9189,-4.32,7.94,-0.02,23.47
17043,0.1797,-0.1346,0.9169,-6.69,7.85,0.0,23.47
17053,0.1801,-0.1407,0.9005,-8.37,7.25,-0.21,23.47
17063,0.1771,-0.1447,0.8795,-9.05,6.61,-0.41,23.47
17073,0.178,-0.1433,0.8682,-8.53,6.56,-0.37,23.45
17083,0.1827,-0.1423,0.853,-7.31,6.79,-0.15,23.47
17093,0.1866,-0.1445,0.856,-6.15,7.5,0.03,23.47
17103,0.1805,-0.1444,0.8691,-5.21,8.81,0.26,23.47
17113,0.1783,-0.1461,0.8785,-4.5,9.21,0.46,23.47
17123,0.1749,-0.1469,0.9023,-4.75,8.43,0.38,23.47
17133,0.1726,-0.1469,0.902,-5.76,7.51,0.15,23.46
17143,0.1759,-0.1499,0.8929,-6.9,6.55,-0.21,23.47
17153,0.1855,-0.1528,0.8741,-7.08,5.94,-0.27,23.47
17163,0.1913,-0.1506,0.8655,-6.72,6.55,-0.37,23.49
17173,0.191,-0.1482,0.8589,-6.09,7.95,-0.08,23.46
17183,0.1851,-0.1477,0.8636,-5.01,8.81,0.21,23.47
17193,0.1769,-0.1482,0.8772,-4.35,8.79,0.27,23.46
17203,0.1772,-0.1451,0.8945,-4.66,8.26,0.15,23.46
17213,0.1755,-0.1399,0.8989,-5.85,8.06,0.12,23.46
17223,0.1768,-0.139,0.8982,-7.1,7.74,-0.17,23.45
17233,0.1746,-0.1454,0.8901,-8.11,7.6,-0.29,23.47
17243,0.1846,-0.1517,0.8781,-8.47,7.8,-0.29,23.45
17253,0.1833,-0.1576,0.8625,-7.66,7.92,0.0,23.46
17263,0.1843,-0.1565,0.8575,-6.24,8.08,0.2,23.44
17273,0.1797,-0.151,0.8666,-4.95,8.09,0.38,23.47
17284,0.1788,-0.1414,0.8788,-4.26,7.92,0.18,23.46
17294,0.1802,-0.1378,0.8899,-4.75,7.8,0.11,23.46
17304,0.1765,-0.1353,0.896,-5.56,7.56,-0.06,23.47
17314,0.1763,-0.1398,0.8955,-6.78,7.53,-0.09,23.46
17324,0.1787,-0.1448,0.8854,-7.42,7.66,-0.14,23.46
17334,0.1813,-0.1472,0.8781,-7.37,7.86,-0.11,23.46
17344,0.1848,-0.1487,0.8721,-6.9,7.88,0.18,23.47
17354,0.1823,-0.1449,0.8718,-6.4,7.98,0.43,23.48
17364,0.1818,-0.1403,0.8746,-5.82,7.94,0.43,23.45
17374,0.1796,-0.1432,0.88,-5.6,8.17,0.35,23.49
17384,0.1802,-0.1479,0.8829,-6.05,8.32,0.02,23.49
17394,0.1761,-0.1525,0.8922,-6.96,9.07,-0.38,23.48
17404,0.1749,-0.1443,0.8878,-7.73,9.22,-0.44,23.47
17414,0.1774,-0.1561,0.8905,-8.4,8.81,-0.2,23.5
17424,0.1868,-0.1578,0.8859,-9.05,8.99,0.15,23.49
17434,0.1803,-0.1615,0.8794,-9.31,9.25,0.32,23.45
17444,0.1781,-0.1703,0.8796,-9.56,9.77,-0.24,23.46
17454,0.1741,-0.1696,0.8779,-9.53,9.62,-0.61,23.47
17464,0.1663,-0.1577,0.8751,-8.93,9.16,-1.6,23.45
17474,0.1688,-0.1403,0.8781,-8.34,7.98,-2.11,23.46
17484,0.1768,-0.1315,0.8807,-7.92,7.79,-2.03,23.47
17494,0.1812,-0.1205,0.8726,-8.05,8.47,-1.53,23.47
17504,0.1815,-0.1187,0.8693,-7.79,8.79,-1.02,23.46
17514,0.1821,-0.1573,0.8778,-7.36,8.26,0.06,23.46
17524,0.1719,-0.1519,0.8751,-6.82,8.66,0.11,23.48
17534,0.1732,-0.1591,0.8823,-6.5,7.65,-0.03,23.47
17544,0.1759,-0.1521,0.8796,-6.6,6.76,-0.12,23.48
17554,0.1835,-0.149,0.8812,-6.67,7.02,-0.21,23.48
17564,0.1815,-0.147,0.8729,-6.81,7.68,-0.14,23.46
17574,0.1809,-0.1479,0.87,-6.18,8.14,0.06,23.48
17584,0.1796,-0.1479,0.8661,-5.27,7.94,0.23,23.47
17594,0.1725,-0.1492,0.8728,-4.56,8.05,0.32,23.48
17604,0.1746,-0.1465,0.886,-4.7,8.05,0.31,23.48
17614,0.1746,-0.1464,0.8934,-5.02,7.76,0.31,23.47
17624,0.1732,-0.1471,0.8962,-5.65,7.5,0.2,23.48
17634,0.1738,-0.1459,0.8892,-6.35,7.33,0.2,23.47
17644,0.1753,-0.1483,0.8824,-6.63,7.01,0.15,23.48
17654,0.1792,-0.147,0.8718,-6.58,6.95,0.2,23.46
17664,0.1814,-0.1461,0.8727,-6.52,7.19,0.12,23.48
17674,0.1781,-0.1519,0.8729,-6.12,7.63,0.11,23.46
17684,0.1797,-0.1519,0.8766,-5.97,7.85,0.09,23.48
17694,0.1786,-0.1525,0.8794,-6.2,7.73,0.06,23.49
17704,0.178,-0.1533,0.88,-6.4,7.45,0.06,23.44
17714,0.1748,-0.1526,0.8824,-6.49,7.77,-0.12,23.49
17724,0.1818,-0.1537,0.8788,-6.56,7.8,-0.12,23.49
17734,0.1835,-0.156,0.8746,-6.72,7.85,-0.14,23.47
17744,0.1777,-0.1527,0.8715,-6.29,8.14,0.0,23.47
17754,0.178,-0.1521,0.8771,-5.95,8.47,0.03,23.47
17764,0.1766,-0.1534,0.8771,-5.74,8.27,0.03,23.49
17774,0.1787,-0.1556,0.881,-5.74,8.06,0.02,23.49
17784,0.1744,-0.1542,0.8839,-5.6,7.8,-0.03,23.45
17794,0.1771,-0.1508,0.8844,-5.59,7.59,-0.15,23.46
17804,0.1796,-0.147,0.8792,-5.57,7.19,-0.11,23.45
17814,0.1796,-0.1451,0.8802,-5.6,7.15,-0.15,23.49
17824,0.1748,-0.149,0.8804,-5.74,7.65,-0.08,23.48
17834,0.1744,-0.1517,0.8794,-5.77,7.83,-0.11,23.49
17844,0.1776,-0.1499,0.875,-5.76,7.28,-0.14,23.46
17854,0.1749,-0.1466,0.8834,-5.42,6.63,-0.15,23.46
17864,0.1779,-0.146,0.8773,-5.6,6.53,-0.14,23.49
17874,0.1775,-0.1475,0.8806,-5.98,7.34,-0.08,23.48
17885,0.1805,-0.1512,0.8783,-6.4,8.4,-0.03,23.48
17895,0.1785,-0.1481,0.8802,-6.37,8.92,0.05,23.48
17905,0.1764,-0.1488,0.8821,-6.38,8.35,0.12,23.48
17915,0.173,-0.1461,0.8838,-6.37,7.86,-0.03,23.49
17925,0.1772,-0.1453,0.8811,-6.4,7.76,-0.11,23.46
17935,0.1798,-0.1455,0.8751,-6.31,7.73,-0.05,23.48
17945,0.1786,-0.1466,0.8757,-6.2,7.57,-0.05,23.48
17955,0.1749,-0.1459,0.8779,-5.97,7.53,-0.02,23.47
17965,0.1753,-0.1478,0.8807,-5.85,7.51,-0.03,23.49
17975,0.1786,-0.1503,0.8768,-5.85,7.44,0.06,23.49
17985,0.1844,-0.1528,0.8796,-5.85,7.45,0.06,23.49
17995,0.1777,-0.1564,0.8842,-6.03,7.6,-0.05,23.47
18005,0.1758,-0.1525,0.8792,-6.02,7.36,-0.05,23.49
18015,0.1764,-0.1481,0.8795,-5.82,6.92,-0.09,23.47
18025,0.1792,-0.1482,0.8793,-5.82,7.08,-0.03,23.48
18035,0.1791,-0.1467,0.8774,-5.88,7.71,0.03,23.49
18045,0.1794,-0.1515,0.8794,-6.0,8.18,0.06,23.48
18055,0.1787,-0.1558,0.8827,-6.12,8.0,0.05,23.48
18065,0.1788,-0.1539,0.8844,-6.31,7.74,-0.05,23.47
18075,0.1814,-0.1592,0.8795,-6.43,7.76,-0.15,23.48
18085,0.1776,-0.1571,0.8745,-6.32,7.76,-0.14,23.48
18095,0.1737,-0.1536,0.8745,-5.88,7.44,-0.11,23.47
18105,0.1775,-0.1497,0.8798,-5.62,7.54,-0.17,23.48
18115,0.1777,-0.1473,0.8802,-5.66,8.0,-0.03,23.49
18125,0.1782,-0.1479,0.881,-5.85,8.32,0.0,23.49
18135,0.1792,-0.1458,0.8838,-6.03,8.21,0.05,23.47
18146,0.1748,-0.1447,0.884,-6.12,7.68,0.0,23.49
18156,0.1746,-0.1466,0.8799,-6.55,7.73,-0.06,23.5
18166,0.1726,-0.1487,0.8809,-6.7,7.79,-0.12,23.46
18186,0.1794,-0.137,0.8766,-5.56,6.93,-0.2,23.49
18196,0.1862,-0.1371,0.8759,-5.5,7.24,-0.09,23.44
18206,0.1881,-0.1443,0.8824,-5.94,8.29,0.0,23.47
18216,0.1821,-0.155,0.8743,-6.63,9.16,0.0,23.49
18226,0.1765,-0.1611,0.8779,-6.35,8.81,-0.06,23.48
18236,0.1763,-0.1592,0.8823,-5.68,7.51,0.03,23.48
18246,0.1765,-0.1522,0.8855,-5.62,6.69,-0.08,23.47
18256,0.1818,-0.1473,0.8857,-6.14,7.19,-0.08,23.47
18266,0.1815,-0.1487,0.8782,-6.66,7.97,0.08,23.48
18276,0.1798,-0.149,0.8749,-6.23,8.17,0.06,23.48
18287,0.1757,-0.1426,0.8793,-5.5,7.82,0.15,23.48
18298,0.1725,-0.1422,0.881,-5.21,7.47,0.12,23.47
18308,0.1742,-0.1439,0.8873,-5.68,7.54,0.03,23.47
18318,0.1761,-0.1471,0.8844,-6.09,7.92,-0.02,23.48
18328,0.1787,-0.1505,0.8812,-6.46,8.15,-0.03,23.47
18338,0.1736,-0.1464,0.8788,-6.37,7.77,-0.12,23.48
18348,0.1716,-0.1471,0.8812,-6.15,7.21,-0.18,23.47
18359,0.1757,-0.1492,0.874,-6.05,7.36,-0.21,23.48
18369,0.1805,-0.1511,0.8759,-6.0,7.92,-0.06,23.48
18379,0.1794,-0.1681,0.8759,-6.05,8.15,0.05,23.47
18389,0.1771,-0.1644,0.8827,-6.56,7.44,-0.17,23.48
18399,0.1825,-0.1497,0.8883,-5.37,6.05,-0.18,23.49
18409,0.1884,-0.1354,0.876,-4.85,7.42,0.18,23.47
18419,0.1737,-0.1508,0.8701,-7.08,8.5,-0.08,23.44
18429,0.1603,-0.1478,0.8792,-6.84,8.75,-0.03,23.47
18439,0.1733,-0.1366,0.8849,-4.89,7.24,0.06,23.5
18449,0.1877,-0.1361,0.88,-5.05,7.68,0.06,23.49
18459,0.1713,-0.1515,0.8838,-6.58,8.99,-0.12,23.5
18469,0.1604,-0.1459,0.8846,-6.98,8.73,-0.12,23.49
18479,0.1814,-0.1509,0.8915,-6.2,6.47,-0.27,23.49
18489,0.1923,-0.145,0.8774,-5.53,6.52,-0.24,23.46
18499,0.1865,-0.149,0.8711,-6.63,8.2,-0.11,23.49
18509,0.1678,-0.1554,0.8712,-6.99,8.14,-0.15,23.48
18519,0.1674,-0.1592,0.8761,-6.08,7.4,-0.26,23.47
18529,0.1891,-0.15,0.881,-5.22,6.89,-0.09,23.47
18539,0.1881,-0.149,0.8782,-5.53,8.43,0.15,23.48
18549,0.1678,-0.1525,0.8796,-6.98,9.71,0.11,23.49
18559,0.1639,-0.1527,0.8835,-6.92,8.53,0.03,23.47
18569,0.1788,-0.141,0.8826,-5.76,6.49,-0.09,23.45
18579,0.191,-0.1354,0.8794,-5.56,6.38,0.02,23.47
18589,0.1855,-0.1403,0.8806,-6.52,8.12,-0.03,23.5
18599,0.1708,-0.1493,0.8821,-7.02,8.99,0.11,23.49
18609,0.173,-0.1489,0.8796,-6.52,8.72,-0.03,23.46
18619,0.1798,-0.1472,0.8811,-6.06,6.56,-0.31,23.47
18629,0.1505,-0.1462,0.9127,-6.0,8.43,-0.18,23.49
18639,0.1722,-0.1482,0.882,-6.73,9.33,-0.2,23.46
18649,0.1809,-0.1544,0.864,-6.84,6.73,-0.2,23.46
18659,0.1605,-0.1595,0.8884,-6.47,7.42,-0.12,23.5
18669,0.178,-0.1571,0.8727,-5.95,8.47,-0.03,23.46
18679,0.1949,-0.1558,0.8646,-5.66,7.92,0.09,23.49
18689,0.1847,-0.1576,0.8816,-5.91,7.86,-0.03,23.46
18699,0.1759,-0.1577,0.8795,-6.27,8.63,-0.08,23.48
18709,0.1877,-0.1528,0.8749,-6.15,7.89,-0.09,23.51
18719,0.1874,-0.1476,0.877,-6.03,7.25,-0.11,23.49
18729,0.1776,-0.1455,0.8833,-6.32,7.22,-0.11,23.48
18739,0.1691,-0.1456,0.8802,-6.49,7.63,-0.11,23.46
18749,0.1769,-0.1465,0.8792,-6.34,7.57,-0.14,23.47
18759,0.1836,-0.1461,0.8741,-5.89,7.34,-0.14,23.46
18769,0.178,-0.1451,0.8813,-5.74,7.53,-0.05,23.48
18779,0.1765,-0.1466,0.8842,-6.0,8.08,-0.11,23.48
18789,0.1804,-0.149,0.8816,-6.26,8.0,-0.15,23.47
18799,0.1813,-0.1525,0.8794,-6.49,7.36,-0.23,23.46
18809,0.1766,-0.1508,0.8848,-6.17,7.54,-0.14,23.49
18819,0.1768,-0.1498,0.8794,-6.08,7.63,-0.11,23.45
18829,0.1813,-0.1476,0.874,-6.02,7.37,-0.2,23.48
18839,0.1782,-0.1451,0.8717,-6.06,7.4,0.0,23.49
18849,0.1742,-0.1488,0.8828,-5.89,8.09,0.0,23.48
18859,0.1821,-0.1466,0.8851,-5.76,8.41,-0.02,23.49
18869,0.1799,-0.1464,0.8818,-6.08,8.11,0.03,23.49
18879,0.1783,-0.1503,0.887,-6.34,7.77,0.03,23.48
18889,0.1769,-0.1472,0.8868,-6.49,7.63,-0.06,23.5
18899,0.179,-0.149,0.8812,-6.6,7.59,-0.06,23.47
18909,0.1807,-0.1503,0.8774,-6.49,7.39,-0.03,23.47
18919,0.177,-0.1508,0.8757,-6.43,7.53,-0.06,23.5
18929,0.1759,-0.1509,0.8782,-6.24,7.8,-0.12,23.49
18939,0.1802,-0.1501,0.8773,-5.98,7.69,-0.06,23.5
18949,0.182,-0.1506,0.8777,-5.94,7.63,0.03,23.5
18959,0.1813,-0.149,0.8798,-6.08,8.32,0.02,23.49
18969,0.1802,-0.1498,0.8792,-6.29,8.84,-0.08,23.51
18979,0.181,-0.1548,0.8828,-6.34,8.53,-0.08,23.45
18989,0.1791,-0.1553,0.8771,-6.21,8.08,-0.05,23.47
18999,0.1818,-0.1541,0.8853,-6.35,8.09,0.03,23.48
19009,0.176,-0.1537,0.8817,-6.56,8.23,-0.02,23.49
19019,0.1777,-0.1519,0.8794,-6.73,7.82,-0.12,23.49
19029,0.1736,-0.151,0.8818,-6.67,7.56,-0.21,23.48
19039,0.1781,-0.1476,0.88,-6.63,7.5,-0.11,23.47
19049,0.1777,-0.1495,0.8717,-6.35,7.59,-0.11,23.48
19059,0.184,-0.1503,0.8706,-6.08,7.69,-0.17,23.49
19069,0.179,-0.1461,0.8738,-5.91,8.14,0.02,23.46
19079,0.1774,-0.1456,0.8824,-5.88,8.46,-0.06,23.49
19089,0.1804,-0.1442,0.8817,-5.8,8.4,-0.06,23.49
19099,0.175,-0.1454,0.8875,-5.89,8.14,-0.08,23.49
19109,0.1761,-0.149,0.8842,-6.29,8.05,-0.15,23.47
19119,0.1765,-0.1498,0.8839,-6.44,7.8,-0.12,23.49
19129,0.1794,-0.1469,0.8787,-6.5,7.65,-0.11,23.48
19139,0.1807,-0.1493,0.8763,-6.52,7.76,-0.12,23.48
19149,0.1776,-0.1534,0.8739,-6.31,7.56,-0.05,23.48
19159,0.1786,-0.1538,0.8749,-5.79,7.37,-0.06,23.49
19169,0.1768,-0.1478,0.8748,-5.6,7.25,-0.02,23.48
19179,0.1761,-0.1472,0.8822,-5.71,7.59,0.05,23.46
19189,0.1792,-0.1447,0.8828,-5.94,7.89,0.05,23.48
19199,0.179,-0.1464,0.8813,-6.2,8.09,0.03,23.48
19209,0.1768,-0.1477,0.8821,-6.35,7.95,-0.12,23.45
19219,0.1763,-0.1479,0.88,-6.4,7.8,-0.03,23.48
19229,0.1783,-0.1471,0.877,-6.38,7.69,-0.08,23.5
19239,0.1799,-0.1501,0.874,-6.44,7.59,-0.08,23.48
19249,0.1783,-0.1528,0.8741,-6.31,7.76,-0.06,23.48
19259,0.1832,-0.1541,0.882,-6.05,7.85,0.02,23.5
19269,0.1793,-0.1525,0.8781,-5.97,7.79,0.0,23.48
19279,0.1801,-0.1487,0.881,-5.88,7.68,0.05,23.5
19289,0.1775,-0.1492,0.8824,-5.88,7.63,0.02,23.49
19299,0.1813,-0.1501,0.8806,-5.94,7.62,0.02,23.48
19309,0.1794,-0.1483,0.8773,-6.06,7.6,-0.05,23.47
19319,0.1813,-0.1493,0.8793,-6.02,7.77,0.0,23.47
19329,0.1805,-0.149,0.8848,-6.15,7.94,0.06,23.49
19339,0.1777,-0.1471,0.8789,-5.94,7.92,0.05,23.47
19349,0.177,-0.1467,0.8785,-5.97,7.62,0.0,23.49
19359,0.1776,-0.1462,0.8793,-5.97,7.63,0.0,23.49
19369,0.1743,-0.1478,0.8839,-6.11,7.82,0.02,23.49
19379,0.178,-0.1512,0.882,-6.31,8.03,-0.02,23.5
19389,0.1798,-0.1542,0.8789,-6.26,7.94,-0.02,23.52
19399,0.1761,-0.1536,0.8816,-6.11,7.76,-0.14,23.51
19409,0.176,-0.1544,0.8844,-5.95,7.77,-0.12,23.5
19419,0.1782,-0.1458,0.8794,-6.09,7.63,-0.2,23.49
19429,0.1832,-0.1471,0.8761,-6.0,7.48,-0.14,23.47
19439,0.179,-0.1475,0.8777,-6.2,7.85,-0.09,23.47
19449,0.179,-0.1494,0.8771,-6.37,8.29,-0.06,23.49
19459,0.1807,-0.1531,0.8792,-6.24,8.23,-0.08,23.51
19469,0.1766,-0.1543,0.8794,-6.29,7.65,-0.05,23.49
19479,0.1814,-0.1533,0.8817,-6.31,7.54,-0.14,23.48
19489,0.1812,-0.1517,0.8767,-6.37,7.68,-0.21,23.47
19499,0.1805,-0.1472,0.8811,-6.31,7.65,-0.12,23.49
19511,0.1771,-0.1486,0.8781,-6.09,7.91,-0.09,23.49
19521,0.1752,-0.1433,0.8785,-5.94,7.85,-0.02,23.49
19531,0.1757,-0.1445,0.8806,-6.05,7.94,-0.03,23.49
19541,0.1771,-0.145,0.8804,-6.09,8.09,-0.14,23.5
19551,0.1753,-0.1488,0.8801,-6.24,8.2,-0.02,23.47
19561,0.1764,-0.1498,0.8805,-6.4,8.17,-0.08,23.51
19571,0.1808,-0.1509,0.8854,-6.24,7.83,-0.05,23.49
19581,0.1797,-0.1505,0.8796,-6.17,7.54,-0.08,23.49
19591,0.1787,-0.1487,0.877,-6.02,7.5,-0.08,23.48
19601,0.178,-0.1481,0.8746,-5.95,7.6,-0.03,23.47
19611,0.1852,-0.1467,0.8796,-5.95,7.85,-0.03,23.5
19622,0.1824,-0.15,0.8788,-6.02,8.27,0.02,23.5
19632,0.1752,-0.1514,0.8837,-6.15,8.21,-0.03,23.49
19642,0.1746,-0.1543,0.8835,-6.34,7.79,-0.03,23.48
19652,0.177,-0.1509,0.8865,-6.52,7.36,-0.11,23.49
19662,0.1792,-0.1494,0.8782,-6.6,7.15,-0.14,23.49
19672,0.1794,-0.1512,0.8756,-6.52,7.45,-0.15,23.49
19682,0.1788,-0.1511,0.8773,-6.26,7.82,-0.03,23.51
19692,0.1791,-0.1492,0.8752,-5.79,7.92,-0.02,23.51
19702,0.1763,-0.1466,0.8756,-5.65,7.91,-0.02,23.47
19712,0.1775,-0.15,0.8823,-5.68,8.02,0.0,23.51
19722,0.1749,-0.1477,0.8849,-5.98,8.03,-0.05,23.48
19732,0.173,-0.1483,0.8815,-6.35,7.71,-0.08,23.49
19742,0.1755,-0.1532,0.8833,-6.44,7.3,-0.11,23.47
19752,0.1714,-0.1495,0.8838,-6.34,7.65,-0.08,23.49
19762,0.1755,-0.1484,0.882,-6.11,7.74,-0.06,23.51
19772,0.1842,-0.1492,0.8722,-5.95,7.5,-0.05,23.49
19782,0.1801,-0.1473,0.8766,-5.71,7.63,-0.05,23.49
19792,0.1766,-0.1431,0.8827,-5.62,7.79,0.02,23.49
19802,0.1796,-0.145,0.8844,-5.74,7.85,0.05,23.49
19812,0.1804,-0.1459,0.8838,-6.17,7.85,-0.06,23.48
19822,0.1761,-0.1505,0.8838,-6.24,7.74,-0.06,23.49
19832,0.1735,-0.1504,0.8787,-6.37,7.97,-0.02,23.49
19842,0.1775,-0.1508,0.8745,-6.31,7.44,-0.06,23.48
19852,0.179,-0.1475,0.8776,-6.11,7.4,-0.05,23.49
19862,0.1782,-0.1476,0.8776,-6.05,7.62,0.09,23.49
19872,0.181,-0.151,0.8776,-5.95,7.63,0.08,23.49
19882,0.1823,-0.1505,0.8843,-6.21,7.92,0.14,23.51
19892,0.1752,-0.1504,0.8833,-6.38,8.0,0.08,23.49
19902,0.175,-0.1469,0.8809,-6.31,7.86,0.14,23.48
19912,0.178,-0.1503,0.8789,-6.37,7.63,0.24,23.47
19922,0.183,-0.151,0.882,-6.4,7.54,0.35,23.47
19932,0.1788,-0.1489,0.8771,-6.2,7.62,0.6,23.48
19942,0.1793,-0.1477,0.8875,-6.11,7.86,0.78,23.49
19952,0.1764,-0.1486,0.882,-6.21,7.76,0.95,23.46
19962,0.1727,-0.1438,0.8883,-6.6,7.92,0.72,23.5
19972,0.1741,-0.1438,0.8855,-6.67,7.65,0.34,23.5
19982,0.1731,-0.1498,0.8838,-6.73,6.93,-0.06,23.49
19992,0.1768,-0.1514,0.8787,-6.93,7.57,-0.15,23.47
20002,0.1798,-0.1512,0.8763,-6.76,7.86,-0.08,23.48
20012,0.1837,-0.1552,0.8702,-6.47,7.85,0.03,23.51
20022,0.1821,-0.1547,0.8749,-5.95,8.05,0.06,23.53
20032,0.174,-0.1545,0.8784,-5.63,8.14,0.09,23.49
20042,0.1771,-0.1506,0.8834,-5.6,7.8,-0.06,23.48
20052,0.1825,-0.15,0.8861,-5.88,7.76,-0.08,23.5
20062,0.1782,-0.1514,0.8815,-6.49,8.26,-0.12,23.49
20072,0.1786,-0.1534,0.8807,-6.76,8.4,-0.12,23.51
20082,0.1765,-0.1528,0.8768,-6.66,8.49,-0.03,23.5
20092,0.1816,-0.1558,0.8741,-6.41,8.15,-0.06,23.49
20102,0.1776,-0.15,0.8785,-6.29,8.09,-0.05,23.51
20112,0.1754,-0.1501,0.8826,-6.12,8.05,-0.06,23.5
20122,0.1765,-0.1477,0.8851,-6.27,8.08,-0.09,23.49
20132,0.1787,-0.1501,0.8851,-6.29,7.74,-0.2,23.49
20142,0.176,-0.147,0.8817,-6.2,7.45,-0.17,23.5
20152,0.178,-0.1482,0.8793,-6.2,7.59,-0.17,23.5
20162,0.1803,-0.1479,0.8732,-6.15,7.63,-0.14,23.49
20172,0.1816,-0.1479,0.8745,-5.92,7.57,-0.06,23.5
20182,0.1763,-0.1517,0.8805,-5.94,7.86,0.05,23.49
20192,0.175,-0.1503,0.8809,-5.74,8.12,0.06,23.49
20202,0.1799,-0.1472,0.8795,-5.76,7.68,0.08,23.49
20212,0.1796,-0.151,0.8804,-5.63,7.07,0.08,23.51
20222,0.1782,-0.1492,0.8824,-5.63,7.11,0.34,23.48
20233,0.1849,-0.1749,0.8862,-6.17,7.54,0.76,23.48
20243,0.1852,-0.2156,0.9093,-8.21,9.88,0.31,23.5
20253,0.1565,-0.1576,0.8813,-9.08,10.55,-1.1,23.49
20263,0.1622,-0.1459,0.8882,-8.26,8.0,-1.69,23.51
20273,0.1805,-0.1177,0.8666,-7.95,6.14,-2.29,23.49
20283,0.1815,-0.1338,0.8755,-8.05,8.15,-2.43,23.5
20293,0.1909,-0.1604,0.8696,-7.94,10.0,-1.86,23.51
20303,0.1859,-0.1466,0.8688,-6.95,9.31,-0.38,23.5
20313,0.178,-0.1559,0.8805,-6.26,7.69,0.78,23.5
20323,0.1724,-0.1531,0.8862,-6.64,8.81,0.35,23.49
20333,0.1676,-0.135,0.8873,-7.01,8.38,-0.2,23.52
20343,0.1719,-0.1345,0.8792,-7.1,6.6,-0.53,23.51
20353,0.175,-0.1371,0.8778,-7.11,6.29,-0.76,23.49
20363,0.1868,-0.1503,0.8729,-7.01,6.93,-0.56,23.51
20373,0.1825,-0.1533,0.8644,-6.49,7.47,-0.08,23.51
20383,0.1759,-0.1514,0.8707,-5.57,7.44,0.02,23.51
20393,0.1733,-0.1506,0.8802,-4.75,7.47,-0.05,23.51
20403,0.1779,-0.1486,0.8827,-4.79,7.45,-0.08,23.52
20413,0.1815,-0.1478,0.8904,-5.3,7.42,-0.05,23.49
20423,0.1744,-0.1469,0.8848,-5.92,7.31,-0.09,23.51
20433,0.1776,-0.1481,0.8829,-6.49,7.45,-0.17,23.5
20443,0.1791,-0.1522,0.8745,-6.56,7.86,-0.14,23.5
20453,0.1841,-0.1514,0.8662,-6.4,8.14,-0.08,23.48
20463,0.1797,-0.1558,0.8702,-5.98,8.6,-0.05,23.49
20473,0.1759,-0.1526,0.8793,-5.48,8.4,0.08,23.5
20483,0.1754,-0.1517,0.8854,-5.33,8.02,-0.03,23.49
20493,0.1749,-0.1511,0.8859,-5.65,7.59,-0.03,23.49
20503,0.1781,-0.1495,0.89,-6.08,7.48,-0.12,23.49
20513,0.1779,-0.1482,0.885,-6.52,7.44,-0.12,23.49
20523,0.1801,-0.1523,0.8796,-6.72,7.5,-0.12,23.5
20533,0.1807,-0.1523,0.8727,-6.63,7.5,-0.15,23.51
20543,0.1824,-0.15,0.8684,-6.52,7.6,-0.06,23.5
20553,0.1798,-0.1515,0.8773,-6.31,7.83,0.0,23.48
20563,0.179,-0.1508,0.8805,-6.2,7.86,-0.03,23.48
20573,0.1757,-0.1503,0.8802,-6.0,7.66,-0.06,23.48
20583,0.1763,-0.1497,0.8837,-5.97,7.51,-0.06,23.49
20593,0.1766,-0.1504,0.8805,-6.0,7.45,-0.09,23.52
20603,0.1813,-0.1543,0.8842,-6.17,7.79,-0.09,23.5
20613,0.1855,-0.1559,0.8777,-6.29,8.26,-0.03,23.49
20623,0.1786,-0.1533,0.8792,-6.11,8.38,-0.03,23.5
20633,0.1746,-0.1571,0.8798,-5.92,8.14,0.0,23.5
20643,0.1749,-0.1562,0.88,-5.74,7.69,-0.12,23.49
20653,0.1791,-0.153,0.8781,-5.82,7.48,0.02,23.49
20663,0.1766,-0.1564,0.8789,-5.92,7.45,0.0,23.49
20673,0.1794,-0.1573,0.8782,-6.0,7.51,-0.11,23.51
20683,0.1797,-0.1541,0.8784,-5.91,7.6,-0.11,23.49
20693,0.1797,-0.1527,0.8827,-5.77,7.65,-0.02,23.5
20703,0.1803,-0.1511,0.8804,-5.71,7.76,-0.06,23.49
20713,0.1797,-0.1501,0.8783,-5.79,7.86,-0.12,23.5
20723,0.1774,-0.1478,0.8872,-5.92,7.95,-0.2,23.51
20733,0.1764,-0.1498,0.8827,-6.03,7.98,-0.17,23.52
20743,0.1788,-0.1512,0.8755,-6.06,7.66,-0.14,23.5
20753,0.1754,-0.1479,0.8759,-6.15,7.54,-0.15,23.5
20763,0.1727,-0.1493,0.881,-5.91,7.68,-0.03,23.51
20773,0.1794,-0.1478,0.8768,-5.79,7.68,-0.15,23.5
20783,0.1807,-0.1478,0.8767,-5.45,7.51,-0.09,23.52
20793,0.1748,-0.1481,0.8799,-5.45,7.45,-0.05,23.49
20803,0.1735,-0.1466,0.8871,-5.4,7.69,0.0,23.5
20813,0.1768,-0.1443,0.8853,-5.48,7.54,-0.08,23.5
20823,0.1793,-0.1454,0.8859,-6.05,7.39,-0.06,23.49
20833,0.1807,-0.1469,0.8833,-6.52,7.65,-0.05,23.49
20843,0.176,-0.1501,0.884,-6.69,8.29,-0.08,23.51
20854,0.1775,-0.1516,0.8805,-6.58,8.32,-0.05,23.52
20864,0.1804,-0.1515,0.8746,-6.32,8.0,0.05,23.53
20874,0.1826,-0.1517,0.8757,-6.26,7.71,-0.06,23.51
20884,0.1761,-0.1532,0.8795,-6.23,8.12,-0.02,23.5
20894,0.1766,-0.1531,0.8783,-6.08,8.35,-0.03,23.49
20904,0.1802,-0.1547,0.8715,-5.89,7.57,-0.02,23.51
20914,0.1808,-0.1539,0.8772,-5.86,7.44,-0.03,23.51
20924,0.1783,-0.1578,0.8834,-5.88,7.85,-0.08,23.5
20934,0.1758,-0.1548,0.8842,-5.94,8.02,-0.11,23.52
20945,0.1757,-0.1548,0.881,-5.76,7.68,-0.03,23.49
20955,0.1797,-0.1523,0.8772,-5.6,7.28,-0.21,23.5
20965,0.1775,-0.1493,0.879,-5.86,7.27,-0.17,23.51
20975,0.1779,-0.1473,0.8789,-6.03,7.62,-0.21,23.5
20985,0.1793,-0.1458,0.8798,-6.05,7.65,-0.11,23.49
20995,0.179,-0.1497,0.8766,-5.88,7.34,-0.17,23.5
21005,0.1757,-0.1542,0.8765,-5.8,6.98,-0.23,23.5
21015,0.1742,-0.1536,0.8774,-5.74,7.16,-0.2,23.52
21025,0.1758,-0.1525,0.8829,-5.86,8.03,-0.18,23.52
21035,0.1853,-0.1482,0.8745,-6.0,7.57,-0.09,23.53
21045,0.1825,-0.1459,0.8749,-5.95,6.96,-0.06,23.52
21055,0.1788,-0.1514,0.8811,-6.03,7.77,-0.06,23.52
21065,0.1859,-0.1508,0.8737,-6.08,7.92,-0.06,23.51
21075,0.1836,-0.1517,0.8728,-6.08,7.48,0.08,23.53
21085,0.1746,-0.1484,0.8823,-5.86,7.83,-0.08,23.51
21095,0.1704,-0.1505,0.8835,-5.89,8.75,-0.03,23.52
21105,0.1754,-0.1483,0.8745,-5.91,8.4,-0.08,23.52
21115,0.1777,-0.1439,0.882,-5.95,7.42,-0.09,23.5
21125,0.1715,-0.145,0.8855,-6.14,7.4,-0.14,23.52
21135,0.1746,-0.1449,0.8815,-6.32,7.3,-0.24,23.52
21145,0.1864,-0.1495,0.8762,-6.32,6.84,-0.32,23.54
21155,0.1896,-0.1495,0.8718,-6.38,7.08,-0.21,23.52
21165,0.1819,-0.1521,0.8757,-6.46,8.11,-0.15,23.49
21175,0.1768,-0.1521,0.8801,-6.06,8.5,0.0,23.51
21185,0.1741,-0.153,0.8809,-5.85,7.73,-0.06,23.53
21195,0.1804,-0.1514,0.8816,-5.8,7.07,-0.15,23.52
21205,0.1783,-0.1528,0.8844,-6.03,7.07,-0.11,23.51
21215,0.1826,-0.1503,0.88,-6.44,7.74,-0.09,23.5
21225,0.183,-0.1508,0.8722,-6.53,8.11,-0.06,23.52
21235,0.1825,-0.1532,0.8699,-6.35,8.17,-0.09,23.5
21245,0.1769,-0.1534,0.8759,-6.0,8.29,-0.05,23.49
21255,0.1769,-0.152,0.8817,-5.94,8.14,-0.02,23.51
21265,0.1818,-0.1508,0.8816,-5.95,7.69,-0.05,23.52
21275,0.1805,-0.1501,0.8829,-6.08,7.48,-0.18,23.52
21285,0.1813,-0.1488,0.8843,-6.5,7.82,-0.17,23.51
21295,0.177,-0.1467,0.8795,-6.7,8.23,-0.15,23.51
21305,0.1792,-0.1505,0.8749,-6.7,8.29,-0.08,23.52
21315,0.1792,-0.1488,0.8773,-6.72,8.05,-0.05,23.51
21325,0.1737,-0.1536,0.8809,-6.44,8.06,-0.14,23.47
21335,0.1783,-0.1511,0.8805,-6.29,8.0,-0.09,23.5
21345,0.1844,-0.1488,0.8776,-6.14,7.73,-0.11,23.5
21355,0.1814,-0.1493,0.8765,-6.2,7.83,-0.12,23.5
21365,0.1763,-0.1479,0.8821,-6.12,7.98,-0.08,23.52
21375,0.1731,-0.1494,0.8834,-6.09,8.17,0.0,23.5
21385,0.1799,-0.1464,0.8796,-6.15,7.86,0.03,23.51
21395,0.1796,-0.146,0.8821,-6.21,7.59,-0.09,23.54
21405,0.1761,-0.1442,0.8822,-6.52,7.92,0.02,23.52
21415,0.1783,-0.1489,0.8792,-6.67,8.17,-0.03,23.49
21425,0.1776,-0.1475,0.8749,-6.69,8.02,0.0,23.51
21435,0.1763,-0.1503,0.875,-6.56,7.91,-0.06,23.51
21445,0.1764,-0.1499,0.8748,-6.35,7.94,-0.05,23.52
21455,0.1797,-0.1499,0.8781,-6.06,7.89,-0.03,23.52
21466,0.1792,-0.1482,0.8751,-6.0,8.02,0.0,23.52
21476,0.1797,-0.1503,0.8807,-6.27,7.92,0.0,23.52
21486,0.1785,-0.1492,0.8833,-6.52,8.11,0.0,23.53
21496,0.1777,-0.1552,0.8813,-6.63,8.29,0.02,23.53
21506,0.1777,-0.1534,0.8796,-6.63,8.03,-0.18,23.49
21516,0.1786,-0.1556,0.8768,-6.49,7.59,-0.15,23.51
21526,0.1788,-0.1556,0.8828,-6.24,7.69,-0.06,23.5
21536,0.1753,-0.1554,0.8794,-6.2,8.03,-0.09,23.52
21546,0.1794,-0.152,0.8749,-6.08,7.91,0.02,23.52
21557,0.1826,-0.1487,0.8778,-5.94,7.74,-0.09,23.52
21567,0.1754,-0.1487,0.8785,-6.08,7.77,-0.2,23.52
21577,0.1747,-0.1504,0.8833,-6.29,7.85,-0.14,23.52
21587,0.1826,-0.1484,0.8759,-6.38,7.82,-0.06,23.53
21597,0.1722,-0.1444,0.9215,-8.11,8.11,-0.37,23.51
21607,0.1564,-0.1493,0.9022,-9.54,9.63,-0.46,23.52
21617,0.1935,-0.1605,0.847,-8.96,6.0,-0.73,23.48
21627,0.1886,-0.1595,0.8167,-5.95,4.23,-0.31,23.52
21637,0.1796,-0.1541,0.8536,-3.62,7.89,-0.08,23.52
21647,0.1849,-0.1495,0.8693,-2.7,10.69,0.64,23.52
21657,0.1783,-0.1486,0.8889,-2.69,9.66,0.58,23.49
21667,0.1627,-0.15,0.9083,-3.45,7.71,0.38,23.55
21677,0.1636,-0.1443,0.9203,-4.81,6.64,-0.08,23.52
21687,0.1821,-0.1389,0.9045,-6.82,6.14,-0.31,23.51
21697,0.1891,-0.144,0.8862,-8.56,6.37,-0.4,23.53
21707,0.1802,-0.1504,0.8667,-8.64,7.33,-0.46,23.55
21717,0.1775,-0.1511,0.8558,-7.34,8.26,-0.14,23.5
21727,0.1849,-0.1549,0.8534,-5.85,8.41,0.03,23.53
21737,0.1829,-0.1534,0.871,-4.84,8.64,0.23,23.52
21747,0.1711,-0.1498,0.8917,-4.84,8.76,0.2,23.52
21757,0.1775,-0.1512,0.897,-5.6,8.21,0.0,23.52
21767,0.1748,-0.1505,0.9004,-6.79,7.45,-0.2,23.5
21777,0.1736,-0.1493,0.8871,-7.53,6.9,-0.29,23.52
21787,0.1794,-0.1517,0.8676,-7.6,7.07,-0.31,23.52
21797,0.1864,-0.153,0.8627,-6.96,7.62,-0.2,23.51
21807,0.1832,-0.1564,0.8622,-6.18,8.26,-0.08,23.52
21817,0.1754,-0.1541,0.8679,-5.56,8.61,0.06,23.52
21827,0.1754,-0.1545,0.8832,-5.08,8.47,0.0,23.54
21837,0.1766,-0.1509,0.8955,-5.51,7.83,-0.05,23.53
21847,0.1752,-0.1519,0.8956,-6.11,6.73,-0.14,23.54
21857,0.175,-0.1497,0.8938,-6.82,7.44,-0.24,23.52
21867,0.1876,-0.1495,0.8724,-7.16,7.56,-0.26,23.51
21877,0.1863,-0.1505,0.8636,-6.93,7.44,-0.12,23.53
21887,0.1752,-0.1523,0.873,-6.35,8.44,-0.05,23.52
21897,0.1763,-0.1522,0.8787,-5.86,9.18,0.06,23.52
21907,0.1805,-0.1499,0.8785,-5.47,8.26,0.03,23.53
21917,0.1771,-0.1481,0.8848,-5.68,7.53,-0.05,23.51
21927,0.1726,-0.1461,0.8915,-6.0,7.54,0.0,23.53
21937,0.1774,-0.1464,0.8864,-6.56,7.82,-0.11,23.52
21947,0.1802,-0.1498,0.87,-6.67,7.66,-0.09,23.51
21957,0.1785,-0.1486,0.8745,-6.49,7.8,-0.05,23.5
21967,0.1741,-0.1523,0.8756,-6.11,8.12,0.09,23.52
21977,0.1771,-0.1536,0.8749,-5.89,7.89,-0.02,23.5
21987,0.1783,-0.1505,0.8811,-5.86,7.6,0.06,23.55
21997,0.1794,-0.1495,0.8827,-6.08,7.42,-0.08,23.51
22007,0.1783,-0.1493,0.8831,-6.32,7.56,-0.06,23.5
22017,0.1744,-0.1547,0.8777,-6.46,7.69,-0.11,23.51
22027,0.1803,-0.1587,0.87,-6.24,7.56,-0.09,23.52
22037,0.1812,-0.1552,0.8732,-6.24,7.63,-0.03,23.52
22047,0.1764,-0.1556,0.8771,-6.06,8.11,-0.02,23.52
22057,0.1782,-0.156,0.8773,-6.06,8.29,-0.06,23.53
22067,0.1788,-0.1536,0.8755,-6.11,7.83,-0.03,23.52
22077,0.178,-0.152,0.8812,-6.12,7.66,-0.09,23.52
22087,0.1804,-0.1511,0.8806,-6.27,7.74,-0.08,23.51
22097,0.1794,-0.1521,0.8816,-6.32,7.95,-0.12,23.52
22107,0.1802,-0.1541,0.8766,-6.21,7.82,-0.14,23.52
22117,0.1768,-0.1536,0.8741,-5.94,7.85,-0.11,23.53
22127,0.172,-0.1504,0.8777,-5.74,7.73,-0.12,23.53
22137,0.1783,-0.1497,0.8806,-5.63,7.68,-0.02,23.53
22147,0.1782,-0.1464,0.8805,-5.76,7.44,-0.05,23.53
22157,0.1792,-0.1439,0.8866,-6.03,7.42,-0.11,23.52
22167,0.1771,-0.1456,0.8846,-6.12,7.59,-0.2,23.53
22177,0.1796,-0.1476,0.8806,-6.21,7.8,-0.06,23.55
22187,0.1801,-0.1465,0.8748,-6.24,7.85,-0.05,23.54
22197,0.1779,-0.1515,0.8815,-5.98,7.83,0.02,23.55
22207,0.1766,-0.153,0.8778,-5.83,7.83,-0.03,23.52
22217,0.1749,-0.1497,0.8816,-5.83,7.66,0.0,23.52
22227,0.1754,-0.1526,0.8798,-5.82,7.47,-0.08,23.54
22237,0.1797,-0.1501,0.8828,-5.85,7.25,-0.06,23.55
22247,0.1779,-0.1517,0.8815,-5.92,7.31,-0.05,23.51
22257,0.1797,-0.1473,0.8788,-6.0,7.4,-0.06,23.54
22267,0.1831,-0.1466,0.8779,-5.98,7.51,-0.08,23.55
22277,0.1794,-0.1492,0.8829,-5.94,7.77,-0.02,23.55
22287,0.1753,-0.1499,0.8796,-5.91,7.88,0.08,23.53
22297,0.1768,-0.1561,0.8779,-5.85,7.82,-0.02,23.51
22307,0.1777,-0.151,0.8762,-5.8,7.47,-0.05,23.53
22317,0.1785,-0.1521,0.8784,-5.89,7.3,-0.12,23.53
22327,0.1768,-0.1525,0.8783,-5.91,7.44,-0.11,23.5
22337,0.1801,-0.1501,0.879,-6.09,7.57,-0.11,23.52
22347,0.178,-0.1631,0.8773,-6.32,7.89,-0.09,23.52
22357,0.1722,-0.1547,0.8781,-6.37,8.08,-0.09,23.5
22367,0.193,-0.1575,0.8735,-5.54,7.27,-0.08,23.53
22378,0.1835,-0.1427,0.8668,-5.3,7.98,0.17,23.52
22388,0.1753,-0.1489,0.885,-6.18,7.68,-0.17,23.54
22398,0.1628,-0.1453,0.8752,-5.65,7.82,0.03,23.49
22408,0.1853,-0.1406,0.8898,-5.57,7.07,-0.15,23.52
22418,0.1864,-0.1409,0.8754,-5.88,7.56,-0.09,23.52
22428,0.1738,-0.1462,0.8904,-6.4,8.15,-0.03,23.54
22438,0.1671,-0.1469,0.8816,-6.63,7.47,-0.2,23.53
22448,0.1775,-0.1475,0.8784,-5.94,6.84,-0.24,23.53
22458,0.1876,-0.145,0.8749,-5.48,6.31,-0.12,23.52
22468,0.1851,-0.1425,0.8757,-5.82,7.65,-0.05,23.52
22478,0.1823,-0.1558,0.8831,-6.17,8.76,-0.06,23.53
22488,0.1766,-0.1528,0.8795,-6.09,8.18,0.06,23.51
22498,0.1826,-0.1562,0.8831,-5.82,7.4,0.06,23.52
22508,0.1782,-0.1528,0.8835,-6.08,7.47,-0.02,23.54
22518,0.1776,-0.1539,0.8828,-6.49,7.91,-0.02,23.52
22528,0.1798,-0.157,0.8816,-6.53,7.62,-0.09,23.5
22538,0.1798,-0.1465,0.8708,-6.05,7.3,-0.02,23.51
22548,0.1859,-0.1428,0.8765,-5.66,7.59,0.05,23.55
22558,0.182,-0.1447,0.8805,-5.79,8.31,0.08,23.53
22568,0.1776,-0.1479,0.8816,-5.94,8.52,0.12,23.53
22578,0.1747,-0.1483,0.8856,-6.08,8.06,-0.05,23.53
22588,0.1772,-0.1508,0.8864,-6.17,7.65,-0.02,23.52
22598,0.1781,-0.1495,0.8833,-6.31,7.66,-0.12,23.52
22608,0.1772,-0.1538,0.8739,-6.63,7.48,-0.26,23.52
22618,0.1818,-0.1517,0.8739,-6.35,7.36,-0.2,23.5
22628,0.1838,-0.1508,0.8729,-5.91,7.53,-0.08,23.53
22638,0.1838,-0.1531,0.8773,-5.73,7.91,-0.12,23.52
22648,0.1776,-0.1504,0.8811,-5.71,8.2,0.06,23.52
22658,0.1781,-0.1503,0.8818,-5.85,7.92,0.12,23.53
22668,0.1781,-0.1495,0.885,-5.94,7.54,-0.02,23.51
22679,0.1836,-0.151,0.882,-6.12,7.5,-0.02,23.52
22690,0.1819,-0.1477,0.8781,-6.44,7.8,-0.02,23.52
22700,0.1788,-0.1465,0.8738,-6.26,7.95,-0.05,23.53
22710,0.179,-0.1497,0.8726,-6.03,7.82,-0.08,23.52
22720,0.178,-0.1464,0.8761,-5.65,7.92,-0.03,23.52
22730,0.1775,-0.1432,0.8853,-5.65,8.02,-0.06,23.52
22740,0.1776,-0.1484,0.8842,-6.0,7.91,0.0,23.53
22750,0.1771,-0.1492,0.8835,-6.31,7.69,-0.09,23.53
22760,0.179,-0.1499,0.88,-6.35,7.73,-0.11,23.54
22770,0.1825,-0.1484,0.8741,-6.38,7.31,-0.11,23.53
22781,0.1815,-0.1537,0.8724,-6.27,7.5,-0.06,23.52
22791,0.177,-0.1549,0.8779,-6.08,7.83,-0.15,23.52
22801,0.1785,-0.1525,0.8771,-5.94,8.38,0.0,23.52
22811,0.1808,-0.1525,0.8757,-5.95,7.92,0.0,23.52
22821,0.1786,-0.1523,0.8811,-5.85,7.65,-0.03,23.52
22831,0.179,-0.1522,0.8859,-5.94,7.68,-0.08,23.53
22841,0.181,-0.149,0.8787,-6.18,7.71,-0.03,23.49
22851,0.1835,-0.1483,0.8696,-6.18,7.71,-0.06,23.54
22861,0.1796,-0.1503,0.8761,-6.02,7.85,-0.06,23.54
22871,0.1775,-0.1486,0.8779,-5.91,7.94,-0.03,23.56
22881,0.178,-0.147,0.8795,-5.85,7.76,-0.09,23.51
22891,0.1825,-0.1506,0.8815,-5.86,7.37,-0.12,23.54
22901,0.1769,-0.1471,0.887,-6.03,7.42,-0.11,23.54
22911,0.1808,-0.1493,0.8834,-6.21,7.57,-0.21,23.54
22921,0.1775,-0.1503,0.8822,-6.17,7.71,-0.18,23.52
22931,0.1826,-0.1492,0.8754,-6.15,7.6,-0.15,23.52
22941,0.1794,-0.1527,0.8755,-6.03,7.83,0.0,23.52
22951,0.1787,-0.151,0.8821,-5.94,8.27,0.02,23.54
22961,0.1769,-0.1506,0.8796,-5.91,8.14,0.03,23.52
22971,0.1755,-0.1497,0.8782,-5.71,7.48,-0.08,23.51
22981,0.182,-0.1383,0.8848,-5.86,7.27,-0.09,23.52
22991,0.1639,-0.1469,0.884,-6.14,7.21,-0.09,23.56
23001,0.1809,-0.1489,0.8892,-6.03,8.79,0.0,23.52
23011,0.1841,-0.142,0.8658,-6.31,7.97,-0.03,23.53
23021,0.1874,-0.1555,0.8749,-6.43,7.71,-0.09,23.52
23031,0.1735,-0.1572,0.8815,-6.24,7.8,-0.14,23.54
23041,0.1779,-0.1453,0.8792,-5.94,7.94,0.02,23.54
23051,0.1879,-0.1465,0.8809,-6.17,7.08,-0.26,23.55
23061,0.1792,-0.1506,0.8773,-6.35,7.77,-0.14,23.53
23071,0.1782,-0.1467,0.8839,-6.31,8.2,-0.09,23.55
23081,0.1803,-0.1473,0.8777,-6.11,7.69,-0.18,23.52
23091,0.1846,-0.1486,0.877,-5.83,7.54,-0.11,23.55
23101,0.1808,-0.152,0.877,-5.97,7.98,-0.12,23.55
23111,0.1725,-0.1514,0.8787,-6.03,8.27,0.03,23.54
23121,0.1823,-0.1532,0.8795,-5.85,7.73,-0.08,23.54
23131,0.1832,-0.1504,0.8828,-5.94,7.6,-0.12,23.55
23141,0.1821,-0.1517,0.8822,-6.2,7.98,-0.05,23.55
23151,0.1772,-0.1517,0.8828,-6.4,7.98,-0.02,23.53
23161,0.1825,-0.152,0.8829,-6.4,7.53,-0.11,23.53
23171,0.178,-0.1498,0.8746,-6.38,7.33,-0.24,23.53
23181,0.1824,-0.1479,0.8801,-6.21,7.47,-0.15,23.52
23191,0.1851,-0.146,0.8702,-6.4,7.69,-0.06,23.54
23201,0.1858,-0.1526,0.8698,-6.21,8.03,-0.03,23.55
23211,0.1808,-0.1497,0.8787,-5.98,8.34,0.06,23.54
23221,0.1743,-0.1531,0.8749,-5.57,8.44,0.12,23.52
23231,0.1731,-0.1553,0.8851,-5.65,8.49,0.06,23.53
23241,0.1726,-0.1487,0.8834,-5.89,7.97,0.09,23.53
23251,0.1702,-0.1462,0.884,-5.91,6.92,-0.03,23.55
23261,0.1755,-0.1425,0.8833,-5.68,6.58,-0.05,23.54
23271,0.1829,-0.14,0.8802,-6.11,6.93,-0.15,23.54
23281,0.1819,-0.1433,0.8757,-6.5,7.4,-0.11,23.54
23291,0.1804,-0.1479,0.8749,-6.43,7.69,0.05,23.54
23301,0.1781,-0.1484,0.8812,-6.21,8.02,0.0,23.52
23311,0.1815,-0.1497,0.8787,-6.09,7.95,0.0,23.55
23321,0.1797,-0.1506,0.8739,-6.21,7.65,-0.03,23.52
23331,0.1799,-0.1526,0.8787,-6.18,7.39,-0.09,23.52
23341,0.181,-0.1497,0.8772,-6.08,7.56,-0.09,23.53
23351,0.1835,-0.1498,0.8746,-5.91,7.8,-0.09,23.51
23361,0.1808,-0.1504,0.8763,-5.83,8.05,-0.02,23.48
23371,0.1758,-0.1542,0.8812,-6.06,8.31,0.0,23.53
23381,0.1761,-0.1566,0.884,-6.2,7.98,-0.09,23.51
23391,0.1802,-0.1521,0.8832,-6.08,7.31,-0.14,23.54
23401,0.1832,-0.1533,0.88,-6.17,7.24,-0.09,23.54
23411,0.1814,-0.1565,0.8774,-6.37,7.65,-0.15,23.54
23421,0.1796,-0.1514,0.879,-6.21,7.66,-0.21,23.54
23431,0.1802,-0.1514,0.8744,-5.73,7.39,-0.18,23.54
23441,0.1827,-0.1479,0.8774,-5.44,7.65,-0.17,23.52
23451,0.1785,-0.1415,0.8827,-5.6,8.05,-0.14,23.53
23461,0.1753,-0.1444,0.8845,-5.83,7.92,-0.08,23.51
23471,0.1777,-0.1464,0.8864,-6.02,7.79,-0.18,23.53
23481,0.1826,-0.1472,0.8832,-6.4,7.71,-0.18,23.54
23491,0.1804,-0.15,0.879,-6.53,7.82,-0.14,23.54
23501,0.1775,-0.1473,0.8741,-6.43,7.8,-0.17,23.53
23511,0.1825,-0.1495,0.8718,-6.05,7.53,-0.23,23.56
23521,0.1793,-0.1443,0.8749,-5.69,7.34,-0.03,23.55
23531,0.177,-0.1414,0.8796,-5.59,7.59,-0.05,23.52
23541,0.1752,-0.1423,0.8843,-5.69,7.95,0.08,23.51
23551,0.1786,-0.1458,0.8843,-6.02,7.82,0.05,23.53
23561,0.177,-0.1461,0.8795,-6.14,7.59,-0.03,23.54
23571,0.1766,-0.1478,0.8855,-6.4,7.59,-0.02,23.54
23581,0.1797,-0.1486,0.8792,-6.55,8.03,-0.09,23.54
23591,0.1815,-0.1522,0.8724,-6.5,7.86,-0.06,23.53
23601,0.1832,-0.15,0.8715,-6.12,7.68,-0.06,23.54
23611,0.1815,-0.1521,0.8772,-5.85,7.89,0.0,23.53
23621,0.1812,-0.1489,0.8831,-5.88,8.14,0.06,23.54
23631,0.1805,-0.1482,0.8801,-6.03,8.05,-0.02,23.54
23641,0.1791,-0.1483,0.882,-6.21,7.85,-0.05,23.54
23651,0.1779,-0.1512,0.8844,-6.37,7.73,0.05,23.55
23661,0.1793,-0.1539,0.881,-6.41,7.62,-0.09,23.54
23671,0.1818,-0.156,0.8738,-6.27,7.4,-0.05,23.56
23681,0.1809,-0.1517,0.8707,-6.02,7.37,-0.06,23.56
23691,0.178,-0.1514,0.8767,-5.95,7.6,-0.02,23.56
23701,0.1792,-0.149,0.8809,-5.8,7.74,-0.06,23.56
23711,0.1818,-0.1453,0.88,-5.8,7.62,-0.06,23.54
23721,0.1792,-0.1451,0.8864,-5.88,7.45,-0.09,23.52
23731,0.1772,-0.1458,0.8822,-6.21,7.5,-0.08,23.52
23741,0.1779,-0.1421,0.8826,-6.26,7.56,-0.12,23.53
23751,0.1815,-0.1461,0.8738,-6.24,7.57,-0.11,23.52
23761,0.1798,-0.1461,0.8768,-6.23,7.6,-0.14,23.52
23771,0.1793,-0.1438,0.8792,-6.14,7.82,-0.12,23.56
23781,0.1786,-0.1473,0.8801,-6.23,7.94,-0.14,23.53
23791,0.1818,-0.1479,0.8789,-6.26,7.88,-0.14,23.53
23801,0.1791,-0.1486,0.8839,-6.4,7.86,-0.14,23.54
23811,0.1825,-0.1501,0.8845,-6.61,8.03,-0.15,23.54
23821,0.1794,-0.1443,0.8754,-6.53,8.0,-0.14,23.52
23831,0.1829,-0.1443,0.8789,-6.49,7.77,-0.11,23.54
23841,0.1798,-0.1471,0.8801,-6.38,8.0,-0.12,23.54
23851,0.1833,-0.1488,0.882,-6.38,8.47,-0.09,23.56
23861,0.1792,-0.1487,0.8842,-6.37,8.56,-0.05,23.56
23871,0.1804,-0.15,0.8787,-6.26,8.06,-0.02,23.56
23881,0.1766,-0.1493,0.8837,-6.23,7.69,-0.12,23.55
23891,0.1771,-0.1484,0.8877,-6.37,7.66,-0.06,23.55
23901,0.181,-0.1505,0.8781,-6.46,7.54,-0.18,23.54
23911,0.1808,-0.1526,0.8766,-6.5,7.5,-0.11,23.54
23921,0.178,-0.1544,0.873,-6.34,7.85,-0.17,23.54
23931,0.1833,-0.1577,0.8739,-6.27,7.97,-0.09,23.54
23941,0.1843,-0.1569,0.8756,-6.24,8.03,-0.06,23.52
23951,0.1791,-0.1586,0.8765,-6.31,7.97,-0.18,23.55
23961,0.1782,-0.1506,0.8776,-6.11,7.73,-0.2,23.54
23971,0.1801,-0.1464,0.8829,-5.92,7.33,-0.27,23.55
23981,0.1844,-0.1469,0.8801,-6.14,7.39,-0.17,23.55
23991,0.1818,-0.1443,0.8804,-6.24,7.62,-0.14,23.54
24001,0.1787,-0.1396,0.8794,-6.31,8.05,-0.08,23.52
24012,0.1786,-0.1432,0.8834,-6.31,8.38,-0.09,23.56
24022,0.1768,-0.1444,0.8781,-6.41,8.35,-0.15,23.54
24032,0.1748,-0.1417,0.8832,-6.55,7.85,-0.09,23.52
24042,0.1802,-0.1448,0.8806,-6.4,7.59,-0.14,23.54
24052,0.183,-0.1426,0.8779,-6.34,7.74,-0.18,23.54
24062,0.1792,-0.1418,0.877,-6.21,7.8,-0.12,23.53
24072,0.1837,-0.1467,0.8767,-6.17,7.8,-0.17,23.54
24082,0.1776,-0.1448,0.879,-6.14,8.0,-0.03,23.53
24092,0.1799,-0.1462,0.8805,-6.02,8.17,0.02,23.56
24102,0.1782,-0.1487,0.8842,-6.08,8.0,0.02,23.53
24112,0.1753,-0.1547,0.8829,-6.12,7.66,0.0,23.53
24122,0.1787,-0.1516,0.8866,-6.31,7.39,-0.06,23.54
24132,0.1809,-0.1497,0.8796,-6.34,7.21,-0.09,23.53
24142,0.1818,-0.1512,0.8761,-6.41,7.33,-0.08,23.52
24152,0.1835,-0.1512,0.8713,-6.32,7.92,0.0,23.52
24162,0.1803,-0.1453,0.875,-6.12,8.09,-0.02,23.54
24172,0.1785,-0.1483,0.8768,-6.03,8.09,0.02,23.57
24182,0.1807,-0.1495,0.8856,-5.98,8.21,0.03,23.54
24192,0.1794,-0.1498,0.8849,-6.24,8.32,-0.08,23.54
24202,0.1812,-0.1503,0.8813,-6.47,7.98,-0.08,23.56
24212,0.1747,-0.1532,0.8802,-6.46,7.63,-0.15,23.54
24222,0.1792,-0.1538,0.884,-6.38,7.45,-0.05,23.52
24232,0.1833,-0.1508,0.8776,-6.27,7.56,-0.17,23.53
24242,0.1858,-0.152,0.8757,-6.06,7.66,-0.05,23.57
24252,0.1825,-0.1488,0.8782,-6.05,7.95,-0.06,23.56
24262,0.1779,-0.1489,0.8787,-5.92,8.23,-0.03,23.52
24272,0.1796,-0.1478,0.8822,-6.08,8.23,-0.02,23.53
24282,0.1779,-0.1503,0.8788,-6.24,7.89,-0.02,23.57
24292,0.1766,-0.1517,0.8793,-6.32,7.62,-0.09,23.55
24302,0.1757,-0.1509,0.8799,-6.23,7.5,-0.09,23.55
24312,0.1808,-0.1476,0.8766,-6.09,7.27,-0.06,23.55
24322,0.1813,-0.1447,0.8762,-5.91,7.3,-0.06,23.53
24332,0.1802,-0.1481,0.8796,-5.97,7.71,0.08,23.54
24342,0.1764,-0.1472,0.8821,-5.98,7.88,-0.02,23.54
24352,0.181,-0.1469,0.8824,-6.05,7.95,-0.06,23.54
24362,0.1819,-0.1461,0.8778,-6.21,7.8,0.0,23.57
24372,0.1786,-0.1505,0.8815,-6.34,7.68,-0.08,23.56
24382,0.1796,-0.1511,0.8779,-6.34,7.79,-0.06,23.55
24392,0.1809,-0.1489,0.8774,-6.32,7.85,-0.02,23.54
24402,0.1814,-0.15,0.8756,-6.14,7.89,0.06,23.56
24413,0.1833,-0.1501,0.8813,-5.98,8.03,0.02,23.54
24423,0.1801,-0.1461,0.8804,-6.02,7.92,0.0,23.54
24433,0.1799,-0.1459,0.8823,-5.94,7.8,-0.02,23.56
24443,0.1794,-0.1483,0.8823,-6.11,7.59,-0.08,23.55
24453,0.1809,-0.1515,0.8811,-6.24,7.57,-0.03,23.53
24463,0.184,-0.151,0.8767,-6.21,7.68,-0.08,23.54
24473,0.1761,-0.1543,0.8739,-6.02,7.68,-0.11,23.53
24483,0.1803,-0.151,0.8741,-5.77,7.56,-0.05,23.55
24493,0.1804,-0.1509,0.8779,-5.62,7.57,-0.09,23.55
24503,0.1801,-0.1508,0.88,-5.57,7.57,-0.05,23.56
24513,0.1792,-0.1471,0.8795,-5.6,7.63,-0.05,23.53
24523,0.179,-0.1489,0.882,-5.74,7.68,-0.02,23.55
24533,0.1823,-0.1477,0.8768,-5.8,7.53,-0.02,23.55
24543,0.1809,-0.1498,0.8792,-5.97,7.51,-0.05,23.55
24553,0.1805,-0.1509,0.8802,-5.92,7.71,0.0,23.54
24563,0.1792,-0.1506,0.8762,-6.0,7.94,0.06,23.53
24573,0.178,-0.1486,0.8811,-5.92,7.88,0.08,23.55
24583,0.1791,-0.1494,0.8783,-5.88,7.42,0.02,23.56
24593,0.1807,-0.1436,0.8815,-5.91,7.24,-0.09,23.54
24603,0.1802,-0.1434,0.8843,-6.08,7.3,-0.17,23.54
24613,0.1831,-0.1442,0.8822,-6.31,7.31,-0.14,23.57
24623,0.1796,-0.1466,0.8759,-6.34,7.44,-0.09,23.54
24633,0.1797,-0.1511,0.8752,-6.12,7.51,0.0,23.53
24643,0.1792,-0.1508,0.8712,-5.76,7.65,-0.06,23.52
24653,0.1831,-0.1486,0.876,-5.74,7.82,0.0,23.53
24663,0.1832,-0.151,0.8754,-5.79,8.09,0.0,23.55
24673,0.1792,-0.1517,0.8778,-5.85,8.11,-0.02,23.55
24683,0.1783,-0.1482,0.881,-5.79,7.92,0.03,23.53
24693,0.1791,-0.1454,0.8816,-5.66,7.65,-0.08,23.54
24703,0.1819,-0.1465,0.882,-5.89,7.76,0.0,23.54
24713,0.1783,-0.1451,0.8844,-6.0,8.0,0.09,23.56
24723,0.1802,-0.1467,0.8862,-6.2,8.27,0.03,23.55
24733,0.176,-0.1493,0.8807,-6.03,8.27,0.02,23.53
24743,0.1772,-0.149,0.8793,-5.95,7.77,-0.08,23.54
24753,0.1781,-0.147,0.8824,-5.83,7.3,-0.09,23.55
24763,0.1794,-0.1445,0.8815,-5.85,7.36,-0.12,23.55
24773,0.1804,-0.144,0.8781,-6.03,7.65,-0.09,23.55
24783,0.1841,-0.1456,0.8811,-6.17,7.85,-0.09,23.54
24793,0.1783,-0.1481,0.8767,-6.4,7.95,-0.06,23.56
24803,0.1763,-0.1473,0.8829,-6.4,8.15,-0.08,23.56
24813,0.1783,-0.1497,0.8824,-6.55,8.21,-0.11,23.54
24823,0.1819,-0.1506,0.8771,-6.49,8.11,-0.05,23.55
24833,0.183,-0.1501,0.8801,-6.5,8.08,-0.08,23.56
24843,0.181,-0.15,0.8795,-6.31,8.17,-0.05,23.57
24853,0.1804,-0.1483,0.8811,-6.14,8.35,-0.06,23.55
24863,0.1802,-0.1456,0.8802,-6.12,8.29,0.0,23.55
24873,0.1779,-0.1492,0.8831,-6.09,8.05,-0.02,23.56
24883,0.1737,-0.1453,0.885,-6.12,7.73,-0.15,23.56
24893,0.1755,-0.1477,0.8826,-6.0,7.37,-0.24,23.57
24903,0.1796,-0.1488,0.8802,-6.09,6.99,-0.27,23.56
24913,0.1818,-0.1477,0.8768,-6.2,7.13,-0.12,23.54
24923,0.1769,-0.15,0.8782,-6.37,7.62,-0.15,23.55
24933,0.1769,-0.1434,0.8776,-6.34,8.09,-0.12,23.56
24943,0.1847,-0.146,0.8766,-6.24,7.82,-0.09,23.55
24953,0.1827,-0.1478,0.8759,-6.18,7.79,-0.12,23.55
24963,0.1694,-0.1521,0.8665,-5.8,7.91,-0.53,23.54
24973,0.1799,-0.1567,0.8757,-5.18,6.66,-0.34,23.55
24983,0.1801,-0.1532,0.8713,-4.7,6.72,-0.41,23.54
24993,0.1648,-0.1552,0.8594,-3.95,7.56,-1.19,23.55
25003,0.1206,-0.1609,0.8639,-3.22,9.36,-4.5,23.54
25013,0.1188,-0.1685,0.858,-1.62,8.61,-10.02,23.56
25023,0.1464,-0.1533,0.8822,0.09,5.79,-13.34,23.58
25033,0.2042,-0.1298,0.9084,0.2,1.94,-13.66,23.57
25043,0.2429,-0.118,0.9264,-3.08,2.98,-11.02,23.58
25053,0.2628,-0.1135,0.9136,-7.34,7.1,-6.09,23.55
25063,0.2428,-0.1302,0.9003,-10.58,10.18,-0.58,23.57
25073,0.1758,-0.1345,0.8848,-13.05,13.31,0.11,23.56
25083,0.16,-0.1552,0.8973,-13.07,11.07,-0.06,23.56
25093,0.1621,-0.1536,0.8685,-11.21,8.26,-0.15,23.56
25103,0.199,-0.1621,0.8241,-8.4,4.98,0.09,23.56
25113,0.2258,-0.1573,0.8324,-5.18,6.78,1.83,23.55
25123,0.2336,-0.1498,0.856,-4.0,12.4,4.82,23.57
25133,0.1901,-0.1608,0.7883,-2.87,10.99,6.37,23.57
25143,0.13,-0.1417,0.8951,-1.42,10.89,4.21,23.54
25153,0.1433,-0.1221,0.946,-2.72,10.27,1.13,23.55
25163,0.1636,-0.1322,0.9736,-6.64,5.83,-0.09,23.54
25173,0.1616,-0.1353,0.9351,-10.58,4.27,-0.76,23.58
25183,0.2012,-0.146,0.8757,-12.63,4.79,-0.92,23.57
25193,0.1942,-0.1532,0.824,-11.79,5.11,-0.66,23.58
25203,0.187,-0.1575,0.8202,-8.38,12.18,0.14,23.55
25213,0.2109,-0.1577,0.8096,-4.56,11.63,0.84,23.55
25223,0.1852,-0.1526,0.8661,-2.02,10.31,1.16,23.56
25233,0.1478,-0.1443,0.9264,-1.89,10.12,0.93,23.54
25243,0.1619,-0.1404,0.9338,-3.86,7.54,-0.02,23.53
25253,0.1831,-0.14,0.9152,-6.63,4.63,-0.47,23.56
25263,0.1935,-0.144,0.8813,-8.9,4.66,-0.79,23.55
25273,0.1849,-0.1462,0.8647,-9.39,7.18,-0.56,23.54
25283,0.1958,-0.1553,0.8424,-7.69,8.67,-0.03,23.56
25293,0.1876,-0.1569,0.837,-5.01,9.1,0.17,23.55
25303,0.1794,-0.1582,0.8661,-2.89,7.91,0.29,23.56
25313,0.1625,-0.1423,0.9015,-2.61,6.64,-0.27,23.54
25323,0.1768,-0.1373,0.9384,-4.56,5.73,-0.32,23.57
25333,0.178,-0.1316,0.9121,-7.94,5.66,-1.13,23.58
25343,0.1508,-0.1436,0.901,-10.5,7.02,-2.89,23.57
25353,0.1781,-0.1475,0.8539,-10.44,7.8,-4.38,23.56
25363,0.2159,-0.1484,0.832,-8.18,6.73,-3.59,23.54
25373,0.2139,-0.1443,0.8521,-6.05,7.92,-1.21,23.56
25383,0.184,-0.1425,0.8777,-5.3,11.18,0.35,23.54
25393,0.1761,-0.1447,0.896,-5.88,10.84,0.27,23.54
25403,0.1641,-0.1509,0.8971,-6.02,7.45,-0.15,23.56
25413,0.1694,-0.1544,0.8684,-5.36,4.76,-0.56,23.54
25423,0.1719,-0.1602,0.813,-2.82,6.29,-1.48,23.56
25433,0.1744,-0.1594,0.7994,0.5,10.23,-4.14,23.55
25443,0.2045,-0.1396,0.8335,4.46,11.28,-4.21,23.57
25453,0.1992,-0.1582,0.8617,7.56,7.82,-1.63,23.58
25463,0.1758,-0.1499,0.906,8.64,6.82,0.31,23.59
25473,0.1852,-0.1372,0.9066,7.8,5.98,1.25,23.57
25483,0.1897,-0.1278,0.9078,5.45,2.34,0.89,23.54
25493,0.1661,-0.1305,0.9415,2.52,1.59,0.31,23.57
25505,0.2128,-0.125,0.8943,-1.71,0.95,-0.08,23.57
25515,0.1814,-0.1234,0.9087,-4.15,5.36,0.08,23.56
25525,0.2074,-0.1248,0.8698,-5.79,9.15,0.5,23.59
25535,0.1976,-0.1315,0.8525,-5.85,8.95,0.92,23.56
25545,0.1665,-0.1379,0.8726,-4.31,8.37,0.93,23.57
25555,0.1646,-0.1306,0.8851,-2.82,7.66,0.72,23.55
25565,0.1809,-0.1287,0.8778,-1.82,5.5,0.21,23.54
25575,0.1864,-0.1301,0.8831,-1.37,3.88,-0.06,23.53
25585,0.1847,-0.1243,0.8911,-1.76,4.63,-0.11,23.56
25595,0.1899,-0.1238,0.8765,-2.67,6.18,0.02,23.55
25605,0.1886,-0.1201,0.8876,-3.45,7.94,-0.02,23.57
25615,0.1996,-0.1267,0.8682,-3.76,7.6,0.03,23.54
25625,0.1892,-0.1234,0.8741,-3.42,6.34,-0.08,23.57
25635,0.1699,-0.1296,0.8892,-2.61,6.98,-0.08,23.54
25645,0.1875,-0.1262,0.8857,-2.24,6.79,-0.15,23.52
25655,0.2004,-0.1295,0.8818,-2.72,5.8,-0.2,23.56
25665,0.1775,-0.1255,0.8859,-3.19,6.18,-0.58,23.56
25675,0.1697,-0.1316,0.8779,-2.81,7.19,-1.18,23.57
25685,0.1885,-0.1252,0.8636,-1.97,6.52,-1.8,23.57
25695,0.2,-0.121,0.8792,-1.73,6.02,-1.77,23.56
25705,0.2058,-0.1226,0.879,-1.33,6.63,-0.24,23.57
25715,0.1982,-0.1238,0.8571,-0.34,7.53,0.78,23.58
25725,0.1981,-0.1287,0.8634,0.79,7.98,1.08,23.54
25735,0.1785,-0.1273,0.8821,2.02,7.66,1.11,23.57
25745,0.1777,-0.1271,0.8832,2.78,6.35,1.04,23.58
25755,0.1918,-0.1176,0.8708,3.69,4.98,0.89,23.56
25765,0.1924,-0.1177,0.8566,4.43,4.87,0.67,23.56
25775,0.1886,-0.1177,0.8633,5.95,5.44,0.76,23.56
25785,0.1873,-0.1101,0.8824,6.95,5.34,0.93,23.55
25795,0.1868,-0.1046,0.9054,6.6,4.81,0.92,23.56
25805,0.1849,-0.0979,0.9088,5.39,3.89,0.7,23.57
25815,0.1875,-0.1016,0.8977,4.21,3.04,0.35,23.57
25825,0.1879,-0.0969,0.8961,3.47,2.67,0.11,23.56
25835,0.1921,-0.0941,0.8911,2.37,4.2,-0.24,23.58
25845,0.1938,-0.0881,0.8711,1.18,6.23,-1.16,23.57
25855,0.1858,-0.0726,0.8965,-0.6,9.5,-2.72,23.55
25865,0.1091,-0.0408,0.9688,-5.3,10.96,-7.54,23.57
25875,0.1378,-0.0822,0.8984,-5.02,9.37,-15.15,23.56
25885,0.2527,-0.1281,0.9907,-6.06,-3.8,-10.95,23.54
25895,0.2677,-0.0852,0.9415,-11.05,-4.14,-1.85,23.55
25905,0.2461,-0.0852,0.8663,-17.22,6.49,-1.4,23.55
25915,0.2166,-0.1042,0.8491,-18.69,13.4,-0.47,23.56
25925,0.1895,-0.1143,0.8848,-18.08,13.5,-0.29,23.59
25935,0.181,-0.1147,0.9203,-17.16,10.46,-0.35,23.55
25945,0.184,-0.1017,0.9293,-18.64,6.4,-0.64,23.55
25955,0.2094,-0.0956,0.9271,-21.73,6.06,-0.76,23.57
25965,0.2278,-0.1013,0.8918,-25.33,8.84,-0.5,23.57
25975,0.2086,-0.1257,0.8711,-26.95,12.08,0.47,23.56
25985,0.2112,-0.1417,0.8636,-26.09,15.5,3.01,23.57
25995,0.2291,-0.1415,0.8441,-23.91,14.92,6.15,23.58
26005,0.2084,-0.137,0.8383,-21.24,13.39,8.47,23.56
26015,0.1642,-0.1277,0.8496,-18.2,12.79,8.58,23.57
26025,0.1432,-0.1139,0.8486,-15.18,12.18,5.65,23.55
26035,0.1479,-0.121,0.8459,-12.08,9.59,1.25,23.54
26045,0.1831,-0.137,0.873,-9.01,7.34,-0.43,23.56
26055,0.1868,-0.1292,0.8677,-7.6,7.4,-0.43,23.56
26065,0.1958,-0.1359,0.8621,-7.33,7.13,-0.2,23.56
26075,0.1899,-0.1467,0.8601,-6.53,8.34,-0.02,23.57
26085,0.1886,-0.1306,0.8834,-6.21,9.79,-0.08,23.54
26095,0.1664,-0.152,0.8547,-4.84,8.7,-0.37,23.53
26105,0.2023,-0.1317,0.8833,-2.72,6.2,0.29,23.54
26115,0.1951,-0.1204,0.8778,-4.26,6.93,-0.08,23.58
26125,0.2264,-0.1045,0.9231,-6.99,8.31,0.66,23.54
26135,0.1729,-0.1227,0.9106,-10.87,8.38,-0.21,23.56
26145,0.1746,-0.1361,0.8925,-10.96,6.12,-0.46,23.55
26155,0.1661,-0.1356,0.8735,-10.47,6.24,-0.6,23.57
26165,0.1982,-0.1315,0.8453,-8.93,7.37,-0.38,23.54
26182,0.1895,-0.1371,0.8486,-5.79,10.73,0.31,23.57
26192,0.1797,-0.1357,0.8674,-4.21,10.98,0.47,23.56
26202,0.1786,-0.1338,0.8906,-3.02,9.68,0.44,23.56
26212,0.1792,-0.1278,0.9117,-3.91,8.06,0.31,23.56
26222,0.1908,-0.1312,0.9124,-5.45,7.28,0.21,23.57
26232,0.1932,-0.1311,0.9021,-7.24,6.96,0.53,23.57
26242,0.1957,-0.1403,0.8829,-8.18,6.85,1.39,23.56
26252,0.1949,-0.1416,0.87,-8.08,6.58,2.23,23.55
26262,0.1852,-0.1334,0.8654,-7.31,6.99,2.26,23.55
26272,0.1799,-0.1283,0.8696,-6.78,7.74,1.39,23.56
26282,0.1805,-0.1246,0.8813,-6.38,8.18,0.47,23.56
26292,0.187,-0.1251,0.8859,-6.24,7.85,0.05,23.56
26302,0.1825,-0.1241,0.8884,-6.4,7.15,-0.15,23.55
26312,0.1853,-0.1273,0.8903,-6.85,6.99,-0.27,23.56
26322,0.1926,-0.1263,0.8829,-7.36,7.62,-0.27,23.57
26332,0.1921,-0.1329,0.8673,-7.37,8.64,-0.15,23.55
26342,0.1927,-0.1396,0.8702,-7.16,8.84,-0.11,23.55
26352,0.1853,-0.1423,0.8711,-6.6,9.1,-0.09,23.55
26362,0.1847,-0.1425,0.8738,-5.94,9.08,-0.06,23.55
26372,0.1842,-0.1407,0.8785,-5.57,8.7,0.03,23.56
26382,0.187,-0.1393,0.8801,-5.27,7.89,0.05,23.57
26392,0.1892,-0.1371,0.8843,-5.44,7.56,0.0,23.59
26402,0.1898,-0.1392,0.8824,-5.69,7.65,-0.03,23.59
26412,0.189,-0.1351,0.8815,-5.94,7.79,-0.06,23.57
26422,0.187,-0.1307,0.8787,-6.05,7.65,0.03,23.57
26432,0.1833,-0.1304,0.8844,-6.0,7.59,-0.08,23.59
26442,0.1791,-0.1311,0.8864,-5.98,7.25,-0.03,23.58
26453,0.1827,-0.1261,0.8884,-6.06,6.87,-0.17,23.57
26463,0.187,-0.1237,0.8844,-6.4,6.79,-0.26,23.56
26473,0.1912,-0.1252,0.8848,-6.67,6.98,-0.26,23.57
26483,0.1895,-0.1271,0.8754,-6.81,7.4,-0.21,23.59
26493,0.1915,-0.13,0.8787,-6.72,7.95,-0.17,23.6
26503,0.1877,-0.1367,0.8762,-6.56,8.08,-0.11,23.58
26513,0.1886,-0.1389,0.881,-6.32,8.02,-0.12,23.57
26523,0.1876,-0.1409,0.8793,-6.11,7.79,-0.02,23.59
26533,0.1888,-0.1354,0.8821,-6.09,7.73,-0.06,23.59
26543,0.1929,-0.1361,0.8804,-6.29,7.8,-0.02,23.59
26553,0.1932,-0.1351,0.8838,-6.5,8.31,0.02,23.56
26563,0.1909,-0.1337,0.8772,-6.67,8.47,0.0,23.56
26573,0.1853,-0.1326,0.8801,-6.58,8.55,0.06,23.58
26583,0.1882,-0.1315,0.8798,-6.21,8.24,0.08,23.58
26593,0.1874,-0.134,0.882,-5.97,8.0,0.06,23.58
26603,0.1886,-0.1331,0.8812,-6.05,8.17,0.03,23.58
26613,0.1848,-0.1287,0.8851,-6.21,8.34,-0.02,23.55
26623,0.1864,-0.1328,0.8826,-6.32,8.32,0.0,23.58
26633,0.1853,-0.1346,0.8826,-6.34,7.76,-0.08,23.58
26643,0.1875,-0.1342,0.886,-6.32,7.54,-0.15,23.59
26653,0.1877,-0.1353,0.8778,-6.38,7.63,-0.12,23.58
26663,0.1886,-0.1389,0.8767,-6.43,7.88,-0.14,23.6
26673,0.1882,-0.1415,0.8771,-6.41,7.94,-0.14,23.59
26683,0.1874,-0.1378,0.8783,-6.31,8.03,-0.02,23.6
26693,0.1875,-0.1406,0.8815,-6.21,7.98,-0.05,23.59
26703,0.1877,-0.1365,0.8746,-6.38,7.95,-0.08,23.59
26713,0.1897,-0.1343,0.8766,-6.38,8.2,-0.02,23.57
26723,0.1854,-0.1289,0.8817,-6.53,8.34,-0.02,23.58
26733,0.1851,-0.1306,0.8833,-6.63,8.37,-0.03,23.56
26743,0.1877,-0.1278,0.881,-6.67,8.4,-0.06,23.58
26753,0.1854,-0.1322,0.8795,-6.87,8.56,-0.11,23.55
26763,0.1865,-0.1327,0.8796,-6.87,8.6,-0.02,23.55
26773,0.1864,-0.1357,0.8834,-6.7,8.76,-0.02,23.57
26783,0.188,-0.1326,0.8718,-6.56,8.31,-0.14,23.57
26793,0.1882,-0.1353,0.8778,-6.44,8.02,-0.14,23.57
26803,0.1853,-0.1387,0.8815,-6.24,8.06,-0.05,23.59
26813,0.1858,-0.1367,0.8806,-6.21,8.32,-0.08,23.56
26823,0.1862,-0.137,0.8804,-6.05,7.86,-0.09,23.58
26833,0.1848,-0.1365,0.8799,-6.15,7.76,-0.15,23.59
26843,0.1899,-0.1375,0.8832,-6.41,8.21,-0.08,23.58
26853,0.1871,-0.1346,0.8812,-6.96,8.85,-0.08,23.58
26863,0.1897,-0.137,0.8771,-7.19,8.87,-0.06,23.59
26873,0.1881,-0.136,0.8792,-7.19,8.5,-0.09,23.58
26883,0.1848,-0.1326,0.8822,-7.02,8.15,-0.15,23.57
26893,0.1848,-0.1301,0.8765,-7.04,8.05,-0.17,23.58
26903,0.1874,-0.1326,0.8802,-7.24,8.38,-0.14,23.58
26913,0.1833,-0.1372,0.8831,-7.25,8.87,-0.21,23.57
26923,0.1805,-0.1384,0.8821,-7.25,9.19,-0.24,23.55
26933,0.1802,-0.1405,0.8824,-6.96,8.6,-0.26,23.57
26943,0.1838,-0.1382,0.8802,-6.73,7.86,-0.41,23.59
26953,0.1874,-0.1399,0.8761,-6.73,8.11,-0.56,23.59
26963,0.1829,-0.1429,0.8788,-6.93,8.67,-0.87,23.58
26973,0.1809,-0.1399,0.8798,-6.85,8.9,-1.28,23.59
26983,0.1755,-0.1372,0.8781,-6.58,8.58,-1.8,23.56
26993,0.1748,-0.1373,0.8813,-6.41,8.35,-2.6,23.58
27005,0.1833,-0.1365,0.8832,-6.38,7.6,-2.95,23.58
27015,0.1958,-0.1362,0.8855,-6.12,6.98,-2.31,23.58
27025,0.1981,-0.1375,0.8789,-5.88,6.85,-1.04,23.58
27035,0.1951,-0.1339,0.8748,-5.92,7.13,-0.29,23.59
27045,0.1853,-0.1316,0.8773,-5.92,7.68,-0.05,23.58
27055,0.179,-0.136,0.886,-5.71,7.57,-0.03,23.58
27065,0.1829,-0.1329,0.8824,-5.54,6.96,-0.06,23.6
27075,0.1868,-0.1324,0.8854,-5.74,6.56,-0.05,23.59
27085,0.1859,-0.1351,0.885,-6.15,6.85,-0.17,23.58
27095,0.189,-0.1395,0.8839,-6.44,7.13,-0.05,23.6
27105,0.1873,-0.14,0.8795,-6.43,7.44,-0.09,23.57
27115,0.1892,-0.1431,0.8754,-6.31,7.63,-0.02,23.57
27125,0.1874,-0.1409,0.8762,-6.02,7.98,-0.03,23.57
27135,0.1837,-0.1395,0.8781,-5.77,7.86,0.11,23.58
27145,0.1884,-0.1398,0.8777,-5.66,7.76,0.02,23.58
27155,0.186,-0.1356,0.8835,-5.77,7.88,0.12,23.58
27165,0.187,-0.1371,0.8793,-5.85,8.09,0.15,23.59
27175,0.1844,-0.1351,0.8824,-6.0,8.14,0.03,23.59
27185,0.1836,-0.1366,0.881,-6.0,7.91,0.02,23.58
27195,0.1847,-0.1375,0.88,-6.08,7.76,0.05,23.59
27205,0.1851,-0.1367,0.8843,-6.11,7.59,-0.02,23.58
27215,0.1832,-0.1361,0.8822,-6.09,7.4,-0.06,23.58
27225,0.184,-0.1343,0.879,-5.98,7.21,-0.03,23.6
27235,0.1862,-0.1309,0.882,-5.91,6.92,-0.03,23.6
27245,0.1844,-0.1342,0.8816,-6.02,7.24,0.0,23.58
27255,0.1882,-0.1349,0.8824,-6.35,7.82,-0.02,23.59
27265,0.1824,-0.1349,0.8811,-6.6,8.02,0.06,23.59
27275,0.1855,-0.137,0.882,-6.67,7.97,0.11,23.59
27285,0.1854,-0.1343,0.885,-6.82,7.8,-0.12,23.6
27295,0.1864,-0.1371,0.8829,-6.9,7.77,-0.14,23.58
27305,0.1848,-0.1348,0.88,-6.89,7.76,-0.09,23.58
27315,0.1891,-0.1333,0.88,-6.92,8.08,0.02,23.57
27325,0.1899,-0.1335,0.8809,-7.21,8.38,0.03,23.6
27335,0.1849,-0.1359,0.8798,-7.33,8.49,0.0,23.61
27345,0.1777,-0.1346,0.8831,-7.21,8.2,0.0,23.59
27355,0.1797,-0.1375,0.8832,-7.18,7.69,-0.06,23.59
27365,0.1829,-0.1388,0.8774,-6.89,7.33,-0.11,23.58
27375,0.1869,-0.1423,0.8746,-6.75,7.57,-0.03,23.6
27385,0.1864,-0.1401,0.8796,-6.73,8.52,-0.06,23.59
27395,0.1912,-0.1404,0.8745,-6.64,9.02,0.05,23.59
27405,0.1865,-0.142,0.8777,-6.32,8.84,0.14,23.57
27415,0.1842,-0.1436,0.8846,-6.35,8.43,0.03,23.6
27425,0.1829,-0.1376,0.8843,-6.32,8.05,0.02,23.59
27435,0.1844,-0.1388,0.8816,-6.52,7.66,0.0,23.6
27445,0.1873,-0.1392,0.8793,-6.69,7.68,-0.08,23.6
27455,0.1893,-0.1349,0.8749,-6.96,7.73,-0.18,23.59
27465,0.1857,-0.1395,0.8794,-6.79,8.38,-0.14,23.57
27475,0.1742,-0.141,0.8873,-6.79,8.27,0.0,23.59
27485,0.1974,-0.1433,0.8722,-6.79,6.98,0.03,23.59
27495,0.1831,-0.1483,0.8787,-6.66,6.14,-0.02,23.6
27505,0.1683,-0.1423,0.9028,-6.81,8.38,-0.12,23.59
27515,0.187,-0.1406,0.8684,-6.78,8.49,-0.17,23.59
27525,0.1898,-0.1407,0.8767,-6.79,8.11,-0.08,23.56
27535,0.1725,-0.1444,0.8812,-6.75,9.57,0.02,23.59
27545,0.1825,-0.1475,0.8835,-6.75,9.71,0.08,23.58
27555,0.1851,-0.1399,0.8792,-6.66,8.43,0.06,23.57
27565,0.1813,-0.1381,0.8945,-6.64,7.91,-0.14,23.57
27575,0.1858,-0.1346,0.8793,-6.7,7.98,-0.09,23.6
27585,0.1982,-0.1418,0.8729,-6.67,7.53,-0.05,23.59
27595,0.1903,-0.1421,0.8677,-6.56,7.79,0.05,23.61
27605,0.1833,-0.1385,0.879,-5.86,7.66,0.06,23.6
27615,0.1799,-0.1355,0.8821,-5.45,7.5,0.12,23.61
27625,0.1836,-0.1364,0.8854,-5.56,7.91,0.02,23.59
27635,0.1797,-0.1395,0.8883,-6.23,8.26,0.05,23.59
27645,0.176,-0.1409,0.8854,-6.35,8.14,0.0,23.59
27655,0.1853,-0.1389,0.8815,-6.41,7.48,-0.12,23.58
27665,0.1862,-0.1382,0.8821,-6.47,7.65,-0.03,23.59
27675,0.1855,-0.1393,0.877,-6.72,7.82,-0.09,23.59
27685,0.182,-0.1447,0.8743,-6.67,8.14,-0.02,23.58
27695,0.1853,-0.1454,0.8805,-6.49,7.85,-0.08,23.59
27705,0.1835,-0.1423,0.8774,-6.11,7.56,-0.09,23.6
27715,0.1844,-0.1422,0.8801,-5.98,7.45,-0.05,23.58
27725,0.1848,-0.1395,0.8739,-6.08,7.73,-0.06,23.56
27735,0.1865,-0.1455,0.8826,-6.31,8.12,0.02,23.58
27745,0.1842,-0.1379,0.8779,-6.21,8.34,0.08,23.56
27755,0.183,-0.1399,0.8798,-5.95,8.03,0.05,23.57
27765,0.1823,-0.139,0.8831,-6.05,7.83,0.03,23.6
27775,0.1798,-0.1371,0.8875,-6.26,7.62,-0.08,23.57
27785,0.1851,-0.1361,0.8877,-6.38,7.86,-0.06,23.59
27795,0.1851,-0.1403,0.8789,-6.53,7.95,-0.02,23.58
27805,0.1814,-0.1436,0.8778,-6.5,8.23,0.02,23.58
27815,0.182,-0.1454,0.8823,-6.32,7.73,-0.09,23.57
27825,0.1798,-0.1431,0.8761,-5.91,7.4,-0.09,23.57
27835,0.1888,-0.141,0.8787,-5.79,7.6,-0.11,23.59
27845,0.1808,-0.1382,0.8821,-5.97,8.06,-0.03,23.61
27855,0.1783,-0.1395,0.8805,-5.94,8.09,0.0,23.59
27865,0.1818,-0.1418,0.885,-6.06,7.76,-0.08,23.58
27875,0.1897,-0.1373,0.8799,-6.31,7.8,-0.03,23.59
27885,0.1864,-0.1388,0.8806,-6.56,8.15,-0.03,23.59
27895,0.1816,-0.1421,0.8782,-6.6,8.24,-0.02,23.61
27905,0.1779,-0.1438,0.8815,-6.31,7.82,-0.05,23.55
27915,0.1842,-0.1383,0.8774,-5.86,7.6,-0.02,23.57
27925,0.1898,-0.1384,0.8757,-5.8,7.83,0.02,23.59
27935,0.1863,-0.1371,0.8807,-5.94,7.88,0.02,23.59
27945,0.1816,-0.14,0.8822,-5.91,7.89,0.05,23.61
27955,0.184,-0.1406,0.886,-6.09,7.89,0.08,23.57
27965,0.1848,-0.1404,0.8815,-6.18,7.73,-0.05,23.59
27975,0.1831,-0.1437,0.8809,-6.4,7.88,0.05,23.57
27985,0.1812,-0.1458,0.8805,-6.53,7.97,0.02,23.57
27995,0.1836,-0.1467,0.8776,-6.14,7.39,0.02,23.57
28005,0.1863,-0.1403,0.8806,-5.69,7.22,-0.02,23.58
28015,0.1855,-0.1409,0.8794,-5.8,7.6,0.03,23.59
28025,0.1833,-0.1403,0.8755,-5.83,7.76,0.05,23.59
28035,0.186,-0.1367,0.8762,-5.85,7.59,-0.03,23.6
28045,0.1831,-0.1418,0.8834,-5.88,7.6,-0.08,23.6
28055,0.1832,-0.1404,0.8876,-5.97,7.98,-0.05,23.59
28065,0.1794,-0.1455,0.8857,-6.17,7.45,-0.18,23.59
28075,0.1841,-0.1398,0.8833,-5.92,7.01,-0.12,23.59
28085,0.1863,-0.1443,0.8781,-5.97,6.87,-0.26,23.59
28096,0.1875,-0.1345,0.8777,-5.88,7.48,-0.14,23.59
28106,0.186,-0.1389,0.8816,-5.94,7.85,-0.05,23.57
28116,0.1863,-0.14,0.8745,-5.98,8.27,0.02,23.6
28126,0.1851,-0.1398,0.8842,-6.11,8.05,0.03,23.61
28136,0.1782,-0.1405,0.8833,-5.98,7.74,0.0,23.6
28146,0.1809,-0.1415,0.8857,-6.05,7.22,-0.09,23.58
28156,0.1852,-0.1423,0.8804,-6.05,6.72,-0.2,23.55
28166,0.1873,-0.1388,0.8772,-5.79,6.64,-0.09,23.59
28176,0.1869,-0.1389,0.8816,-5.95,7.11,-0.02,23.6
28186,0.1859,-0.1379,0.8801,-6.05,7.92,-0.05,23.59
28196,0.1869,-0.1382,0.882,-6.14,7.82,-0.05,23.57
28206,0.1862,-0.1361,0.8855,-6.12,7.63,-0.05,23.6
28216,0.1868,-0.1401,0.8885,-6.46,7.69,-0.14,23.61
28226,0.1858,-0.1387,0.8818,-6.78,8.03,-0.08,23.61
28236,0.188,-0.1416,0.8776,-6.99,7.8,-0.06,23.6
28246,0.1849,-0.1422,0.8784,-6.84,7.74,-0.11,23.58
28256,0.1829,-0.1426,0.881,-6.73,8.02,-0.11,23.59
28266,0.1885,-0.1425,0.8751,-6.7,8.23,-0.03,23.6
28277,0.1852,-0.142,0.8843,-6.4,7.92,0.0,23.61
28287,0.1831,-0.1448,0.8779,-6.2,7.28,-0.06,23.6
28297,0.1831,-0.1412,0.881,-6.08,7.22,-0.05,23.59
28307,0.1868,-0.1394,0.8789,-6.11,7.37,-0.08,23.59
28317,0.1893,-0.1418,0.8778,-6.12,7.86,-0.03,23.57
28327,0.1924,-0.145,0.8773,-6.15,8.26,-0.05,23.58
28337,0.181,-0.1409,0.8763,-6.02,8.38,0.15,23.62
28347,0.1818,-0.1364,0.8861,-5.83,7.88,-0.02,23.58
28357,0.1847,-0.1348,0.8818,-5.97,7.54,0.0,23.58
28367,0.1862,-0.1327,0.8848,-6.49,7.59,-0.02,23.59
28377,0.1808,-0.1346,0.8838,-6.96,7.73,-0.11,23.6
28387,0.1827,-0.1375,0.8824,-6.85,7.59,-0.05,23.59
28397,0.1909,-0.1381,0.8745,-6.72,7.5,-0.03,23.58
28407,0.1887,-0.14,0.8756,-6.52,7.8,0.09,23.57
28417,0.1899,-0.1429,0.877,-6.55,8.26,0.24,23.59
28427,0.1877,-0.1421,0.8823,-6.32,8.29,0.37,23.59
28437,0.1836,-0.1418,0.8773,-6.09,7.79,0.35,23.57
28447,0.1802,-0.142,0.8798,-5.94,7.39,0.21,23.6
28457,0.1824,-0.142,0.8848,-6.03,7.56,0.02,23.6
28467,0.1884,-0.1426,0.8782,-6.15,8.11,0.08,23.59
28477,0.1849,-0.1455,0.8781,-6.24,8.21,0.03,23.57
28487,0.1819,-0.1439,0.8781,-6.11,8.14,0.02,23.58
28497,0.1827,-0.145,0.8805,-5.83,7.8,-0.02,23.59
28507,0.1843,-0.1384,0.8774,-5.79,7.51,-0.03,23.59
28517,0.1888,-0.1392,0.8783,-5.82,7.53,-0.09,23.6
28527,0.1854,-0.1415,0.8766,-5.91,7.86,-0.06,23.6
28537,0.1812,-0.142,0.8802,-5.82,7.91,-0.02,23.59
