t_ms,accel_x_g,accel_y_g,accel_z_g,gyro_x_dps,gyro_y_dps,gyro_z_dps,imu_temp_c
3282,0.1451,-0.6066,0.6902,-6.44,7.05,0.41,21.72
3293,0.1464,-0.6127,0.6876,-6.58,7.85,0.55,21.7
3303,0.1454,-0.6071,0.6816,-6.73,8.38,0.64,21.67
3313,0.1406,-0.6118,0.6793,-7.1,8.75,0.64,21.72
3323,0.1392,-0.62,0.689,-7.59,8.84,0.73,21.71
3333,0.1362,-0.6157,0.6868,-7.62,7.94,0.85,21.7
3343,0.1344,-0.6184,0.6863,-7.16,7.54,0.85,21.71
3353,0.1329,-0.6124,0.6943,-6.47,6.78,0.72,21.7
3363,0.1353,-0.6146,0.688,-6.12,6.49,0.63,21.7
3373,0.1302,-0.6143,0.6968,-5.57,6.37,0.41,21.7
3383,0.1487,-0.6182,0.6628,-5.59,6.21,0.24,21.72
3393,0.1432,-0.6198,0.6708,-5.97,6.82,0.37,21.7
3403,0.1345,-0.6047,0.6677,-6.11,7.53,0.29,21.72
3413,0.1241,-0.6134,0.6827,-6.31,7.97,0.23,21.72
3423,0.1276,-0.6163,0.6874,-6.56,8.15,-0.06,21.7
3433,0.1296,-0.6173,0.6903,-6.58,8.06,-0.2,21.72
3443,0.1348,-0.6127,0.6904,-6.41,8.38,-0.37,21.71
3453,0.1344,-0.6116,0.6895,-6.43,8.06,-0.49,21.75
3463,0.142,-0.615,0.6846,-6.23,7.47,-0.41,21.71
3473,0.1466,-0.6161,0.6831,-6.43,7.36,-0.24,21.71
3483,0.1388,-0.6172,0.6805,-6.78,7.51,0.18,21.71
3493,0.1361,-0.6097,0.6825,-7.16,7.62,0.21,21.73
3503,0.1345,-0.6133,0.6843,-7.28,8.26,0.08,21.74
3513,0.1407,-0.6156,0.6846,-7.31,8.82,0.0,21.71
3523,0.1448,-0.6188,0.696,-7.04,9.25,0.0,21.71
3533,0.1378,-0.6099,0.6898,-6.92,10.08,0.12,21.71
3543,0.1332,-0.6099,0.678,-7.02,10.66,0.18,21.73
3553,0.1262,-0.613,0.6818,-7.27,10.5,0.08,21.75
3563,0.1224,-0.6115,0.6919,-7.34,9.85,-0.18,21.74
3573,0.123,-0.6121,0.6843,-6.98,8.38,-0.58,21.7
3583,0.1281,-0.6117,0.6876,-6.18,7.21,-0.85,21.74
3593,0.1284,-0.6127,0.6876,-5.36,6.29,-1.22,21.73
3603,0.1346,-0.6144,0.6818,-4.84,5.68,-1.27,21.73
3613,0.1443,-0.6136,0.6788,-5.19,5.65,-1.21,21.73
3623,0.1514,-0.6232,0.6785,-6.06,5.62,-1.24,21.73
3633,0.1486,-0.6156,0.6753,-6.69,6.26,-0.82,21.73
3643,0.1484,-0.6144,0.6755,-6.96,7.47,-0.67,21.74
3653,0.1505,-0.6146,0.6761,-6.84,8.47,-0.56,21.73
3663,0.146,-0.6205,0.6841,-6.81,9.16,-0.49,21.74
3673,0.1423,-0.6168,0.6854,-6.79,9.24,-0.56,21.73
3683,0.1407,-0.6112,0.6809,-6.96,8.92,-0.52,21.73
3693,0.1392,-0.6115,0.6771,-6.95,8.63,-0.52,21.74
3703,0.1428,-0.6128,0.6761,-6.99,8.03,-0.34,21.74
3713,0.1433,-0.6117,0.6743,-7.05,7.6,-0.31,21.74
3723,0.1423,-0.6166,0.6722,-7.07,7.5,-0.14,21.72
3733,0.1398,-0.6193,0.681,-6.93,7.79,-0.2,21.75
3743,0.1354,-0.6169,0.6932,-7.01,8.09,0.03,21.76
3753,0.1322,-0.6151,0.6935,-7.07,8.11,0.02,21.74
3763,0.1324,-0.6139,0.6908,-7.28,8.02,-0.15,21.76
3773,0.135,-0.6125,0.683,-7.65,7.77,-0.26,21.72
3783,0.1351,-0.6089,0.6816,-7.51,7.85,-0.38,21.73
3793,0.1298,-0.6112,0.6823,-7.07,8.21,-0.56,21.74
3803,0.1339,-0.6145,0.687,-6.82,8.6,-0.7,21.76
3813,0.1339,-0.6139,0.6844,-6.87,8.69,-0.93,21.74
3823,0.1404,-0.6165,0.6814,-6.89,8.41,-1.11,21.76
3833,0.1409,-0.6156,0.6829,-6.75,8.4,-0.92,21.73
3843,0.1427,-0.6162,0.6851,-6.58,8.66,-0.84,21.74
3853,0.1412,-0.6163,0.6824,-6.38,8.92,-0.49,21.74
3863,0.1392,-0.6204,0.6807,-6.2,8.98,-0.38,21.72
3873,0.1385,-0.6189,0.6793,-6.29,9.15,-0.35,21.74
3883,0.1367,-0.6185,0.675,-6.17,9.22,-0.23,21.74
3893,0.1333,-0.6166,0.6794,-6.26,9.31,-0.27,21.77
3903,0.1351,-0.6206,0.6809,-6.17,9.47,-0.23,21.76
3913,0.1443,-0.6198,0.674,-6.14,9.01,-0.21,21.72
3923,0.1384,-0.6262,0.6704,-6.21,8.76,-0.34,21.74
3933,0.1392,-0.6246,0.6698,-6.27,9.37,-0.52,21.76
3943,0.1344,-0.627,0.6786,-6.49,9.97,-0.49,21.76
3953,0.132,-0.624,0.6799,-6.73,9.8,-0.63,21.76
3963,0.1323,-0.6233,0.6842,-6.84,9.54,-0.73,21.76
3973,0.1328,-0.6143,0.6837,-6.85,9.63,-0.75,21.76
3983,0.1362,-0.6165,0.6832,-6.41,9.77,-0.72,21.77
3993,0.1354,-0.6147,0.6785,-6.43,9.74,-0.66,21.76
4003,0.1379,-0.6124,0.671,-6.44,9.88,-0.49,21.75
4013,0.1362,-0.6163,0.6713,-6.4,9.97,-0.49,21.76
4023,0.1312,-0.6145,0.6713,-5.97,10.52,-0.32,21.75
4033,0.1299,-0.6161,0.6711,-5.85,10.75,-0.14,21.76
4043,0.1279,-0.6196,0.6774,-5.86,10.55,-0.2,21.74
4053,0.1266,-0.6182,0.6763,-6.02,10.31,-0.34,21.75
4063,0.1282,-0.6184,0.6796,-6.35,9.91,-0.41,21.74
4073,0.1356,-0.6226,0.6742,-6.32,9.15,-0.55,21.74
4083,0.1394,-0.5994,0.6885,-6.17,8.29,-0.5,21.74
4093,0.1714,-0.6007,0.5254,-9.47,3.44,-4.4,21.76
4103,0.149,-0.6935,0.7018,-5.05,9.13,-1.42,21.77
4113,0.1163,-0.5718,0.705,-1.36,12.66,1.28,21.75
4123,0.1353,-0.6512,0.6887,-8.92,3.33,-0.81,21.76
4133,0.1549,-0.61,0.676,-8.89,2.24,-0.99,21.75
4143,0.1372,-0.5942,0.6385,-6.55,8.35,-1.42,21.78
4153,0.1418,-0.6545,0.6962,-4.24,8.49,-2.06,21.76
4163,0.1451,-0.6298,0.7314,0.41,12.08,-1.08,21.74
4173,0.1313,-0.5876,0.6852,-1.21,10.66,-0.64,21.77
4183,0.124,-0.6088,0.677,-5.68,6.44,-0.4,21.74
4193,0.1367,-0.6373,0.6726,-6.17,7.89,0.27,21.76
4203,0.1418,-0.5864,0.661,-5.74,10.4,0.63,21.73
4213,0.142,-0.6354,0.6649,-6.05,11.48,-0.14,21.77
4223,0.1444,-0.6295,0.6826,-3.79,12.58,-0.26,21.75
4233,0.1342,-0.62,0.6813,-3.68,11.95,-0.66,21.75
4243,0.1283,-0.6151,0.6803,-2.98,11.25,-0.96,21.76
4253,0.1205,-0.6139,0.6804,-1.76,11.25,-1.05,21.79
4263,0.1279,-0.6036,0.6693,-2.61,9.71,-1.25,21.78
4273,0.1234,-0.6056,0.6648,-3.56,8.61,-1.48,21.77
4284,0.1262,-0.6157,0.677,-3.89,6.89,-1.19,21.79
4294,0.1245,-0.6073,0.6633,-5.08,5.73,-0.41,21.79
4304,0.1339,-0.6101,0.671,-6.37,4.06,-0.08,21.76
4314,0.1422,-0.616,0.666,-6.24,4.06,-0.08,21.79
4324,0.1426,-0.616,0.6644,-5.82,4.06,-0.23,21.79
4334,0.1433,-0.6251,0.6791,-5.74,4.12,-0.5,21.76
4344,0.1345,-0.6226,0.6842,-5.21,4.24,-0.35,21.8
4354,0.1387,-0.6143,0.6842,-4.96,4.11,-0.26,21.78
4364,0.139,-0.6169,0.687,-4.98,4.4,-0.26,21.78
4374,0.1368,-0.621,0.689,-5.04,5.18,-0.47,21.78
4384,0.1421,-0.6232,0.6898,-5.63,5.68,-0.46,21.79
4394,0.1431,-0.6208,0.6853,-5.76,6.44,-0.43,21.8
4404,0.1346,-0.6274,0.6927,-5.97,8.49,0.08,21.75
4414,0.1361,-0.6241,0.6764,-6.75,8.17,0.14,21.75
4424,0.121,-0.5975,0.6846,-10.17,5.73,-0.52,21.78
4434,0.1306,-0.6239,0.6663,-10.17,6.76,-0.81,21.8
4444,0.13,-0.6261,0.6714,-8.11,9.08,-0.76,21.77
4454,0.1278,-0.6128,0.6884,-6.55,9.39,-1.34,21.78
4464,0.1241,-0.6073,0.6956,-6.14,8.46,-1.74,21.77
4474,0.1182,-0.6038,0.6797,-6.66,7.47,-2.0,21.78
4484,0.1248,-0.6023,0.6863,-7.18,7.19,-2.12,21.78
4494,0.1353,-0.6105,0.6846,-6.73,7.89,-2.0,21.77
4504,0.1416,-0.6035,0.6809,-6.21,8.03,-1.66,21.78
4514,0.1412,-0.6049,0.6764,-6.4,7.34,-1.69,21.77
4524,0.1382,-0.6072,0.6824,-6.78,7.04,-1.47,21.79
4534,0.1445,-0.6144,0.6932,-6.76,6.66,-1.45,21.79
4544,0.1444,-0.6198,0.6971,-6.63,6.7,-1.16,21.79
4554,0.145,-0.6161,0.6991,-6.73,5.92,-1.28,21.78
4564,0.1511,-0.6249,0.701,-7.05,6.02,-1.21,21.78
4574,0.1547,-0.6241,0.7031,-6.9,7.02,-1.11,21.79
4584,0.1544,-0.6178,0.7047,-6.7,8.75,-1.04,21.78
4594,0.146,-0.6152,0.7,-6.93,10.15,-1.19,21.77
4604,0.1447,-0.6166,0.6819,-7.45,11.07,-1.04,21.81
4614,0.1427,-0.6166,0.6793,-8.02,11.47,-1.07,21.78
4624,0.1433,-0.6166,0.6776,-8.52,11.98,-1.19,21.78
4634,0.1438,-0.6135,0.6786,-8.72,12.08,-1.13,21.82
4644,0.1392,-0.6172,0.6782,-8.69,11.34,-0.85,21.77
4654,0.1335,-0.6162,0.6842,-8.08,11.11,-0.75,21.78
4664,0.1311,-0.6106,0.6785,-7.37,10.69,-0.93,21.78
4674,0.1289,-0.6082,0.6765,-6.76,10.18,-1.04,21.78
4684,0.1292,-0.609,0.6766,-6.2,8.73,-1.05,21.76
4694,0.1351,-0.6324,0.7042,-5.79,8.24,-0.73,21.78
4704,0.142,-0.6094,0.6741,-5.16,7.86,-0.05,21.79
4714,0.1302,-0.5963,0.6637,-7.28,6.69,0.5,21.8
4724,0.121,-0.6003,0.6556,-10.46,5.24,0.78,21.79
4734,0.134,-0.6162,0.6661,-11.91,5.16,0.63,21.81
4744,0.1342,-0.6237,0.676,-11.11,6.87,0.81,21.78
4754,0.1333,-0.6315,0.6798,-10.99,6.6,1.16,21.78
4764,0.1222,-0.6128,0.6726,-12.27,4.66,1.16,21.79
4774,0.1234,-0.6119,0.6493,-12.9,3.68,0.46,21.8
4784,0.1261,-0.6194,0.646,-12.23,3.56,-0.47,21.77
4794,0.1289,-0.5935,0.6461,-11.04,4.2,-1.89,21.78
4804,0.1704,-0.7167,0.7036,-9.05,3.95,-4.5,21.8
4815,0.2086,-0.7124,0.8181,6.89,16.29,-3.63,21.81
4825,0.1471,-0.5433,0.6621,12.35,22.03,-0.67,21.78
4835,0.1074,-0.5864,0.6925,-3.8,5.16,-2.9,21.8
4845,0.1066,-0.6324,0.6774,-9.4,5.01,-1.88,21.79
4855,0.1335,-0.5961,0.6321,-9.1,9.8,-1.39,21.79
4865,0.1493,-0.6188,0.6418,-11.85,10.34,-1.71,21.8
4875,0.1619,-0.641,0.6927,-8.61,15.1,-0.66,21.8
4885,0.1377,-0.6072,0.6819,-7.18,14.76,-1.39,21.79
4895,0.1191,-0.6171,0.6774,-8.06,11.1,-1.66,21.8
4905,0.1274,-0.6298,0.6953,-7.02,9.37,-2.09,21.8
4915,0.1263,-0.613,0.6832,-5.36,9.19,-1.88,21.79
4925,0.1281,-0.6212,0.6796,-5.53,7.05,-1.82,21.79
4935,0.1256,-0.6226,0.6881,-5.63,6.84,-1.98,21.81
4945,0.1384,-0.6202,0.6803,-5.21,7.65,-2.06,21.84
4955,0.1398,-0.6141,0.6774,-6.03,7.3,-1.6,21.77
4965,0.1289,-0.6182,0.6901,-6.85,7.01,-1.57,21.8
4975,0.1317,-0.6289,0.6859,-6.61,8.27,-1.91,21.82
4985,0.1376,-0.6221,0.6926,-6.35,9.86,-1.94,21.82
4995,0.135,-0.619,0.6884,-7.59,10.03,-1.97,21.8
5005,0.1432,-0.6281,0.6862,-8.73,9.85,-2.03,21.81
5015,0.146,-0.6241,0.6853,-8.79,10.84,-1.68,21.8
5025,0.1449,-0.6254,0.6803,-8.31,11.13,-1.27,21.8
5035,0.1398,-0.6207,0.6794,-7.89,10.26,-1.21,21.79
5045,0.1405,-0.6207,0.673,-6.96,9.97,-1.05,21.8
5055,0.1361,-0.62,0.6687,-6.35,9.39,-0.98,21.8
5065,0.1354,-0.6207,0.6647,-6.14,8.44,-1.05,21.83
5075,0.1355,-0.624,0.6628,-6.11,7.97,-0.95,21.8
5085,0.2666,-0.8245,0.5721,-8.53,2.75,-2.06,21.81
5095,0.3168,-0.7336,0.6067,-31.53,-5.54,-12.53,21.82
5105,0.1677,-0.5088,0.6198,-26.56,2.6,-8.67,21.83
5115,0.1162,-0.575,0.5587,-15.3,14.2,0.49,21.83
5125,0.1346,-0.6477,0.5867,-10.81,18.27,2.64,21.82
5135,0.1417,-0.6761,0.6647,-10.27,17.88,0.99,21.8
5145,0.1432,-0.652,0.6892,-3.79,18.78,-0.73,21.8
5155,0.0961,-0.5853,0.6978,-0.85,15.02,-1.31,21.8
5165,0.0851,-0.6412,0.7244,1.27,12.32,0.92,21.82
5175,0.0841,-0.6501,0.7213,5.74,12.24,2.41,21.82
5185,0.099,-0.6118,0.7352,2.05,7.68,1.18,21.82
5195,0.0864,-0.5887,0.7446,-2.24,1.36,0.11,21.8
5205,0.0975,-0.5947,0.7401,-3.74,-1.33,-0.76,21.8
5215,0.1003,-0.6069,0.722,-4.06,-1.95,-0.53,21.8
5225,0.1147,-0.6188,0.7175,-3.76,-1.4,0.11,21.81
5235,0.1196,-0.6274,0.7147,-4.11,-1.07,-0.23,21.82
5245,0.1373,-0.6185,0.6923,-5.02,-0.61,-0.09,21.79
5255,0.1456,-0.6166,0.6699,-5.3,0.56,0.43,21.82
5265,0.1497,-0.6155,0.661,-4.9,1.97,0.96,21.82
5275,0.1562,-0.6144,0.6577,-4.55,3.48,1.44,21.8
5285,0.1565,-0.623,0.6588,-3.83,5.42,1.98,21.8
5295,0.1516,-0.6246,0.6592,-2.82,7.15,2.41,21.82
5305,0.1399,-0.6298,0.6727,-1.76,8.34,2.6,21.78
5315,0.1329,-0.6266,0.6683,-2.72,8.02,1.88,21.82
5325,0.1399,-0.6344,0.6758,-3.65,8.14,1.01,21.82
5335,0.1377,-0.632,0.6698,-3.28,9.08,0.69,21.8
5345,0.1345,-0.6272,0.6735,-3.1,8.7,0.87,21.81
5355,0.1329,-0.6268,0.6749,-3.01,7.94,1.1,21.81
5365,0.1326,-0.6249,0.6752,-3.27,6.82,1.04,21.8
5375,0.1394,-0.6244,0.674,-4.05,6.26,0.96,21.82
5385,0.1455,-0.6254,0.6729,-4.55,6.66,0.89,21.84
5395,0.1443,-0.6292,0.6749,-5.24,7.83,0.64,21.81
5405,0.1464,-0.6274,0.67,-6.12,8.72,0.31,21.82
5415,0.1415,-0.6228,0.6654,-6.85,9.11,0.03,21.82
5426,0.1388,-0.6243,0.6608,-6.93,9.76,-0.27,21.82
5436,0.1432,-0.6271,0.671,-6.5,10.2,-0.32,21.83
5446,0.1426,-0.6263,0.6781,-6.37,9.88,-0.34,21.83
5456,0.1406,-0.6265,0.6833,-6.44,9.39,-0.31,21.83
5466,0.1393,-0.6238,0.6819,-6.17,9.13,-0.24,21.79
5476,0.132,-0.6213,0.6886,-6.14,9.01,-0.41,21.82
5486,0.1329,-0.618,0.6897,-6.49,8.81,-0.63,21.81
5496,0.1327,-0.6168,0.686,-6.92,8.89,-0.64,21.82
5506,0.1343,-0.6223,0.6823,-7.13,8.85,-0.66,21.83
5516,0.1381,-0.6222,0.6805,-7.07,8.5,-0.67,21.81
5526,0.1407,-0.6189,0.6768,-7.11,8.4,-0.69,21.83
5536,0.1415,-0.6185,0.6769,-7.07,8.4,-0.7,21.83
5546,0.1458,-0.6212,0.6749,-7.01,7.92,-0.43,21.82
5556,0.1432,-0.6206,0.6691,-7.05,7.83,-0.31,21.82
5566,0.1448,-0.6238,0.6707,-6.92,7.97,-0.05,21.83
5576,0.1471,-0.6232,0.6641,-6.64,8.24,0.12,21.82
5586,0.1426,-0.625,0.6654,-6.47,8.29,0.32,21.83
5596,0.1443,-0.6233,0.6632,-6.37,8.34,0.35,21.84
5606,0.1433,-0.6229,0.6632,-6.23,7.94,0.5,21.84
5616,0.1362,-0.6268,0.6729,-6.21,7.48,0.44,21.84
5626,0.1388,-0.6277,0.6769,-6.2,6.81,0.32,21.83
5636,0.1443,-0.6265,0.6727,-6.08,6.18,0.17,21.82
5646,0.1494,-0.6281,0.6694,-5.92,5.97,0.35,21.83
5656,0.1479,-0.6252,0.6718,-5.88,6.0,0.73,21.85
5666,0.1427,-0.6228,0.6691,-6.11,6.08,0.93,21.83
5676,0.1399,-0.6245,0.6683,-6.34,6.2,1.11,21.86
5686,0.1404,-0.6263,0.666,-6.4,6.12,1.31,21.83
5696,0.1406,-0.6228,0.662,-6.32,6.12,1.15,21.84
5706,0.1428,-0.6187,0.6608,-6.24,5.83,1.24,21.85
5716,0.1415,-0.623,0.6649,-5.74,5.65,1.18,21.83
5726,0.14,-0.6226,0.6671,-5.27,5.74,1.27,21.84
5736,0.1447,-0.6252,0.6665,-4.99,5.4,1.53,21.82
5746,0.1423,-0.6259,0.6656,-4.9,5.18,1.63,21.84
5756,0.1364,-0.62,0.6697,-4.75,4.99,1.69,21.83
5766,0.1366,-0.6194,0.6782,-4.73,5.27,1.66,21.82
5776,0.1376,-0.6205,0.6809,-4.84,5.88,1.5,21.84
5786,0.1328,-0.6246,0.681,-4.99,6.41,1.25,21.84
5796,0.1353,-0.6229,0.6793,-4.81,6.61,1.31,21.84
5806,0.1373,-0.6245,0.6813,-4.82,6.38,1.11,21.81
5816,0.1379,-0.6205,0.6782,-4.72,6.56,0.98,21.84
5826,0.1432,-0.6252,0.6743,-4.82,6.53,0.81,21.84
5836,0.145,-0.6237,0.6776,-4.96,6.41,0.78,21.82
5846,0.1433,-0.6172,0.6733,-4.79,6.37,1.01,21.85
5856,0.1429,-0.6179,0.678,-4.66,6.73,1.08,21.84
5866,0.1417,-0.6207,0.6791,-4.66,7.18,1.08,21.83
5876,0.1387,-0.6238,0.6786,-4.87,7.69,0.93,21.84
5886,0.1313,-0.6198,0.6846,-5.19,8.08,0.73,21.83
5896,0.1324,-0.6202,0.6837,-5.66,8.37,0.49,21.86
5906,0.1356,-0.6271,0.688,-5.95,8.26,0.32,21.84
5916,0.1411,-0.6288,0.691,-6.0,8.23,0.15,21.81
5926,0.1409,-0.6171,0.6864,-5.76,8.32,0.26,21.85
5936,0.1403,-0.6165,0.6757,-5.34,8.21,0.37,21.83
5946,0.1373,-0.6157,0.6693,-4.93,7.47,0.35,21.84
5956,0.1351,-0.615,0.6782,-4.98,6.99,0.38,21.83
5966,0.1431,-0.6154,0.6807,-5.22,6.49,0.38,21.84
5976,0.1466,-0.6173,0.6776,-5.25,6.29,0.53,21.84
5986,0.1482,-0.62,0.679,-5.07,6.23,0.69,21.86
5996,0.1483,-0.6238,0.6793,-4.84,6.35,0.92,21.85
6006,0.1498,-0.624,0.6815,-4.75,6.87,1.21,21.83
6016,0.1482,-0.6237,0.6786,-5.05,7.19,1.31,21.83
6026,0.1454,-0.627,0.6826,-5.3,7.37,1.27,21.82
6036,0.1437,-0.6265,0.6796,-5.27,7.89,1.16,21.82
6046,0.1377,-0.6193,0.6826,-5.34,8.47,1.25,21.84
6056,0.1354,-0.6196,0.6837,-5.6,8.4,1.11,21.82
6066,0.1375,-0.6183,0.6873,-5.92,8.0,1.21,21.84
6076,0.1387,-0.6173,0.6826,-6.23,7.47,1.34,21.83
6086,0.1364,-0.6224,0.6833,-6.35,7.34,1.47,21.85
6096,0.1343,-0.6156,0.6808,-6.29,7.62,1.28,21.83
6106,0.1361,-0.6189,0.6816,-6.23,7.98,1.24,21.84
6116,0.1342,-0.6204,0.6809,-6.23,8.7,1.1,21.84
6126,0.1353,-0.6212,0.6752,-6.11,8.99,0.99,21.82
6137,0.1329,-0.6177,0.6672,-6.18,9.18,0.81,21.84
6147,0.1328,-0.6185,0.6686,-6.31,9.04,0.56,21.84
6157,0.136,-0.6211,0.6732,-6.27,9.08,0.24,21.84
6167,0.1326,-0.6167,0.6659,-6.17,9.02,0.05,21.83
6177,0.1321,-0.6216,0.6764,-6.12,8.89,-0.09,21.83
6187,0.1294,-0.6221,0.6809,-6.15,8.85,-0.27,21.84
6197,0.1283,-0.616,0.6807,-6.05,8.78,-0.46,21.82
6207,0.1332,-0.6194,0.6799,-6.0,8.63,-0.56,21.83
6217,0.1418,-0.6224,0.6758,-6.09,8.81,-0.72,21.83
6227,0.147,-0.6252,0.6718,-5.89,8.92,-0.49,21.85
6237,0.1492,-0.6205,0.6705,-5.88,8.72,-0.17,21.86
6247,0.1455,-0.6227,0.6709,-6.2,8.66,0.12,21.82
6257,0.1414,-0.6226,0.6758,-6.41,8.41,0.34,21.82
6267,0.1398,-0.6228,0.6748,-6.34,8.11,0.55,21.85
6277,0.1306,-0.6229,0.6766,-6.31,7.98,0.41,21.82
6287,0.1298,-0.6189,0.6797,-6.37,7.76,0.08,21.84
6297,0.1328,-0.6221,0.6765,-6.29,8.24,-0.26,21.83
6307,0.1348,-0.6202,0.676,-6.14,8.63,-0.41,21.85
6317,0.136,-0.619,0.6727,-6.09,8.7,-0.44,21.83
6327,0.132,-0.6196,0.6716,-6.08,8.43,-0.37,21.85
6337,0.1288,-0.6202,0.6764,-6.18,8.24,-0.41,21.84
6347,0.1344,-0.6195,0.6794,-6.26,8.2,-0.61,21.86
6357,0.1366,-0.6179,0.6792,-6.7,8.32,-0.6,21.87
6367,0.1429,-0.6227,0.6791,-6.66,8.9,-0.49,21.86
6377,0.1392,-0.6193,0.6757,-6.63,9.08,-0.37,21.82
6387,0.1357,-0.6234,0.6777,-6.73,9.05,-0.4,21.85
6397,0.1375,-0.6206,0.6779,-7.04,8.89,-0.38,21.87
6407,0.1376,-0.6239,0.6797,-6.99,8.52,-0.32,21.85
6417,0.1351,-0.6221,0.6826,-6.73,8.2,-0.08,21.87
6427,0.1329,-0.6183,0.6824,-6.29,8.21,0.11,21.85
6437,0.1306,-0.6191,0.672,-6.2,8.02,0.05,21.86
6447,0.1317,-0.6158,0.672,-6.35,7.6,0.35,21.86
6457,0.1377,-0.6228,0.6736,-6.4,7.74,-0.12,21.84
6467,0.1385,-0.6263,0.6821,-6.47,8.29,-0.03,21.83
6477,0.1436,-0.6271,0.674,-6.55,8.9,-0.11,21.85
6487,0.1361,-0.6261,0.6777,-6.66,9.15,0.03,21.84
6497,0.1317,-0.6233,0.6815,-6.99,9.21,-0.08,21.84
6507,0.1295,-0.6243,0.6799,-7.13,9.07,-0.12,21.83
6517,0.1261,-0.6217,0.6782,-6.9,8.61,-0.18,21.86
6527,0.127,-0.6251,0.6766,-6.58,8.06,-0.24,21.84
6537,0.1292,-0.6215,0.6815,-6.37,8.0,-0.56,21.84
6547,0.1289,-0.6249,0.6799,-6.2,8.08,-0.73,21.85
6557,0.1328,-0.6235,0.6824,-6.44,8.35,-0.85,21.84
6567,0.1305,-0.6254,0.6814,-6.73,8.87,-0.78,21.87
6577,0.1349,-0.6254,0.6759,-6.9,9.02,-0.87,21.84
6587,0.1254,-0.6177,0.6797,-6.82,9.65,-0.95,21.85
6597,0.1296,-0.6173,0.6742,-6.85,9.57,-1.07,21.85
6607,0.1345,-0.6163,0.6732,-6.92,9.59,-1.01,21.86
6617,0.139,-0.6219,0.6713,-6.79,9.57,-0.95,21.87
6627,0.1387,-0.619,0.6692,-6.38,9.45,-0.95,21.85
6637,0.1292,-0.6213,0.6654,-6.27,9.42,-0.87,21.85
6647,0.1311,-0.6238,0.6735,-6.35,9.4,-0.99,21.85
6657,0.1357,-0.6301,0.6733,-6.56,9.45,-1.05,21.85
6667,0.1357,-0.6235,0.6718,-6.6,9.31,-0.89,21.84
6677,0.1337,-0.6238,0.6735,-6.78,8.78,-0.92,21.84
6687,0.1345,-0.6353,0.674,-7.1,8.73,-0.89,21.84
6697,0.1373,-0.625,0.6842,-6.89,8.95,-0.66,21.85
6707,0.1338,-0.6177,0.6791,-6.96,8.7,-0.5,21.86
6717,0.1283,-0.6274,0.6779,-6.98,8.06,-0.46,21.86
6727,0.1338,-0.6321,0.6748,-7.19,8.03,-0.43,21.86
6737,0.1345,-0.6208,0.6726,-7.28,8.15,-0.47,21.84
6747,0.1364,-0.6184,0.6678,-7.31,8.02,-0.63,21.86
6757,0.1353,-0.6265,0.6655,-7.24,8.23,-0.55,21.86
6767,0.1378,-0.6223,0.6676,-7.27,8.52,-0.32,21.84
6777,0.1368,-0.6232,0.6729,-7.39,8.56,-0.21,21.85
6787,0.1329,-0.6281,0.6743,-7.18,8.58,-0.08,21.86
6797,0.129,-0.6249,0.6793,-7.18,8.21,0.17,21.87
6807,0.1263,-0.6259,0.6765,-7.13,7.8,-0.08,21.85
6817,0.1284,-0.6306,0.6735,-6.89,7.89,-0.17,21.86
6827,0.1262,-0.6295,0.6692,-6.96,8.38,-0.31,21.87
6837,0.126,-0.6284,0.6729,-6.87,8.67,-0.47,21.86
6847,0.1262,-0.6289,0.6681,-7.16,8.49,-0.73,21.84
6857,0.1292,-0.6317,0.6738,-7.48,8.69,-1.01,21.86
6867,0.13,-0.627,0.6709,-7.34,8.82,-1.11,21.85
6877,0.1311,-0.6246,0.6727,-6.95,8.73,-1.21,21.86
6887,0.1273,-0.6268,0.673,-6.69,8.5,-1.39,21.86
6897,0.1288,-0.6293,0.6753,-6.52,8.31,-1.42,21.86
6907,0.1328,-0.6245,0.6824,-6.47,8.55,-1.36,21.85
6917,0.1334,-0.6254,0.6781,-6.55,8.44,-1.34,21.85
6927,0.131,-0.6234,0.6736,-6.82,8.29,-1.3,21.88
6937,0.129,-0.6232,0.6705,-6.78,8.44,-1.3,21.86
6947,0.1316,-0.6266,0.6677,-6.72,8.69,-1.21,21.85
6957,0.1328,-0.6287,0.6698,-6.72,8.56,-1.15,21.86
6967,0.1394,-0.6272,0.6665,-6.66,8.73,-0.96,21.84
6977,0.1406,-0.6298,0.6652,-6.76,8.73,-0.75,21.87
6987,0.1384,-0.624,0.6627,-6.81,8.61,-0.5,21.85
6997,0.137,-0.6276,0.6714,-6.82,8.64,-0.34,21.86
7007,0.1353,-0.6277,0.6722,-6.85,8.43,-0.29,21.86
7017,0.1335,-0.6257,0.6704,-6.66,8.44,-0.34,21.85
7027,0.1301,-0.6226,0.6752,-6.26,8.58,-0.34,21.84
7037,0.1315,-0.6243,0.6685,-6.0,8.47,-0.26,21.85
7047,0.1343,-0.6271,0.668,-5.97,7.85,-0.14,21.86
7057,0.1344,-0.6287,0.6656,-5.89,7.63,-0.15,21.87
7067,0.1334,-0.631,0.6652,-5.94,7.92,-0.06,21.85
7077,0.1356,-0.6339,0.6658,-5.95,8.09,0.03,21.85
7087,0.1382,-0.6333,0.6721,-5.92,8.0,0.09,21.86
7097,0.1344,-0.6289,0.671,-6.24,8.27,0.12,21.87
7107,0.1317,-0.626,0.674,-6.27,8.29,0.24,21.87
7117,0.1273,-0.6268,0.6759,-6.23,7.92,0.29,21.86
7127,0.1327,-0.632,0.6727,-6.15,7.86,0.29,21.87
7137,0.1289,-0.6292,0.6682,-5.98,7.56,0.24,21.84
7147,0.1266,-0.6248,0.6697,-5.83,7.5,0.23,21.86
7157,0.1238,-0.6282,0.6683,-5.74,7.44,0.0,21.87
7167,0.1331,-0.6298,0.6718,-5.92,7.62,-0.03,21.88
7177,0.1372,-0.6301,0.6704,-5.89,7.91,-0.03,21.86
7187,0.1301,-0.6249,0.6672,-5.91,8.12,0.0,21.87
7197,0.1282,-0.6223,0.6718,-5.89,8.27,0.0,21.87
7207,0.1251,-0.6307,0.675,-5.63,8.27,-0.06,21.87
7217,0.1284,-0.6302,0.6713,-5.74,7.88,-0.15,21.85
7227,0.1339,-0.6318,0.6697,-6.02,7.5,-0.26,21.88
7237,0.1382,-0.6298,0.6718,-6.06,7.4,-0.17,21.87
7247,0.1348,-0.6278,0.6693,-6.05,7.37,0.14,21.84
7257,0.1296,-0.6296,0.673,-5.74,7.76,0.31,21.84
7267,0.1271,-0.6263,0.6699,-5.89,8.03,0.18,21.86
7277,0.1316,-0.6257,0.674,-5.85,7.91,0.03,21.89
7294,0.129,-0.6298,0.6786,-6.12,7.39,0.14,21.87
7304,0.1261,-0.6249,0.6733,-5.92,7.68,0.17,21.89
7314,0.1306,-0.6289,0.6678,-5.76,7.92,0.32,21.88
7324,0.132,-0.6285,0.6696,-5.86,7.95,0.15,21.84
7334,0.1315,-0.6317,0.6718,-5.98,7.83,0.05,21.87
7344,0.1365,-0.6289,0.6763,-6.0,7.39,0.21,21.88
7355,0.1278,-0.6273,0.6721,-6.02,7.3,0.23,21.88
7365,0.1311,-0.6244,0.6674,-5.79,7.31,0.17,21.9
7375,0.1278,-0.6249,0.6643,-5.53,7.13,0.24,21.85
7385,0.1329,-0.6271,0.6747,-5.51,7.25,0.21,21.89
7395,0.1356,-0.6298,0.6694,-5.6,7.18,0.29,21.86
7405,0.1337,-0.6333,0.6722,-5.56,6.9,0.44,21.87
7415,0.1366,-0.6266,0.6666,-5.56,7.02,0.43,21.89
7425,0.1337,-0.6279,0.6722,-5.65,7.28,0.49,21.89
7435,0.1346,-0.6271,0.6665,-5.8,7.27,0.52,21.88
7445,0.1339,-0.6262,0.671,-5.71,7.02,0.6,21.88
7455,0.1342,-0.6235,0.6731,-5.8,6.93,0.66,21.87
7465,0.1324,-0.623,0.6774,-5.85,6.98,0.61,21.86
7475,0.1337,-0.629,0.6757,-5.73,7.25,0.66,21.87
7485,0.1351,-0.6307,0.677,-5.85,7.24,0.84,21.87
7495,0.1346,-0.6299,0.6724,-5.95,7.27,0.99,21.88
7505,0.1323,-0.6295,0.67,-6.14,7.21,0.85,21.87
7515,0.1326,-0.6316,0.6646,-6.4,7.22,0.85,21.86
7525,0.1283,-0.6316,0.6687,-6.2,7.24,0.76,21.86
7535,0.1307,-0.6262,0.6661,-5.97,7.13,0.67,21.88
7545,0.1323,-0.6315,0.6696,-5.66,7.56,0.31,21.89
7555,0.1259,-0.6221,0.6708,-5.53,7.98,0.23,21.88
7565,0.1234,-0.6237,0.6766,-5.57,7.89,0.0,21.89
7575,0.1232,-0.6259,0.6736,-5.69,7.69,0.03,21.86
7585,0.1276,-0.6254,0.6714,-5.76,7.66,-0.08,21.9
7595,0.13,-0.6255,0.6761,-5.89,8.05,-0.17,21.87
7605,0.134,-0.6248,0.674,-5.88,8.15,-0.06,21.88
7615,0.1333,-0.624,0.6763,-6.11,8.17,-0.09,21.88
7625,0.1307,-0.6259,0.6779,-6.05,8.26,0.03,21.89
7635,0.1273,-0.6245,0.6816,-6.0,8.23,0.17,21.88
7645,0.1261,-0.6267,0.6759,-5.77,7.94,0.26,21.89
7655,0.1294,-0.6282,0.6721,-5.6,7.36,0.32,21.88
7665,0.1323,-0.6277,0.6779,-5.65,7.34,0.24,21.87
7675,0.1304,-0.6311,0.6772,-5.65,7.27,0.26,21.89
7685,0.1343,-0.6326,0.6725,-5.63,7.45,0.32,21.86
7695,0.13,-0.6268,0.6781,-5.83,7.98,0.17,21.88
7705,0.131,-0.6272,0.6746,-5.86,8.2,0.11,21.87
7715,0.1354,-0.6289,0.6644,-5.77,7.92,0.32,21.88
7725,0.1346,-0.6309,0.6696,-5.82,7.54,0.4,21.89
7735,0.1359,-0.6307,0.6705,-6.0,7.1,0.55,21.89
7745,0.1359,-0.6307,0.6677,-5.89,7.05,0.6,21.88
7755,0.1346,-0.6289,0.6692,-5.73,7.25,0.46,21.87
7765,0.1311,-0.6302,0.6726,-5.83,7.83,0.32,21.86
7775,0.1288,-0.6294,0.6804,-5.92,8.24,0.23,21.87
7785,0.1282,-0.6252,0.679,-5.97,8.26,0.18,21.89
7795,0.1261,-0.6254,0.6747,-6.24,8.53,0.18,21.89
7805,0.1252,-0.6233,0.6713,-6.44,8.27,0.24,21.88
7815,0.1305,-0.6266,0.6644,-6.38,7.76,0.24,21.86
7825,0.1307,-0.626,0.6671,-6.49,7.44,0.27,21.89
7835,0.1332,-0.6271,0.6675,-6.35,7.31,0.43,21.88
7845,0.1315,-0.6283,0.6683,-6.2,7.28,0.55,21.89
7855,0.1332,-0.625,0.6677,-6.18,7.37,0.61,21.89
7865,0.1296,-0.6306,0.6702,-6.23,7.51,0.46,21.89
7875,0.1301,-0.629,0.6718,-6.15,7.54,0.35,21.88
7885,0.1249,-0.6287,0.6727,-5.97,7.89,0.23,21.87
7895,0.1282,-0.6266,0.6731,-5.94,7.95,0.18,21.86
7905,0.126,-0.6245,0.6669,-5.91,7.73,0.15,21.88
7915,0.1309,-0.6249,0.6671,-5.89,7.73,0.03,21.89
7925,0.1304,-0.6277,0.6687,-5.82,7.92,0.03,21.89
7935,0.1309,-0.624,0.6661,-5.71,8.09,-0.09,21.87
7945,0.1281,-0.6283,0.6682,-5.59,8.12,-0.12,21.88
7955,0.1288,-0.6272,0.6705,-5.68,8.17,-0.09,21.87
7965,0.1311,-0.6268,0.6697,-6.03,8.02,-0.08,21.88
7975,0.1309,-0.6281,0.6709,-6.12,7.6,0.18,21.9
7985,0.1305,-0.6287,0.6725,-6.46,7.39,0.34,21.89
7995,0.1359,-0.6301,0.6737,-6.35,7.07,0.41,21.89
8005,0.1292,-0.627,0.6704,-6.32,6.63,0.43,21.89
8015,0.129,-0.6272,0.6705,-6.23,6.52,0.44,21.92
8025,0.1288,-0.6281,0.6713,-6.26,6.98,0.38,21.86
8035,0.1298,-0.6276,0.6724,-6.24,7.11,0.27,21.87
8045,0.13,-0.6273,0.6742,-6.53,7.34,0.15,21.87
8055,0.1271,-0.6274,0.6747,-6.53,7.88,0.09,21.92
8065,0.131,-0.6317,0.6719,-6.5,7.79,-0.15,21.9
8075,0.1328,-0.6268,0.6696,-6.49,7.45,-0.06,21.88
8085,0.1304,-0.6287,0.661,-6.32,7.21,-0.09,21.89
8095,0.1296,-0.6262,0.6653,-6.18,7.18,-0.03,21.89
8105,0.1321,-0.6241,0.6663,-5.97,7.21,0.09,21.88
8115,0.131,-0.6241,0.6749,-6.12,7.59,0.11,21.89
8125,0.1273,-0.6267,0.6785,-6.32,8.0,0.05,21.87
8135,0.1342,-0.6273,0.6818,-6.69,8.27,-0.02,21.89
8145,0.1349,-0.6312,0.6807,-6.78,8.6,0.08,21.88
8155,0.1367,-0.6252,0.6779,-6.72,8.37,0.18,21.88
8165,0.1316,-0.6261,0.6744,-6.81,7.98,0.26,21.89
8175,0.1315,-0.627,0.6719,-6.58,7.79,0.21,21.9
8185,0.1305,-0.629,0.6786,-6.67,7.95,0.29,21.89
8195,0.1292,-0.6317,0.676,-6.78,7.98,0.41,21.87
8205,0.1267,-0.6294,0.6759,-6.98,8.41,0.2,21.89
8215,0.1233,-0.6288,0.6771,-7.15,8.92,0.11,21.88
8225,0.1234,-0.6302,0.6757,-7.13,9.28,-0.14,21.89
8235,0.1266,-0.6326,0.6733,-7.13,9.27,-0.47,21.89
8245,0.1228,-0.6309,0.673,-7.08,9.33,-0.64,21.89
8255,0.1263,-0.6328,0.6677,-6.99,9.3,-0.9,21.89
8265,0.1248,-0.6345,0.6672,-6.9,9.44,-1.15,21.9
8275,0.1288,-0.6292,0.6644,-6.7,9.98,-1.25,21.91
8285,0.1295,-0.6333,0.6622,-6.78,10.24,-1.19,21.89
8295,0.1288,-0.6299,0.6641,-7.24,10.0,-1.07,21.88
8305,0.1243,-0.6284,0.6708,-7.31,9.83,-0.98,21.87
8315,0.1235,-0.6301,0.6705,-7.3,9.83,-1.01,21.89
8325,0.1243,-0.6304,0.672,-7.04,9.47,-0.92,21.89
8335,0.1285,-0.6292,0.6669,-6.76,8.99,-0.95,21.86
8345,0.1311,-0.6315,0.6693,-6.46,8.7,-0.9,21.88
8355,0.1331,-0.6313,0.6707,-6.14,8.76,-0.66,21.9
8365,0.1299,-0.6262,0.6718,-6.09,8.84,-0.53,21.88
8375,0.1263,-0.6239,0.6731,-6.46,8.76,-0.55,21.85
8385,0.1281,-0.6295,0.6757,-6.58,8.89,-0.47,21.89
8395,0.1279,-0.6282,0.6738,-6.55,8.92,-0.35,21.88
8405,0.1284,-0.6312,0.6714,-6.47,8.9,-0.21,21.9
8415,0.1276,-0.6324,0.6685,-6.27,8.98,-0.18,21.89
8425,0.1276,-0.634,0.6677,-6.35,9.04,-0.2,21.89
8435,0.1226,-0.6353,0.6692,-6.7,9.39,-0.32,21.88
8445,0.1213,-0.6372,0.6665,-6.67,9.85,-0.53,21.9
8455,0.1261,-0.6333,0.6653,-6.87,9.89,-0.81,21.89
8465,0.1294,-0.6292,0.6581,-6.69,9.69,-0.63,21.9
8475,0.1262,-0.6309,0.6576,-6.4,9.27,-0.6,21.9
8485,0.1306,-0.6345,0.6583,-5.91,8.82,-0.49,21.9
8495,0.1292,-0.631,0.6576,-5.62,8.5,-0.44,21.91
8505,0.1295,-0.6298,0.6565,-5.28,8.09,-0.38,21.91
8515,0.13,-0.6301,0.66,-5.28,7.88,-0.29,21.91
8525,0.1239,-0.6312,0.6627,-5.21,7.91,-0.26,21.89
8535,0.1224,-0.6337,0.6625,-5.28,8.18,-0.37,21.9
8545,0.1273,-0.6335,0.6627,-5.24,8.32,-0.52,21.88
8555,0.1245,-0.6327,0.6661,-5.44,8.58,-0.56,21.9
8565,0.1205,-0.6302,0.6627,-5.53,8.96,-0.67,21.92
8575,0.1185,-0.6292,0.662,-5.65,8.96,-0.75,21.89
8585,0.1187,-0.629,0.6719,-5.56,8.78,-0.84,21.88
8595,0.1162,-0.6306,0.6755,-5.56,8.69,-0.73,21.89
8605,0.1174,-0.6271,0.6819,-6.0,8.27,-0.55,21.89
8615,0.1183,-0.6292,0.6807,-6.43,7.83,-0.76,21.9
8625,0.1223,-0.6302,0.6803,-6.27,7.33,-0.76,21.9
8635,0.1218,-0.6273,0.6821,-5.95,6.76,-0.66,21.88
8645,0.1211,-0.6292,0.6837,-5.76,5.98,-0.52,21.91
8655,0.1285,-0.6266,0.6841,-5.71,5.88,-0.49,21.88
8665,0.1361,-0.6313,0.682,-5.62,6.4,-0.44,21.89
8675,0.1362,-0.6313,0.6814,-5.4,6.95,-0.4,21.87
8685,0.1379,-0.6333,0.6774,-5.65,7.6,-0.31,21.88
8695,0.1351,-0.6318,0.6832,-5.66,8.21,-0.23,21.89
8705,0.1328,-0.6328,0.6794,-5.77,8.81,0.05,21.89
8715,0.1288,-0.6328,0.6796,-6.14,9.08,0.02,21.89
8725,0.1262,-0.6305,0.6819,-6.72,9.33,0.12,21.92
8735,0.1265,-0.6359,0.6771,-7.07,9.15,0.21,21.89
8745,0.1254,-0.6326,0.6716,-7.25,9.24,0.29,21.88
8755,0.1249,-0.6313,0.6702,-7.15,9.07,0.24,21.9
8765,0.1222,-0.6337,0.6736,-6.73,8.82,0.11,21.89
8775,0.126,-0.6335,0.6721,-5.97,8.79,0.11,21.88
8785,0.1235,-0.6327,0.6716,-5.68,8.7,0.0,21.89
8795,0.1257,-0.6318,0.6652,-5.77,8.72,-0.02,21.89
8805,0.1256,-0.6317,0.6667,-5.88,8.92,-0.05,21.89
8815,0.1299,-0.63,0.6649,-6.18,9.18,0.06,21.92
8825,0.1273,-0.6312,0.6683,-6.61,9.33,0.11,21.89
8835,0.1268,-0.6266,0.6697,-6.81,9.27,0.18,21.91
8845,0.1193,-0.6267,0.6633,-6.96,9.02,0.37,21.88
8855,0.1219,-0.6262,0.6658,-6.61,8.99,0.4,21.89
8865,0.1174,-0.6288,0.6672,-6.34,8.67,0.38,21.88
8875,0.12,-0.6333,0.6699,-6.6,8.12,0.37,21.88
8885,0.118,-0.6312,0.671,-6.52,7.71,0.37,21.89
8895,0.1218,-0.6324,0.6733,-6.55,7.69,0.18,21.9
8905,0.12,-0.6332,0.6674,-6.55,8.15,0.09,21.89
8915,0.1243,-0.6317,0.6667,-6.37,8.14,0.02,21.88
8925,0.1201,-0.6326,0.6625,-6.23,8.02,-0.05,21.86
8935,0.1233,-0.6281,0.6627,-6.23,8.14,-0.02,21.86
8945,0.1292,-0.6294,0.6572,-6.05,8.0,0.26,21.89
8955,0.1233,-0.6322,0.6538,-5.86,7.83,0.15,21.9
8965,0.123,-0.6318,0.6526,-5.77,7.65,0.21,21.89
8975,0.1205,-0.6343,0.6547,-5.62,7.44,0.27,21.89
8985,0.1233,-0.637,0.6621,-5.6,7.21,0.23,21.88
8995,0.1268,-0.6365,0.66,-5.8,7.22,0.26,21.91
9005,0.1232,-0.6321,0.6598,-6.0,7.44,0.23,21.88
9015,0.1234,-0.635,0.6573,-6.14,7.4,0.15,21.89
9025,0.1232,-0.6351,0.6669,-6.26,7.33,0.17,21.91
9035,0.1201,-0.6354,0.6663,-6.06,7.19,0.26,21.89
9045,0.1199,-0.6295,0.6669,-5.56,6.52,0.31,21.89
9055,0.1187,-0.6292,0.6632,-5.4,6.12,0.26,21.9
9065,0.1235,-0.6326,0.6716,-5.15,6.08,0.12,21.91
9075,0.1251,-0.6285,0.6716,-5.13,6.26,0.11,21.88
9085,0.1265,-0.629,0.6689,-5.28,6.87,0.2,21.88
9095,0.1295,-0.6313,0.6696,-5.66,7.48,0.46,21.9
9105,0.1266,-0.6323,0.6803,-5.97,7.92,0.49,21.92
9115,0.1166,-0.6316,0.6874,-6.06,8.08,0.56,21.88
9125,0.1138,-0.6292,0.6906,-6.08,7.94,0.41,21.89
9135,0.1122,-0.6266,0.6863,-6.14,7.6,0.2,21.89
9145,0.1166,-0.6268,0.682,-6.11,7.34,0.05,21.9
9155,0.1177,-0.6234,0.6777,-5.77,7.3,-0.11,21.89
9165,0.1183,-0.625,0.675,-5.8,7.42,-0.18,21.89
9175,0.1261,-0.6274,0.6699,-5.62,7.63,-0.17,21.89
9185,0.1272,-0.6277,0.6666,-5.62,8.09,-0.03,21.87
9195,0.1239,-0.6281,0.665,-5.53,8.43,-0.02,21.91
9205,0.1262,-0.6327,0.6638,-5.68,8.47,0.0,21.89
9215,0.1279,-0.6312,0.6647,-6.06,8.37,0.26,21.9
9225,0.1265,-0.6326,0.6638,-6.17,8.4,0.31,21.9
9235,0.1302,-0.6364,0.6636,-6.32,8.0,0.41,21.89
9245,0.1299,-0.6361,0.6624,-6.32,8.05,0.63,21.93
9255,0.123,-0.6328,0.6661,-6.03,7.92,0.63,21.9
9265,0.12,-0.6337,0.6694,-5.71,7.69,0.75,21.9
9275,0.1154,-0.6306,0.6671,-5.76,7.51,0.73,21.9
9285,0.113,-0.6285,0.6747,-5.73,7.39,0.49,21.89
9295,0.1212,-0.6329,0.671,-5.73,7.16,0.24,21.91
9305,0.1224,-0.6301,0.675,-5.71,7.27,0.11,21.89
9315,0.1176,-0.6261,0.6675,-5.73,7.28,0.05,21.88
9325,0.1248,-0.6255,0.6665,-5.68,7.69,0.08,21.91
9335,0.1304,-0.6316,0.6674,-5.68,8.02,0.14,21.9
9345,0.1315,-0.6313,0.6674,-5.88,7.85,0.31,21.92
9355,0.13,-0.635,0.6656,-5.95,7.68,0.43,21.89
9365,0.1277,-0.6327,0.6724,-5.65,7.91,0.46,21.91
9375,0.1221,-0.63,0.6725,-5.54,8.05,0.55,21.9
9385,0.1226,-0.6315,0.6697,-5.65,7.85,0.64,21.89
9395,0.1212,-0.6311,0.6677,-5.77,7.79,0.64,21.93
9405,0.1207,-0.632,0.6689,-5.83,7.98,0.67,21.9
9415,0.1204,-0.6322,0.671,-5.97,7.76,0.67,21.91
9425,0.1217,-0.6293,0.6715,-6.27,7.53,0.72,21.91
9435,0.1199,-0.6272,0.6735,-6.26,7.45,0.61,21.91
9445,0.1207,-0.6329,0.6721,-6.02,7.39,0.47,21.91
9455,0.1188,-0.6317,0.677,-5.85,7.3,0.4,21.91
9465,0.1179,-0.629,0.6801,-5.62,7.22,0.26,21.89
9475,0.121,-0.627,0.6761,-5.47,7.36,0.26,21.92
9485,0.1206,-0.6304,0.678,-5.54,7.57,0.26,21.91
9495,0.1262,-0.6298,0.6742,-5.8,7.33,0.27,21.91
9505,0.1232,-0.631,0.6743,-6.0,7.16,0.37,21.9
9515,0.1194,-0.6284,0.6705,-6.06,7.3,0.38,21.92
9525,0.1166,-0.6293,0.6713,-6.15,7.48,0.15,21.89
9535,0.1207,-0.6315,0.6738,-6.08,7.36,0.17,21.9
9545,0.1221,-0.6345,0.6785,-5.98,7.54,0.27,21.91
9555,0.1281,-0.6359,0.6735,-6.0,7.6,0.41,21.91
9565,0.125,-0.6331,0.6691,-6.12,7.74,0.46,21.9
9575,0.1237,-0.6317,0.6689,-6.21,7.97,0.63,21.88
9585,0.1176,-0.63,0.6696,-6.12,7.68,0.55,21.89
9595,0.1205,-0.6267,0.6713,-6.11,7.4,0.58,21.9
9605,0.1224,-0.6241,0.6721,-5.98,7.28,0.66,21.91
9615,0.118,-0.6263,0.6705,-5.62,7.51,0.81,21.89
9625,0.1202,-0.6298,0.6685,-5.63,7.76,0.93,21.91
9635,0.12,-0.6313,0.6731,-6.08,7.91,0.81,21.91
9645,0.1257,-0.6327,0.6732,-6.18,8.06,0.95,21.9
9655,0.1198,-0.6338,0.6733,-6.0,7.97,1.11,21.89
9665,0.123,-0.6323,0.6732,-6.02,7.91,0.93,21.9
9675,0.1198,-0.6324,0.6743,-5.79,8.06,0.81,21.89
9685,0.1223,-0.6334,0.6677,-5.33,8.14,0.72,21.87
9695,0.1165,-0.6309,0.6682,-5.45,8.41,0.5,21.89
9705,0.1167,-0.6313,0.6678,-5.85,8.6,0.24,21.9
9715,0.1165,-0.6332,0.6636,-6.12,8.46,0.17,21.9
9725,0.1154,-0.6318,0.6609,-6.23,8.43,0.12,21.92
9735,0.1171,-0.6316,0.6675,-6.17,8.32,-0.17,21.92
9745,0.1227,-0.6322,0.6619,-6.23,7.97,-0.08,21.9
9755,0.1195,-0.6301,0.6648,-5.94,8.08,-0.06,21.92
9765,0.1206,-0.6272,0.6624,-5.88,8.02,-0.11,21.91
9775,0.1213,-0.6287,0.6614,-5.88,7.8,0.03,21.91
9785,0.1202,-0.6294,0.6622,-5.95,7.74,0.17,21.89
9795,0.1257,-0.6326,0.6686,-5.89,7.34,0.31,21.9
9805,0.1239,-0.6311,0.6682,-5.62,7.28,0.4,21.9
9815,0.1213,-0.6338,0.6709,-5.37,7.34,0.32,21.91
9825,0.1187,-0.6318,0.6765,-5.48,7.45,0.17,21.92
9835,0.119,-0.6292,0.672,-5.89,7.82,0.11,21.9
9845,0.1157,-0.6329,0.6747,-6.03,7.94,0.02,21.9
9855,0.1146,-0.6313,0.6763,-6.17,7.94,-0.05,21.89
9865,0.1138,-0.6334,0.6769,-6.43,7.92,-0.23,21.92
9875,0.1118,-0.6324,0.6736,-6.31,7.92,-0.37,21.91
9885,0.1199,-0.6271,0.6689,-6.29,7.63,-0.47,21.88
9895,0.1199,-0.6289,0.6711,-6.09,7.62,-0.43,21.92
9905,0.1211,-0.6298,0.6744,-5.88,7.51,-0.37,21.91
9915,0.1226,-0.6309,0.6771,-5.92,7.31,-0.24,21.92
9925,0.1238,-0.6283,0.6774,-6.03,7.39,-0.26,21.91
9935,0.1256,-0.6296,0.6733,-6.15,7.47,-0.21,21.91
9945,0.1282,-0.6326,0.6691,-6.12,7.47,-0.23,21.9
9955,0.1273,-0.6309,0.6693,-6.26,7.71,-0.14,21.91
9965,0.125,-0.6294,0.6671,-6.44,8.09,0.11,21.91
9975,0.1199,-0.6348,0.6765,-6.47,7.98,0.35,21.9
9985,0.1189,-0.6304,0.6763,-6.69,7.92,0.4,21.91
9995,0.1169,-0.6305,0.675,-6.87,7.82,0.43,21.93
10005,0.1183,-0.6309,0.6722,-6.84,7.59,0.46,21.9
10015,0.1167,-0.6261,0.6729,-6.64,7.44,0.47,21.92
10025,0.12,-0.6268,0.667,-6.53,7.39,0.37,21.93
10035,0.1145,-0.6273,0.6692,-6.43,7.39,0.29,21.91
10045,0.115,-0.63,0.6765,-6.31,7.77,0.23,21.92
10055,0.1167,-0.6322,0.6757,-6.34,8.11,0.11,21.91
10065,0.1136,-0.6326,0.6755,-6.34,8.24,0.08,21.92
10075,0.1111,-0.6342,0.6759,-6.41,8.2,-0.2,21.9
10085,0.116,-0.6326,0.6741,-6.56,8.31,-0.37,21.91
10095,0.1162,-0.6335,0.6704,-6.66,8.15,-0.55,21.9
10105,0.118,-0.6327,0.67,-6.66,8.26,-0.47,21.9
10115,0.1224,-0.6301,0.6698,-6.6,8.52,-0.4,21.9
10125,0.125,-0.6311,0.6672,-6.81,8.53,-0.29,21.91
10135,0.1195,-0.632,0.6626,-6.93,8.73,-0.37,21.89
10145,0.1218,-0.6322,0.6661,-6.84,8.72,-0.32,21.93
10155,0.125,-0.6305,0.6626,-6.87,8.52,-0.31,21.9
10165,0.1233,-0.6298,0.6614,-6.66,8.32,-0.29,21.92
10175,0.1188,-0.63,0.6602,-6.32,8.21,-0.29,21.93
10185,0.1151,-0.6279,0.6647,-6.06,7.98,-0.31,21.92
10195,0.1139,-0.6267,0.6628,-5.92,8.18,-0.37,21.93
10205,0.1182,-0.6296,0.6631,-5.89,8.21,-0.67,21.92
10215,0.1246,-0.635,0.6678,-6.12,8.09,-0.84,21.93
10225,0.1243,-0.6375,0.67,-5.94,8.46,-0.81,21.92
10235,0.124,-0.6379,0.6682,-6.0,8.9,-0.58,21.9
10245,0.1212,-0.6348,0.6685,-6.09,8.82,-0.29,21.92
10255,0.1171,-0.6292,0.6648,-6.5,8.49,0.06,21.91
10265,0.1182,-0.6298,0.6646,-6.89,8.18,0.15,21.92
10275,0.1166,-0.6246,0.6635,-6.95,8.15,0.24,21.92
10285,0.1194,-0.6295,0.6593,-6.96,7.98,0.23,21.93
10295,0.1196,-0.6366,0.6622,-6.82,7.71,0.17,21.91
10305,0.1246,-0.6364,0.6699,-6.46,7.48,0.2,21.91
10315,0.1193,-0.6348,0.6666,-6.08,7.13,0.11,21.92
10325,0.1174,-0.635,0.6737,-5.92,6.89,0.11,21.92
10335,0.1178,-0.6337,0.6727,-5.59,7.01,0.12,21.9
10345,0.1141,-0.63,0.677,-5.42,6.79,0.14,21.93
10355,0.1122,-0.6296,0.6755,-5.48,6.87,-0.08,21.89
10365,0.1217,-0.6274,0.6658,-5.66,6.93,-0.18,21.91
10375,0.1266,-0.6309,0.6691,-5.97,7.39,-0.29,21.93
10385,0.1256,-0.632,0.6688,-5.97,7.92,-0.23,21.91
10395,0.1265,-0.6312,0.6675,-6.05,8.11,-0.05,21.94
10405,0.1245,-0.6309,0.6682,-6.26,8.11,0.21,21.91
10415,0.1218,-0.6327,0.6676,-6.24,8.06,0.21,21.9
10425,0.1219,-0.6311,0.6693,-6.27,7.69,0.24,21.9
10435,0.1165,-0.6306,0.6711,-6.29,7.73,0.21,21.91
10445,0.1143,-0.6302,0.6588,-6.15,7.74,0.12,21.9
10455,0.1162,-0.6307,0.6648,-6.18,7.79,-0.02,21.91
10465,0.1155,-0.6333,0.6648,-6.35,7.85,-0.17,21.94
10475,0.1176,-0.6305,0.6672,-6.12,7.88,-0.26,21.91
10485,0.1165,-0.6328,0.6661,-5.97,7.95,-0.31,21.93
10495,0.1158,-0.6321,0.6649,-5.77,7.97,-0.34,21.91
10505,0.1163,-0.6312,0.6714,-5.77,7.76,-0.38,21.92
10515,0.1156,-0.6294,0.6766,-5.76,7.56,-0.4,21.93
10525,0.1177,-0.6305,0.6763,-5.63,7.19,-0.37,21.91
10535,0.1193,-0.6307,0.678,-5.45,7.19,-0.23,21.9
10545,0.1213,-0.6327,0.6758,-5.1,7.47,-0.26,21.91
10555,0.1212,-0.6307,0.6715,-5.25,7.66,-0.03,21.91
10565,0.1191,-0.6282,0.6722,-5.63,7.69,0.05,21.92
10575,0.118,-0.6312,0.6718,-6.06,8.15,0.21,21.91
10585,0.1195,-0.6284,0.6711,-6.35,8.17,0.09,21.9
10595,0.1212,-0.6329,0.6692,-6.41,8.31,-0.12,21.89
10605,0.1218,-0.6316,0.6642,-6.17,8.95,-0.21,21.91
10615,0.1177,-0.6326,0.6678,-6.14,9.01,-0.12,21.91
10625,0.1134,-0.6279,0.6682,-6.31,8.49,-0.05,21.93
10635,0.115,-0.6298,0.6672,-6.6,8.08,-0.12,21.92
10645,0.1152,-0.6306,0.6744,-6.72,7.63,-0.03,21.91
10655,0.1154,-0.6324,0.6737,-6.61,7.4,-0.02,21.91
10665,0.1208,-0.6382,0.6731,-6.41,7.24,0.05,21.94
10675,0.1189,-0.636,0.6727,-6.15,7.34,-0.11,21.93
10685,0.1198,-0.6289,0.6709,-5.85,7.45,0.03,21.92
10695,0.1248,-0.6334,0.6672,-5.65,7.47,0.02,21.89
10705,0.1283,-0.6371,0.665,-5.68,7.71,0.08,21.92
10715,0.1234,-0.6356,0.6656,-5.65,8.11,0.38,21.93
10725,0.1196,-0.6298,0.6639,-5.56,8.21,0.53,21.92
10735,0.1156,-0.6301,0.6631,-5.83,8.06,0.49,21.92
10745,0.116,-0.6313,0.6615,-5.8,7.6,0.47,21.91
10755,0.1163,-0.6316,0.6632,-5.89,7.45,0.4,21.92
10765,0.1162,-0.6322,0.6696,-5.73,7.47,0.41,21.9
10775,0.1143,-0.636,0.6677,-5.59,7.39,0.32,21.92
10785,0.1161,-0.6334,0.6665,-5.48,7.3,0.17,21.95
10795,0.1179,-0.6355,0.6635,-5.5,7.27,0.11,21.91
10805,0.1187,-0.6354,0.6635,-5.51,7.07,0.05,21.93
10815,0.1194,-0.6371,0.6669,-5.95,7.02,-0.02,21.92
10825,0.118,-0.6329,0.6729,-6.15,7.22,-0.03,21.91
10835,0.1223,-0.6332,0.6687,-6.18,7.53,0.06,21.9
10845,0.1251,-0.6339,0.6707,-6.2,7.56,0.11,21.93
10855,0.1212,-0.6307,0.6725,-6.15,7.76,0.08,21.94
10865,0.1184,-0.6305,0.6685,-5.86,7.85,0.12,21.93
10875,0.1173,-0.6304,0.6666,-5.94,7.8,0.05,21.91
10885,0.1202,-0.63,0.6681,-6.14,7.59,0.08,21.9
10895,0.118,-0.6322,0.671,-6.02,7.57,0.08,21.91
10905,0.1166,-0.6309,0.6752,-5.82,7.28,0.09,21.92
10915,0.1183,-0.6301,0.6737,-5.85,7.18,0.0,21.92
10925,0.1174,-0.6339,0.6708,-5.94,7.19,0.03,21.91
10935,0.1157,-0.6302,0.6788,-5.68,7.36,-0.03,21.91
10945,0.1134,-0.6318,0.6829,-5.8,7.45,0.05,21.94
10955,0.1172,-0.6317,0.6777,-6.09,7.51,-0.08,21.92
10965,0.1178,-0.631,0.6798,-6.37,7.68,-0.11,21.92
10975,0.1217,-0.63,0.6804,-6.26,7.76,-0.02,21.93
10985,0.1223,-0.6305,0.6692,-6.35,7.53,0.03,21.91
10995,0.1233,-0.6334,0.6661,-6.35,7.56,0.17,21.92
11005,0.1204,-0.6311,0.6716,-6.18,7.31,0.23,21.92
11015,0.1185,-0.6316,0.672,-6.14,7.48,0.26,21.92
11025,0.1155,-0.6294,0.6787,-6.38,8.02,0.15,21.92
11035,0.1174,-0.6337,0.679,-6.87,8.5,0.06,21.93
11045,0.1195,-0.6349,0.6794,-7.1,8.82,-0.02,21.92
11055,0.1216,-0.6337,0.6738,-7.24,9.19,-0.02,21.93
11065,0.1234,-0.6312,0.6687,-7.07,9.27,0.0,21.92
11075,0.119,-0.6311,0.6653,-7.02,9.1,0.12,21.9
11085,0.1169,-0.6322,0.6693,-6.78,9.27,0.09,21.91
11095,0.1144,-0.6345,0.6699,-6.5,9.08,0.03,21.92
11105,0.1139,-0.6295,0.6667,-6.73,8.73,0.03,21.92
11115,0.1097,-0.6282,0.6613,-6.7,8.53,0.0,21.93
11125,0.11,-0.6292,0.6615,-6.58,8.79,0.14,21.93
11135,0.1096,-0.6294,0.6606,-6.53,8.82,0.15,21.94
11145,0.1108,-0.6271,0.6631,-6.55,8.63,0.18,21.92
11155,0.1104,-0.6279,0.6615,-6.6,7.95,0.2,21.92
11165,0.1106,-0.6315,0.6548,-6.35,7.56,-0.09,21.92
11175,0.1173,-0.6359,0.6605,-6.44,7.76,-0.2,21.92
11185,0.1185,-0.635,0.6659,-6.44,8.05,-0.37,21.9
11195,0.1187,-0.6373,0.6677,-6.37,8.58,-0.44,21.93
11205,0.12,-0.6383,0.667,-6.26,8.95,-0.46,21.93
11215,0.1184,-0.6405,0.6659,-6.0,8.89,-0.67,21.94
11225,0.1124,-0.6337,0.6608,-6.0,8.66,-0.85,21.92
11235,0.1119,-0.6337,0.6611,-6.02,8.32,-0.78,21.91
11245,0.1172,-0.6343,0.6647,-6.0,8.24,-0.76,21.94
11255,0.1205,-0.6351,0.6597,-6.15,8.27,-0.75,21.92
11265,0.1232,-0.6324,0.6566,-6.18,8.05,-0.5,21.91
11275,0.1243,-0.6333,0.6654,-6.26,7.94,-0.26,21.91
11285,0.1185,-0.6337,0.6635,-6.2,7.66,-0.08,21.94
11295,0.12,-0.6327,0.6661,-6.09,7.01,0.15,21.92
11305,0.1191,-0.6285,0.6703,-6.08,6.55,0.26,21.92
11315,0.1198,-0.6302,0.6731,-6.03,6.78,0.34,21.91
11325,0.119,-0.6307,0.6716,-5.86,7.21,0.37,21.93
11335,0.1198,-0.6334,0.6703,-6.09,7.56,0.38,21.91
11345,0.1219,-0.6342,0.6738,-6.44,7.83,0.35,21.91
11355,0.1184,-0.636,0.674,-6.37,8.03,0.38,21.91
11365,0.1141,-0.6333,0.6726,-6.29,8.11,0.21,21.92
11375,0.1143,-0.6317,0.6722,-6.34,8.41,0.15,21.92
11385,0.115,-0.6351,0.6808,-6.7,8.63,0.14,21.94
11395,0.1113,-0.6317,0.677,-6.69,8.61,0.15,21.91
11405,0.1064,-0.6306,0.6731,-6.55,8.58,-0.12,21.94
11415,0.1058,-0.6317,0.667,-6.43,8.31,-0.18,21.92
11425,0.1096,-0.6343,0.6665,-6.27,7.69,-0.4,21.9
11435,0.1113,-0.6361,0.6621,-6.09,7.3,-0.5,21.95
11445,0.1165,-0.6322,0.6625,-6.15,7.4,-0.67,21.94
11455,0.119,-0.6344,0.6642,-6.31,7.62,-0.58,21.92
11465,0.1243,-0.6316,0.6622,-6.29,7.86,-0.44,21.94
11475,0.1194,-0.6387,0.6632,-6.21,8.29,-0.26,21.93
11485,0.1198,-0.6372,0.6627,-6.29,8.69,-0.17,21.91
11495,0.1193,-0.6372,0.6605,-6.38,8.29,-0.06,21.91
11505,0.1115,-0.6381,0.6639,-6.43,8.06,-0.06,21.92
11515,0.1118,-0.6345,0.6627,-6.4,8.41,-0.17,21.91
11525,0.1121,-0.6332,0.667,-6.2,8.61,-0.35,21.91
11535,0.11,-0.6342,0.6641,-6.23,8.64,-0.37,21.91
11545,0.1082,-0.6337,0.6617,-6.15,8.5,-0.53,21.92
11555,0.1157,-0.6359,0.6633,-6.15,8.38,-0.58,21.92
11565,0.1184,-0.6368,0.6633,-5.95,8.2,-0.7,21.93
11575,0.1206,-0.6334,0.6617,-5.88,8.23,-0.58,21.91
11585,0.1172,-0.6333,0.6653,-5.91,8.58,-0.56,21.93
11595,0.1201,-0.6379,0.6718,-6.14,8.49,-0.5,21.93
11605,0.1156,-0.6359,0.6735,-6.34,8.34,-0.44,21.93
11615,0.1179,-0.6359,0.6711,-6.38,8.58,-0.41,21.92
11625,0.1149,-0.6339,0.671,-6.32,8.43,-0.32,21.92
11635,0.1176,-0.6355,0.6677,-6.5,8.38,-0.24,21.9
11645,0.1205,-0.6337,0.6639,-6.5,8.02,-0.23,21.93
11655,0.1185,-0.6375,0.6625,-6.58,7.59,-0.23,21.95
11665,0.1168,-0.6354,0.6617,-6.72,7.34,-0.09,21.92
11675,0.1157,-0.6359,0.6648,-6.66,7.21,0.03,21.94
11685,0.1149,-0.6348,0.6674,-6.46,7.33,0.11,21.93
11695,0.1119,-0.636,0.6682,-6.37,7.66,0.11,21.92
11705,0.111,-0.6406,0.6711,-6.38,7.57,0.0,21.91
11715,0.1134,-0.6376,0.667,-6.43,7.36,-0.14,21.9
11725,0.1165,-0.6323,0.6582,-6.32,6.99,-0.18,21.9
11735,0.1152,-0.6348,0.6542,-6.14,6.87,-0.11,21.94
11745,0.1185,-0.637,0.6626,-6.08,6.95,-0.03,21.93
11755,0.1178,-0.6361,0.6699,-6.03,6.98,0.0,21.91
11765,0.1145,-0.6346,0.6669,-6.12,7.39,0.12,21.94
11775,0.1117,-0.6342,0.6711,-6.26,7.65,0.08,21.95
11785,0.1157,-0.6348,0.6685,-6.18,7.45,0.11,21.95
11795,0.1161,-0.6379,0.6685,-6.27,7.34,-0.02,21.92
11805,0.1161,-0.6357,0.6674,-6.2,7.42,-0.08,21.94
11815,0.116,-0.6395,0.6631,-6.26,7.42,0.02,21.95
11825,0.1173,-0.635,0.6611,-6.43,7.4,-0.06,21.94
11835,0.1173,-0.6342,0.6584,-6.26,7.48,0.08,21.92
11845,0.1106,-0.6342,0.6658,-6.26,7.59,-0.02,21.95
11855,0.1124,-0.6375,0.666,-6.27,7.63,-0.14,21.92
11865,0.115,-0.6344,0.6674,-6.21,7.76,-0.15,21.93
11875,0.1145,-0.6354,0.6731,-6.27,7.98,-0.31,21.95
11885,0.1102,-0.6399,0.6649,-6.24,8.08,-0.35,21.94
11895,0.1168,-0.6351,0.6605,-6.03,7.74,-0.4,21.97
11905,0.1139,-0.6351,0.6608,-5.95,7.76,-0.5,21.92
11915,0.1172,-0.6348,0.6633,-5.86,7.83,-0.6,21.95
11925,0.1234,-0.6365,0.6604,-6.05,7.68,-0.43,21.93
11935,0.1204,-0.6351,0.6631,-5.98,7.68,-0.21,21.93
11945,0.1174,-0.6373,0.6628,-5.8,7.94,-0.37,21.93
11955,0.1157,-0.6371,0.6643,-5.66,7.88,-0.52,21.94
11965,0.1166,-0.6351,0.6674,-5.71,7.92,-0.63,21.95
11975,0.1121,-0.6368,0.6649,-5.62,7.97,-0.63,21.95
11985,0.113,-0.6323,0.6685,-5.62,7.94,-0.66,21.92
11995,0.1166,-0.6313,0.6687,-5.71,7.79,-0.55,21.96
12005,0.1168,-0.6302,0.6747,-5.97,7.6,-0.41,21.94
12015,0.1145,-0.6309,0.675,-6.31,7.34,-0.27,21.94
12025,0.1189,-0.6334,0.6764,-6.55,7.16,-0.18,21.92
12035,0.1191,-0.6322,0.6729,-6.43,7.1,-0.09,21.92
12045,0.1234,-0.6353,0.6766,-6.2,7.37,0.0,21.92
12055,0.1246,-0.6337,0.6694,-5.88,7.95,0.11,21.94
12065,0.1241,-0.6354,0.6663,-5.69,8.02,0.31,21.94
12075,0.119,-0.6357,0.6625,-5.66,7.74,0.64,21.92
12085,0.1162,-0.6334,0.6669,-5.79,7.4,0.6,21.94
12095,0.1165,-0.635,0.6674,-5.8,7.08,0.58,21.93
12105,0.1107,-0.635,0.6694,-5.71,6.99,0.6,21.93
12115,0.113,-0.6362,0.6702,-5.63,7.33,0.32,21.92
12125,0.1189,-0.6385,0.6736,-5.57,7.57,0.2,21.95
12135,0.1177,-0.6361,0.6726,-5.77,7.76,0.02,21.94
12145,0.1219,-0.6399,0.6704,-5.95,8.06,0.03,21.94
12155,0.1154,-0.6382,0.6669,-5.85,8.15,0.03,21.93
12165,0.116,-0.6373,0.6663,-5.77,8.06,0.09,21.93
12175,0.1124,-0.632,0.6631,-5.88,7.68,0.14,21.93
12185,0.1139,-0.6365,0.6648,-6.03,7.24,0.08,21.95
12195,0.1154,-0.6362,0.6646,-6.15,7.07,0.05,21.94
12205,0.1177,-0.6368,0.6614,-6.2,7.6,0.02,21.93
12215,0.1195,-0.6377,0.6608,-6.24,8.06,0.08,21.93
12225,0.1165,-0.6388,0.6586,-6.23,8.15,0.12,21.93
12235,0.1125,-0.6337,0.6567,-6.12,7.88,-0.08,21.92
12245,0.1104,-0.6345,0.6576,-5.92,7.56,-0.05,21.92
12255,0.11,-0.636,0.6589,-5.57,7.21,-0.23,21.92
12265,0.1144,-0.6373,0.665,-5.21,7.36,-0.27,21.91
12275,0.1189,-0.6344,0.6663,-4.99,7.54,-0.31,21.91
12285,0.1202,-0.634,0.665,-5.19,7.57,-0.37,21.92
12295,0.1162,-0.6365,0.6735,-5.4,7.79,-0.27,21.91
12310,0.1157,-0.6342,0.6639,-5.83,8.0,-0.03,21.93
12320,0.1173,-0.6366,0.6718,-6.2,8.0,0.02,21.92
12330,0.1173,-0.6332,0.6691,-6.31,7.86,-0.09,21.92
12340,0.1166,-0.6406,0.6699,-6.09,7.65,-0.09,21.93
12350,0.1187,-0.6387,0.6705,-6.12,7.76,-0.18,21.94
12360,0.1158,-0.6395,0.6704,-6.05,7.65,-0.06,21.93
12370,0.1121,-0.636,0.6711,-5.92,7.66,-0.14,21.93
12380,0.1151,-0.6334,0.6725,-6.12,7.86,-0.21,21.94
12390,0.116,-0.6315,0.6782,-6.18,8.09,-0.34,21.93
12400,0.1223,-0.6348,0.6644,-6.27,7.86,-0.15,21.92
12410,0.1201,-0.6345,0.6663,-6.12,7.98,-0.15,21.92
12420,0.1216,-0.6329,0.6625,-6.17,7.91,-0.08,21.94
12430,0.1189,-0.6283,0.6681,-6.12,7.79,0.0,21.95
12440,0.1155,-0.6361,0.6687,-5.94,7.66,-0.03,21.94
12450,0.1116,-0.6372,0.6699,-5.88,7.73,-0.03,21.93
12460,0.1146,-0.6366,0.6743,-5.69,7.48,-0.18,21.95
12470,0.1199,-0.6357,0.6709,-5.74,7.51,-0.15,21.94
12480,0.1256,-0.6381,0.6707,-5.97,7.65,0.09,21.92
12490,0.1265,-0.6348,0.668,-6.09,7.62,0.4,21.92
12500,0.1167,-0.6342,0.6646,-6.43,7.44,0.61,21.93
12510,0.1174,-0.6345,0.6627,-6.63,7.37,0.73,21.93
12520,0.1132,-0.6317,0.6647,-6.64,7.31,0.67,21.94
12530,0.1125,-0.637,0.6732,-6.58,7.37,0.67,21.95
12540,0.1143,-0.636,0.6703,-6.52,7.24,0.66,21.91
12550,0.1151,-0.6323,0.6639,-6.17,7.04,0.55,21.92
12560,0.1141,-0.634,0.6628,-5.86,7.13,0.46,21.94
12570,0.1188,-0.6344,0.6619,-5.6,6.84,0.35,21.94
12580,0.1194,-0.6326,0.6605,-5.53,6.89,0.26,21.96
12590,0.1213,-0.635,0.6652,-5.45,7.21,0.27,21.94
12600,0.1166,-0.6337,0.6677,-5.42,7.48,0.29,21.94
12610,0.1135,-0.6348,0.6632,-5.77,7.28,0.37,21.93
12620,0.113,-0.6353,0.6602,-5.77,7.42,0.18,21.92
12631,0.1195,-0.6353,0.6621,-5.89,7.33,0.24,21.94
12641,0.1201,-0.6332,0.6591,-5.6,7.18,0.38,21.92
12651,0.1246,-0.6395,0.661,-5.69,7.22,0.49,21.94
12661,0.1172,-0.6372,0.6697,-5.57,7.3,0.64,21.92
12671,0.1129,-0.6377,0.6743,-5.62,7.22,0.7,21.96
12681,0.1152,-0.6375,0.6692,-5.76,7.28,0.38,21.93
12691,0.1138,-0.6344,0.6686,-5.57,7.3,0.24,21.95
12701,0.1149,-0.6313,0.6643,-5.59,7.39,-0.02,21.93
12711,0.1174,-0.6337,0.6675,-5.56,7.69,-0.11,21.92
12721,0.1147,-0.6327,0.6649,-5.74,7.89,-0.15,21.93
12731,0.1179,-0.6304,0.661,-5.8,7.94,-0.23,21.93
12741,0.1162,-0.6327,0.6644,-5.77,7.77,-0.11,21.95
12751,0.1213,-0.6331,0.6705,-5.69,7.65,-0.08,21.91
12761,0.12,-0.6351,0.6722,-5.42,7.4,0.17,21.92
12771,0.1215,-0.6334,0.6724,-5.16,7.24,0.41,21.9
12781,0.1221,-0.631,0.6749,-5.19,7.16,0.46,21.92
12791,0.1144,-0.634,0.6774,-5.36,7.24,0.38,21.95
12801,0.1155,-0.6345,0.6787,-5.51,7.11,0.41,21.93
12811,0.1178,-0.6356,0.6808,-5.69,7.05,0.37,21.91
12821,0.1176,-0.6362,0.6702,-5.79,7.24,0.38,21.94
12831,0.1173,-0.6309,0.6708,-5.79,7.27,0.32,21.93
12841,0.1176,-0.6339,0.6653,-5.91,7.31,0.38,21.93
12851,0.1195,-0.6333,0.6731,-6.24,7.34,0.35,21.93
12861,0.114,-0.6293,0.6697,-6.64,7.5,0.21,21.91
12871,0.1172,-0.632,0.6698,-6.52,7.82,0.11,21.92
12881,0.1132,-0.6323,0.6713,-6.53,8.12,0.11,21.93
12891,0.1188,-0.6365,0.6709,-6.58,7.76,0.17,21.93
12901,0.118,-0.6371,0.6688,-6.5,7.31,0.29,21.96
12911,0.1174,-0.6333,0.6727,-6.37,6.93,0.37,21.92
12921,0.1187,-0.637,0.6664,-6.12,6.82,0.41,21.94
12931,0.1193,-0.6362,0.6698,-5.92,7.02,0.43,21.94
12941,0.1208,-0.6357,0.6693,-5.89,7.44,0.4,21.94
12951,0.1223,-0.6357,0.6678,-5.95,7.82,0.35,21.94
12961,0.119,-0.6361,0.667,-6.14,8.06,0.32,21.94
12971,0.1141,-0.6331,0.6683,-6.32,8.24,0.31,21.94
12981,0.1145,-0.6306,0.6685,-6.34,8.27,0.49,21.93
12991,0.1182,-0.6299,0.6639,-6.24,8.05,0.52,21.92
13001,0.1184,-0.6317,0.6675,-6.18,8.06,0.64,21.91
13011,0.1162,-0.636,0.6638,-6.15,8.08,0.66,21.94
13021,0.1134,-0.6338,0.6648,-6.08,8.03,0.63,21.92
13031,0.1083,-0.6331,0.6637,-6.12,8.0,0.72,21.93
13041,0.1124,-0.635,0.6565,-6.14,7.88,0.61,21.95
13051,0.1099,-0.6344,0.6552,-5.8,7.76,0.52,21.96
13061,0.1124,-0.6332,0.6613,-5.5,7.4,0.35,21.92
13071,0.114,-0.6342,0.666,-5.42,7.33,0.2,21.96
13081,0.1112,-0.6372,0.6654,-5.5,7.3,0.0,21.95
13091,0.1141,-0.6361,0.6667,-5.47,7.25,-0.08,21.93
13101,0.1136,-0.6322,0.6685,-5.42,7.28,-0.17,21.93
13111,0.1132,-0.6326,0.6693,-5.51,7.69,-0.31,21.94
13121,0.1182,-0.6312,0.6658,-5.68,8.11,-0.47,21.94
13131,0.1193,-0.6322,0.6608,-5.65,7.86,-0.47,21.91
13141,0.1232,-0.6346,0.6732,-6.0,8.12,-0.37,21.92
13151,0.1198,-0.6354,0.6718,-6.26,8.43,-0.29,21.95
13161,0.1185,-0.6354,0.6674,-6.27,8.37,-0.15,21.92
13171,0.1146,-0.6312,0.667,-6.12,8.26,-0.14,21.94
13181,0.1154,-0.6335,0.6667,-5.94,8.14,-0.15,21.94
13191,0.1156,-0.6305,0.6702,-5.79,7.95,-0.21,21.92
13201,0.1174,-0.6304,0.6667,-5.62,7.6,-0.14,21.91
13211,0.1165,-0.6287,0.6642,-5.39,7.34,-0.14,21.92
13221,0.1195,-0.6326,0.6678,-5.4,7.1,0.03,21.93
13231,0.1169,-0.6333,0.6658,-5.39,6.99,0.18,21.92
13241,0.1213,-0.6354,0.666,-5.59,7.04,0.26,21.93
13251,0.1193,-0.6349,0.6689,-5.92,7.34,0.2,21.92
13261,0.1167,-0.6349,0.6719,-6.17,7.6,0.21,21.94
13271,0.1176,-0.6362,0.6689,-6.26,7.71,0.23,21.96
13281,0.1182,-0.6355,0.6722,-6.35,7.74,0.26,21.95
13291,0.1172,-0.6331,0.6642,-6.29,7.92,0.26,21.93
13301,0.1143,-0.6326,0.6697,-6.32,7.79,0.37,21.93
13311,0.1152,-0.6318,0.6676,-6.34,7.37,0.34,21.94
13321,0.1165,-0.6354,0.6672,-6.21,7.13,0.31,21.92
13331,0.1167,-0.6324,0.6727,-5.94,6.93,0.2,21.94
13341,0.1116,-0.6323,0.6718,-5.59,7.19,0.24,21.93
13351,0.1139,-0.6316,0.6677,-5.45,7.37,0.15,21.91
13361,0.1198,-0.632,0.6719,-5.6,7.5,0.17,21.93
13371,0.1141,-0.6321,0.6747,-5.86,7.86,0.03,21.95
13381,0.114,-0.6317,0.6727,-6.09,7.92,0.06,21.92
13391,0.1172,-0.636,0.67,-6.29,7.82,0.05,21.94
13401,0.1168,-0.6372,0.6715,-6.17,7.73,0.09,21.93
13411,0.1155,-0.6342,0.6646,-6.17,7.85,0.17,21.92
13421,0.1132,-0.63,0.6665,-6.21,7.82,0.29,21.94
13431,0.1116,-0.632,0.6617,-6.26,7.86,0.15,21.94
13441,0.111,-0.6331,0.6639,-6.5,8.12,-0.09,21.94
13451,0.1093,-0.6345,0.6748,-6.34,8.09,-0.37,21.93
13461,0.1179,-0.6345,0.6722,-6.24,8.05,-0.5,21.95
13471,0.1154,-0.6354,0.6692,-6.03,8.29,-0.44,21.95
13481,0.1177,-0.6328,0.6637,-5.88,8.14,-0.5,21.94
13491,0.118,-0.6331,0.6635,-5.86,7.98,-0.34,21.92
13501,0.1167,-0.6339,0.6677,-5.92,8.11,-0.23,21.93
13511,0.1189,-0.6349,0.6686,-6.24,7.98,0.08,21.93
13521,0.121,-0.6346,0.671,-6.76,7.85,0.14,21.95
13531,0.1194,-0.6357,0.6735,-6.69,7.71,0.21,21.92
13541,0.116,-0.6322,0.6754,-6.61,7.92,0.29,21.91
13551,0.114,-0.6328,0.6726,-6.23,8.24,0.27,21.93
13561,0.1155,-0.6344,0.6731,-6.26,8.29,0.15,21.94
13571,0.1129,-0.6315,0.6685,-6.26,8.38,0.09,21.93
13581,0.1133,-0.6328,0.6682,-6.46,8.76,-0.17,21.93
13591,0.1178,-0.6365,0.6697,-6.66,9.08,-0.37,21.93
13601,0.1171,-0.6376,0.6604,-6.75,8.9,-0.38,21.93
13611,0.1171,-0.6339,0.6658,-6.73,8.73,-0.24,21.93
13621,0.111,-0.6331,0.6613,-6.66,8.53,-0.2,21.93
13631,0.1111,-0.631,0.671,-6.56,8.27,-0.4,21.93
13641,0.1136,-0.6389,0.6671,-6.63,8.15,-0.32,21.93
13651,0.1141,-0.6342,0.6666,-6.56,7.83,-0.34,21.92
13661,0.1157,-0.6356,0.6625,-6.4,7.66,-0.29,21.93
13671,0.1198,-0.6385,0.6595,-6.23,7.53,-0.21,21.95
13681,0.1234,-0.6367,0.6587,-6.05,7.5,-0.27,21.94
13691,0.1187,-0.6395,0.6595,-5.98,7.68,-0.17,21.94
13701,0.1184,-0.6367,0.6622,-5.92,7.68,-0.05,21.92
13711,0.1149,-0.6359,0.6588,-6.14,7.57,0.05,21.94
13721,0.1128,-0.6379,0.6644,-6.18,7.83,-0.05,21.94
13731,0.1141,-0.6392,0.6675,-6.24,7.69,-0.15,21.94
13741,0.1111,-0.6393,0.6666,-6.23,7.5,-0.17,21.92
13751,0.1122,-0.6339,0.6671,-6.14,7.47,-0.2,21.93
13761,0.1146,-0.6327,0.6711,-5.94,7.51,-0.15,21.94
13771,0.1149,-0.632,0.6696,-5.89,7.45,-0.15,21.92
13781,0.1184,-0.6357,0.6703,-5.91,7.82,-0.11,21.92
13791,0.1223,-0.6355,0.6672,-5.92,7.94,0.03,21.94
13801,0.1193,-0.6343,0.6674,-6.29,7.82,0.24,21.93
13811,0.1165,-0.6345,0.6708,-6.15,7.66,0.27,21.93
13821,0.1119,-0.6359,0.675,-6.29,7.53,0.24,21.94
13831,0.1145,-0.6366,0.6747,-6.32,7.57,0.14,21.94
13841,0.1149,-0.6326,0.6763,-6.21,7.3,0.17,21.95
13851,0.1151,-0.6375,0.6675,-6.2,7.22,0.03,21.95
13861,0.1187,-0.6349,0.6655,-6.14,7.34,0.09,21.96
13871,0.1176,-0.6332,0.6592,-6.12,7.22,0.11,21.94
13881,0.1124,-0.632,0.662,-6.11,7.15,0.05,21.95
13891,0.1116,-0.6335,0.6654,-6.03,7.39,0.05,21.94
13901,0.1168,-0.637,0.6667,-5.98,7.71,-0.05,21.91
13911,0.1167,-0.6371,0.6664,-5.94,7.77,-0.08,21.95
13921,0.1178,-0.6395,0.667,-5.98,7.92,-0.12,21.93
13931,0.1191,-0.6329,0.6671,-6.11,7.91,-0.08,21.94
13941,0.1152,-0.6332,0.6691,-6.21,8.11,-0.02,21.93
13951,0.1176,-0.6323,0.6632,-6.11,7.97,0.11,21.92
13961,0.1157,-0.6357,0.6678,-6.0,7.95,0.0,21.94
13971,0.1161,-0.6378,0.6659,-6.09,7.89,0.0,21.96
13981,0.1158,-0.64,0.6678,-5.89,7.65,0.02,21.93
13991,0.1112,-0.6385,0.665,-5.97,7.6,-0.05,21.93
14001,0.1083,-0.6346,0.6669,-6.12,7.6,-0.23,21.94
14011,0.111,-0.6344,0.6638,-6.17,7.53,-0.21,21.93
14021,0.1128,-0.6318,0.6564,-5.94,7.76,-0.35,21.93
14031,0.1136,-0.6383,0.6705,-5.91,7.59,-0.44,21.94
14041,0.1182,-0.6399,0.6709,-5.98,7.68,-0.44,21.96
14051,0.1218,-0.6339,0.6681,-5.92,7.63,-0.26,21.95
14061,0.1208,-0.6312,0.6653,-5.8,7.82,-0.11,21.96
14071,0.1189,-0.6329,0.6687,-5.88,8.11,-0.08,21.94
14081,0.1179,-0.6357,0.6696,-6.02,8.12,0.03,21.92
14091,0.1151,-0.637,0.6714,-6.08,7.95,0.02,21.97
14101,0.1161,-0.6351,0.6671,-6.09,7.86,0.06,21.95
14111,0.1188,-0.6384,0.6671,-6.15,7.69,0.02,21.96
14121,0.1195,-0.6382,0.667,-5.91,7.37,0.12,21.96
14131,0.118,-0.636,0.6709,-5.82,7.33,0.2,21.94
14141,0.1136,-0.6332,0.6676,-5.85,7.08,0.24,21.95
14151,0.1129,-0.6357,0.6719,-5.83,7.1,0.18,21.97
14161,0.1139,-0.6345,0.6699,-6.02,7.27,0.06,21.95
14171,0.1128,-0.6378,0.671,-6.21,7.45,0.03,21.95
14181,0.1179,-0.6385,0.6729,-6.53,7.66,-0.05,21.95
14191,0.1127,-0.6343,0.6666,-6.64,7.77,-0.03,21.96
14201,0.1161,-0.6311,0.6633,-6.49,7.88,0.02,21.96
14211,0.1199,-0.6321,0.6637,-6.26,7.85,0.03,21.96
14221,0.1211,-0.6326,0.668,-6.09,7.54,0.23,21.94
14231,0.1179,-0.6342,0.6698,-5.73,7.02,0.47,21.94
14241,0.1155,-0.6322,0.6648,-5.47,6.82,0.49,21.94
14251,0.1113,-0.6335,0.6628,-5.37,6.9,0.31,21.95
14261,0.1117,-0.6368,0.6703,-5.6,7.07,0.21,21.96
14271,0.1138,-0.6373,0.6724,-5.74,7.44,0.09,21.96
14281,0.1154,-0.6355,0.6677,-6.03,7.6,0.02,21.97
14291,0.1151,-0.6354,0.6654,-6.26,7.73,-0.17,21.95
14301,0.1165,-0.6342,0.667,-6.29,7.88,-0.21,21.95
14311,0.1144,-0.6375,0.6687,-6.02,7.97,-0.27,21.95
14321,0.1125,-0.6361,0.6698,-6.0,8.06,-0.27,21.95
14331,0.1135,-0.6393,0.6689,-6.14,7.92,-0.35,21.96
14341,0.1115,-0.6326,0.6664,-5.95,7.56,-0.44,21.95
14351,0.11,-0.6318,0.671,-5.6,7.51,-0.4,21.96
14361,0.1138,-0.6331,0.6691,-5.45,7.83,-0.5,21.95
14371,0.1154,-0.6356,0.6688,-5.47,7.95,-0.55,21.94
14381,0.1193,-0.6337,0.6685,-5.8,7.98,-0.47,21.96
14391,0.1193,-0.6356,0.6663,-5.98,8.0,-0.35,21.96
14401,0.1233,-0.6404,0.6658,-6.23,7.98,-0.18,21.94
14411,0.1222,-0.6378,0.6703,-6.44,8.18,-0.03,21.95
14421,0.1217,-0.6371,0.671,-6.49,8.47,0.15,21.97
14431,0.1119,-0.6327,0.67,-6.35,8.4,0.2,21.97
14441,0.1104,-0.636,0.6731,-6.43,8.4,0.14,21.96
14451,0.1064,-0.6313,0.6665,-6.37,7.98,0.08,21.92
14461,0.1097,-0.6339,0.6698,-6.32,7.8,-0.15,21.95
14471,0.1129,-0.6337,0.6655,-6.14,7.77,-0.18,21.95
14481,0.1172,-0.6328,0.6589,-5.91,7.53,-0.44,21.93
14491,0.1178,-0.6343,0.665,-5.69,7.68,-0.47,21.91
14501,0.1168,-0.6339,0.665,-5.77,7.83,-0.56,21.94
14511,0.1179,-0.6364,0.6658,-5.77,7.85,-0.49,21.94
14521,0.1241,-0.6364,0.6697,-5.83,7.88,-0.31,21.95
14531,0.1144,-0.6375,0.6692,-6.08,7.74,-0.27,21.94
14541,0.1155,-0.6346,0.6663,-6.06,7.86,-0.27,21.96
14551,0.1174,-0.6376,0.6638,-6.02,7.95,-0.17,21.96
14561,0.1196,-0.6315,0.6633,-6.32,8.15,-0.12,21.94
14571,0.1138,-0.6344,0.666,-6.31,7.95,-0.06,21.96
14581,0.1168,-0.6366,0.665,-6.24,7.98,-0.05,21.93
14591,0.116,-0.6364,0.6638,-6.26,7.94,-0.11,21.94
14601,0.1151,-0.6328,0.6669,-6.09,7.5,-0.06,21.94
14611,0.1171,-0.6345,0.6687,-6.06,7.54,0.03,21.94
14621,0.1171,-0.6364,0.6682,-5.82,7.47,0.05,21.98
14631,0.1178,-0.6332,0.6771,-5.89,7.34,0.06,21.98
14641,0.1162,-0.6357,0.6705,-6.02,7.11,0.17,21.97
14651,0.1187,-0.6348,0.6647,-6.0,6.98,0.2,21.96
14661,0.1215,-0.6381,0.6667,-6.29,7.39,0.21,21.93
14671,0.1174,-0.6357,0.6707,-6.38,7.4,0.4,21.95
14681,0.1211,-0.6344,0.6677,-6.64,7.3,0.46,21.95
14691,0.1195,-0.6332,0.6688,-6.61,7.54,0.52,21.95
14701,0.1113,-0.6329,0.6667,-6.55,7.63,0.55,21.95
14711,0.11,-0.6322,0.6664,-6.46,7.62,0.53,21.94
14721,0.1104,-0.6362,0.6699,-6.37,7.54,0.32,21.94
14731,0.1145,-0.6354,0.6661,-6.17,7.45,0.27,21.93
14741,0.1133,-0.6343,0.6663,-6.02,7.6,0.26,21.96
14751,0.1128,-0.6339,0.663,-5.88,7.63,0.21,21.94
14761,0.1161,-0.6316,0.6663,-5.91,7.45,0.17,21.92
14771,0.1136,-0.634,0.6696,-5.89,7.42,0.24,21.96
14781,0.1173,-0.6329,0.6641,-5.74,7.36,0.34,21.95
14791,0.1144,-0.6365,0.6665,-5.73,7.28,0.37,21.97
14801,0.113,-0.6359,0.6719,-5.74,7.4,0.41,21.96
14811,0.114,-0.6368,0.6733,-5.97,7.82,0.41,21.95
14821,0.1146,-0.6333,0.6644,-6.32,8.06,0.41,21.95
14831,0.1226,-0.634,0.6582,-6.64,8.37,0.47,21.95
14841,0.1208,-0.6375,0.6594,-6.56,8.37,0.5,21.95
14851,0.1182,-0.6399,0.658,-6.32,8.66,0.46,21.96
14861,0.1145,-0.6365,0.6593,-6.05,8.49,0.37,21.98
14871,0.1145,-0.6373,0.6572,-5.76,8.38,0.29,21.95
14881,0.1099,-0.6378,0.6646,-5.45,8.21,0.02,21.97
14891,0.11,-0.6333,0.6591,-5.18,7.82,-0.2,21.96
14901,0.1121,-0.6301,0.6565,-5.05,7.57,-0.27,21.97
14911,0.1147,-0.637,0.6593,-4.93,7.56,-0.31,21.94
14921,0.1138,-0.636,0.6602,-5.01,7.65,-0.23,21.94
14931,0.1168,-0.6394,0.67,-4.92,7.77,-0.11,21.93
14941,0.1158,-0.6348,0.6689,-4.98,7.68,0.06,21.94
14951,0.1158,-0.6273,0.6693,-5.08,7.31,0.14,21.93
14961,0.1108,-0.6309,0.6656,-5.13,6.78,0.23,21.92
14971,0.1141,-0.6326,0.6686,-4.98,6.38,0.41,21.94
14981,0.1198,-0.6342,0.6737,-5.22,6.35,0.34,21.94
14991,0.1208,-0.6342,0.6693,-5.33,6.38,0.47,21.96
15002,0.1169,-0.6357,0.6644,-5.53,6.87,0.55,21.96
15012,0.1188,-0.6388,0.6729,-5.39,7.25,0.47,21.97
15022,0.1143,-0.6371,0.672,-5.36,7.39,0.55,21.94
15032,0.1141,-0.6312,0.6749,-5.19,7.27,0.43,21.95
15042,0.1161,-0.6342,0.6731,-5.25,7.01,0.41,21.95
15052,0.1167,-0.6361,0.6731,-5.22,6.85,0.26,21.95
15062,0.1166,-0.6349,0.6788,-5.39,6.78,0.43,21.96
15072,0.1157,-0.6302,0.6727,-5.65,6.76,0.47,21.94
15082,0.1127,-0.6296,0.6757,-6.0,6.84,0.55,21.94
15092,0.1125,-0.6311,0.6704,-5.98,6.93,0.53,21.92
15102,0.116,-0.6315,0.6685,-6.17,6.81,0.49,21.93
15112,0.1151,-0.63,0.675,-6.12,6.79,0.5,21.95
15122,0.1101,-0.6339,0.6698,-5.95,6.67,0.5,21.93
15132,0.1198,-0.6317,0.6675,-5.88,6.37,0.43,21.94
15142,0.1199,-0.6353,0.6685,-5.71,6.43,0.4,21.95
15152,0.12,-0.634,0.6681,-5.74,6.89,0.5,21.94
15162,0.1201,-0.631,0.6638,-6.05,7.21,0.47,21.94
15172,0.1182,-0.6316,0.663,-6.08,7.53,0.47,21.97
15182,0.1161,-0.6295,0.6614,-6.18,7.95,0.52,21.95
15192,0.116,-0.6345,0.67,-6.31,8.47,0.4,21.94
15202,0.1177,-0.6343,0.6725,-6.27,8.56,0.49,21.95
15212,0.1141,-0.6311,0.6742,-6.31,8.29,0.53,21.93
15222,0.1118,-0.6355,0.6698,-6.14,8.02,0.55,21.97
15232,0.1116,-0.6322,0.6693,-5.82,7.85,0.43,21.96
15242,0.1116,-0.6322,0.6763,-5.71,7.73,0.12,21.96
15252,0.1118,-0.6293,0.6742,-5.57,8.08,0.02,21.97
15262,0.1123,-0.6361,0.6685,-5.37,8.47,0.0,21.96
15272,0.1143,-0.6362,0.6705,-5.47,8.85,-0.17,21.96
15282,0.1149,-0.6371,0.6683,-5.82,9.16,-0.31,21.94
15292,0.1178,-0.6365,0.6693,-6.2,9.08,-0.08,21.95
15302,0.1189,-0.6382,0.6615,-6.37,8.78,0.03,21.94
15312,0.1111,-0.6329,0.6652,-6.49,8.49,0.09,21.95
15322,0.1105,-0.6381,0.6641,-6.49,8.32,-0.15,21.95
15332,0.1094,-0.6361,0.6687,-6.18,8.34,-0.29,21.95
15342,0.1124,-0.6311,0.6663,-5.92,8.06,-0.29,21.94
15352,0.1168,-0.6315,0.6603,-5.8,8.08,-0.2,21.92
15362,0.1217,-0.6342,0.6649,-5.82,8.18,-0.18,21.93
15372,0.118,-0.6329,0.6666,-5.86,8.17,0.06,21.92
15382,0.115,-0.6367,0.6663,-5.89,8.15,0.03,21.94
15392,0.1165,-0.635,0.6688,-5.91,8.17,0.0,21.92
15402,0.1133,-0.6328,0.6741,-5.97,8.2,-0.09,21.94
15412,0.1129,-0.6337,0.6726,-6.11,8.12,-0.14,21.97
15422,0.1132,-0.6331,0.6697,-6.17,8.12,-0.17,21.95
15432,0.1121,-0.6326,0.6711,-6.24,8.18,-0.09,21.93
15442,0.1124,-0.6349,0.6725,-6.32,7.98,-0.17,21.94
15452,0.1119,-0.6343,0.6771,-6.34,7.82,-0.15,21.97
15462,0.1108,-0.6329,0.6759,-6.53,7.73,-0.31,21.94
15472,0.1132,-0.6376,0.6736,-6.69,7.6,-0.26,21.96
15482,0.1201,-0.6364,0.6715,-6.69,7.5,-0.17,21.93
15492,0.1191,-0.6348,0.6776,-6.69,7.54,-0.12,21.92
15502,0.1141,-0.6321,0.6694,-6.67,7.73,-0.11,21.94
15512,0.1154,-0.6343,0.6658,-6.63,7.94,-0.02,21.93
15522,0.1187,-0.6342,0.6632,-6.58,8.09,0.0,21.96
15532,0.1173,-0.6375,0.6687,-6.43,8.4,0.03,21.96
15542,0.1179,-0.6344,0.6682,-6.34,8.58,0.09,21.96
15552,0.1155,-0.6333,0.6688,-6.35,8.41,0.23,21.95
15562,0.1127,-0.6313,0.6669,-6.26,8.05,0.29,21.94
15572,0.1134,-0.6338,0.6655,-6.35,7.98,0.31,21.92
15582,0.1152,-0.6323,0.6584,-6.47,7.79,0.26,21.94
15592,0.116,-0.6345,0.6567,-6.49,8.05,0.32,21.95
15602,0.1095,-0.6361,0.6591,-6.46,8.02,0.15,21.94
15612,0.1121,-0.6356,0.6602,-6.31,8.0,0.09,21.95
15622,0.1147,-0.6388,0.6604,-5.89,7.92,-0.02,21.95
15632,0.1121,-0.6371,0.658,-5.37,7.91,0.0,21.95
15642,0.1079,-0.6338,0.6592,-5.45,8.15,-0.11,21.95
15652,0.1072,-0.6279,0.6593,-5.74,8.24,-0.15,21.97
15662,0.1042,-0.6296,0.6594,-6.11,8.12,-0.24,21.97
15672,0.1115,-0.6344,0.6643,-6.47,8.27,-0.37,21.94
15682,0.1204,-0.6384,0.6633,-6.5,8.96,-0.38,21.93
15692,0.1206,-0.6368,0.6626,-6.12,9.08,-0.06,21.95
15702,0.1183,-0.6343,0.6686,-5.83,8.67,0.05,21.96
15712,0.1122,-0.6327,0.6682,-5.71,8.34,0.2,21.98
15722,0.108,-0.6304,0.673,-5.53,8.14,0.24,21.94
15732,0.1056,-0.6318,0.6722,-5.63,7.86,0.18,21.95
15742,0.1066,-0.6318,0.675,-5.86,7.76,0.03,21.95
15752,0.1062,-0.6345,0.675,-5.77,7.57,-0.08,21.94
15762,0.1127,-0.6328,0.675,-5.66,7.28,0.0,21.97
15772,0.1108,-0.6328,0.6722,-5.73,7.13,-0.09,21.95
15782,0.1144,-0.6296,0.6689,-5.83,7.08,-0.09,21.98
15792,0.12,-0.6265,0.6647,-5.83,6.87,0.24,21.96
15802,0.1202,-0.6334,0.6631,-5.82,6.92,0.47,21.93
15812,0.1223,-0.634,0.6631,-5.65,6.79,0.55,21.94
15822,0.1252,-0.6343,0.663,-5.62,6.87,0.81,21.96
15832,0.1196,-0.6357,0.6631,-5.02,7.54,1.16,21.96
15842,0.1128,-0.6318,0.6687,-4.84,7.79,1.68,21.96
15852,0.1068,-0.6346,0.6687,-5.31,7.66,1.15,21.96
15862,0.1071,-0.635,0.671,-5.57,6.93,1.19,21.95
15872,0.1074,-0.6382,0.667,-5.6,6.46,0.99,21.92
15882,0.1112,-0.6385,0.6691,-5.42,6.12,0.84,21.93
15892,0.1124,-0.6351,0.6653,-5.27,6.17,0.82,21.95
15902,0.1128,-0.6332,0.6628,-5.18,6.47,0.75,21.94
15912,0.1119,-0.6335,0.6704,-5.24,6.85,0.63,21.94
15922,0.1094,-0.6318,0.6718,-5.53,7.13,0.64,21.93
15932,0.1124,-0.6353,0.6678,-6.02,7.37,0.52,21.95
15942,0.1141,-0.6349,0.6678,-6.02,7.66,0.49,21.98
15952,0.1136,-0.6327,0.6713,-5.8,7.53,0.43,21.96
15962,0.1101,-0.6317,0.6666,-5.54,7.65,0.52,21.97
15972,0.111,-0.6278,0.6661,-5.37,7.45,0.55,21.97
15982,0.1136,-0.6288,0.6714,-5.36,7.3,0.49,21.97
15992,0.1127,-0.6313,0.6771,-5.36,7.45,0.6,21.97
16002,0.111,-0.6327,0.6804,-5.33,7.54,0.67,21.94
16012,0.1129,-0.6327,0.6862,-5.51,7.44,0.63,21.95
16022,0.1116,-0.6346,0.6864,-5.47,7.76,0.53,21.97
16032,0.1091,-0.6309,0.682,-5.45,7.94,0.55,21.97
16042,0.1053,-0.6306,0.6803,-5.45,7.92,0.64,21.96
16052,0.1044,-0.6315,0.6696,-5.24,7.89,0.46,21.94
16062,0.1072,-0.63,0.6637,-5.02,8.03,0.47,21.97
16072,0.1119,-0.6299,0.6633,-4.76,8.17,0.37,21.96
16082,0.1095,-0.6277,0.6638,-4.7,8.23,0.27,21.97
16092,0.1102,-0.6283,0.6649,-5.51,8.06,0.32,21.95
16102,0.1129,-0.6329,0.6564,-5.89,7.69,0.35,21.95
16112,0.113,-0.6331,0.6672,-6.03,7.47,0.49,21.94
16122,0.1104,-0.6379,0.6686,-5.86,7.15,0.31,21.96
16132,0.116,-0.6376,0.6676,-5.4,6.89,0.24,21.91
16142,0.1136,-0.6343,0.6688,-5.08,6.89,0.21,21.96
16152,0.1165,-0.631,0.6667,-5.01,6.95,0.08,21.94
16162,0.1176,-0.6342,0.6628,-5.25,7.05,-0.09,21.95
16172,0.116,-0.6294,0.6683,-5.51,7.47,-0.11,21.97
16182,0.1129,-0.6329,0.6639,-5.59,7.86,0.09,21.94
16192,0.1138,-0.6295,0.6642,-5.51,7.79,0.15,21.94
16202,0.114,-0.6307,0.6655,-5.27,7.4,0.17,21.96
16212,0.1074,-0.6294,0.6688,-5.08,6.78,0.17,21.95
16222,0.1144,-0.6272,0.6715,-4.79,6.43,0.06,21.94
16232,0.1157,-0.629,0.6735,-4.7,6.38,0.34,21.95
16242,0.1191,-0.6252,0.6654,-4.79,6.55,0.41,21.95
16252,0.1177,-0.6289,0.6705,-4.96,6.55,0.47,21.94
16262,0.1169,-0.6326,0.6755,-4.76,6.34,0.6,21.95
16272,0.1162,-0.6326,0.6727,-4.4,6.06,0.69,21.96
16282,0.1156,-0.6306,0.6702,-3.74,5.98,0.75,21.94
16292,0.1135,-0.6281,0.6709,-3.07,6.09,0.93,21.96
16302,0.109,-0.6281,0.6699,-2.73,6.67,0.75,21.96
16312,0.1106,-0.6243,0.6675,-2.64,6.92,0.41,21.95
16322,0.1117,-0.6265,0.6633,-3.1,7.01,0.23,21.95
16332,0.118,-0.6284,0.6682,-3.51,6.78,0.26,21.96
16342,0.1136,-0.6276,0.6771,-3.45,6.89,0.44,21.93
16352,0.1021,-0.6277,0.6782,-2.98,6.46,0.2,21.95
16362,0.1045,-0.6276,0.6733,-2.38,6.15,-0.09,21.95
16372,0.1086,-0.6255,0.6725,-2.09,5.77,-0.43,21.96
16382,0.1165,-0.6272,0.6638,-1.95,5.4,-0.56,21.96
16392,0.1194,-0.6229,0.6671,-1.92,6.2,-0.6,21.95
16402,0.1233,-0.6266,0.6752,-2.64,6.49,-0.23,21.94
16412,0.1217,-0.6268,0.687,-3.42,6.38,-0.06,21.96
16422,0.1165,-0.6263,0.6956,-3.98,6.69,0.23,21.97
16432,0.1202,-0.6248,0.6934,-4.26,6.89,0.38,21.94
16442,0.1185,-0.6255,0.6865,-4.4,7.31,0.61,21.96
16452,0.1189,-0.6256,0.6785,-3.95,7.95,0.7,21.93
16462,0.1193,-0.6211,0.6732,-3.69,8.27,0.6,21.95
16472,0.1125,-0.6187,0.6635,-3.1,7.92,0.31,21.97
16482,0.1134,-0.6151,0.6665,-2.46,7.45,0.18,21.95
16492,0.1118,-0.6183,0.6558,-1.48,7.05,-0.05,21.94
16502,0.111,-0.6171,0.6461,-0.37,6.82,-0.11,21.96
16512,0.1129,-0.6147,0.6343,0.79,6.75,-0.08,21.97
16522,0.1154,-0.6035,0.6217,1.63,6.56,-0.26,21.95
16532,0.1205,-0.6082,0.6145,2.02,6.47,-0.29,21.95
16542,0.1121,-0.6151,0.6228,1.94,6.35,0.17,21.93
16552,0.1132,-0.6075,0.6418,1.97,5.88,0.38,21.95
16562,0.1194,-0.6157,0.6537,1.51,5.53,0.69,21.95
16572,0.1167,-0.6158,0.6625,0.9,5.01,1.16,21.95
16582,0.1172,-0.61,0.6664,1.02,4.08,1.54,21.96
16592,0.1169,-0.6147,0.6835,1.39,3.69,1.31,21.96
16602,0.1132,-0.6116,0.6848,1.59,3.34,1.54,21.97
16612,0.1106,-0.6091,0.7037,1.94,2.58,1.28,21.95
16622,0.0996,-0.611,0.7158,2.41,2.21,1.04,21.95
16633,0.1067,-0.6022,0.7147,2.18,1.48,0.89,21.96
16643,0.1097,-0.6034,0.728,1.77,0.38,0.38,21.95
16653,0.1201,-0.6053,0.7325,1.34,-0.02,0.02,21.95
16663,0.1289,-0.5996,0.7224,1.15,0.69,0.18,21.96
16673,0.1346,-0.6025,0.7137,0.76,2.27,0.4,21.94
16683,0.1326,-0.5996,0.7072,0.2,3.45,0.66,21.93
16693,0.1335,-0.5964,0.7042,-0.81,4.11,0.55,21.94
16703,0.1271,-0.5962,0.713,-1.83,4.43,0.52,21.94
16713,0.1274,-0.5955,0.7188,-2.87,4.43,0.64,21.94
16723,0.1321,-0.5962,0.7136,-3.79,4.37,0.56,21.94
16733,0.1361,-0.594,0.7048,-4.0,5.33,0.82,21.94
16743,0.1377,-0.594,0.6946,-4.23,5.65,1.19,21.95
16753,0.1414,-0.5996,0.696,-4.41,5.21,1.44,21.96
16763,0.1431,-0.5975,0.6979,-4.69,4.73,1.91,21.93
16773,0.1388,-0.592,0.6925,-4.47,4.47,2.44,21.95
16783,0.1366,-0.5914,0.6931,-4.32,4.27,2.82,21.95
16793,0.1365,-0.5939,0.7037,-4.37,4.15,2.79,21.94
16803,0.1267,-0.5924,0.7054,-4.72,4.43,3.01,21.96
16813,0.1207,-0.5989,0.7086,-5.33,4.73,2.99,21.94
16823,0.124,-0.6052,0.7238,-5.88,4.32,2.76,21.95
16833,0.1233,-0.6039,0.7241,-6.14,4.58,2.76,21.94
16843,0.1221,-0.6094,0.7318,-5.59,4.11,2.2,21.94
16853,0.1184,-0.6047,0.7235,-5.21,4.78,1.83,21.95
16863,0.1174,-0.5975,0.7203,-5.01,5.91,1.62,21.96
16873,0.1166,-0.5968,0.7212,-5.48,6.7,1.08,21.92
16883,0.1276,-0.605,0.7189,-6.7,6.9,0.76,21.94
16893,0.1404,-0.6008,0.7002,-8.32,6.15,0.49,21.94
16903,0.1394,-0.6061,0.705,-8.84,6.26,0.38,21.95
16913,0.1377,-0.5989,0.7014,-8.85,7.51,0.24,21.96
16923,0.1354,-0.6036,0.6968,-8.85,8.41,0.11,21.95
16933,0.1335,-0.5999,0.6924,-8.9,8.79,0.05,21.94
16943,0.1343,-0.6024,0.691,-8.92,8.6,0.14,21.94
16953,0.1328,-0.6006,0.6892,-9.02,8.26,0.53,21.94
16963,0.1226,-0.5975,0.6907,-9.22,7.79,1.01,21.94
16973,0.1179,-0.5983,0.6936,-9.27,7.63,1.3,21.94
16983,0.109,-0.5999,0.6964,-9.21,6.99,1.15,21.93
16993,0.1086,-0.5983,0.701,-9.1,6.06,0.85,21.94
17003,0.1088,-0.5945,0.6954,-9.15,4.96,0.46,21.97
17013,0.1167,-0.5905,0.6969,-9.48,3.57,-0.05,21.94
17023,0.1273,-0.6025,0.6897,-9.37,2.93,-0.31,21.95
17033,0.1384,-0.6045,0.6849,-9.08,3.4,-0.31,21.95
17043,0.146,-0.598,0.6748,-9.02,3.83,-0.06,21.93
17053,0.1519,-0.6044,0.6722,-9.02,4.41,0.31,21.96
17063,0.1571,-0.6117,0.67,-9.07,5.28,0.96,21.95
17073,0.1617,-0.6047,0.67,-9.02,5.86,1.86,21.93
17083,0.1503,-0.6113,0.6722,-8.67,5.44,2.35,21.97
17093,0.1456,-0.6082,0.6755,-7.66,6.56,2.89,21.93
17103,0.1367,-0.5935,0.6779,-6.87,6.41,3.02,21.94
17113,0.126,-0.6044,0.6815,-6.2,6.41,2.76,21.93
17123,0.1185,-0.6006,0.6798,-5.91,6.6,2.6,21.94
17133,0.1206,-0.6016,0.6918,-6.17,6.44,2.17,21.97
17143,0.126,-0.6074,0.6958,-6.87,6.56,2.15,21.94
17153,0.1384,-0.6104,0.6974,-7.42,6.93,2.2,21.96
17163,0.1351,-0.6134,0.7019,-7.6,7.88,2.29,21.95
17173,0.1293,-0.6085,0.6996,-7.44,8.63,2.49,21.95
17183,0.1251,-0.6049,0.6885,-7.48,8.69,2.5,21.91
17193,0.118,-0.6067,0.684,-7.21,8.43,2.11,21.93
17203,0.118,-0.6053,0.6818,-6.63,7.91,1.79,21.94
17213,0.1161,-0.6013,0.6884,-6.14,6.82,1.48,21.93
17223,0.123,-0.6047,0.6903,-5.71,5.89,0.9,21.95
17233,0.1237,-0.6022,0.6892,-5.62,5.48,0.75,21.97
17243,0.1248,-0.5966,0.6997,-5.56,4.99,0.66,21.94
17253,0.1191,-0.5947,0.6934,-6.23,4.69,0.5,21.94
17263,0.1215,-0.601,0.6891,-7.33,4.82,0.26,21.95
17273,0.126,-0.6086,0.6915,-7.18,5.8,-0.31,21.96
17285,0.1256,-0.6055,0.6891,-7.31,8.23,-0.05,21.96
17295,0.1318,-0.6115,0.6904,-7.56,9.01,-0.24,21.96
17305,0.1328,-0.6101,0.6924,-7.82,9.71,-0.44,21.95
17315,0.1343,-0.6145,0.694,-8.02,9.6,-0.34,21.95
17325,0.1383,-0.6167,0.6897,-8.14,9.21,-0.12,21.94
17335,0.1388,-0.6158,0.6888,-8.02,8.7,0.06,21.93
17345,0.1345,-0.6115,0.6831,-7.47,8.09,0.52,21.95
17355,0.1277,-0.6101,0.6831,-7.27,7.85,0.96,21.95
17365,0.1294,-0.6102,0.6869,-7.44,7.18,1.08,21.96
17375,0.1243,-0.6056,0.6865,-7.76,6.66,1.24,21.94
17385,0.1163,-0.6072,0.6858,-8.09,6.69,1.19,21.96
17395,0.1171,-0.6073,0.6907,-7.86,6.85,1.01,21.92
17405,0.1146,-0.6074,0.691,-7.5,7.05,0.78,21.94
17415,0.118,-0.6082,0.6865,-6.85,7.57,0.35,21.94
17425,0.1212,-0.6096,0.6873,-6.61,8.11,0.24,21.96
17435,0.1272,-0.6106,0.6881,-6.49,8.14,0.11,21.97
17445,0.1304,-0.6155,0.6912,-6.55,8.61,0.0,21.93
17455,0.1204,-0.6086,0.6849,-6.49,9.01,-0.12,21.94
17465,0.1075,-0.604,0.6903,-6.73,9.21,-0.27,21.96
17475,0.1139,-0.6083,0.6927,-6.9,9.33,-0.7,21.94
17485,0.1177,-0.6084,0.6815,-7.16,9.04,-0.79,21.95
17495,0.1257,-0.6135,0.6787,-7.34,8.61,-1.16,21.95
17505,0.1331,-0.6135,0.67,-7.54,8.24,-1.31,21.96
17515,0.1366,-0.6149,0.6779,-7.54,9.53,-1.57,21.92
17525,0.1381,-0.6162,0.6771,-7.07,9.62,-1.27,21.93
17535,0.1377,-0.6155,0.6768,-6.69,8.56,-0.78,21.92
17545,0.1414,-0.6223,0.6755,-6.76,8.02,-0.66,21.96
17555,0.1423,-0.6171,0.6785,-6.56,7.83,-0.24,21.95
17565,0.1414,-0.6152,0.6783,-6.53,7.85,-0.15,21.94
17575,0.1404,-0.6149,0.6786,-6.49,8.17,0.06,21.93
17585,0.1434,-0.6145,0.6909,-6.84,8.32,0.27,21.94
17595,0.1414,-0.6178,0.6852,-7.16,8.38,0.46,21.94
17605,0.1373,-0.6176,0.694,-7.44,8.64,0.58,21.94
17615,0.1299,-0.6195,0.6995,-7.82,8.87,0.76,21.94
17625,0.1261,-0.6135,0.6974,-8.08,8.56,0.7,21.96
17635,0.1204,-0.6096,0.7031,-7.88,8.12,0.29,21.96
17645,0.1158,-0.6111,0.7048,-7.3,8.56,-0.11,21.95
17655,0.1205,-0.6102,0.6997,-6.89,8.41,-0.43,21.95
17665,0.1234,-0.6091,0.6986,-6.79,8.35,-0.56,21.92
17675,0.1235,-0.6078,0.693,-6.63,8.23,-0.6,21.93
17685,0.1251,-0.6084,0.6833,-6.55,7.86,-0.56,21.96
17695,0.1276,-0.6123,0.6768,-6.7,7.86,-0.5,21.96
17705,0.1259,-0.6107,0.6761,-6.99,8.12,-0.34,21.96
17715,0.1329,-0.6106,0.6704,-7.33,8.6,-0.21,21.96
17725,0.1301,-0.6146,0.6664,-7.28,9.02,-0.09,21.99
17735,0.1316,-0.6168,0.6632,-7.45,9.31,-0.11,21.96
17745,0.1263,-0.6162,0.662,-7.39,9.77,-0.27,21.97
17756,0.1268,-0.6191,0.6683,-6.92,10.09,-0.56,21.95
17766,0.1293,-0.6212,0.6737,-6.5,9.73,-0.58,21.97
17776,0.1302,-0.6182,0.6801,-5.77,9.28,-0.53,21.95
17786,0.1266,-0.6155,0.6732,-5.31,8.72,-0.4,21.96
17796,0.1251,-0.621,0.6716,-4.84,8.52,-0.41,21.96
17806,0.1307,-0.6174,0.6685,-4.81,8.52,-0.27,21.96
17816,0.1353,-0.6176,0.6752,-4.99,8.5,-0.09,21.97
17826,0.1317,-0.6201,0.676,-5.25,8.64,0.11,21.98
17836,0.1313,-0.6249,0.6747,-5.66,9.1,0.11,21.97
17846,0.124,-0.6201,0.6818,-6.03,9.02,0.21,21.98
17856,0.1163,-0.6177,0.6832,-6.15,8.5,0.24,21.96
17866,0.1119,-0.6121,0.6884,-6.09,8.15,0.11,21.95
17876,0.1096,-0.6117,0.6823,-5.8,8.02,-0.32,21.95
17886,0.1156,-0.6116,0.683,-5.48,7.83,-0.75,21.97
17896,0.1189,-0.6132,0.6877,-5.25,7.56,-0.9,21.97
17906,0.1232,-0.6127,0.6898,-5.13,7.34,-1.13,21.98
17916,0.125,-0.608,0.6888,-5.08,7.57,-0.95,21.97
17926,0.1237,-0.6094,0.6854,-5.16,7.68,-0.84,21.98
17936,0.1294,-0.61,0.6896,-5.31,7.6,-0.66,21.95
17946,0.1228,-0.6079,0.6881,-5.68,7.48,-0.35,21.96
17956,0.1243,-0.6149,0.6907,-6.18,6.75,-0.23,21.97
17966,0.1257,-0.6165,0.6887,-6.37,6.61,-0.27,21.96
17977,0.1287,-0.6113,0.6853,-6.31,6.31,-0.08,21.97
17987,0.1306,-0.6155,0.6831,-6.12,6.15,-0.11,21.97
17997,0.1337,-0.6165,0.6875,-5.74,6.17,0.21,21.97
18007,0.1295,-0.6158,0.6906,-5.68,6.08,0.21,21.99
18017,0.1262,-0.6128,0.6899,-5.68,6.31,0.18,21.95
18027,0.1234,-0.6129,0.6914,-5.63,6.87,0.31,21.96
18037,0.1243,-0.6132,0.691,-5.83,7.76,0.27,21.97
18047,0.1322,-0.6102,0.6907,-6.2,8.12,0.11,21.97
18057,0.1318,-0.6146,0.6903,-6.38,8.53,0.24,21.98
18067,0.1333,-0.6157,0.6908,-6.41,8.9,0.2,21.96
18077,0.1324,-0.6138,0.6853,-6.61,8.75,0.21,21.95
18087,0.1315,-0.6135,0.6792,-6.69,8.53,0.24,21.97
18097,0.1316,-0.6172,0.681,-6.72,8.06,0.4,21.97
18107,0.1304,-0.6139,0.6833,-6.52,7.68,0.44,21.94
18117,0.1292,-0.6174,0.6816,-6.46,7.47,0.46,21.95
18127,0.1238,-0.6168,0.6787,-6.21,7.4,0.38,21.97
18137,0.1237,-0.6158,0.6804,-6.02,7.4,0.27,21.95
18147,0.1189,-0.6144,0.6858,-5.83,7.27,0.18,21.97
18157,0.1254,-0.6133,0.6838,-6.11,7.01,0.15,21.94
18167,0.1281,-0.6107,0.6844,-6.17,6.73,0.23,21.96
18177,0.1252,-0.6144,0.6812,-6.08,6.84,0.21,21.98
18187,0.1278,-0.6143,0.6871,-5.92,7.11,0.24,21.98
18197,0.1285,-0.6168,0.6841,-5.98,7.5,0.26,21.93
18207,0.1298,-0.6136,0.6816,-5.82,7.89,0.21,21.96
18217,0.1304,-0.6156,0.6826,-5.88,7.94,0.26,21.98
18227,0.1326,-0.6176,0.6898,-5.65,7.94,0.38,21.97
18237,0.1295,-0.6163,0.6832,-5.62,7.6,0.46,21.97
18247,0.1288,-0.6127,0.6777,-5.39,7.02,0.4,21.96
18257,0.1266,-0.6151,0.6772,-5.48,7.05,0.37,21.96
18267,0.1238,-0.6169,0.6772,-5.63,7.83,0.24,21.97
18277,0.1229,-0.6128,0.6779,-6.17,8.47,0.35,21.94
18287,0.1218,-0.6166,0.682,-6.73,8.76,0.17,21.96
18297,0.1226,-0.6141,0.6824,-7.15,8.64,0.35,21.97
18307,0.1243,-0.6174,0.6844,-7.3,8.41,0.24,21.97
18317,0.1246,-0.6151,0.6846,-6.9,7.62,0.21,21.97
18327,0.1249,-0.6125,0.6802,-6.61,7.18,0.18,21.99
18337,0.1241,-0.6132,0.687,-6.24,6.73,0.02,21.98
18347,0.1283,-0.6168,0.6838,-6.44,6.47,0.0,21.99
18357,0.1292,-0.6172,0.6887,-6.69,6.61,-0.05,21.98
18367,0.1295,-0.6135,0.6868,-6.7,6.61,0.09,21.98
18377,0.132,-0.6127,0.6873,-6.63,6.99,0.15,21.96
18387,0.1315,-0.6146,0.6827,-6.61,7.71,0.14,21.97
18397,0.1315,-0.6139,0.6825,-6.49,8.0,0.08,21.96
18407,0.1321,-0.6155,0.6798,-6.61,8.49,-0.03,21.96
18417,0.1326,-0.6178,0.6816,-6.81,8.63,0.03,21.97
18427,0.1294,-0.6191,0.6804,-6.92,8.53,0.14,21.97
18437,0.1222,-0.6125,0.6759,-6.9,8.53,0.02,21.96
18447,0.116,-0.614,0.6787,-6.35,8.43,-0.02,21.97
18457,0.114,-0.6108,0.6838,-5.89,8.2,-0.12,21.99
18467,0.1187,-0.6132,0.686,-5.77,7.91,-0.21,21.96
18477,0.1144,-0.6127,0.6852,-5.47,7.5,-0.18,21.99
18487,0.1191,-0.6122,0.6783,-5.11,7.4,-0.38,21.97
18497,0.1287,-0.6143,0.678,-4.93,7.36,-0.43,21.96
18507,0.1337,-0.6156,0.6786,-4.92,7.65,-0.34,21.95
18517,0.1351,-0.6179,0.677,-5.1,8.2,-0.12,21.96
18527,0.1337,-0.6196,0.6809,-5.45,8.4,0.08,21.97
18537,0.1294,-0.6235,0.6882,-5.89,8.21,0.23,21.97
18547,0.1248,-0.625,0.6869,-6.47,7.91,0.27,21.97
18557,0.1254,-0.6198,0.6831,-6.55,7.33,0.26,21.96
18567,0.1251,-0.614,0.6801,-6.72,7.36,0.17,21.98
18577,0.1213,-0.6174,0.676,-6.55,7.36,0.06,21.97
18587,0.1194,-0.6151,0.6726,-6.55,7.5,0.05,21.98
18597,0.1208,-0.6149,0.6705,-6.56,7.86,-0.26,22.0
18607,0.1256,-0.6149,0.6727,-6.58,7.85,-0.37,21.96
18617,0.1265,-0.614,0.6759,-6.44,7.98,-0.41,21.96
18627,0.1285,-0.6146,0.6803,-6.18,8.08,-0.34,21.96
18637,0.1244,-0.6097,0.6794,-5.95,7.83,-0.44,21.97
18647,0.1229,-0.6155,0.6835,-5.92,7.92,-0.44,21.98
18657,0.1216,-0.6162,0.684,-5.76,8.05,-0.4,21.99
18667,0.1261,-0.6144,0.6903,-5.73,7.97,-0.43,21.98
18677,0.1283,-0.615,0.6884,-5.91,7.85,-0.43,21.98
18687,0.1305,-0.6133,0.6918,-5.98,8.2,-0.32,21.96
18697,0.1268,-0.6134,0.6908,-6.05,8.53,-0.15,21.98
18707,0.1256,-0.6158,0.6919,-6.26,8.79,-0.12,21.99
18717,0.1288,-0.613,0.6959,-6.43,9.4,-0.17,21.97
18727,0.1272,-0.6128,0.6864,-6.31,9.47,-0.12,21.97
18737,0.1204,-0.6145,0.6783,-6.4,9.18,-0.23,22.0
18747,0.1188,-0.6156,0.6862,-6.24,8.61,-0.31,21.97
18757,0.1234,-0.6134,0.6873,-6.12,8.18,-0.27,21.96
18767,0.1235,-0.6138,0.6838,-6.02,7.98,-0.26,21.98
18777,0.1274,-0.6166,0.6852,-6.08,8.02,-0.24,21.99
18787,0.1295,-0.6136,0.686,-5.98,7.79,-0.08,21.98
18797,0.1263,-0.6143,0.6803,-6.11,7.82,-0.03,22.02
18807,0.1278,-0.6157,0.6801,-6.2,7.73,0.02,21.98
18817,0.1313,-0.6143,0.6782,-6.2,7.39,0.23,21.98
18827,0.1298,-0.6173,0.6764,-5.98,7.19,0.34,21.98
18837,0.1317,-0.6177,0.6733,-5.68,6.92,0.44,21.97
18847,0.1311,-0.6168,0.6687,-5.79,6.73,0.63,21.98
18857,0.1332,-0.6152,0.6726,-5.77,6.85,0.89,21.99
18867,0.1324,-0.6157,0.6735,-5.83,6.76,1.07,21.98
18878,0.1294,-0.6169,0.6753,-5.98,7.22,1.05,21.99
18888,0.1313,-0.6222,0.6816,-6.12,7.6,1.07,22.0
18898,0.1313,-0.6176,0.6854,-6.17,7.62,1.04,21.99
18908,0.1305,-0.6193,0.6848,-6.08,7.4,1.1,21.97
18918,0.1239,-0.6156,0.6814,-5.74,7.44,1.31,21.97
18928,0.1136,-0.6115,0.6787,-5.77,6.75,1.4,21.99
18938,0.1149,-0.6166,0.6824,-5.88,6.49,1.13,22.0
18949,0.1205,-0.6171,0.6783,-6.08,6.64,1.11,21.99
18959,0.1224,-0.6132,0.6779,-6.29,6.76,1.11,21.99
18969,0.1262,-0.6156,0.679,-6.24,6.73,1.24,21.99
18980,0.1207,-0.6155,0.6797,-6.11,6.78,1.21,21.99
18990,0.1184,-0.6128,0.6833,-5.73,7.05,1.07,21.97
19000,0.1224,-0.615,0.6851,-5.65,6.98,0.99,21.98
19010,0.123,-0.6161,0.6843,-5.76,6.9,0.89,21.97
19020,0.129,-0.6134,0.6852,-5.76,6.67,0.7,22.0
19030,0.1282,-0.6158,0.6859,-5.69,6.84,0.63,21.98
19040,0.1305,-0.6183,0.6851,-5.48,6.98,0.63,21.98
19050,0.1285,-0.6185,0.6863,-5.34,6.92,0.58,21.98
19060,0.1259,-0.6169,0.6846,-5.13,6.67,0.67,21.96
19070,0.1238,-0.6157,0.689,-5.22,6.85,0.53,21.99
19080,0.1228,-0.6156,0.6965,-5.45,6.89,0.61,21.99
19090,0.1234,-0.6145,0.6959,-6.11,7.51,0.6,22.0
19100,0.1292,-0.6176,0.688,-6.78,7.33,0.52,21.99
19110,0.1346,-0.6199,0.6809,-6.93,7.69,0.49,21.99
19120,0.1327,-0.6174,0.6737,-6.75,8.24,0.58,21.99
19130,0.1272,-0.616,0.6746,-6.56,8.73,0.43,22.0
19140,0.1216,-0.6179,0.6765,-6.37,9.3,0.29,21.99
19150,0.1162,-0.6154,0.681,-6.18,9.68,0.4,21.99
19160,0.1118,-0.6122,0.6848,-6.31,9.11,0.21,21.97
19170,0.1115,-0.6168,0.6798,-6.32,8.93,-0.03,21.99
19181,0.1171,-0.6141,0.673,-6.32,8.21,-0.17,21.99
19191,0.1158,-0.6144,0.6744,-6.12,7.66,-0.43,22.0
19201,0.116,-0.6125,0.676,-5.77,7.51,-0.55,21.99
19211,0.1188,-0.615,0.6797,-5.5,7.59,-0.64,21.96
19221,0.1259,-0.6157,0.6786,-5.48,8.15,-0.75,21.98
19231,0.1302,-0.6145,0.6835,-5.88,8.66,-0.58,21.97
19241,0.1261,-0.6146,0.6825,-6.53,8.6,-0.14,21.95
19251,0.1196,-0.6133,0.6818,-7.44,8.61,-0.14,21.97
19261,0.1216,-0.6146,0.682,-7.57,8.76,-0.14,21.96
19271,0.125,-0.6173,0.6832,-7.27,9.3,-0.52,22.0
19281,0.1262,-0.6183,0.6823,-6.7,10.17,-1.08,22.0
19291,0.126,-0.6204,0.675,-6.31,10.56,-1.28,21.98
19301,0.1283,-0.62,0.6771,-6.38,10.18,-1.22,21.99
19311,0.1241,-0.6194,0.6768,-6.49,9.98,-1.13,21.99
19321,0.12,-0.6165,0.6776,-6.66,9.08,-0.75,21.97
19331,0.1282,-0.6116,0.6735,-7.51,6.75,-0.38,21.99
19341,0.1052,-0.6116,0.705,-7.25,5.85,0.0,21.98
19351,0.1064,-0.6115,0.7025,-7.13,4.98,0.29,21.99
19361,0.1155,-0.6198,0.6979,-7.47,4.49,-0.53,21.99
19371,0.142,-0.6237,0.6785,-6.82,4.27,-0.72,21.97
19381,0.1361,-0.6176,0.6877,-6.23,5.89,-0.84,21.97
19391,0.1315,-0.6184,0.6893,-6.37,6.79,-0.84,21.98
19402,0.1362,-0.6215,0.6908,-6.93,6.76,-0.87,21.99
19412,0.1403,-0.6174,0.6877,-7.53,7.34,-0.87,22.0
19422,0.1394,-0.6202,0.6821,-8.05,7.51,-0.76,21.99
19432,0.1344,-0.6201,0.6783,-8.23,7.56,-0.6,21.98
19442,0.1323,-0.618,0.6733,-7.95,7.56,-0.38,21.98
19452,0.1241,-0.6199,0.6624,-7.02,7.5,-0.26,22.0
19462,0.1206,-0.6217,0.655,-6.26,7.62,-0.27,21.99
19472,0.1233,-0.619,0.6471,-6.12,7.22,-0.29,22.01
19482,0.1243,-0.6206,0.6587,-6.31,7.74,-0.6,22.03
19492,0.13,-0.6155,0.6633,-6.43,8.89,-0.46,21.97
19502,0.1204,-0.6185,0.6622,-6.85,9.77,-0.9,21.98
19512,0.105,-0.6122,0.6947,-6.55,10.99,-1.36,22.01
19522,0.099,-0.6138,0.6725,-6.34,11.18,-1.73,21.99
19532,0.1029,-0.6196,0.6793,-5.51,10.11,-1.91,22.02
19542,0.1139,-0.6128,0.6744,-4.43,8.93,-1.65,21.99
19552,0.1198,-0.6117,0.6724,-4.43,6.78,-1.13,21.97
19562,0.1252,-0.6064,0.6802,-4.72,4.79,-0.92,21.99
19572,0.1198,-0.6155,0.6891,-4.85,4.31,-0.81,22.0
19582,0.1168,-0.6163,0.7,-4.96,5.27,-0.69,21.99
19592,0.1238,-0.6167,0.7036,-4.73,5.88,-0.85,22.0
19602,0.118,-0.6167,0.7145,-5.89,6.63,-1.18,21.98
19612,0.1283,-0.6124,0.7079,-6.26,8.02,-1.73,21.96
19622,0.1373,-0.6312,0.694,-6.41,9.57,-1.97,21.99
19632,0.1473,-0.6312,0.6951,-7.24,10.79,-2.0,21.98
19642,0.1521,-0.6372,0.6929,-8.02,11.83,-2.02,21.98
19652,0.1482,-0.6329,0.6805,-8.32,13.27,-1.69,21.99
19662,0.1295,-0.6271,0.673,-8.44,14.6,-1.62,21.96
19672,0.1298,-0.6241,0.6594,-8.49,14.96,-1.97,21.96
19682,0.1256,-0.6257,0.6561,-8.38,15.56,-2.18,21.98
19692,0.1248,-0.6149,0.6558,-8.4,14.89,-2.26,21.99
19702,0.1226,-0.6157,0.6635,-8.2,13.79,-2.31,22.0
19712,0.1124,-0.6112,0.6558,-7.8,14.23,-2.08,22.0
19722,0.116,-0.6123,0.6632,-7.01,12.24,-1.94,21.98
19732,0.116,-0.6145,0.6749,-6.43,11.39,-1.74,22.01
19742,0.1187,-0.6135,0.6824,-5.92,10.2,-1.66,21.97
19752,0.119,-0.6152,0.6897,-5.4,9.18,-1.48,21.99
19762,0.1144,-0.6178,0.6917,-4.98,8.03,-1.47,22.0
19772,0.1118,-0.6161,0.6971,-5.27,6.98,-1.44,21.99
19782,0.1212,-0.6218,0.6986,-5.82,6.63,-1.45,21.99
19792,0.1317,-0.6208,0.6975,-6.08,6.92,-1.21,21.98
19802,0.1359,-0.6178,0.6927,-6.6,7.33,-0.99,21.97
19812,0.1334,-0.6252,0.6968,-6.92,7.71,-0.73,21.97
19822,0.1316,-0.6232,0.6882,-7.05,8.34,-0.58,21.99
19832,0.1339,-0.6221,0.6816,-7.24,8.56,-0.29,21.99
19842,0.1294,-0.6226,0.6719,-7.79,8.79,-0.24,21.97
19852,0.1261,-0.6237,0.6693,-8.05,8.84,-0.27,21.96
19862,0.1237,-0.6238,0.6669,-8.21,8.93,-0.23,22.0
19872,0.1216,-0.6228,0.6653,-8.09,9.02,-0.43,22.0
19882,0.1205,-0.6184,0.6666,-7.77,8.96,-0.44,21.99
19892,0.1119,-0.6169,0.6722,-7.45,9.05,-0.81,21.99
19903,0.1232,-0.6254,0.6649,-6.73,8.15,-0.38,22.0
19913,0.1174,-0.6172,0.6597,-6.06,7.21,-0.27,22.0
19923,0.1174,-0.6169,0.6669,-5.89,6.4,-0.34,22.0
19933,0.1234,-0.6213,0.6711,-5.68,5.92,-0.15,21.98
19943,0.1282,-0.6255,0.6783,-5.69,5.8,0.18,21.99
19953,0.1285,-0.6229,0.6793,-5.73,5.89,0.44,21.97
19963,0.1257,-0.6208,0.6805,-5.82,6.15,0.53,21.99
19973,0.1278,-0.6246,0.678,-6.05,6.6,0.55,21.98
19983,0.1254,-0.6226,0.681,-6.46,7.22,0.49,21.99
19993,0.1232,-0.6219,0.6829,-6.93,7.69,0.44,21.99
20003,0.1215,-0.6217,0.6855,-7.05,8.12,0.46,21.99
20013,0.1173,-0.6232,0.6877,-7.25,8.4,0.4,21.99
20023,0.118,-0.6271,0.6835,-7.15,8.41,0.09,21.98
20033,0.1146,-0.6256,0.6788,-6.92,8.29,-0.23,21.97
20043,0.1118,-0.6221,0.6768,-6.55,8.37,-0.56,21.99
20053,0.1155,-0.6189,0.6765,-6.2,8.4,-0.61,21.99
20063,0.1178,-0.6207,0.6759,-6.34,8.47,-0.66,22.02
20073,0.1179,-0.6195,0.6758,-6.27,8.37,-0.78,22.0
20083,0.1191,-0.6198,0.6737,-6.24,8.4,-0.72,21.99
20093,0.1238,-0.6219,0.6686,-5.77,8.26,-0.75,21.99
20103,0.1223,-0.6228,0.6698,-5.48,8.18,-0.63,22.01
20113,0.1274,-0.6219,0.6715,-5.37,8.21,-0.5,22.01
20123,0.1262,-0.6246,0.6697,-5.73,8.23,-0.37,21.99
20133,0.125,-0.6267,0.6729,-5.88,8.2,-0.2,22.02
20143,0.1289,-0.6237,0.6699,-5.94,8.08,-0.03,22.0
20153,0.1272,-0.6206,0.6686,-5.86,8.38,0.05,21.99
20163,0.1246,-0.6252,0.668,-5.68,8.56,-0.03,22.0
20173,0.1207,-0.6238,0.671,-5.47,8.34,-0.08,21.99
20183,0.1178,-0.6238,0.6766,-5.51,8.35,-0.05,22.02
20193,0.1167,-0.6252,0.6725,-5.68,7.91,-0.12,21.98
20203,0.1151,-0.6238,0.675,-5.79,7.71,-0.35,21.97
20213,0.1145,-0.6354,0.6692,-6.2,7.04,-0.47,22.0
20223,0.119,-0.6147,0.679,-7.13,5.89,-0.66,21.98
20233,0.1252,-0.6315,0.6846,-5.94,7.4,-0.52,21.98
20243,0.1161,-0.6215,0.6787,-3.79,8.02,-0.69,21.97
20253,0.103,-0.5798,0.6897,-4.9,5.98,-0.73,21.97
20263,0.0833,-0.6017,0.6329,-11.83,1.08,0.55,21.99
20273,0.0806,-0.5842,0.6562,-18.66,-2.02,1.79,22.0
20283,0.1449,-0.6605,0.6309,-18.17,-0.24,0.96,21.99
20293,0.1692,-0.6722,0.6733,-14.18,3.85,0.31,21.99
20303,0.2021,-0.6764,0.6816,-6.84,8.7,-0.44,21.97
20313,0.1665,-0.6548,0.684,-0.03,12.2,-0.32,21.99
20323,0.1321,-0.6116,0.7328,6.85,13.27,-0.89,21.97
20333,0.1143,-0.6321,0.7067,7.83,13.05,-1.13,21.97
20343,0.113,-0.599,0.7174,3.65,10.08,-1.3,21.97
20353,0.1104,-0.5884,0.6945,-1.11,8.21,-0.67,21.99
20363,0.1139,-0.5883,0.6111,-8.17,4.63,0.76,21.98
20373,0.1208,-0.5959,0.6654,-13.97,4.27,0.79,21.98
20383,0.1367,-0.6254,0.6801,-12.7,7.74,1.42,21.99
20393,0.1396,-0.6249,0.7014,-7.39,10.56,1.04,22.0
20403,0.1254,-0.6517,0.7141,-4.64,10.24,0.35,21.97
20413,0.1152,-0.608,0.7085,-4.24,7.91,0.29,21.99
20423,0.1184,-0.6338,0.6798,-5.51,6.27,0.81,21.99
20433,0.1251,-0.6141,0.6703,-6.12,6.73,0.95,21.98
20443,0.1354,-0.6229,0.6637,-5.53,7.47,1.16,21.98
20453,0.134,-0.6243,0.6603,-5.04,7.97,1.74,21.95
20463,0.1292,-0.6229,0.6621,-5.54,7.34,1.79,22.02
20473,0.1176,-0.6194,0.6755,-5.8,7.28,1.5,22.01
20483,0.1145,-0.6256,0.6779,-5.56,7.8,1.15,22.0
20493,0.1169,-0.6287,0.6748,-5.71,8.43,0.72,21.99
20503,0.1166,-0.6266,0.6769,-6.09,9.05,0.5,21.99
20513,0.1168,-0.6259,0.6656,-6.58,8.98,0.32,21.99
20523,0.1201,-0.6255,0.6642,-6.89,8.7,0.32,22.01
20533,0.1246,-0.6293,0.6617,-6.81,8.82,0.23,22.01
20543,0.1218,-0.6239,0.6592,-6.58,8.79,0.23,21.98
20553,0.1205,-0.6244,0.6652,-6.34,8.26,0.17,21.99
20563,0.1143,-0.6266,0.6653,-5.69,8.05,0.12,22.0
20573,0.1144,-0.6228,0.6637,-5.37,7.97,0.0,22.0
20583,0.1157,-0.6221,0.6692,-5.63,7.69,-0.08,21.97
20593,0.1146,-0.6212,0.6725,-5.97,7.51,-0.14,21.96
20603,0.1156,-0.6234,0.6719,-6.27,7.36,-0.18,21.97
20613,0.1173,-0.6213,0.6772,-6.38,7.31,-0.29,22.0
20623,0.1177,-0.6234,0.6781,-6.26,7.48,-0.34,21.98
20633,0.1243,-0.6235,0.6862,-6.18,7.51,-0.38,21.99
20643,0.1292,-0.624,0.6859,-6.06,7.94,-0.52,21.99
20653,0.1272,-0.623,0.6879,-5.66,8.47,-0.46,21.97
20663,0.1268,-0.6229,0.6799,-5.69,8.29,-0.31,22.0
20673,0.1284,-0.6221,0.682,-5.83,8.27,-0.17,21.97
20683,0.1289,-0.6191,0.6818,-5.73,8.02,0.05,22.01
20693,0.1256,-0.6177,0.676,-5.89,7.8,0.27,21.98
20703,0.1212,-0.6158,0.6747,-5.98,7.57,0.5,22.01
20713,0.116,-0.6139,0.6791,-6.21,7.6,0.58,21.97
20723,0.1123,-0.6193,0.6788,-6.43,7.79,0.58,22.0
20733,0.1149,-0.6198,0.6792,-6.53,7.6,0.4,22.0
20743,0.1129,-0.625,0.6801,-6.5,7.69,0.26,21.97
20753,0.1171,-0.6241,0.6825,-6.29,7.89,0.17,21.97
20763,0.1205,-0.6237,0.6841,-6.21,7.79,0.15,21.99
20773,0.125,-0.6239,0.6832,-6.23,7.42,0.08,21.98
20783,0.125,-0.6232,0.6826,-6.29,7.16,0.23,22.01
20793,0.1235,-0.6234,0.6744,-6.15,7.16,0.24,22.01
20803,0.1287,-0.6252,0.6748,-6.09,7.34,0.27,21.98
20813,0.1296,-0.6267,0.6718,-5.85,7.82,0.2,21.99
20823,0.1315,-0.623,0.6725,-5.94,8.21,0.41,22.0
20833,0.1323,-0.6255,0.6724,-5.95,8.55,0.6,21.98
20843,0.124,-0.6262,0.6736,-5.8,8.79,0.69,21.99
20853,0.1212,-0.6212,0.6646,-5.85,8.64,0.87,21.99
20863,0.1157,-0.6215,0.6677,-5.85,8.17,0.78,21.99
20873,0.1093,-0.6245,0.6682,-6.05,7.59,0.81,22.0
20883,0.1116,-0.6248,0.6714,-6.02,7.34,0.61,21.98
20893,0.1117,-0.6228,0.6693,-5.97,7.54,0.66,21.99
20903,0.1113,-0.6221,0.6694,-5.71,7.71,0.78,21.99
20913,0.114,-0.6226,0.6674,-5.92,7.65,0.66,21.98
20923,0.1147,-0.6243,0.6755,-6.08,7.6,0.43,21.99
20933,0.1182,-0.626,0.6786,-6.18,7.51,0.35,21.97
20943,0.1119,-0.6202,0.6827,-5.91,7.5,0.37,21.98
20953,0.1091,-0.6216,0.6829,-5.82,7.63,0.15,22.0
20963,0.111,-0.624,0.6821,-5.69,8.17,-0.23,22.03
20973,0.1117,-0.6237,0.6801,-5.66,8.79,-0.4,22.02
20983,0.1171,-0.6249,0.6776,-5.91,9.16,-0.55,22.02
20993,0.1187,-0.6223,0.6849,-6.4,9.24,-0.43,22.0
21003,0.1173,-0.6244,0.6848,-6.53,9.3,-0.4,22.0
21013,0.1188,-0.6239,0.6879,-6.52,9.36,-0.49,22.03
21023,0.1127,-0.621,0.6879,-6.72,9.24,-0.38,21.99
21033,0.1116,-0.6182,0.6874,-6.84,8.87,-0.35,22.01
21043,0.1057,-0.6173,0.6855,-6.95,8.37,-0.44,22.02
21053,0.1096,-0.6191,0.682,-6.95,8.21,-0.38,22.02
21063,0.1136,-0.618,0.6799,-7.07,8.12,-0.46,21.98
21073,0.1202,-0.6233,0.6782,-7.19,8.37,-0.4,21.98
21083,0.125,-0.626,0.6793,-7.22,8.69,-0.31,21.98
21093,0.1267,-0.6259,0.6788,-6.85,8.72,-0.4,21.99
21103,0.1227,-0.6262,0.6771,-6.43,8.84,-0.35,21.98
21113,0.1217,-0.6268,0.6796,-5.92,8.89,-0.47,22.0
21123,0.1252,-0.6257,0.6769,-5.56,9.25,-0.52,22.01
21133,0.1239,-0.6317,0.6752,-5.88,9.36,-0.43,22.02
21143,0.1263,-0.6257,0.6744,-6.38,9.1,-0.4,21.99
21153,0.1259,-0.6281,0.6705,-6.56,9.11,-0.2,22.0
21163,0.1243,-0.6318,0.6682,-6.85,9.27,-0.09,22.0
21173,0.1216,-0.6322,0.6664,-6.9,9.31,-0.05,21.99
21183,0.1196,-0.6312,0.6637,-6.9,8.9,0.0,22.02
21193,0.1199,-0.6249,0.6663,-6.61,8.53,-0.05,22.0
21203,0.1216,-0.6237,0.6642,-6.23,8.46,0.24,21.99
21213,0.1179,-0.624,0.6691,-6.09,8.15,0.37,21.99
21223,0.114,-0.6213,0.6781,-6.08,8.09,0.4,21.98
21233,0.1095,-0.6208,0.6782,-6.24,7.95,0.37,21.96
21243,0.1127,-0.6235,0.6774,-6.35,7.76,0.35,21.99
21253,0.1132,-0.6218,0.673,-6.58,7.62,0.23,21.99
21263,0.1206,-0.6239,0.6738,-6.47,7.74,0.29,22.01
21273,0.1199,-0.6239,0.673,-6.5,7.94,0.27,22.0
21294,0.1156,-0.6207,0.6722,-6.61,8.06,0.29,21.99
21304,0.1067,-0.6239,0.6786,-6.64,8.11,0.18,22.0
21314,0.1022,-0.6219,0.6726,-6.66,8.35,0.05,22.01
21324,0.1061,-0.6245,0.6719,-6.81,8.44,0.03,22.0
21334,0.1132,-0.621,0.6782,-6.75,8.06,0.08,22.0
21344,0.1177,-0.627,0.6721,-6.58,7.83,-0.05,22.01
21354,0.1183,-0.6251,0.6722,-6.35,7.53,0.09,22.01
21364,0.1161,-0.6226,0.682,-6.17,7.56,0.46,22.01
21374,0.1129,-0.6202,0.6814,-6.18,7.39,0.66,21.99
21384,0.1143,-0.6215,0.6764,-6.43,7.48,0.84,22.01
21394,0.1144,-0.6229,0.6809,-6.56,7.59,0.92,22.01
21404,0.1169,-0.6213,0.6768,-6.64,7.66,0.87,21.99
21414,0.1166,-0.6283,0.6705,-6.55,7.82,0.92,22.01
21424,0.1168,-0.6256,0.6693,-5.97,7.89,0.7,22.01
21434,0.1146,-0.6274,0.6732,-6.0,7.97,0.46,22.01
21444,0.1147,-0.6295,0.668,-5.91,8.14,0.32,22.01
21454,0.1122,-0.629,0.6726,-5.77,7.92,0.29,22.0
21464,0.1093,-0.6324,0.6754,-5.95,7.85,0.17,22.02
21474,0.1129,-0.6316,0.6674,-6.0,8.03,0.05,22.0
21484,0.1124,-0.6263,0.6655,-5.82,8.08,0.0,22.02
21494,0.1152,-0.6267,0.6659,-5.85,8.24,-0.06,22.0
21504,0.119,-0.6294,0.6677,-5.68,8.43,-0.14,22.0
21514,0.1219,-0.6323,0.6714,-5.71,8.53,-0.15,22.01
21524,0.1246,-0.6311,0.668,-5.76,8.73,-0.03,22.0
21534,0.1223,-0.6271,0.6676,-5.76,8.44,0.15,21.99
21544,0.1221,-0.6354,0.6716,-5.74,8.29,0.21,22.02
21554,0.1202,-0.6262,0.6798,-5.86,8.12,0.46,22.01
21564,0.1124,-0.6226,0.6776,-5.98,7.79,0.76,22.01
21574,0.1068,-0.6237,0.6775,-6.17,7.27,0.67,22.02
21584,0.1074,-0.6195,0.6692,-6.11,7.22,0.58,21.99
21594,0.1067,-0.6223,0.666,-5.73,6.92,0.26,22.02
21604,0.1089,-0.6199,0.6604,-5.15,6.81,0.12,22.01
21614,0.1125,-0.6285,0.6616,-4.34,6.64,0.05,21.99
21624,0.1166,-0.6267,0.6617,-3.33,7.04,0.29,22.0
21634,0.1158,-0.6206,0.6669,-2.92,6.87,0.7,22.01
21644,0.1093,-0.6149,0.6779,-3.57,6.76,1.11,21.99
21654,0.1105,-0.6069,0.6685,-4.89,6.52,1.33,21.99
21664,0.1113,-0.6093,0.6625,-5.92,6.29,1.39,22.0
21674,0.1127,-0.6184,0.6665,-7.04,6.11,1.39,22.0
21684,0.1145,-0.6195,0.6713,-7.82,6.14,1.42,22.0
21694,0.1195,-0.6255,0.6801,-7.94,6.24,1.4,22.0
21704,0.1158,-0.635,0.686,-7.47,6.56,1.44,22.0
21714,0.1179,-0.6376,0.6973,-6.63,6.93,1.33,22.0
21724,0.1149,-0.6361,0.7014,-5.92,6.75,1.08,22.01
21734,0.1127,-0.6375,0.7001,-5.05,6.44,0.98,22.0
21744,0.1091,-0.6356,0.6943,-4.46,6.18,0.73,22.01
21754,0.1051,-0.6266,0.6976,-4.53,5.94,0.35,22.0
21764,0.1069,-0.6191,0.6929,-5.04,5.47,0.06,22.02
21774,0.1104,-0.619,0.6864,-5.82,6.05,-0.37,22.01
21784,0.1106,-0.6273,0.6876,-6.47,6.89,-0.5,21.98
21794,0.1183,-0.6296,0.681,-7.16,8.24,-0.61,22.0
21804,0.1195,-0.6289,0.6782,-7.27,9.08,-0.6,22.01
21814,0.1174,-0.6268,0.6781,-7.16,9.59,-0.52,22.01
21824,0.1166,-0.6232,0.6707,-6.96,9.63,-0.47,22.02
21834,0.1152,-0.6183,0.6682,-6.89,9.37,-0.32,22.01
21844,0.1116,-0.6215,0.671,-6.75,8.56,-0.23,22.02
21854,0.109,-0.62,0.6649,-6.76,8.0,-0.2,22.0
21864,0.1063,-0.6178,0.661,-6.52,7.36,-0.23,22.0
21874,0.1102,-0.6254,0.6659,-6.09,6.75,-0.17,22.01
21884,0.1138,-0.6271,0.6688,-5.95,6.55,-0.09,22.0
21894,0.1189,-0.6263,0.6664,-5.62,6.47,0.11,22.02
21904,0.1118,-0.6168,0.6685,-5.66,6.06,0.29,22.02
21914,0.1089,-0.6224,0.6757,-6.12,6.08,0.2,22.0
21924,0.1115,-0.6237,0.6851,-6.44,5.92,0.06,22.01
21934,0.1116,-0.6239,0.6949,-6.7,5.66,-0.15,21.99
21944,0.1117,-0.6282,0.697,-6.72,5.57,-0.35,21.99
21954,0.1261,-0.6283,0.6871,-6.61,5.91,-0.53,22.0
21964,0.1251,-0.6267,0.6851,-6.72,6.52,-0.38,22.01
21974,0.1281,-0.6311,0.6804,-7.16,7.37,-0.31,22.03
21984,0.1288,-0.637,0.6746,-7.71,8.14,-0.32,21.99
21994,0.1316,-0.6368,0.6643,-7.88,9.02,-0.34,22.0
22004,0.1255,-0.6354,0.6599,-7.53,9.69,-0.34,22.0
22014,0.1196,-0.635,0.6637,-7.05,10.26,-0.38,22.02
22024,0.1086,-0.6321,0.6672,-6.46,10.27,-0.37,21.99
22034,0.1077,-0.6259,0.667,-5.71,10.14,-0.72,22.01
22044,0.1036,-0.6199,0.6616,-5.47,9.47,-0.73,22.01
22054,0.1047,-0.6177,0.6615,-5.74,8.73,-0.84,22.02
22064,0.1089,-0.6248,0.6632,-5.89,8.21,-0.99,22.02
22074,0.1151,-0.6289,0.6669,-6.11,7.88,-0.81,21.99
22084,0.1152,-0.6292,0.6664,-6.11,7.86,-0.75,22.01
22094,0.1172,-0.6292,0.6738,-5.94,8.11,-0.64,22.02
22104,0.1166,-0.6285,0.6791,-5.77,8.18,-0.46,22.0
22114,0.1166,-0.6244,0.678,-6.05,7.76,-0.37,22.0
22124,0.1202,-0.6216,0.6737,-6.37,7.57,-0.2,22.01
22134,0.1227,-0.6254,0.6752,-6.7,7.51,-0.12,22.03
22144,0.1202,-0.6239,0.6742,-6.82,7.8,0.05,22.0
22154,0.1188,-0.6259,0.6687,-6.69,8.15,0.02,21.98
22164,0.1152,-0.629,0.6675,-6.75,8.24,-0.05,22.0
22174,0.1099,-0.6338,0.6707,-6.73,8.31,-0.31,22.03
22184,0.1149,-0.6322,0.6763,-6.34,8.0,-0.49,21.99
22194,0.1155,-0.6343,0.6786,-5.98,7.94,-0.47,21.97
22204,0.1156,-0.6295,0.6755,-5.59,7.76,-0.41,21.97
22214,0.1107,-0.6238,0.6731,-5.22,7.48,-0.43,22.01
22224,0.1106,-0.6245,0.6754,-5.3,7.68,-0.55,22.02
22234,0.1119,-0.624,0.6749,-5.51,7.68,-0.67,22.02
22244,0.1144,-0.6273,0.6742,-5.76,7.68,-0.82,22.02
22255,0.1216,-0.6279,0.6749,-6.18,8.12,-0.76,22.01
22265,0.1219,-0.6315,0.6725,-6.23,8.47,-0.61,22.0
22275,0.1204,-0.6304,0.6755,-6.09,8.61,-0.61,22.02
22285,0.1157,-0.6281,0.6732,-5.89,8.49,-0.5,22.0
22295,0.1144,-0.6208,0.6764,-5.5,8.14,-0.56,22.01
22305,0.1121,-0.6233,0.6788,-5.44,7.8,-0.56,22.01
22315,0.1123,-0.6212,0.6729,-5.47,7.82,-0.5,22.02
22325,0.1163,-0.6262,0.6761,-5.54,7.79,-0.5,22.02
22335,0.116,-0.6276,0.6716,-5.63,8.29,-0.55,22.0
22345,0.1149,-0.6261,0.6753,-5.83,8.55,-0.63,22.02
22355,0.1145,-0.6246,0.6752,-5.91,8.5,-0.63,22.02
22365,0.1136,-0.626,0.6726,-6.32,8.67,-0.67,21.99
22375,0.119,-0.6272,0.6693,-6.52,8.6,-0.64,22.0
22385,0.1193,-0.6249,0.674,-6.81,8.38,-0.53,22.0
22395,0.1204,-0.625,0.673,-6.81,8.46,-0.34,22.01
22405,0.1204,-0.6239,0.6794,-6.67,8.47,-0.14,21.99
22415,0.1139,-0.6207,0.6757,-6.34,7.76,0.23,22.02
22425,0.1129,-0.6229,0.6857,-6.12,7.5,-0.06,21.98
22435,0.1128,-0.6267,0.6859,-6.08,7.37,-0.05,22.0
22445,0.1174,-0.6267,0.684,-6.05,7.1,-0.18,22.0
22455,0.1189,-0.6289,0.6748,-5.89,7.21,-0.09,22.0
22465,0.1205,-0.6263,0.6776,-5.92,7.47,-0.02,22.01
22475,0.1211,-0.6219,0.6761,-5.77,8.02,-0.05,21.99
22485,0.1168,-0.6251,0.6753,-5.8,8.27,0.11,22.0
22495,0.1156,-0.6288,0.6715,-5.94,8.38,0.12,22.01
22505,0.113,-0.629,0.6703,-6.24,8.23,0.08,22.01
22515,0.1129,-0.6277,0.6625,-6.29,8.29,0.02,21.99
22525,0.1145,-0.6302,0.6638,-6.34,8.23,-0.08,22.01
22535,0.1157,-0.6267,0.6598,-6.21,8.15,-0.05,22.02
22545,0.1201,-0.6287,0.6633,-6.05,8.0,-0.14,22.02
22555,0.1218,-0.627,0.6606,-6.06,7.98,-0.11,22.03
22565,0.1222,-0.6299,0.6635,-5.92,8.05,-0.12,22.03
22575,0.1218,-0.6332,0.6686,-5.95,8.03,0.0,22.01
22585,0.1267,-0.6332,0.6715,-5.91,7.89,0.02,22.02
22595,0.1195,-0.6277,0.6727,-5.97,7.77,0.31,22.03
22605,0.1158,-0.6273,0.6766,-5.82,7.79,0.43,21.99
22615,0.1105,-0.6262,0.6792,-5.94,7.57,0.52,22.01
22625,0.1061,-0.6202,0.6826,-6.17,6.95,0.53,22.02
22635,0.1012,-0.6212,0.6807,-6.26,6.44,0.31,22.0
22646,0.1049,-0.6167,0.6808,-6.37,6.23,0.11,22.04
22656,0.105,-0.6201,0.6866,-6.32,6.4,0.02,22.0
22666,0.1125,-0.6248,0.6807,-6.09,6.93,-0.26,22.03
22676,0.1202,-0.6311,0.6803,-6.06,7.34,-0.24,21.99
22686,0.1201,-0.6289,0.6775,-6.15,7.62,-0.18,22.01
22696,0.1246,-0.6295,0.6713,-6.08,8.05,-0.2,22.01
22706,0.1228,-0.6318,0.6675,-5.97,8.29,-0.2,22.04
22716,0.1206,-0.6295,0.67,-5.98,8.84,-0.12,22.0
22726,0.116,-0.6268,0.6752,-5.89,9.19,-0.17,22.02
22736,0.1094,-0.6246,0.6698,-5.98,9.01,-0.11,22.03
22746,0.1067,-0.6288,0.6708,-5.95,8.87,-0.43,22.01
22756,0.1095,-0.6305,0.6753,-6.18,8.72,-0.6,22.02
22766,0.1124,-0.6296,0.674,-6.15,8.72,-0.64,22.02
22776,0.1132,-0.6241,0.6746,-6.23,8.95,-0.52,21.99
22786,0.1146,-0.6229,0.6721,-6.43,8.95,-0.38,22.01
22796,0.1182,-0.6271,0.6743,-6.72,8.69,-0.43,22.03
22806,0.1173,-0.6234,0.6746,-6.64,8.63,-0.44,22.01
22816,0.1146,-0.6296,0.6744,-6.47,8.34,-0.35,22.02
22826,0.1144,-0.627,0.6766,-6.24,8.03,-0.37,22.02
22836,0.1116,-0.6267,0.6738,-5.92,7.91,-0.38,22.01
22846,0.1118,-0.6278,0.6835,-5.97,7.82,-0.34,22.0
22856,0.1129,-0.6273,0.6748,-6.21,8.34,-0.43,22.01
22866,0.1118,-0.6357,0.6761,-6.55,9.42,-0.49,22.02
22876,0.1171,-0.6294,0.6791,-6.52,9.68,-0.43,22.03
22886,0.1079,-0.6266,0.6781,-6.76,9.97,-0.58,22.01
22896,0.1093,-0.6256,0.6721,-6.79,9.69,-0.75,22.02
22906,0.1106,-0.6279,0.6698,-6.66,9.3,-0.75,22.02
22916,0.1168,-0.625,0.6669,-6.49,8.84,-0.73,22.01
22926,0.1156,-0.6273,0.6721,-6.44,8.75,-0.7,21.99
22936,0.1136,-0.6224,0.6698,-6.27,8.69,-0.52,22.0
22946,0.1147,-0.6251,0.6658,-6.2,8.24,-0.46,22.03
22956,0.1176,-0.6277,0.6658,-6.2,8.2,-0.49,22.02
22966,0.1145,-0.6329,0.6664,-6.34,8.44,-0.5,21.99
22976,0.1155,-0.6321,0.6736,-6.37,8.64,-0.43,22.02
22986,0.1163,-0.6307,0.6721,-6.37,8.52,-0.15,22.02
22996,0.115,-0.6257,0.6703,-6.2,8.31,-0.03,22.01
23006,0.1111,-0.6248,0.6733,-6.37,8.12,0.0,22.01
23016,0.1158,-0.6302,0.6782,-6.44,7.91,-0.02,22.02
23026,0.1118,-0.6252,0.6742,-6.58,7.88,-0.02,22.02
23036,0.1185,-0.6281,0.6742,-6.64,8.31,0.11,22.03
23046,0.1145,-0.6256,0.6744,-6.87,8.6,0.26,22.02
23056,0.1097,-0.6293,0.6703,-6.78,8.89,0.09,22.05
23066,0.1108,-0.6295,0.6725,-6.43,9.05,0.11,22.04
23076,0.1084,-0.6224,0.6732,-6.12,9.02,0.08,22.03
23086,0.1086,-0.6266,0.6796,-5.82,8.96,-0.12,22.02
23096,0.1078,-0.6249,0.6787,-5.62,8.85,-0.23,22.01
23106,0.1071,-0.632,0.682,-5.82,8.63,-0.32,22.0
23116,0.1073,-0.6307,0.6796,-5.86,8.44,-0.43,22.02
23126,0.1097,-0.6265,0.6764,-5.98,8.24,-0.37,22.04
23136,0.11,-0.6287,0.6711,-6.23,8.05,-0.34,22.0
23146,0.1088,-0.6246,0.6737,-6.34,7.89,-0.15,22.01
23156,0.1106,-0.626,0.6707,-6.56,7.97,-0.24,22.04
23166,0.1125,-0.6248,0.6705,-6.92,7.91,-0.12,22.02
23176,0.1205,-0.6329,0.6666,-7.21,7.65,-0.05,22.01
23186,0.1235,-0.6323,0.6643,-7.24,8.58,0.0,22.02
23196,0.1177,-0.6343,0.6669,-7.02,8.82,0.18,22.03
23206,0.1162,-0.6365,0.6707,-6.79,8.87,0.24,22.03
23216,0.1115,-0.6368,0.6746,-6.67,8.82,0.08,22.03
23226,0.1071,-0.6332,0.6759,-6.15,8.44,0.09,22.02
23236,0.1078,-0.6304,0.6724,-6.15,8.05,0.06,22.02
23246,0.1079,-0.6299,0.674,-6.21,7.82,-0.03,22.02
23256,0.1091,-0.6271,0.6735,-6.32,7.48,-0.02,22.0
23266,0.1091,-0.6233,0.6749,-6.49,7.54,-0.11,22.03
23276,0.1057,-0.6246,0.6772,-6.66,7.73,-0.05,22.01
23287,0.1105,-0.6218,0.6738,-6.81,7.79,-0.12,22.02
23297,0.1075,-0.6232,0.6737,-6.9,8.41,-0.06,22.03
23307,0.1077,-0.6229,0.6743,-6.82,8.56,-0.09,22.01
23317,0.1141,-0.6281,0.6724,-6.93,8.47,-0.05,22.03
23327,0.1139,-0.6268,0.6709,-6.93,8.41,0.12,22.01
23337,0.1196,-0.6288,0.6724,-6.9,8.4,0.32,22.0
23347,0.1133,-0.634,0.6707,-6.69,8.26,0.5,22.02
23357,0.115,-0.6357,0.6696,-6.49,8.11,0.66,22.0
23367,0.1094,-0.6348,0.6753,-6.41,8.06,0.6,21.98
23377,0.1095,-0.6304,0.6758,-6.14,7.98,0.67,22.02
23387,0.1055,-0.6328,0.6735,-6.35,8.05,0.56,22.02
23397,0.1075,-0.6295,0.6682,-6.31,8.14,0.34,22.03
23407,0.1089,-0.6321,0.668,-6.53,8.21,0.35,22.02
23417,0.1066,-0.6313,0.6578,-6.73,8.23,0.37,22.03
23427,0.1089,-0.6318,0.6559,-6.7,8.14,0.21,22.01
23437,0.1075,-0.6306,0.6526,-6.63,8.2,0.02,22.02
23447,0.1093,-0.632,0.6592,-6.29,8.2,-0.18,22.03
23457,0.1091,-0.6312,0.6655,-6.18,7.92,-0.03,22.03
23467,0.1132,-0.6301,0.6664,-6.17,7.85,0.09,22.03
23477,0.1122,-0.6306,0.6672,-6.23,7.91,0.17,22.01
23487,0.1113,-0.6311,0.6661,-6.2,7.79,0.21,22.0
23497,0.1116,-0.6339,0.6625,-6.23,7.65,0.24,22.01
23507,0.1077,-0.6296,0.6635,-6.11,7.53,0.37,22.02
23517,0.1063,-0.6313,0.6636,-5.8,7.04,0.35,22.02
23527,0.106,-0.6279,0.6648,-5.48,6.69,0.31,22.05
23537,0.1058,-0.6295,0.6633,-5.24,6.61,0.27,22.01
23547,0.1077,-0.6298,0.668,-4.98,6.85,0.23,22.04
23557,0.1099,-0.6304,0.6686,-5.44,7.31,0.21,22.04
23567,0.1115,-0.6349,0.6715,-5.71,7.56,0.06,22.01
23577,0.1128,-0.6337,0.6744,-6.03,7.4,-0.03,22.03
23587,0.1116,-0.6371,0.6753,-6.21,7.33,-0.02,22.04
23597,0.1116,-0.639,0.6749,-6.05,7.5,0.06,22.03
23607,0.1145,-0.636,0.6711,-5.79,7.36,0.12,22.01
23617,0.1163,-0.6324,0.6705,-5.69,7.19,0.24,22.02
23627,0.1117,-0.6318,0.67,-5.63,7.13,0.32,22.02
23637,0.1108,-0.6257,0.6646,-5.5,7.18,0.49,22.02
23647,0.1093,-0.6229,0.6682,-5.48,7.04,0.6,22.02
23657,0.1082,-0.624,0.671,-5.37,6.78,0.66,22.03
23667,0.1067,-0.6246,0.6694,-5.36,6.58,0.63,22.02
23677,0.1068,-0.6243,0.6675,-5.3,6.56,0.69,22.02
23687,0.1058,-0.6267,0.6742,-5.25,6.7,0.6,22.02
23697,0.108,-0.6296,0.6772,-5.3,7.36,0.56,22.02
23707,0.1104,-0.6322,0.6818,-5.18,7.74,0.55,22.03
23717,0.1093,-0.6323,0.684,-5.34,7.8,0.56,22.02
23727,0.1078,-0.6327,0.6818,-5.21,7.69,0.44,21.99
23737,0.1084,-0.6345,0.6791,-4.96,7.62,0.43,21.97
23747,0.1111,-0.6333,0.6772,-4.66,7.57,0.49,22.02
23757,0.1073,-0.6304,0.6737,-4.37,7.51,0.31,21.99
23767,0.1067,-0.6316,0.6735,-4.11,7.54,0.06,22.02
23777,0.1097,-0.6287,0.6736,-4.09,7.65,-0.03,22.04
23787,0.1091,-0.6262,0.6709,-4.12,7.6,-0.31,22.02
23797,0.1093,-0.6279,0.6676,-4.21,7.65,-0.38,21.99
23807,0.1117,-0.626,0.6652,-4.43,7.86,-0.4,22.02
23817,0.1121,-0.6309,0.6737,-4.64,8.05,-0.38,22.01
23827,0.1105,-0.6324,0.6692,-4.87,7.89,-0.31,22.01
23837,0.1123,-0.631,0.6732,-4.99,7.8,-0.21,21.99
23847,0.1133,-0.6289,0.6748,-5.1,7.22,0.02,22.02
23857,0.1173,-0.6259,0.6738,-5.11,7.11,0.18,22.0
23867,0.1145,-0.6273,0.6711,-4.92,7.15,0.35,22.0
23877,0.114,-0.6267,0.6774,-4.93,7.31,0.37,22.01
23887,0.1108,-0.6241,0.6741,-5.15,7.48,0.55,22.02
23897,0.1042,-0.6228,0.6809,-5.33,7.63,0.52,22.02
23907,0.1005,-0.6228,0.676,-5.33,7.5,0.31,22.02
23917,0.1002,-0.6211,0.6785,-5.53,7.22,0.11,22.03
23927,0.1044,-0.6248,0.6771,-5.6,7.3,-0.12,22.0
23937,0.1073,-0.6255,0.6731,-5.76,7.15,-0.26,22.01
23947,0.1116,-0.625,0.6757,-5.88,7.05,-0.35,22.02
23957,0.1063,-0.6316,0.6742,-5.92,7.34,-0.32,22.03
23967,0.1062,-0.6277,0.6831,-5.88,7.68,-0.18,22.03
23977,0.1093,-0.625,0.6807,-5.97,7.48,0.0,22.0
23987,0.1128,-0.6274,0.6802,-6.18,7.44,-0.03,22.01
23997,0.1152,-0.6216,0.6825,-6.38,7.47,0.11,21.99
24007,0.1174,-0.6273,0.6738,-6.21,7.6,0.18,21.99
24017,0.115,-0.6255,0.6748,-6.15,7.74,0.32,21.99
24027,0.1139,-0.6215,0.6698,-5.95,7.65,0.34,22.01
24037,0.1091,-0.6232,0.6716,-5.83,7.77,0.21,22.01
24047,0.1061,-0.6301,0.6764,-5.6,7.95,0.23,22.0
24057,0.1075,-0.6265,0.6722,-5.57,8.11,0.23,22.04
24067,0.106,-0.6262,0.6689,-5.62,8.15,0.29,22.03
24077,0.1027,-0.6268,0.6655,-5.74,8.21,0.29,22.01
24087,0.1038,-0.6283,0.6722,-5.77,7.95,0.14,22.02
24097,0.1075,-0.6296,0.6648,-5.77,7.63,0.09,22.03
24107,0.1108,-0.6295,0.6621,-5.53,7.37,0.06,22.02
24117,0.1086,-0.6246,0.663,-5.44,7.28,0.02,21.99
24127,0.11,-0.6309,0.6665,-5.21,7.37,-0.08,22.01
24137,0.1107,-0.6284,0.672,-5.15,7.37,-0.17,22.01
24147,0.11,-0.6235,0.6711,-5.19,7.56,-0.26,22.02
24157,0.1069,-0.6228,0.6738,-5.13,7.65,-0.21,21.99
24167,0.11,-0.6215,0.6707,-5.48,7.62,-0.23,22.01
24177,0.1107,-0.6249,0.6736,-6.03,7.31,-0.03,22.03
24187,0.1107,-0.625,0.6771,-6.12,7.31,-0.18,21.99
24197,0.1161,-0.6271,0.6779,-6.21,7.53,-0.09,22.01
24207,0.1099,-0.6235,0.6765,-5.97,7.66,0.11,22.01
24217,0.1146,-0.6261,0.6736,-5.68,7.5,0.15,22.02
24227,0.1101,-0.6219,0.6801,-5.5,6.58,0.14,22.02
24237,0.1075,-0.6191,0.6812,-4.99,6.85,0.21,22.04
24247,0.1119,-0.627,0.6821,-4.6,6.85,0.12,22.03
24257,0.1107,-0.6257,0.6801,-4.84,6.7,0.05,21.99
24267,0.1094,-0.6218,0.6819,-5.18,6.92,-0.02,22.0
24277,0.1136,-0.6255,0.6847,-5.33,7.34,0.02,22.03
24287,0.1089,-0.6237,0.686,-5.62,7.45,0.09,21.99
24297,0.1093,-0.6221,0.6866,-5.89,7.45,0.14,22.01
24307,0.1056,-0.616,0.6857,-6.09,7.3,0.23,22.0
24317,0.1075,-0.6215,0.6785,-6.03,7.1,0.26,22.01
24327,0.1113,-0.6251,0.6807,-5.97,6.87,0.31,22.04
24337,0.1176,-0.6244,0.682,-6.08,6.52,0.27,22.04
24347,0.1127,-0.6254,0.6804,-6.05,6.55,0.27,22.0
24357,0.1149,-0.6267,0.6802,-6.0,6.56,0.43,22.01
24367,0.1165,-0.6255,0.6829,-6.11,6.72,0.49,22.03
24377,0.1163,-0.6309,0.6875,-6.32,7.02,0.47,22.03
24387,0.1136,-0.6261,0.6807,-6.53,7.53,0.6,22.03
24397,0.114,-0.6266,0.6769,-6.79,7.95,0.67,22.0
24407,0.11,-0.6254,0.6727,-6.89,8.08,0.66,22.02
24417,0.1089,-0.6262,0.672,-6.61,8.08,0.6,22.02
24427,0.1063,-0.6227,0.6688,-6.11,7.69,0.56,22.02
24437,0.1056,-0.6272,0.6686,-5.8,7.56,0.41,22.0
24447,0.1058,-0.623,0.6735,-5.54,7.69,0.21,22.01
24457,0.104,-0.6251,0.6702,-5.44,7.71,0.17,22.0
24467,0.1022,-0.6233,0.668,-5.56,7.62,0.03,22.02
24477,0.1095,-0.6234,0.6722,-5.79,7.68,0.0,22.01
24487,0.1079,-0.6224,0.6766,-5.98,7.56,0.06,22.02
24497,0.1096,-0.6277,0.6798,-5.97,7.66,0.11,22.02
24507,0.1139,-0.6262,0.6761,-5.79,7.97,0.15,21.99
24517,0.1135,-0.6227,0.6741,-5.77,8.11,0.05,22.02
24527,0.1102,-0.6251,0.6713,-5.73,8.29,0.06,22.03
24537,0.1113,-0.6252,0.6737,-5.69,8.49,0.0,22.03
24547,0.11,-0.6229,0.6766,-5.63,8.58,-0.08,22.02
24557,0.1104,-0.6244,0.6781,-5.73,8.4,-0.14,22.02
24567,0.1123,-0.6217,0.6807,-5.74,8.14,-0.18,22.02
24577,0.1143,-0.6256,0.6818,-5.83,8.08,-0.2,22.02
24587,0.1116,-0.6272,0.6786,-5.8,8.12,-0.2,22.02
24597,0.1095,-0.6279,0.6763,-5.68,7.95,-0.23,22.01
24607,0.1088,-0.6299,0.6707,-5.73,7.69,-0.2,22.0
24617,0.1101,-0.6272,0.672,-5.66,7.34,-0.18,22.01
24627,0.1147,-0.6274,0.6754,-5.6,6.84,-0.14,22.03
24637,0.1172,-0.6263,0.6735,-5.6,6.92,-0.08,22.01
24647,0.1204,-0.6256,0.673,-5.42,6.96,0.15,22.03
24657,0.1158,-0.6219,0.6788,-5.48,6.96,0.32,22.02
24667,0.1178,-0.624,0.6764,-5.74,6.99,0.49,22.04
24677,0.1167,-0.623,0.6766,-6.05,7.1,0.67,22.04
24687,0.1169,-0.6222,0.6785,-6.29,7.02,0.9,22.01
24697,0.1141,-0.6219,0.6794,-6.4,6.98,1.15,22.02
24707,0.116,-0.6221,0.6809,-6.49,6.95,1.24,22.02
24717,0.1105,-0.6211,0.6819,-6.31,6.69,1.31,22.02
24727,0.1073,-0.6193,0.6791,-6.18,6.31,1.42,22.01
24737,0.1136,-0.6217,0.6819,-5.89,6.08,1.15,22.02
24747,0.1133,-0.6252,0.6837,-5.79,6.58,1.22,22.0
24757,0.1063,-0.6213,0.6813,-5.37,6.84,1.25,21.99
24767,0.1021,-0.6204,0.6797,-5.56,6.84,1.18,21.99
24777,0.1077,-0.6229,0.6837,-6.02,6.93,1.1,22.01
24787,0.113,-0.632,0.6854,-5.91,6.96,1.05,22.02
24797,0.1095,-0.6245,0.6798,-5.95,6.96,1.19,22.02
24807,0.1106,-0.6233,0.6721,-5.91,6.55,1.19,22.01
24817,0.1082,-0.6266,0.6676,-5.57,6.66,1.02,22.01
24827,0.1088,-0.6215,0.6729,-5.39,6.93,0.95,21.99
24837,0.1138,-0.6259,0.6707,-5.01,7.33,0.58,22.01
24847,0.1086,-0.6271,0.6681,-4.53,8.03,0.47,22.01
24857,0.1049,-0.6215,0.6688,-4.89,7.85,0.58,22.01
24867,0.1021,-0.624,0.6705,-5.21,7.86,0.47,22.02
24877,0.1057,-0.6211,0.6643,-5.4,7.68,0.24,22.04
24887,0.1073,-0.6235,0.6686,-5.79,7.13,0.24,22.02
24897,0.1079,-0.621,0.6661,-5.94,7.08,0.23,22.01
24907,0.1117,-0.6233,0.6733,-5.86,6.96,0.43,22.03
24917,0.1123,-0.6199,0.6754,-5.88,6.56,0.52,22.02
24927,0.1136,-0.6185,0.6796,-5.94,6.93,0.7,22.02
24937,0.1088,-0.6254,0.6837,-5.98,7.01,0.66,22.03
24947,0.1082,-0.6245,0.6841,-5.8,7.07,0.64,22.02
24957,0.1051,-0.6191,0.683,-5.59,6.87,0.52,22.0
24967,0.1063,-0.6213,0.6875,-5.47,6.9,0.21,22.01
24977,0.1096,-0.6212,0.6858,-5.44,6.92,0.09,22.02
24987,0.1106,-0.6243,0.6857,-5.51,7.16,-0.02,22.03
24997,0.1096,-0.6268,0.6869,-5.47,7.98,-0.02,22.06
25007,0.1127,-0.6179,0.6852,-5.95,7.88,0.06,22.02
25017,0.1123,-0.6208,0.6824,-6.38,8.15,0.05,22.02
25027,0.1116,-0.6227,0.683,-6.32,8.61,0.11,22.02
25037,0.106,-0.6168,0.682,-6.24,8.53,0.21,22.03
25047,0.1093,-0.6187,0.6813,-6.17,8.09,0.14,22.01
25057,0.1074,-0.6133,0.6774,-6.27,7.74,0.21,22.02
25067,0.1122,-0.6171,0.6779,-6.06,7.31,0.23,22.01
25077,0.1221,-0.6271,0.6794,-6.0,7.44,0.47,22.03
25087,0.1241,-0.6232,0.6763,-5.95,7.5,0.69,22.04
25097,0.1206,-0.6241,0.6746,-5.82,7.45,0.81,22.03
25107,0.1152,-0.6201,0.6724,-5.59,7.85,0.79,22.04
25117,0.1102,-0.621,0.6765,-5.57,7.82,0.95,22.04
25127,0.1127,-0.6222,0.6785,-5.71,7.86,1.04,22.01
25137,0.1102,-0.6233,0.676,-6.09,7.4,1.15,22.02
25147,0.109,-0.6252,0.6777,-6.18,7.25,1.27,22.01
25157,0.108,-0.6221,0.6716,-6.18,7.37,1.36,22.0
25167,0.1102,-0.6273,0.6729,-5.56,7.54,1.31,22.02
25177,0.1136,-0.618,0.6746,-5.08,8.06,1.24,22.04
25187,0.1163,-0.6182,0.6719,-5.1,8.2,1.62,22.03
25198,0.1105,-0.6217,0.6754,-5.36,8.09,1.74,22.04
25208,0.1061,-0.6213,0.6724,-5.47,8.05,1.71,22.03
25218,0.1035,-0.6241,0.6709,-5.18,8.26,1.47,22.02
25228,0.1019,-0.6208,0.6775,-5.34,8.0,1.25,22.03
25238,0.103,-0.6255,0.6758,-5.54,7.47,1.13,22.03
25248,0.1028,-0.6237,0.6775,-5.5,7.62,0.84,22.0
25258,0.1005,-0.6226,0.6769,-5.18,7.56,0.75,22.02
25268,0.1011,-0.6205,0.6735,-5.15,7.6,0.44,22.01
25278,0.1016,-0.6219,0.6805,-5.37,7.74,0.2,22.03
25288,0.1057,-0.6206,0.6731,-5.21,7.94,-0.03,22.03
25298,0.1021,-0.6206,0.6754,-5.25,8.08,-0.15,22.02
25308,0.1052,-0.6215,0.6763,-5.59,8.26,-0.23,22.02
25318,0.1082,-0.6232,0.6725,-5.83,8.08,-0.21,22.04
25328,0.1066,-0.6218,0.6698,-5.92,7.95,-0.11,22.04
25339,0.1036,-0.6218,0.673,-6.06,7.83,-0.14,22.02
25349,0.1053,-0.619,0.6754,-6.24,7.36,-0.09,22.03
25359,0.1047,-0.6232,0.6868,-6.38,7.25,-0.18,22.02
25369,0.1074,-0.6222,0.6876,-6.35,7.77,-0.17,22.0
25379,0.1094,-0.6221,0.6903,-6.08,8.06,-0.15,22.02
25389,0.1089,-0.6223,0.6865,-5.98,8.18,-0.21,22.01
25399,0.1067,-0.6188,0.6882,-5.71,8.32,-0.46,22.03
25410,0.1057,-0.6178,0.6852,-5.74,8.82,-0.61,22.04
25420,0.1084,-0.6194,0.6807,-5.62,8.92,-0.85,22.04
25430,0.1068,-0.6162,0.6786,-5.45,8.95,-0.81,22.02
25440,0.1035,-0.618,0.678,-5.73,8.96,-0.9,22.02
25450,0.1044,-0.6194,0.6844,-6.2,8.96,-0.85,22.01
25460,0.1113,-0.6232,0.684,-6.7,9.07,-0.73,22.06
25470,0.1161,-0.6257,0.6803,-7.08,9.21,-0.64,22.02
25480,0.1178,-0.6208,0.6815,-7.24,9.71,-0.53,22.02
25490,0.1165,-0.6226,0.6755,-7.15,9.79,-0.56,22.02
25501,0.1121,-0.6232,0.6746,-6.93,9.45,-0.47,22.03
25511,0.109,-0.6212,0.6741,-6.9,9.24,-0.43,22.03
25521,0.1027,-0.6223,0.6724,-6.82,9.28,-0.5,22.04
25531,0.1044,-0.6239,0.6691,-6.5,8.96,-0.56,22.02
25541,0.106,-0.6235,0.6672,-5.97,8.56,-0.47,22.02
25551,0.1111,-0.6207,0.6753,-5.37,8.18,-0.41,22.02
25561,0.1055,-0.6172,0.6791,-5.42,7.86,-0.37,22.04
25571,0.1047,-0.6195,0.6804,-6.0,7.74,-0.6,22.04
25581,0.1079,-0.6243,0.6798,-6.81,7.77,-0.58,22.03
25591,0.1094,-0.6255,0.6737,-7.54,7.8,-0.38,22.03
25601,0.1089,-0.6292,0.6781,-7.79,8.0,-0.29,22.05
25611,0.1099,-0.6287,0.6792,-6.93,8.4,-0.06,22.03
25621,0.1085,-0.6261,0.6831,-6.23,8.18,0.24,22.02
25631,0.1068,-0.6282,0.6802,-5.5,8.08,0.46,22.04
25641,0.105,-0.6213,0.6792,-5.24,8.02,0.7,22.02
25651,0.1011,-0.6146,0.6765,-5.57,7.95,0.95,22.04
25661,0.097,-0.616,0.6721,-6.03,7.71,0.96,22.03
25671,0.1012,-0.6146,0.6737,-6.4,7.33,0.95,22.03
25681,0.0988,-0.6215,0.6774,-6.81,7.07,0.82,22.03
25691,0.1041,-0.6274,0.6787,-6.9,6.87,0.73,22.02
25701,0.1041,-0.6279,0.6759,-6.46,7.02,0.61,22.04
25711,0.1082,-0.6221,0.6774,-6.29,7.22,0.66,22.01
25721,0.1046,-0.6229,0.6826,-6.55,6.85,0.85,22.04
25731,0.1107,-0.6305,0.6881,-5.95,7.21,0.24,22.01
25741,0.12,-0.6194,0.6754,-4.96,8.26,-0.43,22.04
25751,0.1309,-0.621,0.6783,-4.98,8.4,-1.13,22.02
25761,0.1194,-0.6211,0.6729,-4.0,9.48,-1.5,22.01
25771,0.1144,-0.6179,0.6824,-3.94,9.8,-1.37,22.02
25781,0.1036,-0.6229,0.683,-4.34,9.65,-1.27,22.03
25791,0.1044,-0.6202,0.6885,-5.5,9.37,-1.21,22.01
25801,0.1074,-0.6166,0.6832,-6.52,9.51,-1.04,22.02
25811,0.1067,-0.6168,0.6796,-7.44,9.86,-0.87,22.04
25821,0.1038,-0.6161,0.6807,-7.89,9.95,-0.44,22.03
25831,0.099,-0.6193,0.6803,-8.35,9.47,-0.18,22.03
25841,0.0992,-0.6172,0.6777,-8.49,8.78,-0.02,22.03
25851,0.0936,-0.6228,0.676,-8.14,8.05,0.09,22.03
25861,0.0969,-0.6161,0.6786,-7.66,7.16,0.26,22.02
25871,0.1011,-0.6193,0.6724,-7.51,7.08,0.34,22.05
25881,0.1088,-0.6276,0.6678,-7.36,7.08,0.38,22.04
25891,0.1049,-0.6284,0.6731,-7.16,7.54,0.26,22.01
25901,0.1019,-0.6331,0.6793,-7.22,7.47,0.32,22.04
25911,0.1039,-0.6445,0.6842,-6.61,7.48,0.06,22.0
25921,0.1084,-0.6431,0.6865,-5.71,7.98,-0.14,22.02
25931,0.1106,-0.6383,0.6824,-4.61,8.06,-0.35,22.03
25941,0.111,-0.6362,0.6831,-3.82,7.97,-0.47,22.04
25951,0.1089,-0.6191,0.6768,-3.4,7.79,-0.49,22.03
25961,0.0975,-0.6176,0.6777,-3.73,7.56,-0.5,22.04
25971,0.098,-0.6124,0.6724,-4.31,7.79,-0.53,22.03
25981,0.0963,-0.6075,0.665,-5.42,8.03,-0.69,22.03
25991,0.0986,-0.6117,0.665,-6.34,7.8,-0.53,22.02
26001,0.1006,-0.6146,0.6666,-7.69,7.8,-0.41,22.06
26011,0.1021,-0.6145,0.6637,-8.73,7.54,-0.29,22.05
26021,0.1101,-0.6199,0.661,-8.93,7.62,-0.17,22.05
26031,0.1091,-0.6201,0.6714,-8.5,7.88,-0.02,22.04
26041,0.1141,-0.6273,0.6829,-8.08,7.47,-0.11,22.04
26051,0.1113,-0.6278,0.6813,-7.13,7.27,-0.06,22.03
26061,0.114,-0.6337,0.6859,-5.95,7.27,-0.03,22.04
26071,0.1134,-0.6351,0.6951,-5.11,7.45,-0.15,22.04
26081,0.1132,-0.6317,0.6923,-4.58,7.45,-0.05,22.02
26091,0.1069,-0.6274,0.6921,-4.6,7.05,0.2,22.03
26101,0.1056,-0.6241,0.6891,-5.05,7.04,0.26,22.02
26111,0.1041,-0.6184,0.6782,-5.54,7.15,0.32,22.04
26121,0.1019,-0.6171,0.6748,-6.15,7.39,0.49,22.04
26131,0.0992,-0.6171,0.6743,-6.4,7.69,0.63,22.05
26141,0.1006,-0.6189,0.6691,-6.41,8.11,0.4,22.04
26151,0.103,-0.6216,0.6605,-6.41,8.47,0.14,22.02
26161,0.1022,-0.6218,0.656,-6.4,8.53,0.14,22.04
26171,0.1038,-0.6157,0.6554,-6.95,7.73,0.15,22.05
26181,0.1066,-0.6294,0.6614,-6.89,7.45,0.09,22.04
26191,0.1127,-0.6296,0.6611,-6.31,7.28,0.09,22.03
26201,0.111,-0.632,0.6688,-5.44,7.16,0.06,22.03
26211,0.106,-0.632,0.6724,-4.73,7.11,-0.02,22.04
26221,0.1047,-0.6282,0.6735,-4.12,7.21,-0.02,22.05
26231,0.0981,-0.6228,0.6793,-3.97,6.89,-0.09,22.02
26241,0.1008,-0.6162,0.6772,-4.53,6.52,-0.18,22.03
26251,0.1019,-0.6195,0.6764,-5.15,6.53,-0.31,22.03
26261,0.104,-0.6222,0.6788,-5.3,6.82,-0.38,22.01
26271,0.1053,-0.6193,0.6849,-5.48,7.07,-0.34,22.03
26281,0.1069,-0.6196,0.6833,-5.63,7.04,-0.37,22.01
26291,0.11,-0.616,0.6815,-5.79,6.93,-0.26,22.02
26301,0.1105,-0.623,0.6819,-6.03,7.02,-0.18,22.02
26313,0.1122,-0.6233,0.683,-6.03,6.81,0.02,22.02
26323,0.1119,-0.6226,0.6803,-6.03,6.79,0.23,22.02
26333,0.1096,-0.6212,0.679,-5.91,6.43,0.44,22.01
26343,0.1062,-0.6201,0.681,-5.85,6.2,0.64,22.03
26353,0.1066,-0.6204,0.6865,-5.66,6.15,0.6,22.04
26363,0.1073,-0.625,0.6876,-5.63,6.15,0.66,22.03
26373,0.1069,-0.627,0.6904,-5.8,6.43,0.49,22.03
26383,0.1099,-0.6235,0.689,-5.98,6.63,0.52,22.03
26393,0.1112,-0.6217,0.6833,-6.15,6.79,0.5,22.05
26403,0.1093,-0.6217,0.6776,-6.14,6.76,0.63,22.04
26413,0.1088,-0.619,0.6775,-6.03,6.76,0.58,22.04
26423,0.1046,-0.6188,0.6774,-6.09,6.9,0.61,22.03
26433,0.1099,-0.6221,0.6844,-6.03,7.04,0.53,22.02
26443,0.1083,-0.6202,0.6812,-6.2,7.13,0.6,22.0
26453,0.1062,-0.6246,0.6801,-6.27,7.77,0.63,22.02
26463,0.1023,-0.6217,0.6832,-6.37,8.06,0.56,22.03
26473,0.1008,-0.6199,0.6891,-6.73,8.2,0.4,22.02
26483,0.0984,-0.6216,0.6892,-6.89,8.27,0.2,22.06
26493,0.0989,-0.6232,0.6819,-6.55,8.56,-0.2,22.04
26503,0.103,-0.6182,0.6761,-6.58,8.69,-0.34,22.02
26513,0.1003,-0.6168,0.675,-6.41,8.81,-0.49,22.04
26523,0.1003,-0.6218,0.6713,-6.18,8.89,-0.49,22.04
26533,0.1045,-0.6256,0.6741,-6.26,8.85,-0.7,22.03
26543,0.1061,-0.6251,0.6755,-6.14,8.6,-0.76,22.01
26553,0.1118,-0.6227,0.6761,-6.03,9.04,-0.72,22.04
26563,0.111,-0.6252,0.6731,-5.88,9.39,-0.66,22.03
26573,0.1052,-0.6238,0.6749,-5.82,9.51,-0.58,22.04
26583,0.1051,-0.6232,0.6707,-6.02,9.3,-0.6,22.03
26593,0.1041,-0.6188,0.6716,-6.09,9.3,-0.53,22.04
26603,0.1049,-0.6202,0.6736,-6.21,9.07,-0.63,22.04
26613,0.1058,-0.6255,0.6797,-6.27,8.75,-0.56,22.04
26623,0.1049,-0.6227,0.6812,-6.31,8.75,-0.64,22.04
26633,0.1057,-0.6251,0.6754,-6.32,8.46,-0.53,22.05
26643,0.1061,-0.6268,0.6736,-6.44,7.98,-0.66,22.02
26653,0.1091,-0.6279,0.6738,-6.55,7.79,-0.66,22.02
26663,0.1083,-0.6279,0.6711,-6.58,7.63,-0.64,22.03
26673,0.1129,-0.624,0.6674,-6.44,7.56,-0.52,22.04
26683,0.1113,-0.6263,0.6708,-6.34,7.56,-0.34,22.03
26693,0.1117,-0.6207,0.6708,-6.09,7.54,-0.24,22.02
26703,0.108,-0.6268,0.674,-6.02,7.4,-0.14,22.04
26713,0.1111,-0.6211,0.6781,-5.92,7.48,0.09,22.05
26723,0.1073,-0.6201,0.6747,-5.76,7.05,0.35,22.02
26733,0.1058,-0.6216,0.6707,-5.68,6.95,0.32,22.04
26743,0.1067,-0.6248,0.6725,-5.73,6.95,0.23,22.02
26753,0.1108,-0.6223,0.6722,-5.76,6.66,0.35,22.04
26763,0.1085,-0.6267,0.6853,-5.97,6.44,0.37,22.04
26773,0.1106,-0.6272,0.6813,-6.14,6.35,0.37,22.02
26783,0.1085,-0.6232,0.6792,-6.23,6.27,0.38,22.02
26793,0.1088,-0.6263,0.677,-6.4,6.03,0.5,22.03
26803,0.1047,-0.6243,0.6765,-6.44,6.06,0.43,22.01
26813,0.1084,-0.6215,0.677,-6.35,6.11,0.5,22.03
26823,0.1034,-0.6215,0.6786,-6.18,6.26,0.6,22.02
26833,0.1024,-0.619,0.679,-6.24,6.4,0.55,22.02
26843,0.1069,-0.6178,0.6782,-6.24,6.7,0.34,22.02
26853,0.1088,-0.6235,0.6798,-6.06,7.33,0.15,22.02
26863,0.1107,-0.6235,0.6837,-5.92,7.54,0.21,22.02
26873,0.1077,-0.6216,0.6781,-5.73,7.65,0.23,22.02
26883,0.1075,-0.6232,0.6744,-5.56,7.77,0.27,22.03
26893,0.1027,-0.6204,0.6737,-5.57,7.59,0.2,22.01
26903,0.1028,-0.6243,0.6708,-5.6,7.44,0.06,22.02
26913,0.1021,-0.6262,0.6742,-5.79,7.44,0.06,22.02
26923,0.104,-0.6243,0.6869,-5.85,7.24,0.09,22.0
26933,0.1033,-0.6212,0.6964,-6.27,7.4,0.12,22.02
26943,0.104,-0.6235,0.7017,-6.44,8.0,0.0,22.02
26953,0.1002,-0.6211,0.7007,-6.81,8.64,-0.11,22.05
26963,0.1005,-0.6183,0.6891,-7.01,9.59,-0.31,22.06
26973,0.1008,-0.6218,0.6768,-7.15,10.24,-0.61,22.03
26983,0.1027,-0.6228,0.6744,-7.07,10.78,-0.9,22.02
26993,0.1038,-0.6221,0.667,-7.02,10.75,-0.93,22.04
27003,0.105,-0.6227,0.6669,-7.11,10.32,-0.89,22.05
27013,0.1051,-0.6276,0.6661,-6.98,9.48,-0.99,22.02
27023,0.1029,-0.6282,0.6665,-6.5,8.84,-1.01,22.03
27033,0.0996,-0.6219,0.6653,-6.03,8.44,-0.98,22.04
27043,0.1018,-0.6223,0.6631,-5.59,8.21,-0.9,22.04
27053,0.1044,-0.6207,0.6642,-5.53,7.89,-0.82,22.03
27063,0.1044,-0.6198,0.665,-5.85,7.51,-0.87,22.0
27073,0.1085,-0.6266,0.6729,-6.05,7.44,-0.87,22.02
27083,0.1063,-0.6201,0.6687,-6.27,7.69,-0.69,22.02
27093,0.1079,-0.6271,0.6827,-6.52,8.18,-0.82,22.03
27103,0.1115,-0.6311,0.6807,-6.56,8.58,-0.84,22.02
27113,0.1169,-0.6326,0.6888,-6.38,9.22,-1.13,22.04
27123,0.1095,-0.6289,0.6848,-5.97,9.94,-1.11,22.02
27133,0.1028,-0.6201,0.6865,-6.11,10.08,-1.24,22.04
27143,0.1,-0.6274,0.6829,-6.55,9.65,-1.37,22.03
27153,0.1027,-0.6279,0.6903,-6.81,9.6,-1.45,22.04
27163,0.103,-0.6249,0.6862,-7.04,9.76,-1.4,22.03
27173,0.1041,-0.6215,0.6788,-7.31,9.68,-1.3,22.03
27183,0.1061,-0.6204,0.6743,-7.24,9.63,-1.11,22.02
27193,0.1088,-0.6205,0.6649,-7.07,9.4,-1.13,22.03
27203,0.1067,-0.6155,0.6659,-6.85,9.21,-1.11,22.02
27213,0.1075,-0.6191,0.6636,-6.93,9.08,-1.22,22.05
27223,0.1078,-0.6194,0.6652,-7.24,8.63,-1.22,22.04
27233,0.1133,-0.6238,0.6672,-7.16,8.5,-1.04,22.04
27243,0.1074,-0.6257,0.6754,-7.01,8.6,-0.49,22.04
27253,0.1129,-0.6294,0.6785,-7.02,7.88,-0.27,22.04
27263,0.1223,-0.6387,0.6804,-6.4,7.66,-0.08,22.01
27273,0.1195,-0.6316,0.6764,-5.8,7.21,0.21,22.0
27283,0.1088,-0.6233,0.6771,-5.63,6.67,0.63,22.03
27293,0.1033,-0.6279,0.6783,-5.51,6.58,0.73,22.03
27303,0.1044,-0.6222,0.6711,-5.68,6.75,1.01,22.01
27313,0.1028,-0.6224,0.6735,-5.74,7.13,0.85,22.02
27323,0.1042,-0.6261,0.6747,-6.43,7.45,0.89,22.03
27333,0.1063,-0.6271,0.6715,-6.96,7.19,0.7,22.01
27343,0.1055,-0.6304,0.6664,-6.82,6.56,0.84,22.04
27353,0.1058,-0.6277,0.6654,-6.44,6.6,0.67,22.03
27363,0.1057,-0.6246,0.6704,-6.05,6.38,0.7,22.0
27373,0.1042,-0.6259,0.673,-5.69,6.35,0.64,22.03
27383,0.1041,-0.6248,0.6752,-5.44,6.43,0.66,22.02
27393,0.109,-0.6251,0.6759,-5.79,6.55,0.58,22.05
27403,0.11,-0.6283,0.6753,-6.4,6.78,0.52,22.04
27413,0.1129,-0.6295,0.6714,-6.63,6.9,0.6,22.02
27423,0.1133,-0.6311,0.6638,-6.63,7.16,0.61,22.04
27433,0.1128,-0.6289,0.6589,-6.49,7.02,0.55,22.03
27443,0.108,-0.629,0.6622,-6.43,6.87,0.78,22.04
27453,0.1027,-0.6246,0.6676,-6.06,6.55,0.85,22.03
27463,0.1027,-0.6232,0.6647,-5.76,6.55,0.87,22.05
27473,0.0994,-0.6248,0.667,-5.82,6.44,0.84,22.02
27483,0.1055,-0.6257,0.6675,-5.79,6.11,0.69,22.03
27493,0.1017,-0.6277,0.6665,-5.6,5.8,0.67,22.04
27503,0.1052,-0.6255,0.6639,-5.71,5.73,0.78,22.03
27513,0.1021,-0.6219,0.6609,-5.66,5.16,0.95,22.04
27523,0.1066,-0.6259,0.6689,-5.82,4.81,0.87,22.04
27533,0.1078,-0.6289,0.6768,-5.94,4.92,0.96,22.03
