t_ms,accel_x_g,accel_y_g,accel_z_g,gyro_x_dps,gyro_y_dps,gyro_z_dps,imu_temp_c
3212,0.1526,-0.2229,0.8685,-5.86,7.66,-0.03,20.09
3262,0.1534,-0.218,0.8651,-6.05,7.86,-0.06,20.09
3272,0.1509,-0.217,0.8662,-6.05,7.79,0.02,20.12
3282,0.1514,-0.2197,0.8647,-5.98,7.76,-0.02,20.12
3292,0.1488,-0.2184,0.8643,-6.08,7.69,-0.03,20.11
3302,0.1512,-0.219,0.8644,-6.08,7.73,0.0,20.1
3312,0.1537,-0.2194,0.8672,-6.0,7.65,-0.02,20.1
3322,0.155,-0.2217,0.8611,-6.08,7.74,-0.05,20.09
3332,0.1532,-0.2205,0.8673,-6.02,7.82,-0.06,20.12
3346,0.1514,-0.2229,0.8673,-6.06,7.76,-0.02,20.11
3356,0.1537,-0.2217,0.8677,-6.12,7.65,-0.08,20.1
3366,0.1527,-0.2194,0.8634,-6.15,7.71,-0.05,20.09
3376,0.1543,-0.2181,0.866,-6.14,7.77,-0.06,20.09
3386,0.1503,-0.2235,0.8639,-6.08,7.83,0.03,20.1
3396,0.1528,-0.2184,0.8649,-6.06,7.69,-0.05,20.13
3406,0.1527,-0.2223,0.8678,-5.95,7.71,-0.02,20.12
3416,0.1517,-0.2216,0.8638,-6.02,7.66,-0.05,20.13
3426,0.1539,-0.2228,0.8663,-6.0,7.74,-0.11,20.12
3436,0.152,-0.2251,0.8666,-6.11,7.8,-0.06,20.14
3446,0.1558,-0.2225,0.8646,-6.05,7.82,-0.14,20.11
3456,0.1558,-0.2239,0.8724,-6.0,7.83,0.0,20.1
3466,0.1545,-0.2257,0.8668,-5.97,7.69,0.0,20.11
3476,0.1544,-0.2213,0.8676,-5.97,7.63,0.0,20.12
3486,0.1556,-0.2189,0.8657,-6.06,7.63,-0.11,20.11
3496,0.1558,-0.218,0.8633,-6.06,7.59,-0.05,20.09
3506,0.1553,-0.2181,0.8646,-6.06,7.69,0.0,20.1
3516,0.1521,-0.2148,0.8666,-6.02,7.8,-0.12,20.1
3526,0.1519,-0.2178,0.8666,-5.97,7.83,-0.02,20.1
3536,0.1556,-0.2195,0.8705,-6.05,7.73,-0.14,20.09
3546,0.1545,-0.2181,0.8654,-6.21,7.66,-0.06,20.12
3556,0.1547,-0.2207,0.865,-6.14,7.6,-0.09,20.13
3566,0.1538,-0.2236,0.8671,-6.14,7.73,-0.03,20.11
3576,0.1519,-0.2217,0.8619,-6.2,7.76,-0.09,20.1
3586,0.1509,-0.2255,0.8602,-6.15,7.76,-0.05,20.11
3596,0.1525,-0.2234,0.8645,-6.0,7.73,-0.05,20.13
3606,0.1523,-0.2263,0.8613,-6.0,7.74,0.0,20.14
3616,0.1504,-0.2242,0.8638,-6.05,7.62,-0.12,20.13
3626,0.151,-0.2244,0.8635,-6.03,7.79,-0.03,20.11
3636,0.1525,-0.2231,0.8633,-5.98,7.65,-0.02,20.11
3646,0.1526,-0.2211,0.859,-5.88,7.62,-0.08,20.13
3656,0.1523,-0.2181,0.8651,-5.92,7.65,-0.02,20.14
3666,0.1527,-0.2211,0.8611,-5.8,7.59,-0.02,20.14
3676,0.1549,-0.2189,0.8663,-5.89,7.63,-0.05,20.15
3686,0.1523,-0.2194,0.8663,-5.91,7.74,0.03,20.12
3696,0.1534,-0.2181,0.8684,-6.14,7.86,0.02,20.12
3706,0.1508,-0.2195,0.8672,-6.12,7.77,0.03,20.13
3716,0.1511,-0.2213,0.8641,-6.15,7.73,-0.03,20.1
3726,0.1545,-0.22,0.8644,-6.05,7.65,-0.06,20.11
3736,0.1541,-0.2197,0.8639,-5.95,7.77,0.0,20.13
3746,0.1542,-0.2225,0.8646,-5.95,7.79,-0.05,20.12
3756,0.1526,-0.2268,0.8663,-5.92,7.76,0.03,20.11
3766,0.1527,-0.223,0.8673,-6.03,7.68,-0.02,20.13
3776,0.1528,-0.2233,0.8657,-6.08,7.68,-0.09,20.13
3786,0.1534,-0.2257,0.87,-6.03,7.76,0.02,20.13
3796,0.153,-0.2227,0.8678,-6.0,7.77,0.0,20.12
3806,0.1497,-0.2219,0.8666,-5.79,7.86,-0.03,20.12
3816,0.1483,-0.2157,0.8673,-5.91,7.48,-0.05,20.14
3826,0.1495,-0.2152,0.8663,-6.06,7.39,-0.18,20.12
3836,0.1484,-0.2141,0.863,-6.21,7.33,-0.15,20.12
3846,0.1514,-0.2151,0.863,-6.03,7.53,-0.06,20.12
3856,0.1549,-0.2164,0.8635,-5.91,7.88,-0.03,20.1
3866,0.1537,-0.2184,0.8647,-6.03,7.92,-0.09,20.11
3876,0.1532,-0.2179,0.8699,-6.15,7.91,-0.03,20.14
3886,0.1527,-0.2227,0.8683,-6.27,7.66,-0.09,20.13
3896,0.1573,-0.2269,0.8645,-6.5,7.63,-0.09,20.1
3906,0.155,-0.2231,0.8605,-6.32,7.85,-0.05,20.1
3916,0.1526,-0.2278,0.8566,-6.02,8.0,0.03,20.09
3926,0.1509,-0.2262,0.8687,-5.69,8.06,0.12,20.11
3936,0.149,-0.2219,0.8672,-5.73,7.88,-0.02,20.13
3946,0.1498,-0.2227,0.8715,-5.91,7.53,-0.03,20.12
3956,0.1514,-0.2201,0.8701,-6.11,7.48,-0.08,20.12
3966,0.1523,-0.2223,0.8618,-6.24,7.69,-0.11,20.13
3976,0.1555,-0.2212,0.8627,-6.14,7.91,-0.02,20.15
3986,0.1525,-0.2231,0.8611,-5.92,7.92,0.05,20.13
3996,0.1516,-0.2219,0.8672,-5.86,7.77,-0.03,20.12
4006,0.1544,-0.2236,0.8678,-5.76,7.6,-0.05,20.11
4016,0.1571,-0.2207,0.8706,-5.89,7.53,-0.09,20.12
4026,0.1556,-0.2191,0.8689,-6.08,7.73,-0.06,20.09
4036,0.1564,-0.22,0.8625,-6.0,7.97,-0.05,20.14
4046,0.15,-0.2157,0.8636,-6.0,7.85,0.02,20.13
4056,0.1553,-0.2161,0.8663,-6.03,7.68,-0.03,20.1
4066,0.155,-0.2162,0.8639,-5.91,7.47,0.06,20.11
4076,0.1542,-0.2151,0.865,-5.95,7.59,-0.03,20.11
4086,0.1512,-0.2156,0.8667,-6.11,7.86,-0.09,20.13
4096,0.1539,-0.2198,0.8663,-6.27,8.08,-0.08,20.13
4106,0.1554,-0.2213,0.8636,-6.4,7.89,-0.08,20.13
4116,0.1543,-0.223,0.8605,-6.18,7.6,-0.11,20.14
4126,0.1544,-0.226,0.8589,-6.15,7.44,-0.11,20.12
4136,0.151,-0.2238,0.8633,-6.02,7.63,-0.12,20.12
4146,0.1545,-0.2222,0.8595,-5.97,7.8,-0.06,20.14
4156,0.1512,-0.2198,0.8655,-5.95,7.77,0.05,20.11
4166,0.1498,-0.2166,0.8673,-6.12,7.56,-0.06,20.13
4176,0.1503,-0.2147,0.8662,-6.21,7.24,-0.05,20.1
4186,0.149,-0.2146,0.8589,-6.23,7.27,-0.12,20.1
4196,0.1533,-0.2172,0.858,-6.12,7.6,-0.12,20.11
4206,0.1532,-0.2202,0.863,-6.05,8.05,-0.02,20.14
4216,0.1525,-0.2285,0.8721,-6.03,8.18,0.09,20.09
4226,0.1527,-0.2306,0.8745,-6.21,8.0,0.03,20.12
4236,0.1497,-0.2303,0.8744,-6.43,7.63,-0.11,20.13
4246,0.1531,-0.2311,0.8661,-6.58,7.36,-0.12,20.11
4256,0.1566,-0.2297,0.8518,-6.49,7.57,-0.05,20.11
4266,0.1567,-0.2303,0.8521,-6.03,8.03,0.06,20.13
4276,0.1559,-0.2294,0.864,-5.6,8.29,0.24,20.13
4286,0.1481,-0.2239,0.8698,-5.44,8.12,0.08,20.14
4296,0.1495,-0.2225,0.8765,-5.57,7.47,-0.06,20.14
4306,0.1539,-0.2205,0.8768,-5.86,7.13,-0.11,20.12
4316,0.1567,-0.2178,0.8657,-6.34,7.25,-0.12,20.14
4326,0.1555,-0.2164,0.8553,-6.29,7.79,0.02,20.13
4336,0.1567,-0.2212,0.8611,-6.17,8.17,0.03,20.12
4346,0.1552,-0.2205,0.8641,-5.83,8.21,0.06,20.1
4356,0.1531,-0.2227,0.8678,-5.63,7.65,0.03,20.13
4366,0.1556,-0.2216,0.8674,-5.77,7.36,-0.09,20.12
4376,0.162,-0.2209,0.8704,-6.08,7.5,-0.06,20.14
4386,0.1613,-0.2212,0.8621,-6.34,7.91,-0.02,20.13
4396,0.1515,-0.2197,0.8634,-6.23,8.24,0.06,20.16
4406,0.152,-0.2219,0.8629,-5.91,8.03,0.06,20.1
4416,0.1519,-0.2209,0.864,-5.74,7.66,-0.05,20.14
4426,0.1504,-0.2184,0.8689,-5.74,7.36,-0.08,20.15
4436,0.1516,-0.2188,0.8671,-6.0,7.45,-0.08,20.14
4446,0.1509,-0.2179,0.865,-6.23,7.77,-0.09,20.13
4456,0.1503,-0.2217,0.8607,-6.23,7.91,-0.02,20.13
4466,0.1472,-0.2184,0.8605,-6.17,7.88,-0.03,20.12
4476,0.1494,-0.2203,0.8597,-6.05,7.45,-0.12,20.12
4486,0.1495,-0.2175,0.8617,-5.94,7.3,-0.11,20.13
4496,0.1537,-0.2163,0.8628,-5.8,7.51,-0.11,20.1
4506,0.1538,-0.2183,0.8662,-5.86,7.79,-0.05,20.14
4516,0.1534,-0.2172,0.8687,-6.05,7.97,0.03,20.14
4526,0.1548,-0.2184,0.8721,-6.12,7.82,-0.05,20.12
4536,0.1543,-0.2184,0.8691,-6.14,7.66,-0.03,20.14
4546,0.1564,-0.2189,0.8699,-6.18,7.45,-0.05,20.14
4556,0.1553,-0.2263,0.8621,-6.43,7.83,0.0,20.12
4566,0.1558,-0.223,0.866,-6.31,8.34,0.02,20.1
4576,0.1526,-0.2246,0.8695,-6.18,8.14,-0.05,20.12
4586,0.1495,-0.226,0.8691,-6.17,7.8,0.0,20.11
4596,0.1528,-0.2274,0.8666,-6.08,7.47,-0.08,20.09
4606,0.153,-0.2252,0.8628,-5.92,7.4,-0.17,20.14
4616,0.1547,-0.2235,0.8608,-5.8,7.56,-0.05,20.14
4626,0.1555,-0.223,0.8661,-5.8,7.82,0.08,20.14
4636,0.152,-0.2203,0.8669,-5.74,7.91,0.05,20.11
4646,0.149,-0.2231,0.8724,-5.83,7.76,-0.02,20.13
4656,0.1521,-0.2183,0.8715,-6.03,7.57,-0.05,20.13
4666,0.1534,-0.2161,0.8635,-6.21,7.51,-0.11,20.12
4676,0.1533,-0.2173,0.8634,-6.17,7.73,-0.09,20.14
4686,0.1523,-0.2192,0.8568,-6.12,7.77,-0.03,20.14
4696,0.1473,-0.2186,0.8597,-5.94,7.8,0.02,20.14
4706,0.1517,-0.2201,0.8622,-5.86,7.66,-0.08,20.1
4716,0.1512,-0.2177,0.8657,-5.83,7.59,0.0,20.12
4726,0.1541,-0.2197,0.8699,-6.06,7.66,-0.05,20.14
4736,0.1537,-0.2229,0.8715,-6.26,7.83,-0.03,20.13
4746,0.1532,-0.2227,0.8682,-6.32,7.89,0.0,20.12
4756,0.1508,-0.2225,0.8646,-6.34,7.86,-0.09,20.12
4766,0.1488,-0.223,0.8649,-6.12,7.62,-0.08,20.11
4776,0.1514,-0.2234,0.8628,-6.12,7.5,0.02,20.11
4786,0.1509,-0.2246,0.8617,-5.89,7.59,0.0,20.14
4796,0.1521,-0.2216,0.8601,-5.85,7.76,0.03,20.14
4806,0.153,-0.2212,0.8645,-6.02,7.88,-0.02,20.13
4816,0.1516,-0.2208,0.8656,-6.03,7.8,0.02,20.14
4826,0.151,-0.2217,0.8649,-6.21,7.65,0.0,20.14
4836,0.1525,-0.2198,0.8604,-6.17,7.63,-0.09,20.14
4846,0.1565,-0.2203,0.8654,-6.06,7.8,0.0,20.15
4856,0.1519,-0.2197,0.865,-5.94,7.82,0.02,20.14
4866,0.1492,-0.2192,0.8636,-5.92,7.94,-0.05,20.14
4876,0.1517,-0.2188,0.8676,-6.03,7.66,-0.08,20.14
4886,0.1556,-0.2197,0.8691,-6.11,7.57,-0.08,20.12
4896,0.1538,-0.22,0.8688,-6.18,7.6,-0.03,20.14
4906,0.1543,-0.2235,0.863,-6.09,7.82,-0.11,20.13
4916,0.1536,-0.2258,0.8698,-6.18,7.88,-0.12,20.13
4926,0.1547,-0.2291,0.8668,-6.18,7.83,-0.02,20.13
4936,0.1532,-0.2341,0.8695,-6.02,7.73,0.0,20.13
4946,0.1578,-0.2292,0.8658,-6.06,7.71,0.0,20.12
4956,0.1559,-0.2305,0.8676,-6.06,7.76,0.0,20.13
4966,0.1532,-0.2288,0.8656,-5.94,7.85,0.02,20.16
4976,0.1533,-0.228,0.8643,-5.86,7.92,0.08,20.12
4986,0.1511,-0.2255,0.8694,-5.82,7.77,0.12,20.09
4996,0.1509,-0.2202,0.8678,-5.76,7.69,0.03,20.14
5006,0.1515,-0.2195,0.8713,-5.56,7.51,-0.02,20.13
5016,0.1494,-0.2159,0.8682,-5.69,7.6,-0.08,20.13
5026,0.1526,-0.2152,0.8674,-5.88,7.83,-0.02,20.13
5036,0.1486,-0.2134,0.8699,-5.98,7.88,-0.05,20.12
5046,0.1493,-0.2136,0.8673,-6.12,7.74,0.02,20.11
5056,0.15,-0.215,0.8602,-6.11,7.59,-0.09,20.12
5066,0.1517,-0.2167,0.8606,-6.12,7.66,-0.05,20.15
5076,0.1528,-0.2148,0.8582,-5.89,7.69,0.0,20.13
5086,0.1514,-0.2123,0.8655,-5.88,7.82,0.09,20.14
5096,0.1533,-0.2111,0.8656,-6.03,7.65,-0.02,20.14
5106,0.1542,-0.2167,0.8689,-6.2,7.6,-0.12,20.13
5116,0.1583,-0.2184,0.8672,-6.15,7.76,-0.02,20.14
5126,0.155,-0.2207,0.8655,-6.14,7.86,-0.02,20.14
5136,0.1556,-0.2245,0.8688,-6.26,7.92,0.03,20.14
5146,0.1533,-0.2301,0.8678,-6.4,7.86,0.06,20.13
5156,0.1548,-0.2288,0.8638,-6.43,7.82,0.0,20.16
5166,0.1569,-0.2291,0.8621,-6.09,7.71,0.03,20.15
5176,0.1576,-0.23,0.8651,-5.69,7.86,0.06,20.15
5186,0.1542,-0.2258,0.8704,-5.6,7.97,0.14,20.14
5196,0.1499,-0.2238,0.873,-5.62,7.76,0.02,20.16
5206,0.153,-0.2178,0.8662,-5.82,7.42,-0.02,20.17
5216,0.1497,-0.2158,0.8623,-5.92,7.36,-0.05,20.15
5226,0.1533,-0.2125,0.864,-5.71,7.54,0.0,20.14
5236,0.1527,-0.2147,0.8684,-5.74,7.94,0.03,20.13
5246,0.1512,-0.2145,0.873,-5.82,8.12,0.06,20.15
5256,0.1497,-0.2196,0.8691,-6.02,7.94,-0.08,20.15
5266,0.1528,-0.2186,0.8672,-6.15,7.56,-0.14,20.13
5276,0.1537,-0.2186,0.8667,-6.18,7.47,-0.11,20.14
5286,0.1545,-0.2188,0.8599,-6.15,7.66,-0.06,20.11
5296,0.1542,-0.2234,0.8639,-6.09,8.03,0.02,20.13
5306,0.1523,-0.218,0.8578,-6.0,8.11,0.0,20.14
5316,0.149,-0.2186,0.868,-5.86,7.77,-0.03,20.12
5326,0.153,-0.2179,0.8682,-5.86,7.51,-0.14,20.13
5336,0.1511,-0.2181,0.8646,-6.08,7.44,-0.05,20.13
5346,0.1544,-0.2191,0.8639,-6.2,7.62,-0.05,20.12
5356,0.1533,-0.2205,0.8616,-6.37,7.94,-0.05,20.16
5366,0.1522,-0.2241,0.8623,-6.14,7.98,0.02,20.12
5376,0.15,-0.2208,0.8606,-5.92,7.8,-0.06,20.15
5386,0.1512,-0.2198,0.8639,-5.89,7.5,-0.17,20.12
5396,0.1548,-0.2216,0.8671,-5.95,7.31,-0.17,20.15
5406,0.1537,-0.2202,0.8634,-6.14,7.54,-0.06,20.14
5416,0.1539,-0.2234,0.8651,-6.17,7.91,-0.06,20.14
5426,0.1508,-0.2208,0.8651,-6.15,8.0,0.0,20.12
5436,0.1538,-0.2209,0.8647,-6.06,7.86,0.05,20.12
5446,0.1511,-0.2212,0.8641,-5.95,7.66,-0.08,20.13
5456,0.1528,-0.218,0.8698,-5.95,7.63,-0.09,20.13
5466,0.1522,-0.2212,0.8695,-6.03,7.73,0.0,20.13
5476,0.1517,-0.2222,0.8712,-6.24,7.85,0.0,20.14
5486,0.151,-0.2227,0.87,-6.2,7.86,-0.02,20.13
5496,0.1477,-0.2239,0.8688,-6.05,7.79,0.03,20.15
5506,0.1542,-0.2229,0.8673,-5.97,7.59,0.0,20.13
5516,0.1556,-0.2223,0.8688,-5.97,7.54,-0.21,20.15
5526,0.1555,-0.2212,0.8679,-6.06,7.66,-0.03,20.14
5536,0.1548,-0.2219,0.8647,-6.09,7.8,-0.05,20.15
5546,0.158,-0.226,0.8734,-6.02,7.89,-0.08,20.14
5556,0.1561,-0.2214,0.8718,-5.97,7.92,-0.02,20.14
5566,0.1503,-0.2213,0.8719,-5.91,7.77,0.02,20.16
5576,0.1532,-0.222,0.8711,-5.94,7.54,0.02,20.14
5586,0.1526,-0.2205,0.8651,-6.0,7.54,-0.09,20.16
5596,0.1534,-0.2166,0.8608,-6.0,7.54,-0.11,20.15
5606,0.1526,-0.2162,0.859,-5.97,7.76,-0.08,20.14
5616,0.1504,-0.2166,0.865,-6.03,7.83,-0.09,20.13
5626,0.1512,-0.2133,0.8644,-6.05,7.89,-0.02,20.13
5636,0.1503,-0.2192,0.8667,-6.02,7.73,-0.06,20.12
5646,0.1517,-0.2184,0.8668,-6.08,7.62,-0.15,20.14
5656,0.1538,-0.2238,0.8601,-6.24,7.6,-0.11,20.14
5666,0.1562,-0.2227,0.861,-6.26,7.79,-0.11,20.17
5676,0.1525,-0.2228,0.8572,-6.11,7.89,0.03,20.14
5686,0.1489,-0.2203,0.8574,-5.98,7.8,0.03,20.15
5696,0.1504,-0.2233,0.8612,-5.95,7.65,-0.09,20.12
5706,0.1504,-0.2191,0.8634,-5.98,7.53,-0.09,20.14
5716,0.1559,-0.2194,0.8667,-6.08,7.69,-0.03,20.14
5726,0.1511,-0.2205,0.8671,-6.18,7.83,-0.02,20.14
5736,0.1514,-0.219,0.8676,-6.21,7.95,-0.02,20.14
5746,0.147,-0.2211,0.8646,-6.17,7.85,-0.09,20.15
5756,0.1525,-0.2223,0.8673,-6.06,7.65,-0.12,20.12
5766,0.1541,-0.2245,0.8671,-6.06,7.47,-0.08,20.13
5776,0.1552,-0.2209,0.8682,-5.92,7.53,-0.09,20.16
5786,0.155,-0.2245,0.8707,-6.02,7.74,-0.06,20.16
5796,0.1516,-0.2216,0.8717,-6.2,7.83,-0.03,20.13
5806,0.1528,-0.2213,0.8687,-6.08,7.71,-0.12,20.14
5816,0.1533,-0.2216,0.868,-6.11,7.68,-0.09,20.14
5826,0.1537,-0.2229,0.8662,-6.11,7.71,-0.06,20.11
5836,0.1537,-0.2239,0.8691,-6.11,7.71,-0.14,20.12
5846,0.1544,-0.2251,0.8661,-6.05,7.76,-0.14,20.15
5856,0.1514,-0.2249,0.8666,-6.02,7.82,-0.02,20.14
5866,0.1519,-0.2234,0.8661,-6.08,7.68,0.0,20.15
5876,0.1525,-0.2246,0.8628,-6.03,7.54,-0.06,20.14
5886,0.1509,-0.2233,0.8639,-5.98,7.54,-0.09,20.12
5896,0.1499,-0.2196,0.8677,-5.69,7.68,0.03,20.14
5907,0.1478,-0.2173,0.8677,-5.82,7.73,-0.08,20.13
5917,0.1505,-0.218,0.8662,-5.94,7.8,-0.03,20.13
5927,0.1509,-0.2161,0.8658,-6.09,7.74,-0.06,20.16
5937,0.1534,-0.2188,0.8658,-6.18,7.62,-0.14,20.14
5947,0.1506,-0.2216,0.86,-6.26,7.74,-0.06,20.11
5957,0.1539,-0.2208,0.8616,-6.17,7.79,-0.03,20.14
5967,0.1539,-0.2222,0.863,-5.94,7.83,0.03,20.15
5977,0.1511,-0.2219,0.8601,-5.88,7.83,0.02,20.16
5987,0.152,-0.2222,0.8651,-5.91,7.74,-0.09,20.14
5997,0.1506,-0.2195,0.8652,-5.98,7.57,-0.14,20.12
6007,0.1519,-0.2175,0.8667,-6.06,7.59,-0.06,20.15
6017,0.152,-0.214,0.8662,-6.21,7.68,-0.09,20.14
6027,0.1514,-0.2211,0.8593,-6.2,7.77,0.02,20.14
6037,0.1497,-0.2206,0.8585,-6.03,7.85,-0.05,20.14
6047,0.1499,-0.2218,0.865,-6.09,7.79,-0.03,20.12
6057,0.1543,-0.2233,0.8699,-5.98,7.71,0.03,20.13
6067,0.1526,-0.2205,0.8684,-6.02,7.59,-0.02,20.15
6077,0.1533,-0.2223,0.8672,-6.06,7.63,-0.08,20.15
6087,0.1527,-0.2222,0.8663,-6.2,7.65,-0.11,20.14
6097,0.1541,-0.2207,0.8671,-6.06,7.74,-0.02,20.14
6107,0.1538,-0.2216,0.8647,-6.09,7.73,0.02,20.15
6117,0.1528,-0.2223,0.8705,-6.05,7.76,-0.02,20.12
6127,0.1533,-0.2225,0.8674,-5.98,7.79,-0.05,20.13
6137,0.1522,-0.2268,0.8701,-6.08,7.71,-0.03,20.14
6147,0.1512,-0.2224,0.8711,-6.08,7.63,-0.11,20.14
6157,0.1521,-0.2238,0.8607,-6.02,7.69,-0.08,20.12
6167,0.1499,-0.2222,0.8673,-6.05,7.69,-0.11,20.14
6178,0.1536,-0.2213,0.8655,-5.88,7.68,0.02,20.14
6188,0.1531,-0.2195,0.8685,-5.91,7.6,-0.08,20.13
6198,0.1516,-0.2183,0.8663,-5.95,7.54,-0.06,20.14
6208,0.1538,-0.2195,0.8654,-6.06,7.66,-0.05,20.15
6332,0.1522,-0.2206,0.8616,-6.09,7.65,-0.17,20.15
6342,0.1517,-0.222,0.8597,-6.08,7.71,-0.11,20.17
6352,0.1552,-0.2216,0.8633,-5.97,7.65,0.05,20.13
6362,0.1536,-0.2198,0.8623,-5.86,7.59,-0.05,20.17
6372,0.1536,-0.2208,0.8732,-6.08,7.76,0.0,20.13
6382,0.152,-0.2202,0.8724,-6.41,7.8,-0.05,20.15
6392,0.1528,-0.2218,0.8688,-6.18,7.77,0.02,20.15
6402,0.1504,-0.2224,0.8619,-5.91,7.66,0.03,20.13
6412,0.1519,-0.2172,0.8715,-5.91,7.73,-0.03,20.14
6422,0.1523,-0.2167,0.8694,-5.98,7.76,-0.06,20.17
6432,0.1534,-0.2212,0.8677,-6.15,7.74,-0.08,20.14
6442,0.1505,-0.2217,0.8688,-6.11,7.73,-0.06,20.14
6452,0.1532,-0.2251,0.8641,-6.0,7.74,-0.06,20.14
6462,0.1558,-0.2228,0.8666,-5.92,7.74,-0.03,20.14
6472,0.1544,-0.2247,0.866,-5.95,7.76,-0.05,20.16
6482,0.1511,-0.2251,0.8678,-5.92,7.68,-0.14,20.15
6492,0.1542,-0.2247,0.8683,-6.12,7.59,-0.09,20.12
6502,0.1534,-0.2222,0.8656,-6.31,7.79,-0.12,20.16
6512,0.1526,-0.2203,0.8623,-6.18,7.97,0.03,20.14
6522,0.1526,-0.2225,0.8628,-5.92,7.74,0.03,20.14
6532,0.1543,-0.2238,0.8599,-5.57,7.59,0.05,20.16
6542,0.1503,-0.2207,0.8649,-5.65,7.53,-0.05,20.15
6552,0.1536,-0.2195,0.875,-5.91,7.6,-0.02,20.13
6562,0.153,-0.2203,0.8698,-6.29,7.73,-0.05,20.16
6572,0.1533,-0.2178,0.8652,-6.44,7.86,-0.06,20.17
6582,0.1498,-0.2219,0.8593,-6.2,7.76,-0.05,20.17
6592,0.1511,-0.2211,0.8628,-5.97,7.68,-0.11,20.16
6602,0.1558,-0.2201,0.8679,-5.83,7.68,-0.03,20.16
6612,0.1537,-0.2212,0.8618,-5.92,7.63,-0.05,20.17
6622,0.1526,-0.2217,0.8624,-6.08,7.71,-0.11,20.15
6632,0.1554,-0.2206,0.8632,-6.09,7.66,-0.11,20.15
6642,0.1519,-0.2185,0.8645,-6.14,7.73,-0.08,20.15
6652,0.1537,-0.2236,0.8662,-6.09,7.76,-0.09,20.18
6662,0.1516,-0.2235,0.8654,-5.97,7.73,-0.06,20.13
6672,0.1497,-0.2207,0.866,-6.12,7.76,-0.11,20.14
6682,0.15,-0.2239,0.8673,-6.17,7.63,-0.03,20.14
6692,0.1523,-0.2227,0.8657,-6.09,7.6,0.0,20.14
6702,0.1548,-0.2233,0.8687,-6.08,7.73,0.0,20.15
6712,0.1541,-0.2202,0.8651,-5.97,7.82,-0.02,20.15
6722,0.1537,-0.2191,0.8662,-5.88,7.86,0.0,20.16
6732,0.155,-0.2198,0.8657,-5.94,7.66,-0.11,20.16
6742,0.1536,-0.2239,0.87,-6.0,7.62,-0.18,20.15
6752,0.1515,-0.2238,0.8708,-6.03,7.69,0.0,20.15
6762,0.1549,-0.2216,0.8633,-6.11,7.85,-0.03,20.15
6772,0.1489,-0.2231,0.8649,-6.17,7.88,-0.03,20.15
6782,0.1494,-0.2227,0.8677,-6.05,7.76,0.03,20.13
6792,0.1539,-0.2236,0.864,-5.97,7.71,-0.02,20.16
6802,0.1497,-0.2227,0.8654,-5.86,7.59,-0.05,20.17
6812,0.1516,-0.2229,0.8679,-5.89,7.57,0.03,20.17
6822,0.1536,-0.2233,0.8683,-5.98,7.76,-0.09,20.16
6832,0.1501,-0.2209,0.8666,-6.09,7.73,-0.09,20.17
6842,0.1526,-0.22,0.8668,-6.14,7.71,-0.05,20.15
6852,0.1534,-0.2183,0.8628,-6.05,7.68,0.0,20.16
6862,0.1549,-0.2196,0.8638,-5.98,7.65,-0.02,20.15
6872,0.1532,-0.2211,0.8649,-6.08,7.69,-0.02,20.13
6882,0.1523,-0.2231,0.8661,-6.09,7.71,0.02,20.14
6892,0.1536,-0.2209,0.8662,-6.11,7.76,-0.02,20.12
6902,0.1512,-0.2191,0.8662,-6.08,7.71,-0.14,20.19
6912,0.1552,-0.2225,0.8619,-6.0,7.71,-0.05,20.13
6922,0.1562,-0.226,0.8622,-6.02,7.73,0.0,20.14
6932,0.1547,-0.2251,0.8634,-5.97,7.82,0.02,20.16
6942,0.1515,-0.2236,0.8646,-6.03,7.77,0.0,20.14
6952,0.1537,-0.2234,0.8679,-6.09,7.82,0.05,20.16
6962,0.1495,-0.2209,0.865,-6.06,7.6,-0.05,20.14
6972,0.1508,-0.2217,0.8658,-5.95,7.53,-0.02,20.13
6982,0.1527,-0.2186,0.8678,-5.95,7.57,-0.05,20.16
6992,0.153,-0.2173,0.8647,-6.0,7.68,-0.11,20.17
7002,0.1512,-0.218,0.8649,-6.05,7.77,0.0,20.13
7012,0.1526,-0.2233,0.8669,-5.98,7.74,-0.03,20.15
7022,0.1544,-0.2192,0.8715,-6.06,7.76,-0.02,20.16
7032,0.1541,-0.2222,0.8657,-6.05,7.76,0.03,20.13
7042,0.1533,-0.2208,0.869,-6.2,7.77,-0.08,20.14
7052,0.1523,-0.2239,0.866,-6.21,7.8,0.0,20.15
7062,0.1521,-0.2191,0.8595,-6.14,7.82,-0.03,20.14
7072,0.1512,-0.2228,0.861,-5.98,7.71,0.0,20.16
7082,0.1519,-0.219,0.8629,-5.85,7.71,-0.03,20.15
7092,0.1506,-0.2181,0.8683,-5.86,7.76,-0.08,20.17
7102,0.1521,-0.222,0.8702,-6.0,7.79,0.03,20.16
7112,0.1525,-0.2238,0.8676,-6.08,7.66,-0.03,20.17
7122,0.1525,-0.2227,0.8625,-6.0,7.62,-0.05,20.15
7132,0.1506,-0.2212,0.8633,-5.92,7.63,-0.12,20.14
7142,0.1527,-0.2208,0.8629,-6.05,7.6,-0.09,20.17
7152,0.1553,-0.2191,0.8661,-5.97,7.65,-0.08,20.17
7162,0.1547,-0.218,0.8636,-5.98,7.65,-0.05,20.17
7172,0.153,-0.2186,0.8683,-5.98,7.62,-0.02,20.17
7182,0.1539,-0.2192,0.865,-6.11,7.6,-0.03,20.16
7192,0.1548,-0.2188,0.8663,-6.21,7.77,-0.08,20.15
7202,0.149,-0.2198,0.866,-6.26,7.86,-0.08,20.15
7212,0.1549,-0.2229,0.8619,-6.21,7.86,0.02,20.17
7222,0.152,-0.2219,0.8646,-6.03,7.76,-0.02,20.18
7232,0.1526,-0.2244,0.8643,-5.73,7.59,-0.14,20.15
7242,0.1523,-0.2225,0.8708,-5.74,7.57,-0.08,20.12
7252,0.1523,-0.2208,0.8718,-6.17,7.76,-0.11,20.14
7262,0.1532,-0.2227,0.869,-6.34,7.89,-0.11,20.17
7272,0.151,-0.2256,0.8624,-6.43,7.82,-0.02,20.16
7282,0.1521,-0.2272,0.8563,-6.05,7.66,-0.06,20.17
7292,0.1558,-0.2225,0.8593,-5.71,7.63,-0.02,20.15
7302,0.1536,-0.2227,0.8701,-5.66,7.65,-0.09,20.17
7312,0.1565,-0.2233,0.8759,-5.63,7.66,-0.08,20.16
7322,0.1505,-0.2162,0.8695,-6.02,7.65,-0.14,20.17
7332,0.152,-0.2159,0.8665,-6.29,7.63,-0.09,20.19
7342,0.1532,-0.2208,0.8624,-6.34,7.76,-0.09,20.18
7352,0.1516,-0.2218,0.863,-6.27,7.83,-0.03,20.17
7362,0.1534,-0.2234,0.8638,-6.14,7.92,-0.2,20.14
7372,0.1555,-0.2218,0.8644,-5.98,7.91,-0.02,20.17
7382,0.1544,-0.2229,0.8682,-5.88,7.76,0.02,20.18
7392,0.1528,-0.2234,0.8662,-5.85,7.53,-0.09,20.19
7402,0.1547,-0.2196,0.8624,-5.89,7.57,-0.11,20.19
7412,0.1553,-0.2236,0.8649,-6.15,7.69,0.02,20.19
7422,0.1516,-0.2213,0.8596,-6.15,7.98,0.05,20.17
7432,0.1523,-0.2255,0.861,-5.97,8.05,0.02,20.17
7442,0.1522,-0.2238,0.8679,-5.79,7.85,-0.02,20.14
7452,0.1493,-0.2185,0.8676,-5.73,7.66,-0.08,20.16
7462,0.15,-0.2196,0.8671,-5.83,7.57,-0.03,20.16
7472,0.1515,-0.2157,0.8658,-6.12,7.6,-0.02,20.16
7482,0.1548,-0.218,0.8607,-6.32,7.71,-0.08,20.17
7492,0.1533,-0.2212,0.8619,-6.31,7.8,-0.03,20.15
7502,0.155,-0.2202,0.8594,-6.15,7.83,-0.05,20.17
7512,0.1536,-0.2229,0.8611,-5.86,7.73,-0.03,20.14
7522,0.1515,-0.2173,0.8644,-5.71,7.8,-0.02,20.17
7532,0.1548,-0.2152,0.8685,-5.95,7.88,0.02,20.18
7542,0.153,-0.21,0.8658,-6.09,8.12,0.06,20.18
7552,0.1528,-0.2252,0.8691,-6.26,8.21,0.08,20.16
7562,0.1455,-0.2289,0.8638,-6.64,7.95,-0.18,20.16
7572,0.1504,-0.2262,0.8556,-6.35,7.21,-0.11,20.17
7582,0.1582,-0.2334,0.8586,-5.76,7.08,-0.08,20.19
7592,0.1599,-0.2311,0.8597,-5.89,7.82,0.05,20.18
7602,0.1527,-0.223,0.8617,-6.17,8.34,0.17,20.17
7612,0.1523,-0.2196,0.8668,-5.8,7.97,-0.03,20.18
7622,0.1498,-0.2224,0.8717,-5.76,7.36,-0.03,20.17
7632,0.1469,-0.2174,0.8654,-5.98,7.07,-0.15,20.2
7642,0.1558,-0.2175,0.8627,-6.06,7.24,-0.14,20.19
7652,0.1588,-0.2202,0.8668,-6.11,7.8,-0.02,20.17
7662,0.1508,-0.2209,0.8652,-6.27,8.35,0.03,20.16
7672,0.1479,-0.2198,0.8612,-6.23,8.21,-0.03,20.19
7682,0.1503,-0.2227,0.865,-6.0,7.59,0.02,20.18
7692,0.1547,-0.2253,0.8632,-5.88,7.37,-0.11,20.19
7702,0.1583,-0.2192,0.8621,-5.86,7.5,-0.03,20.19
7712,0.1555,-0.2224,0.8588,-5.77,7.66,0.03,20.17
7722,0.1512,-0.2192,0.8702,-5.65,7.98,0.11,20.18
7732,0.1508,-0.2191,0.8717,-6.02,8.14,0.02,20.17
7742,0.1472,-0.2214,0.8721,-6.18,7.74,-0.05,20.18
7752,0.1509,-0.2223,0.865,-6.27,7.42,-0.06,20.17
7762,0.1487,-0.2161,0.8635,-6.31,7.63,-0.05,20.16
7772,0.1392,-0.2117,0.8444,-6.27,7.68,0.03,20.17
7782,0.1536,-0.23,0.8506,-6.15,7.51,-0.24,20.18
7792,0.1617,-0.2288,0.859,-5.73,7.97,-0.09,20.19
7802,0.1581,-0.2241,0.8788,-4.84,8.4,0.14,20.19
7812,0.1464,-0.2335,0.8999,-5.31,8.23,-0.03,20.16
7822,0.1459,-0.2284,0.882,-6.58,6.84,-0.14,20.16
7832,0.1581,-0.2203,0.8501,-6.79,5.97,-0.29,20.14
7842,0.1599,-0.2214,0.8403,-6.24,6.87,-0.15,20.17
7852,0.1605,-0.2173,0.8536,-5.85,8.7,0.12,20.18
7862,0.1538,-0.2152,0.8684,-5.68,9.66,0.37,20.17
7872,0.1493,-0.2141,0.8761,-5.54,8.76,0.12,20.18
7882,0.1494,-0.2231,0.8813,-5.66,6.95,-0.2,20.16
7892,0.1562,-0.2218,0.877,-5.98,6.11,-0.37,20.17
7902,0.1599,-0.2191,0.8639,-6.26,6.79,-0.21,20.17
7912,0.162,-0.2192,0.8628,-6.4,8.29,0.03,20.16
7922,0.1532,-0.218,0.8656,-6.52,9.37,0.17,20.18
7932,0.1394,-0.2185,0.8633,-6.05,8.56,0.05,20.16
7942,0.1428,-0.2163,0.865,-5.44,7.08,-0.12,20.17
7952,0.1493,-0.2131,0.8704,-5.57,6.49,-0.27,20.17
7962,0.1604,-0.2157,0.8676,-5.95,7.08,-0.17,20.18
7972,0.1566,-0.215,0.8728,-6.46,8.29,-0.08,20.18
7982,0.1466,-0.2231,0.8707,-6.92,8.99,0.11,20.15
7992,0.1469,-0.2263,0.8633,-6.73,8.29,-0.03,20.17
8002,0.1484,-0.2277,0.8564,-6.24,7.02,-0.18,20.17
8012,0.1576,-0.2273,0.858,-5.56,6.53,-0.23,20.17
8022,0.1637,-0.2235,0.8611,-5.33,7.1,-0.17,20.15
8032,0.1633,-0.2198,0.8645,-5.56,7.95,0.06,20.2
8042,0.15,-0.2195,0.8717,-5.91,8.41,0.09,20.17
8052,0.1431,-0.2219,0.8748,-6.05,8.18,-0.05,20.17
8062,0.1476,-0.2208,0.8743,-6.26,7.45,-0.18,20.16
8072,0.1616,-0.2242,0.8636,-6.55,7.24,-0.15,20.16
8082,0.1613,-0.2247,0.8536,-6.56,7.63,-0.15,20.19
8092,0.15,-0.2242,0.8562,-5.92,7.98,-0.03,20.15
8102,0.1433,-0.2236,0.8601,-5.13,7.97,0.09,20.17
8112,0.1497,-0.2207,0.8694,-4.98,7.6,0.05,20.16
8122,0.1565,-0.2178,0.8757,-5.73,7.39,-0.03,20.16
8132,0.1533,-0.2224,0.8698,-6.63,7.62,-0.06,20.17
8142,0.1475,-0.2234,0.8577,-6.89,8.0,-0.05,20.2
8152,0.1476,-0.2256,0.8535,-6.06,8.02,0.05,20.17
8162,0.1497,-0.2289,0.8638,-5.5,7.97,0.06,20.18
8172,0.1528,-0.2274,0.8695,-5.42,7.85,0.11,20.18
8182,0.1537,-0.2289,0.8745,-5.8,7.71,0.08,20.16
8192,0.1514,-0.2235,0.8726,-6.23,7.74,0.03,20.18
8202,0.1534,-0.2251,0.8638,-6.38,7.82,0.02,20.17
8212,0.1519,-0.2268,0.8502,-6.27,7.8,0.06,20.16
8456,0.1616,-0.2151,0.8746,-6.15,7.6,-0.09,20.17
8466,0.1605,-0.2162,0.8712,-6.66,7.97,-0.02,20.15
8476,0.1577,-0.2153,0.8643,-6.78,8.12,0.06,20.19
8486,0.1531,-0.2205,0.8586,-6.02,8.05,0.05,20.16
8496,0.151,-0.2192,0.8557,-5.24,7.45,-0.02,20.17
8506,0.1488,-0.2201,0.8652,-4.96,7.05,-0.14,20.17
8516,0.1503,-0.2168,0.8704,-5.31,7.22,-0.09,20.18
8526,0.1533,-0.2161,0.8782,-6.35,7.94,-0.05,20.18
8536,0.1477,-0.2183,0.8737,-7.24,8.49,0.03,20.19
8546,0.1462,-0.2183,0.8589,-6.89,8.08,0.0,20.17
8556,0.1608,-0.2185,0.8442,-5.66,7.13,-0.15,20.18
8566,0.1615,-0.2169,0.8597,-5.36,6.37,-0.11,20.17
8576,0.139,-0.214,0.8879,-6.0,7.45,-0.11,20.19
8586,0.1274,-0.2134,0.8889,-6.66,8.58,-0.23,20.18
8596,0.1532,-0.2192,0.8622,-6.9,8.24,-0.09,20.17
8606,0.1631,-0.2228,0.8477,-6.46,7.8,-0.17,20.18
8616,0.1598,-0.2258,0.854,-5.94,7.45,-0.08,20.14
8626,0.1526,-0.2228,0.8745,-5.6,7.73,-0.06,20.16
8636,0.1527,-0.2244,0.8723,-5.95,7.95,0.05,20.18
8646,0.1528,-0.2208,0.8683,-6.37,7.97,-0.03,20.17
8656,0.1522,-0.2239,0.8635,-6.46,7.77,-0.05,20.17
8666,0.1512,-0.2225,0.8589,-6.29,7.63,-0.11,20.17
8676,0.1504,-0.2229,0.8583,-5.82,7.6,0.02,20.17
8686,0.1494,-0.2217,0.8676,-5.71,7.63,-0.05,20.18
8696,0.15,-0.2247,0.8708,-5.77,7.82,0.03,20.19
8706,0.1504,-0.2214,0.8715,-5.97,7.65,-0.08,20.18
8716,0.15,-0.222,0.8695,-6.34,7.53,-0.09,20.19
8726,0.1549,-0.2235,0.8671,-6.43,7.59,-0.03,20.19
8736,0.1512,-0.2242,0.8624,-6.21,7.62,-0.06,20.18
8746,0.1545,-0.2244,0.8645,-6.02,7.65,-0.02,20.2
8756,0.1537,-0.2214,0.8627,-5.85,7.66,-0.08,20.17
8766,0.1537,-0.2184,0.8647,-5.68,7.48,-0.05,20.17
8776,0.1575,-0.2158,0.8713,-5.89,7.48,-0.12,20.18
8786,0.1552,-0.2185,0.8699,-6.17,7.66,-0.11,20.17
8796,0.1566,-0.219,0.8706,-6.18,7.8,-0.12,20.2
8806,0.1575,-0.2203,0.8619,-6.2,7.82,-0.06,20.19
8816,0.1486,-0.2258,0.8635,-6.08,7.63,-0.05,20.18
8826,0.1479,-0.2238,0.8595,-5.86,7.62,-0.03,20.21
8836,0.1608,-0.2217,0.8611,-5.79,7.27,-0.17,20.19
8846,0.1608,-0.2196,0.8641,-5.89,7.44,-0.18,20.18
8856,0.1525,-0.2216,0.8638,-6.03,7.51,-0.14,20.19
8866,0.1547,-0.2179,0.8639,-6.02,7.48,-0.17,20.17
8876,0.1556,-0.2173,0.8641,-5.98,7.44,-0.14,20.17
8886,0.157,-0.2189,0.8632,-6.08,7.51,-0.12,20.19
8896,0.1532,-0.2177,0.8635,-6.11,7.59,-0.08,20.17
8906,0.1545,-0.2158,0.8671,-6.03,7.63,-0.09,20.17
8916,0.1578,-0.2152,0.8743,-6.09,7.63,-0.08,20.17
8926,0.1534,-0.2128,0.868,-6.12,7.63,-0.12,20.17
8936,0.1553,-0.2142,0.8662,-6.21,7.54,-0.11,20.17
8946,0.1527,-0.2189,0.8666,-6.29,7.68,-0.12,20.17
8956,0.1498,-0.2174,0.8684,-6.21,7.68,-0.11,20.15
8966,0.1512,-0.2194,0.8632,-6.23,7.71,0.03,20.17
8976,0.1486,-0.2235,0.8652,-6.08,7.66,-0.05,20.17
8986,0.153,-0.2236,0.8671,-6.2,7.57,-0.11,20.17
8996,0.1509,-0.2245,0.8684,-6.09,7.51,-0.05,20.18
9006,0.1515,-0.2214,0.8717,-5.97,7.62,-0.02,20.18
9016,0.1497,-0.224,0.8674,-6.21,7.63,-0.09,20.18
9026,0.149,-0.2258,0.8663,-6.26,7.71,-0.09,20.18
9036,0.1497,-0.2223,0.8667,-6.21,7.77,-0.08,20.18
9046,0.1549,-0.2255,0.8617,-6.21,7.71,-0.05,20.21
9056,0.1527,-0.223,0.8624,-6.12,7.68,-0.02,20.17
9066,0.1505,-0.2224,0.865,-6.05,7.76,-0.02,20.21
9076,0.15,-0.2223,0.8705,-6.05,7.76,-0.02,20.19
9086,0.1536,-0.2196,0.8649,-6.03,7.76,-0.08,20.2
9096,0.158,-0.2174,0.8645,-6.09,7.59,-0.05,20.21
9106,0.1539,-0.2174,0.8676,-5.95,7.56,0.0,20.18
9116,0.1508,-0.2162,0.8683,-6.0,7.68,-0.02,20.19
9126,0.1509,-0.2137,0.8691,-6.05,7.91,-0.14,20.19
9136,0.1552,-0.218,0.8691,-6.03,7.79,-0.09,20.17
9146,0.1539,-0.2228,0.87,-6.14,7.97,-0.08,20.16
9156,0.1536,-0.225,0.8671,-6.31,7.89,-0.08,20.19
9166,0.1539,-0.2225,0.8652,-6.29,7.86,-0.06,20.18
9176,0.1542,-0.2279,0.8683,-6.18,7.85,0.05,20.18
9186,0.1542,-0.2281,0.8628,-6.15,7.83,0.03,20.19
9196,0.1509,-0.2279,0.8628,-6.02,7.94,0.0,20.18
9206,0.1548,-0.2279,0.8628,-6.03,7.62,0.0,20.19
9216,0.1541,-0.2256,0.8635,-6.0,7.6,0.02,20.22
9226,0.1544,-0.2252,0.8625,-6.02,7.63,-0.09,20.18
9236,0.1532,-0.22,0.8601,-5.89,7.73,-0.09,20.19
9246,0.1511,-0.2191,0.8645,-6.08,7.74,-0.05,20.19
9256,0.1519,-0.22,0.8647,-6.27,7.74,-0.06,20.19
9266,0.1495,-0.222,0.8605,-6.2,7.69,-0.17,20.21
9276,0.1522,-0.2225,0.865,-5.82,7.65,-0.02,20.17
9286,0.1539,-0.2229,0.8628,-5.86,7.76,-0.11,20.19
9296,0.15,-0.2223,0.8647,-5.8,7.69,-0.11,20.2
9306,0.1536,-0.2214,0.8632,-5.73,7.48,-0.06,20.19
9316,0.1536,-0.2189,0.8735,-5.95,7.54,0.02,20.18
9326,0.153,-0.2173,0.8656,-6.27,7.77,0.02,20.21
9336,0.1494,-0.2184,0.8624,-6.26,7.94,-0.08,20.19
9346,0.151,-0.2203,0.8617,-6.08,7.71,-0.15,20.19
9356,0.1523,-0.2225,0.8625,-5.88,7.69,-0.02,20.18
9366,0.1523,-0.2218,0.8679,-5.82,7.71,-0.05,20.2
9376,0.1527,-0.2238,0.8716,-6.09,7.73,-0.03,20.19
9386,0.1501,-0.2225,0.869,-6.32,7.8,0.05,20.17
9396,0.15,-0.2239,0.8657,-6.21,7.74,-0.08,20.17
9406,0.1492,-0.2234,0.8632,-5.89,7.73,-0.02,20.19
9416,0.1505,-0.2207,0.8689,-5.77,7.66,-0.09,20.19
9426,0.1547,-0.2167,0.8701,-5.76,7.69,0.02,20.19
9436,0.1528,-0.2209,0.8713,-5.85,7.83,0.0,20.17
9446,0.1509,-0.2211,0.8706,-6.11,7.76,0.02,20.19
9456,0.1548,-0.2197,0.868,-6.09,7.8,0.03,20.21
9466,0.1545,-0.2222,0.8645,-6.09,7.86,-0.02,20.17
9477,0.1538,-0.2213,0.863,-6.03,7.77,0.0,20.19
9487,0.1523,-0.2227,0.8678,-5.86,7.8,0.02,20.18
9497,0.1508,-0.2202,0.8647,-5.88,7.66,0.11,20.19
9508,0.1532,-0.2173,0.8613,-5.83,7.63,0.02,20.19
9518,0.1519,-0.2179,0.8643,-5.89,7.57,-0.06,20.19
9528,0.1538,-0.2157,0.8694,-6.03,7.65,-0.08,20.19
9538,0.1521,-0.2168,0.8641,-6.12,7.77,0.02,20.2
9548,0.156,-0.2175,0.8644,-6.14,7.79,-0.03,20.21
9558,0.1527,-0.2185,0.8666,-6.15,7.69,-0.02,20.19
9568,0.1544,-0.2189,0.8601,-6.21,7.79,-0.03,20.21
9578,0.1544,-0.2203,0.8668,-6.08,7.74,-0.08,20.19
9588,0.1553,-0.223,0.8676,-6.05,7.83,0.05,20.2
9598,0.1511,-0.2196,0.8668,-6.0,7.85,0.05,20.2
9608,0.1488,-0.222,0.8662,-6.14,7.73,0.03,20.18
9618,0.1521,-0.2206,0.8635,-6.08,7.5,-0.11,20.22
9628,0.1555,-0.2228,0.8655,-6.14,7.51,-0.11,20.18
9638,0.1549,-0.223,0.8606,-6.09,7.62,0.03,20.19
9648,0.1495,-0.2247,0.8641,-6.0,7.89,-0.08,20.19
9658,0.1531,-0.2236,0.8669,-5.95,7.82,-0.06,20.19
9668,0.1515,-0.2234,0.8691,-6.02,7.57,-0.12,20.24
9678,0.1548,-0.2208,0.859,-6.2,7.33,-0.27,20.2
9688,0.1561,-0.222,0.8593,-6.12,7.48,-0.12,20.19
9698,0.1602,-0.2262,0.8661,-6.05,7.76,-0.09,20.21
9708,0.1544,-0.2252,0.8643,-5.82,8.12,0.09,20.2
9718,0.1501,-0.2289,0.8699,-5.94,8.14,0.0,20.18
9728,0.1514,-0.2285,0.8722,-5.85,7.8,-0.02,20.19
9738,0.1478,-0.2295,0.8694,-6.06,7.45,-0.05,20.18
9748,0.1498,-0.2277,0.8633,-6.15,7.36,-0.03,20.19
9758,0.1479,-0.2241,0.8571,-5.97,7.73,0.03,20.21
9768,0.1482,-0.2216,0.8635,-5.69,7.92,0.05,20.19
9778,0.1445,-0.2198,0.8667,-5.63,7.89,0.09,20.18
9788,0.147,-0.2161,0.8657,-5.73,7.6,-0.02,20.18
9798,0.1476,-0.213,0.8693,-5.91,7.33,-0.17,20.21
9808,0.1543,-0.2173,0.8699,-6.21,7.53,-0.02,20.22
9818,0.1553,-0.2196,0.8628,-6.18,7.8,0.09,20.19
9828,0.1519,-0.2209,0.8624,-6.2,7.95,-0.05,20.18
9838,0.1532,-0.2168,0.8641,-6.02,7.92,-0.02,20.18
9848,0.1541,-0.2205,0.865,-5.8,7.56,0.03,20.22
9858,0.1564,-0.2185,0.8665,-5.83,7.31,-0.03,20.2
9868,0.1559,-0.22,0.8669,-5.89,7.51,-0.08,20.19
9878,0.1562,-0.2142,0.8739,-6.08,7.85,0.0,20.2
9888,0.1553,-0.2179,0.8689,-6.03,8.02,0.03,20.2
9898,0.1531,-0.2183,0.8689,-6.2,7.88,0.06,20.18
9908,0.1516,-0.2141,0.8621,-6.18,7.65,-0.08,20.2
9918,0.1541,-0.2194,0.8618,-6.09,7.48,-0.03,20.2
9928,0.1572,-0.2195,0.8597,-6.05,7.53,-0.06,20.21
9938,0.1545,-0.2191,0.8647,-6.11,7.8,-0.02,20.2
9948,0.1523,-0.2216,0.8694,-5.98,7.97,0.11,20.21
9958,0.1522,-0.2205,0.8694,-6.05,7.98,0.03,20.18
9968,0.1484,-0.218,0.8662,-6.17,7.69,-0.09,20.2
9978,0.1499,-0.2188,0.8671,-6.23,7.48,-0.11,20.19
9988,0.1516,-0.2167,0.8645,-6.21,7.51,-0.08,20.19
9998,0.1517,-0.2208,0.8651,-6.26,7.68,-0.12,20.19
10008,0.1516,-0.2206,0.8624,-6.12,7.88,-0.09,20.21
10018,0.1525,-0.2233,0.8658,-6.06,7.8,-0.09,20.19
10028,0.1554,-0.2244,0.8685,-6.05,7.69,-0.05,20.19
10038,0.152,-0.2234,0.8672,-6.08,7.63,-0.03,20.19
10048,0.1527,-0.2239,0.8676,-6.18,7.54,-0.08,20.21
10058,0.1549,-0.2261,0.8662,-6.29,7.6,-0.08,20.19
10068,0.1526,-0.2239,0.8636,-6.15,7.68,-0.12,20.19
10078,0.1545,-0.2192,0.859,-5.97,7.68,-0.12,20.22
10088,0.1516,-0.2234,0.865,-5.85,7.69,-0.12,20.2
10098,0.1544,-0.2211,0.8715,-5.88,7.59,-0.08,20.21
10108,0.1539,-0.2198,0.8726,-6.0,7.68,-0.06,20.19
10118,0.1545,-0.2222,0.875,-6.11,7.65,-0.09,20.2
10128,0.1515,-0.225,0.8671,-6.29,7.74,-0.06,20.19
10138,0.1514,-0.2271,0.864,-6.29,7.83,-0.06,20.19
10148,0.1539,-0.2279,0.8628,-6.11,7.8,-0.02,20.19
10158,0.1499,-0.226,0.8639,-5.83,7.71,0.0,20.21
10168,0.1481,-0.2251,0.8678,-5.83,7.56,-0.03,20.22
10178,0.1509,-0.22,0.8683,-5.83,7.57,-0.05,20.18
10188,0.1537,-0.2213,0.8687,-6.0,7.69,-0.08,20.21
10198,0.1554,-0.2208,0.8685,-6.06,7.82,-0.02,20.22
10208,0.1528,-0.2205,0.8663,-6.12,7.95,-0.05,20.21
10218,0.1523,-0.2256,0.8593,-6.17,7.89,-0.03,20.22
10228,0.1522,-0.2267,0.8627,-6.11,7.68,-0.06,20.2
10238,0.1528,-0.2261,0.8601,-6.11,7.66,-0.02,20.2
10248,0.1514,-0.2218,0.8608,-5.91,7.6,0.0,20.21
10258,0.1508,-0.2188,0.8618,-5.82,7.68,-0.02,20.18
10268,0.1539,-0.2209,0.866,-5.91,7.88,-0.02,20.19
10278,0.1523,-0.2205,0.8611,-6.0,7.85,0.11,20.19
10288,0.1493,-0.2152,0.8597,-5.92,7.8,0.02,20.2
10298,0.1508,-0.2191,0.8649,-6.08,7.68,-0.02,20.19
10308,0.1522,-0.218,0.863,-6.14,7.69,-0.03,20.21
10318,0.1495,-0.2218,0.8646,-6.11,7.88,-0.02,20.21
10328,0.1501,-0.2179,0.8629,-5.92,7.92,-0.05,20.18
10338,0.1511,-0.218,0.8708,-5.91,7.82,0.0,20.19
10348,0.1501,-0.2202,0.8707,-5.92,7.63,-0.03,20.18
10358,0.151,-0.2206,0.8679,-5.94,7.56,-0.05,20.23
10368,0.1525,-0.2179,0.8711,-6.06,7.69,-0.03,20.18
10378,0.1531,-0.2181,0.8674,-5.97,7.66,0.03,20.2
10388,0.155,-0.218,0.8663,-5.95,7.76,-0.06,20.19
10398,0.1528,-0.2178,0.8629,-5.97,7.73,-0.06,20.2
10408,0.1553,-0.2183,0.8645,-5.97,7.69,0.05,20.22
10418,0.1543,-0.2183,0.8669,-5.95,7.74,-0.02,20.19
10428,0.1521,-0.2209,0.8667,-6.0,7.79,-0.06,20.21
10438,0.1555,-0.2201,0.8684,-6.15,7.82,0.0,20.2
10448,0.1532,-0.2161,0.8649,-6.14,7.69,-0.05,20.2
10459,0.1493,-0.2184,0.8701,-6.03,7.66,-0.08,20.2
10469,0.1531,-0.2192,0.8633,-6.02,7.59,-0.06,20.21
10480,0.1523,-0.2198,0.8665,-6.08,7.63,-0.11,20.22
10490,0.1525,-0.2218,0.8705,-6.09,7.76,-0.14,20.22
10500,0.1512,-0.2213,0.8687,-6.24,7.71,-0.09,20.21
10510,0.1533,-0.2231,0.8679,-6.2,7.73,-0.09,20.2
10520,0.1526,-0.2239,0.864,-6.26,7.59,-0.11,20.21
10530,0.1523,-0.224,0.861,-6.26,7.51,0.02,20.19
10540,0.1527,-0.2196,0.8599,-6.03,7.59,-0.03,20.22
10550,0.152,-0.2211,0.8656,-5.98,7.66,-0.05,20.19
10560,0.1498,-0.2219,0.865,-6.05,7.68,-0.02,20.21
10570,0.1541,-0.2214,0.865,-5.92,7.73,-0.02,20.22
10580,0.1517,-0.2214,0.8668,-6.12,7.76,-0.14,20.21
10590,0.1547,-0.2234,0.8665,-6.21,7.83,-0.03,20.2
10600,0.1522,-0.2228,0.864,-6.23,7.88,0.05,20.19
10610,0.1494,-0.223,0.8632,-6.14,7.76,-0.05,20.2
10620,0.1503,-0.222,0.8643,-5.91,7.68,0.0,20.23
10630,0.1523,-0.2249,0.8683,-5.83,7.65,-0.06,20.21
10640,0.15,-0.2238,0.869,-5.89,7.63,-0.06,20.19
10650,0.1549,-0.2233,0.8666,-5.85,7.74,-0.02,20.19
10660,0.1526,-0.2241,0.87,-5.89,7.89,0.02,20.21
10670,0.1538,-0.2236,0.8687,-6.18,7.74,0.02,20.2
10680,0.153,-0.2224,0.863,-6.21,7.63,-0.08,20.2
10690,0.1512,-0.2239,0.8624,-6.06,7.6,-0.02,20.2
10700,0.1532,-0.2231,0.8604,-5.88,7.74,0.05,20.23
10710,0.1527,-0.2196,0.8656,-5.73,7.77,-0.02,20.2
10720,0.151,-0.2166,0.8665,-5.65,7.71,0.06,20.21
10730,0.1497,-0.2157,0.875,-5.92,7.56,0.03,20.22
10740,0.1506,-0.2173,0.8706,-6.17,7.48,-0.08,20.23
10750,0.151,-0.2168,0.8673,-6.26,7.66,-0.09,20.24
10760,0.1543,-0.2189,0.8677,-6.31,7.79,-0.02,20.21
10770,0.1549,-0.2216,0.8607,-6.23,7.92,-0.09,20.22
10780,0.1559,-0.22,0.8627,-6.0,7.8,-0.02,20.24
10790,0.1558,-0.2225,0.87,-5.86,7.71,-0.08,20.23
10800,0.1562,-0.2196,0.8716,-5.97,7.57,-0.06,20.21
10810,0.155,-0.2188,0.8657,-6.11,7.45,0.0,20.22
10820,0.1545,-0.2186,0.863,-6.29,7.51,-0.08,20.22
10830,0.155,-0.2178,0.8606,-6.35,7.73,-0.05,20.21
10840,0.1539,-0.22,0.8588,-6.26,7.91,-0.15,20.21
10850,0.1539,-0.2195,0.8594,-5.98,7.94,-0.06,20.19
10860,0.1499,-0.2236,0.8685,-5.94,7.85,-0.12,20.23
10870,0.1537,-0.2251,0.8691,-6.11,7.69,-0.17,20.22
10880,0.1552,-0.2249,0.868,-6.15,7.59,-0.05,20.23
10890,0.1527,-0.2228,0.863,-6.17,7.6,-0.05,20.24
10900,0.151,-0.2228,0.8677,-6.08,7.69,-0.02,20.21
10910,0.1515,-0.2194,0.8641,-5.92,7.65,0.02,20.22
10920,0.1519,-0.2184,0.8674,-5.88,7.6,-0.03,20.23
10930,0.147,-0.2155,0.8652,-6.0,7.69,-0.03,20.22
10940,0.1484,-0.2164,0.8728,-6.14,7.83,0.14,20.23
10950,0.1522,-0.2202,0.8677,-6.34,7.76,-0.05,20.22
10960,0.1534,-0.2211,0.8647,-6.23,7.8,0.03,20.22
10970,0.151,-0.2235,0.8672,-6.15,7.83,-0.02,20.2
10980,0.1497,-0.2227,0.8704,-6.05,7.69,-0.08,20.18
10990,0.1528,-0.223,0.8633,-5.97,7.57,-0.09,20.22
11000,0.1549,-0.2211,0.8628,-5.91,7.47,-0.11,20.2
11010,0.1552,-0.2194,0.8669,-5.97,7.69,-0.15,20.22
11020,0.1514,-0.2205,0.8662,-6.18,7.82,-0.14,20.22
11030,0.1559,-0.2196,0.8654,-6.14,7.92,-0.11,20.22
11040,0.1534,-0.2256,0.8625,-6.17,7.74,-0.03,20.23
11050,0.1558,-0.2235,0.863,-6.06,7.6,-0.09,20.19
11060,0.1531,-0.2262,0.8611,-6.11,7.6,-0.09,20.24
11070,0.1545,-0.2231,0.8584,-6.06,7.71,-0.03,20.2
11080,0.152,-0.2246,0.8584,-5.94,7.82,-0.02,20.21
11090,0.1506,-0.2239,0.8639,-5.89,7.79,0.02,20.21
11100,0.1533,-0.224,0.8676,-5.94,7.8,-0.05,20.22
11110,0.1512,-0.22,0.8687,-5.97,7.73,-0.11,20.24
11120,0.1508,-0.2211,0.8666,-5.95,7.62,-0.06,20.2
11130,0.1534,-0.2224,0.8676,-5.92,7.77,-0.06,20.21
11140,0.1489,-0.2181,0.8616,-6.02,7.86,-0.05,20.22
11150,0.1486,-0.2179,0.8678,-6.02,7.76,-0.06,20.2
11160,0.1514,-0.2227,0.8687,-6.02,7.65,0.06,20.22
11170,0.1528,-0.2239,0.8646,-6.06,7.65,-0.02,20.21
11180,0.1559,-0.2225,0.8668,-6.03,7.65,-0.02,20.21
11190,0.1573,-0.2227,0.868,-6.02,7.74,-0.03,20.22
11200,0.1554,-0.2211,0.8693,-6.05,7.95,-0.03,20.2
11210,0.1519,-0.2236,0.8702,-6.12,7.83,0.11,20.19
11220,0.155,-0.2261,0.8639,-6.14,7.71,0.02,20.22
11230,0.1549,-0.2227,0.8633,-6.12,7.5,-0.05,20.18
11240,0.1565,-0.2223,0.8601,-6.03,7.56,0.02,20.19
11250,0.1536,-0.2251,0.8613,-5.92,7.63,0.06,20.21
11260,0.1554,-0.2219,0.8618,-5.91,7.91,-0.05,20.22
11270,0.1523,-0.2208,0.8661,-5.92,8.12,-0.02,20.21
11280,0.1503,-0.2212,0.8723,-5.8,8.02,-0.05,20.2
11290,0.1472,-0.2228,0.8712,-5.88,7.74,0.0,20.22
11300,0.149,-0.2208,0.8689,-6.09,7.48,-0.15,20.19
11310,0.1527,-0.2194,0.8621,-6.12,7.36,-0.08,20.22
11320,0.1522,-0.2228,0.8567,-5.97,7.45,-0.06,20.19
11330,0.155,-0.2163,0.8606,-5.8,7.85,-0.05,20.21
11340,0.1538,-0.2135,0.8656,-5.77,7.92,-0.03,20.19
11350,0.1542,-0.2151,0.8718,-5.76,7.88,0.0,20.22
11360,0.1544,-0.215,0.8695,-6.05,7.65,-0.11,20.2
11370,0.1554,-0.2173,0.8644,-6.32,7.62,-0.12,20.19
11380,0.1564,-0.2218,0.8596,-6.37,7.65,-0.11,20.2
11390,0.1571,-0.2238,0.8579,-6.27,7.86,-0.08,20.2
11400,0.1517,-0.2225,0.8616,-5.92,7.86,-0.02,20.18
11410,0.1521,-0.2227,0.8663,-5.68,7.76,-0.05,20.23
11420,0.1514,-0.2188,0.8676,-5.76,7.57,0.03,20.21
11430,0.1499,-0.2128,0.8671,-5.89,7.44,-0.06,20.2
11440,0.1505,-0.2146,0.8699,-6.21,7.53,-0.06,20.2
11450,0.1497,-0.2148,0.8673,-6.38,7.85,-0.12,20.22
11460,0.1536,-0.2191,0.8656,-6.4,7.95,-0.09,20.23
11470,0.1508,-0.22,0.8639,-6.2,7.82,-0.06,20.23
11480,0.1532,-0.2261,0.8693,-5.97,7.62,-0.08,20.19
11490,0.1545,-0.2251,0.8657,-5.98,7.51,-0.09,20.21
11500,0.1531,-0.224,0.8667,-6.11,7.63,0.0,20.21
11510,0.1528,-0.2239,0.861,-6.23,7.77,-0.02,20.22
11520,0.1547,-0.2228,0.8651,-6.11,7.83,0.0,20.22
11530,0.1528,-0.226,0.861,-6.03,7.83,-0.02,20.23
11540,0.1531,-0.2229,0.865,-5.89,7.76,0.02,20.22
11550,0.1512,-0.226,0.8684,-5.85,7.65,-0.14,20.2
11560,0.1554,-0.2253,0.8669,-5.95,7.63,-0.08,20.22
11570,0.153,-0.2281,0.8677,-6.15,7.76,0.02,20.24
11580,0.1516,-0.2224,0.8649,-6.21,7.85,-0.02,20.19
11590,0.1503,-0.2227,0.8652,-6.17,7.77,-0.05,20.23
11600,0.1506,-0.2252,0.8617,-5.94,7.69,-0.12,20.22
11610,0.15,-0.2228,0.8597,-5.95,7.57,-0.06,20.21
11620,0.1515,-0.2196,0.8647,-5.76,7.71,0.06,20.22
11630,0.1514,-0.2205,0.8636,-5.97,7.73,-0.02,20.22
11640,0.1527,-0.2214,0.8655,-6.0,7.86,0.02,20.19
11650,0.1517,-0.22,0.869,-6.09,7.77,-0.02,20.21
11660,0.1536,-0.2201,0.8627,-6.09,7.74,0.0,20.23
11670,0.1523,-0.2195,0.861,-6.06,7.73,0.0,20.23
11680,0.1537,-0.2201,0.8656,-6.0,7.77,0.02,20.21
11690,0.1542,-0.2197,0.8672,-6.02,7.77,0.0,20.21
11700,0.1544,-0.22,0.8657,-6.02,7.74,-0.05,20.22
11710,0.1544,-0.2241,0.8649,-6.06,7.77,-0.11,20.22
11721,0.1558,-0.2231,0.8662,-6.05,7.71,-0.06,20.2
11731,0.1544,-0.2207,0.8674,-5.97,7.57,-0.03,20.22
11741,0.1542,-0.2179,0.8654,-6.06,7.62,-0.02,20.21
11751,0.1572,-0.2174,0.8647,-5.98,7.63,-0.11,20.24
11761,0.1531,-0.2172,0.8674,-5.92,7.6,-0.15,20.22
11771,0.1542,-0.2157,0.8671,-5.89,7.76,-0.05,20.22
11781,0.1532,-0.2159,0.8676,-5.98,7.74,-0.06,20.22
11791,0.1553,-0.2188,0.8632,-6.15,7.73,-0.11,20.23
11801,0.1567,-0.2189,0.87,-6.17,7.8,-0.09,20.21
11811,0.1558,-0.2231,0.8695,-6.15,7.82,-0.03,20.22
11821,0.1505,-0.2235,0.8674,-6.21,7.85,-0.08,20.21
11831,0.1503,-0.2261,0.866,-6.14,7.68,0.06,20.2
11841,0.152,-0.2251,0.8651,-6.12,7.71,0.06,20.2
11851,0.1564,-0.2239,0.8679,-6.06,7.74,0.02,20.22
11861,0.152,-0.223,0.8737,-5.82,7.76,-0.05,20.22
11872,0.1475,-0.2218,0.8743,-5.86,7.73,-0.09,20.21
11882,0.1512,-0.2213,0.8677,-6.0,7.68,-0.03,20.21
11892,0.1509,-0.2216,0.8694,-6.18,7.54,-0.09,20.23
11902,0.1512,-0.223,0.8685,-6.18,7.68,-0.09,20.2
11912,0.1511,-0.2192,0.8649,-6.18,7.71,-0.11,20.23
11922,0.151,-0.2205,0.8628,-6.06,7.63,-0.08,20.22
11932,0.1523,-0.22,0.8693,-5.85,7.71,-0.08,20.22
11942,0.1573,-0.2192,0.8665,-5.77,7.69,-0.11,20.22
11952,0.1509,-0.217,0.8699,-5.95,7.66,-0.05,20.23
11962,0.1539,-0.2156,0.8672,-5.98,7.68,-0.02,20.23
11972,0.1501,-0.214,0.8624,-6.12,7.77,0.0,20.22
11982,0.1525,-0.2153,0.8638,-6.23,7.74,0.0,20.23
11992,0.151,-0.2191,0.8619,-6.21,7.76,-0.05,20.2
12002,0.1509,-0.2231,0.8627,-6.21,7.74,-0.05,20.21
12012,0.1525,-0.2209,0.8652,-6.0,7.74,-0.08,20.22
12022,0.1538,-0.2234,0.8646,-6.09,7.69,-0.06,20.22
12032,0.1565,-0.2255,0.8652,-6.14,7.76,-0.02,20.22
12042,0.156,-0.2268,0.8646,-6.11,7.76,-0.11,20.21
12052,0.1545,-0.2246,0.8633,-6.11,7.69,-0.03,20.22
12062,0.1547,-0.2244,0.8657,-6.02,7.69,0.09,20.22
12072,0.1548,-0.2239,0.8657,-5.89,7.73,0.02,20.22
12082,0.1553,-0.2227,0.866,-5.88,7.71,0.06,20.23
12092,0.1528,-0.2198,0.8622,-5.92,7.79,-0.06,20.22
12102,0.1523,-0.2184,0.8625,-6.02,7.71,0.0,20.19
12112,0.1506,-0.2202,0.8613,-6.18,7.77,-0.05,20.22
12122,0.1533,-0.2203,0.8671,-6.14,7.74,-0.09,20.22
12132,0.1536,-0.2238,0.8638,-5.98,7.63,0.0,20.21
12142,0.1516,-0.2195,0.8679,-6.06,7.73,0.02,20.22
12152,0.1537,-0.2211,0.8662,-6.02,7.83,-0.09,20.22
12162,0.1536,-0.2244,0.8701,-6.08,7.82,-0.02,20.2
12172,0.155,-0.2233,0.869,-6.12,7.77,-0.06,20.2
12182,0.1516,-0.2208,0.8694,-6.08,7.73,-0.03,20.23
12192,0.1553,-0.2227,0.8693,-6.02,7.63,-0.15,20.21
12202,0.1552,-0.2218,0.8666,-6.03,7.73,-0.09,20.23
12212,0.153,-0.2198,0.8647,-6.11,7.82,-0.08,20.21
12222,0.1523,-0.2223,0.8633,-6.09,7.83,0.02,20.22
12232,0.153,-0.2241,0.8689,-5.97,7.8,-0.03,20.23
12242,0.151,-0.2229,0.8638,-6.0,7.6,-0.08,20.21
12252,0.151,-0.2219,0.8628,-6.12,7.56,-0.14,20.2
12262,0.1514,-0.2195,0.864,-6.11,7.6,-0.02,20.21
12272,0.1538,-0.2179,0.8604,-6.11,7.77,-0.03,20.24
12282,0.1523,-0.2225,0.8649,-5.85,7.88,0.03,20.2
12292,0.1499,-0.219,0.8661,-5.95,7.8,-0.05,20.2
12302,0.152,-0.2238,0.8702,-6.15,7.68,-0.02,20.2
12312,0.1515,-0.2216,0.863,-6.23,7.53,-0.06,20.22
12322,0.1565,-0.224,0.8616,-6.27,7.66,-0.06,20.22
12332,0.157,-0.2251,0.859,-6.15,7.89,0.02,20.22
12342,0.1538,-0.2244,0.8641,-6.0,8.06,-0.02,20.22
12352,0.1515,-0.2274,0.8651,-5.89,7.95,0.06,20.21
12362,0.1499,-0.2239,0.8669,-5.91,7.73,-0.02,20.23
12372,0.1515,-0.2196,0.8677,-5.98,7.51,-0.08,20.25
12382,0.1521,-0.2198,0.8669,-6.02,7.59,0.03,20.24
12392,0.1521,-0.2202,0.8635,-6.08,7.88,0.05,20.2
12402,0.152,-0.2175,0.8667,-6.05,7.89,-0.06,20.23
12412,0.1509,-0.2185,0.8656,-5.94,7.74,-0.05,20.26
12422,0.1555,-0.2217,0.8679,-5.95,7.73,-0.03,20.24
12432,0.1541,-0.2207,0.8722,-5.97,7.65,-0.06,20.23
12442,0.156,-0.2203,0.8671,-6.15,7.74,-0.05,20.22
12452,0.1558,-0.2236,0.8694,-6.08,7.76,0.11,20.23
12462,0.1549,-0.2202,0.8633,-6.14,7.76,0.0,20.22
12472,0.1528,-0.222,0.864,-6.12,7.71,0.02,20.23
12482,0.1559,-0.2218,0.8641,-6.0,7.6,-0.06,20.24
12492,0.157,-0.2202,0.8649,-5.91,7.73,-0.14,20.24
12502,0.1538,-0.222,0.8668,-6.0,7.8,-0.05,20.25
12512,0.1545,-0.2213,0.8685,-6.12,7.86,-0.06,20.23
12522,0.1504,-0.2249,0.8668,-6.29,8.0,-0.08,20.24
12532,0.1544,-0.2249,0.8629,-6.18,7.86,-0.03,20.22
12542,0.1549,-0.2236,0.8608,-6.09,7.71,-0.02,20.23
12552,0.1498,-0.2211,0.8632,-5.89,7.53,-0.06,20.24
12562,0.1528,-0.2185,0.8604,-5.77,7.56,-0.02,20.21
12572,0.1503,-0.2152,0.8676,-5.76,7.68,-0.02,20.22
12582,0.1533,-0.2177,0.8662,-5.88,7.77,-0.08,20.24
12592,0.1521,-0.2155,0.8662,-6.02,7.74,-0.05,20.24
12602,0.1479,-0.2162,0.8656,-6.12,7.76,-0.06,20.24
12612,0.1538,-0.2217,0.8628,-6.31,7.77,-0.11,20.24
12622,0.1521,-0.2242,0.8651,-6.29,7.85,-0.05,20.23
12632,0.1564,-0.2249,0.8644,-6.11,7.86,-0.03,20.23
12642,0.1543,-0.2256,0.8639,-5.94,7.91,0.0,20.25
12652,0.1509,-0.2241,0.8611,-5.89,7.74,-0.02,20.24
12662,0.1499,-0.2222,0.8668,-5.83,7.74,0.06,20.23
12672,0.15,-0.2212,0.8656,-5.94,7.69,-0.02,20.25
12682,0.15,-0.2223,0.8666,-6.06,7.8,-0.06,20.27
12692,0.1505,-0.2213,0.8662,-6.12,7.85,0.06,20.23
12702,0.1501,-0.2207,0.8661,-6.12,7.8,-0.06,20.23
12712,0.1528,-0.2206,0.8658,-5.97,7.65,-0.09,20.22
12722,0.1539,-0.223,0.8657,-5.95,7.59,-0.02,20.24
12732,0.1548,-0.2217,0.8668,-5.91,7.66,-0.02,20.24
12742,0.1542,-0.2212,0.8687,-5.82,7.68,-0.02,20.27
12752,0.1521,-0.2225,0.8705,-6.02,7.69,0.03,20.24
12762,0.1525,-0.2191,0.8655,-5.97,7.74,-0.09,20.22
12772,0.1545,-0.2146,0.866,-5.88,7.66,-0.02,20.24
12782,0.1533,-0.2181,0.8621,-6.12,7.79,-0.05,20.24
12792,0.1537,-0.2163,0.8654,-6.06,7.68,-0.03,20.23
12802,0.1501,-0.2189,0.8671,-6.06,7.8,-0.05,20.22
12812,0.1537,-0.2198,0.8719,-6.09,7.88,-0.06,20.25
12822,0.1543,-0.2203,0.8672,-6.02,7.76,-0.05,20.24
12832,0.1558,-0.2217,0.8652,-6.18,7.68,-0.03,20.25
12842,0.1545,-0.2195,0.8628,-6.08,7.59,0.03,20.24
12852,0.1547,-0.219,0.8597,-6.02,7.56,-0.05,20.26
12862,0.1554,-0.2209,0.86,-6.02,7.6,-0.08,20.26
12872,0.1539,-0.2205,0.8646,-5.83,7.74,-0.06,20.22
12882,0.152,-0.2208,0.8667,-5.92,7.66,0.02,20.23
12892,0.1558,-0.2208,0.869,-6.06,7.69,-0.05,20.25
12902,0.1534,-0.2191,0.8655,-6.14,7.63,-0.12,20.23
12912,0.1508,-0.2222,0.8618,-6.2,7.73,-0.08,20.25
12922,0.152,-0.2233,0.863,-6.17,7.66,-0.08,20.26
12932,0.152,-0.2235,0.8586,-6.06,7.82,-0.06,20.22
12942,0.1511,-0.222,0.866,-5.85,7.83,-0.06,20.24
12952,0.1511,-0.223,0.8674,-5.95,7.76,0.03,20.25
12962,0.1531,-0.2212,0.8699,-6.03,7.69,-0.05,20.25
12972,0.1506,-0.2211,0.866,-6.11,7.62,-0.08,20.24
12982,0.152,-0.2213,0.8677,-6.23,7.63,-0.09,20.25
12992,0.1528,-0.2225,0.864,-6.29,7.63,-0.09,20.23
13002,0.1533,-0.2177,0.8629,-6.15,7.85,-0.09,20.24
13012,0.1523,-0.2211,0.8628,-6.0,7.79,0.0,20.26
13022,0.152,-0.2209,0.8665,-5.85,7.77,-0.08,20.24
13032,0.1534,-0.223,0.8663,-5.98,7.65,-0.08,20.22
13042,0.1534,-0.22,0.8694,-6.11,7.56,-0.06,20.25
13052,0.1567,-0.2216,0.8636,-6.18,7.66,0.0,20.2
13062,0.1548,-0.2216,0.8611,-6.06,7.8,-0.08,20.23
13072,0.1533,-0.2247,0.8647,-5.98,7.83,0.05,20.25
13082,0.1527,-0.2227,0.8645,-5.8,7.79,0.02,20.24
13092,0.1528,-0.2228,0.8688,-5.82,7.66,0.05,20.25
13102,0.1538,-0.2216,0.8699,-5.97,7.56,-0.02,20.23
13112,0.1561,-0.2211,0.8704,-5.97,7.66,-0.06,20.23
13122,0.1534,-0.2218,0.868,-6.24,7.77,-0.09,20.25
13132,0.1514,-0.2262,0.864,-6.15,7.83,-0.03,20.24
13142,0.1543,-0.2272,0.8599,-6.15,7.82,-0.09,20.23
13152,0.1522,-0.2266,0.8651,-6.08,7.79,0.0,20.25
13162,0.1549,-0.2252,0.8651,-5.85,7.71,-0.02,20.23
13172,0.1532,-0.2228,0.8656,-5.92,7.73,0.03,20.24
13182,0.1528,-0.2202,0.8688,-5.95,7.71,-0.03,20.22
13192,0.1531,-0.22,0.8658,-5.95,7.74,0.05,20.25
13202,0.1498,-0.2205,0.8669,-6.11,7.76,0.02,20.22
13212,0.1492,-0.2211,0.8652,-6.03,7.76,-0.08,20.26
13222,0.1531,-0.2211,0.8679,-6.0,7.68,-0.08,20.25
13232,0.1514,-0.2214,0.8602,-5.98,7.69,-0.02,20.25
13242,0.1505,-0.2201,0.8605,-5.92,7.68,0.02,20.24
13252,0.1516,-0.2189,0.8638,-5.94,7.73,-0.03,20.24
13262,0.1499,-0.2185,0.8641,-5.94,7.57,0.03,20.25
13272,0.1541,-0.2167,0.8657,-6.03,7.66,0.03,20.24
13282,0.1553,-0.217,0.8655,-6.02,7.65,-0.02,20.24
13292,0.1545,-0.2174,0.8684,-6.05,7.69,-0.08,20.27
13302,0.1548,-0.2179,0.8645,-6.11,7.76,-0.12,20.24
13312,0.1554,-0.22,0.8629,-6.15,7.82,-0.05,20.27
13322,0.1553,-0.2189,0.8691,-6.14,7.73,-0.02,20.24
13332,0.1594,-0.2234,0.8615,-6.2,7.69,-0.03,20.23
13342,0.1552,-0.2229,0.8682,-6.03,7.66,-0.06,20.24
13352,0.1539,-0.2209,0.8647,-6.06,7.74,-0.08,20.24
13362,0.1534,-0.2224,0.8682,-6.03,7.71,-0.09,20.25
13372,0.1511,-0.2256,0.8669,-6.08,7.76,-0.05,20.24
13382,0.1514,-0.2256,0.8645,-6.05,7.79,0.03,20.25
13392,0.1533,-0.225,0.8658,-6.11,7.71,0.02,20.28
13402,0.153,-0.2235,0.8652,-5.94,7.8,0.03,20.24
13412,0.1526,-0.2229,0.8649,-5.97,7.83,0.02,20.24
13422,0.1532,-0.2236,0.866,-5.94,7.83,-0.05,20.24
13432,0.1552,-0.2217,0.865,-5.92,7.77,0.05,20.23
13442,0.1534,-0.2256,0.865,-5.94,7.82,-0.08,20.24
13452,0.1539,-0.2247,0.8651,-5.89,7.74,-0.05,20.24
13462,0.153,-0.2239,0.8645,-5.94,7.69,-0.06,20.23
13472,0.1532,-0.2222,0.8643,-6.08,7.69,0.0,20.23
13482,0.1516,-0.2205,0.8619,-5.98,7.63,-0.03,20.24
13492,0.1512,-0.2164,0.8646,-6.0,7.69,0.06,20.27
13502,0.1501,-0.2189,0.8597,-6.05,7.73,-0.05,20.25
13512,0.1522,-0.219,0.8622,-6.06,7.76,0.09,20.23
13522,0.1523,-0.2169,0.8644,-6.02,7.69,-0.08,20.24
13532,0.1523,-0.2205,0.8704,-6.05,7.85,-0.06,20.22
13542,0.1539,-0.2206,0.8632,-6.03,7.74,-0.05,20.23
13552,0.155,-0.2196,0.8644,-6.23,7.57,-0.12,20.23
13562,0.1547,-0.2213,0.8634,-6.2,7.54,-0.14,20.24
13572,0.1522,-0.2225,0.8654,-6.14,7.65,-0.02,20.26
13582,0.1539,-0.2206,0.8668,-5.95,7.66,-0.12,20.23
13592,0.1526,-0.2183,0.8698,-6.03,7.66,-0.06,20.22
13602,0.1547,-0.2192,0.8671,-6.08,7.59,-0.08,20.22
13612,0.156,-0.2195,0.8616,-6.27,7.56,-0.15,20.24
13622,0.1562,-0.22,0.8629,-6.24,7.66,-0.21,20.27
13632,0.1544,-0.2213,0.8647,-6.02,7.73,-0.14,20.25
13642,0.1521,-0.2238,0.8655,-6.06,7.8,-0.05,20.27
13652,0.1506,-0.2235,0.8621,-5.94,7.77,-0.08,20.25
13662,0.1493,-0.225,0.8667,-5.95,7.66,-0.06,20.26
13672,0.152,-0.2223,0.8647,-6.06,7.68,-0.05,20.23
13682,0.1543,-0.2224,0.8678,-5.98,7.68,0.02,20.24
13692,0.1531,-0.2231,0.8674,-6.06,7.83,0.0,20.23
13702,0.1514,-0.2246,0.8683,-6.11,7.88,-0.03,20.22
13712,0.1503,-0.2247,0.8682,-6.18,7.85,-0.03,20.24
13722,0.1523,-0.2257,0.8624,-6.0,7.8,-0.03,20.24
13732,0.1493,-0.2223,0.8658,-6.0,7.65,-0.02,20.27
13742,0.152,-0.2223,0.8657,-5.97,7.73,0.02,20.27
13752,0.1512,-0.2196,0.8706,-5.77,7.63,0.0,20.26
13762,0.1521,-0.2209,0.8677,-5.86,7.76,-0.03,20.24
13772,0.1531,-0.2195,0.8689,-5.88,7.66,-0.09,20.28
13782,0.1501,-0.2186,0.8636,-5.89,7.6,-0.03,20.26
13792,0.1533,-0.2145,0.8652,-5.92,7.56,0.02,20.24
13802,0.1552,-0.217,0.8688,-6.03,7.74,-0.02,20.25
13812,0.1545,-0.2189,0.8689,-5.97,7.83,-0.05,20.27
13822,0.1539,-0.2159,0.8652,-6.03,7.82,-0.05,20.25
13832,0.1533,-0.2175,0.8625,-6.12,7.74,0.0,20.25
13842,0.155,-0.2216,0.8673,-6.09,7.57,-0.03,20.24
13852,0.1531,-0.2196,0.8589,-6.17,7.76,-0.06,20.23
13862,0.1533,-0.2258,0.8616,-6.0,7.76,-0.03,20.23
13872,0.1531,-0.2196,0.8649,-6.02,7.86,0.0,20.25
13882,0.1514,-0.2209,0.8645,-6.06,7.74,-0.03,20.25
13892,0.1515,-0.2189,0.8638,-6.12,7.65,-0.11,20.24
13902,0.1531,-0.2205,0.8662,-6.08,7.57,-0.12,20.24
13912,0.1534,-0.2234,0.8652,-6.15,7.69,-0.14,20.26
13922,0.1534,-0.2242,0.8672,-6.15,7.83,-0.11,20.25
13932,0.1533,-0.2267,0.8605,-6.2,7.86,-0.03,20.22
13942,0.1541,-0.2267,0.865,-6.05,7.91,-0.05,20.25
13952,0.1543,-0.226,0.8683,-6.03,7.66,-0.12,20.24
13962,0.1528,-0.2224,0.8629,-5.97,7.59,-0.06,20.25
13972,0.1536,-0.2234,0.8677,-5.95,7.6,-0.05,20.25
13982,0.1554,-0.2211,0.8628,-5.89,7.71,0.03,20.25
13992,0.1543,-0.2241,0.87,-5.95,7.86,0.0,20.24
14002,0.1506,-0.222,0.8732,-5.97,7.83,-0.06,20.25
14012,0.1515,-0.2235,0.8669,-6.18,7.74,-0.02,20.27
14022,0.1501,-0.2211,0.8682,-6.11,7.63,-0.08,20.26
14032,0.1534,-0.222,0.8672,-6.15,7.76,0.02,20.25
14042,0.1521,-0.2234,0.8633,-5.98,7.74,-0.02,20.23
14052,0.1531,-0.2228,0.8657,-5.98,7.77,-0.02,20.27
14062,0.1528,-0.2229,0.8661,-5.88,7.69,-0.05,20.25
14072,0.1539,-0.2202,0.8676,-5.94,7.65,-0.03,20.26
14082,0.1532,-0.218,0.8679,-6.17,7.59,-0.05,20.27
14092,0.1521,-0.2194,0.8643,-6.08,7.53,-0.02,20.27
14102,0.1547,-0.2192,0.8618,-6.12,7.73,-0.06,20.27
14112,0.1532,-0.2202,0.8624,-6.17,7.76,-0.06,20.24
14122,0.1512,-0.2167,0.8628,-6.03,7.88,0.05,20.24
14132,0.1528,-0.2208,0.8638,-5.98,7.8,-0.08,20.27
14142,0.1511,-0.2203,0.865,-6.08,7.54,-0.15,20.24
14152,0.1554,-0.2184,0.8669,-6.14,7.51,-0.05,20.25
14162,0.1554,-0.2188,0.8604,-6.2,7.66,-0.05,20.24
14172,0.1531,-0.2229,0.8662,-6.18,7.82,0.0,20.27
14182,0.1537,-0.2244,0.8643,-6.08,7.86,0.0,20.25
14192,0.1508,-0.2242,0.8676,-5.88,8.03,0.0,20.26
14202,0.1493,-0.2233,0.87,-5.97,7.79,-0.03,20.26
14212,0.1538,-0.2233,0.8667,-6.02,7.62,0.0,20.27
14222,0.1538,-0.2233,0.8676,-6.06,7.5,-0.06,20.26
14232,0.1532,-0.2222,0.866,-6.09,7.69,-0.05,20.26
14242,0.1531,-0.2241,0.8621,-6.06,7.85,0.05,20.25
14252,0.1511,-0.2208,0.8672,-6.05,7.86,-0.05,20.26
14262,0.1526,-0.2216,0.8683,-5.97,7.74,-0.06,20.25
14272,0.1534,-0.2213,0.8698,-5.94,7.62,0.05,20.26
14282,0.1539,-0.2213,0.8676,-6.08,7.65,-0.05,20.25
14292,0.1512,-0.2217,0.8682,-6.11,7.85,0.02,20.26
14302,0.1514,-0.2228,0.8687,-6.02,7.88,0.08,20.25
14312,0.1541,-0.2203,0.8662,-6.08,7.73,-0.06,20.25
14322,0.1522,-0.2216,0.8639,-6.08,7.76,-0.12,20.24
14332,0.153,-0.2224,0.866,-6.08,7.68,0.02,20.27
14342,0.1566,-0.2231,0.8649,-6.05,7.68,-0.06,20.26
14352,0.1544,-0.2191,0.8622,-6.06,7.77,-0.05,20.25
14362,0.1548,-0.2233,0.8641,-6.05,7.74,-0.02,20.26
14372,0.1537,-0.2194,0.8643,-5.94,7.65,-0.09,20.25
14382,0.1548,-0.2197,0.8632,-5.92,7.6,-0.06,20.27
14392,0.156,-0.2186,0.8689,-5.95,7.76,-0.09,20.26
14402,0.1577,-0.2196,0.8707,-6.06,7.85,-0.08,20.26
14412,0.1553,-0.2231,0.8688,-6.11,7.76,-0.03,20.25
14422,0.1512,-0.2216,0.8695,-6.23,7.73,-0.09,20.24
14432,0.1504,-0.2228,0.8635,-6.05,7.63,-0.08,20.24
14442,0.1528,-0.2207,0.8599,-5.97,7.57,-0.06,20.27
14452,0.1517,-0.2183,0.8616,-5.91,7.62,0.0,20.26
14462,0.1539,-0.2177,0.8618,-5.82,7.71,0.0,20.25
14472,0.1506,-0.2166,0.8649,-5.94,7.79,-0.06,20.28
14482,0.1538,-0.2191,0.8662,-6.15,7.73,-0.09,20.26
14492,0.1538,-0.2186,0.8678,-6.24,7.76,-0.02,20.26
14502,0.153,-0.2235,0.8623,-6.21,7.73,-0.05,20.27
14512,0.157,-0.2223,0.8585,-6.12,7.79,-0.02,20.27
14522,0.1554,-0.2227,0.8643,-5.94,7.91,-0.02,20.27
14532,0.1538,-0.2224,0.8645,-5.86,7.74,0.02,20.27
14542,0.1508,-0.2262,0.8713,-5.92,7.71,-0.06,20.28
14552,0.1527,-0.2229,0.8665,-5.94,7.63,-0.05,20.27
14562,0.1514,-0.2219,0.8629,-6.09,7.69,-0.02,20.27
14572,0.1511,-0.224,0.8635,-6.17,7.79,-0.05,20.3
14582,0.1525,-0.222,0.8615,-6.05,7.97,0.02,20.26
14592,0.1498,-0.2213,0.8616,-5.86,7.83,-0.03,20.26
14602,0.1523,-0.2217,0.8678,-5.97,7.66,-0.11,20.24
14612,0.152,-0.2202,0.8699,-5.83,7.65,-0.09,20.27
14622,0.1538,-0.2218,0.8683,-5.95,7.62,-0.05,20.25
14632,0.1526,-0.2195,0.8652,-6.14,7.74,-0.05,20.26
14642,0.1532,-0.218,0.8633,-6.08,7.76,0.02,20.26
14652,0.1517,-0.2185,0.864,-6.03,7.79,0.03,20.26
14662,0.1509,-0.217,0.8599,-5.88,7.73,0.0,20.27
14672,0.1528,-0.2183,0.8618,-5.94,7.66,-0.05,20.25
14682,0.1543,-0.2188,0.863,-5.95,7.73,-0.03,20.25
14692,0.1548,-0.217,0.8694,-6.02,7.71,-0.03,20.24
14702,0.1531,-0.2218,0.8639,-6.12,7.79,-0.02,20.28
14712,0.1536,-0.2208,0.8661,-6.23,7.77,0.0,20.27
14722,0.1549,-0.2211,0.8627,-6.14,7.65,-0.08,20.27
14732,0.1539,-0.2222,0.8633,-6.15,7.65,-0.05,20.26
14742,0.1545,-0.2222,0.8633,-6.14,7.65,-0.03,20.26
14752,0.1556,-0.2233,0.8632,-6.05,7.88,0.05,20.26
14762,0.1559,-0.2213,0.8717,-5.97,7.97,0.0,20.26
14772,0.1547,-0.226,0.874,-6.03,7.97,0.03,20.25
14782,0.1521,-0.2249,0.8684,-6.11,7.68,-0.09,20.26
14792,0.1509,-0.2234,0.8679,-6.03,7.56,-0.08,20.27
14802,0.153,-0.2229,0.8658,-6.02,7.51,-0.03,20.27
14812,0.1514,-0.2194,0.8572,-6.0,7.59,-0.06,20.26
14822,0.1516,-0.2158,0.8605,-5.79,7.68,-0.03,20.24
14832,0.1483,-0.2156,0.8666,-5.77,7.74,-0.09,20.24
14842,0.1509,-0.2134,0.8679,-5.91,7.56,-0.12,20.24
14852,0.1519,-0.2174,0.8688,-6.17,7.42,-0.12,20.27
14862,0.1537,-0.2188,0.8691,-6.35,7.63,-0.09,20.27
14872,0.1561,-0.22,0.8652,-6.34,7.76,-0.09,20.24
14882,0.157,-0.2242,0.8649,-6.17,7.92,-0.02,20.26
14892,0.1561,-0.2251,0.8678,-5.98,7.86,-0.06,20.27
14902,0.1555,-0.225,0.8666,-6.0,7.59,-0.08,20.27
14912,0.1539,-0.2278,0.8706,-5.97,7.56,-0.12,20.26
14922,0.1511,-0.2211,0.8668,-6.0,7.65,0.03,20.24
14932,0.1503,-0.2239,0.8652,-6.14,7.82,0.02,20.26
14942,0.1498,-0.223,0.8651,-6.11,7.83,-0.08,20.24
14952,0.1506,-0.2236,0.8643,-6.11,7.8,-0.02,20.23
14962,0.1478,-0.2206,0.8627,-5.98,7.63,-0.06,20.24
14972,0.1509,-0.2238,0.8671,-5.98,7.57,-0.03,20.27
14982,0.1464,-0.223,0.8646,-6.12,7.68,0.03,20.23
14992,0.1512,-0.2244,0.8641,-6.03,7.79,0.02,20.26
15002,0.1534,-0.2245,0.8622,-5.95,7.79,-0.06,20.25
15012,0.1525,-0.2233,0.8651,-5.95,7.65,-0.03,20.25
15022,0.151,-0.2189,0.8623,-5.88,7.63,0.06,20.26
15032,0.1541,-0.2252,0.8679,-5.82,7.68,0.0,20.28
15042,0.1556,-0.2213,0.8652,-5.98,7.82,-0.03,20.23
15052,0.152,-0.217,0.8684,-6.09,7.91,-0.02,20.26
15062,0.1508,-0.2163,0.8661,-6.09,7.77,-0.05,20.26
15072,0.1516,-0.2156,0.8634,-6.11,7.68,0.03,20.26
15082,0.1517,-0.218,0.8595,-6.11,7.69,-0.08,20.27
15092,0.152,-0.2163,0.8562,-6.08,7.71,-0.02,20.27
15102,0.1522,-0.2157,0.8594,-5.91,7.82,-0.02,20.24
15112,0.1488,-0.2184,0.8641,-5.94,7.69,-0.08,20.25
15122,0.1506,-0.2163,0.8663,-6.06,7.63,-0.09,20.25
15132,0.1536,-0.2163,0.8608,-6.12,7.65,-0.11,20.27
15142,0.1559,-0.2208,0.866,-6.2,7.73,-0.15,20.26
15152,0.1569,-0.2202,0.863,-6.21,7.79,-0.02,20.26
15162,0.1575,-0.2234,0.8636,-6.2,7.95,0.06,20.27
15172,0.155,-0.2213,0.8666,-6.05,7.79,-0.06,20.27
15182,0.1533,-0.2224,0.8662,-6.03,7.57,-0.09,20.28
15192,0.1542,-0.2222,0.865,-6.03,7.56,-0.08,20.25
15202,0.1531,-0.219,0.8688,-6.06,7.6,-0.11,20.26
15212,0.153,-0.2179,0.8655,-6.08,7.68,-0.03,20.26
15222,0.1533,-0.2201,0.866,-6.18,7.83,-0.03,20.28
15232,0.1531,-0.2257,0.8632,-6.05,7.82,-0.06,20.25
15242,0.1503,-0.2258,0.8702,-6.03,7.92,-0.03,20.27
15252,0.1517,-0.2273,0.8729,-6.08,7.83,-0.05,20.26
15262,0.1483,-0.2294,0.871,-6.14,7.74,-0.05,20.26
15272,0.1505,-0.2253,0.8665,-6.17,7.79,0.03,20.26
15282,0.1462,-0.2249,0.8678,-6.06,7.66,-0.09,20.27
15292,0.1514,-0.2223,0.8657,-6.05,7.66,-0.11,20.28
15302,0.1526,-0.2175,0.8645,-5.83,7.65,-0.06,20.26
15312,0.1477,-0.2181,0.8633,-5.77,7.68,0.02,20.27
15322,0.1526,-0.217,0.8713,-5.91,7.8,-0.02,20.29
15332,0.1525,-0.2197,0.8689,-6.12,7.83,-0.06,20.28
15342,0.1523,-0.2198,0.8656,-6.05,7.76,0.0,20.25
15352,0.1533,-0.2234,0.8621,-6.12,7.73,-0.03,20.26
15362,0.1552,-0.2212,0.8634,-6.09,7.73,0.02,20.27
15372,0.1545,-0.2234,0.8632,-6.06,7.83,0.03,20.28
15382,0.1514,-0.2225,0.8656,-5.91,7.8,0.11,20.29
15392,0.1517,-0.2209,0.8644,-5.92,7.76,-0.08,20.28
15402,0.1527,-0.2205,0.8623,-5.95,7.63,-0.05,20.28
15412,0.1526,-0.2206,0.8656,-6.11,7.83,-0.05,20.27
15422,0.153,-0.2205,0.8644,-6.03,7.89,0.08,20.27
15432,0.1501,-0.2256,0.8638,-6.11,7.91,0.02,20.27
15442,0.1536,-0.226,0.8667,-6.08,7.82,0.02,20.29
15452,0.1523,-0.2251,0.8668,-6.02,7.82,0.06,20.26
15462,0.1531,-0.2302,0.8668,-5.76,7.8,0.03,20.25
15472,0.1549,-0.2278,0.8645,-5.83,7.89,0.09,20.29
15482,0.1534,-0.2247,0.8647,-5.8,7.86,0.06,20.27
15492,0.151,-0.2225,0.8676,-5.91,7.74,0.08,20.28
15502,0.1482,-0.2201,0.8651,-5.79,7.74,0.02,20.28
15512,0.151,-0.2146,0.8656,-5.79,7.63,-0.05,20.26
15522,0.1506,-0.2144,0.8651,-5.77,7.63,0.0,20.26
15532,0.1499,-0.2159,0.8672,-5.77,7.76,-0.12,20.26
15542,0.1525,-0.2151,0.8673,-5.86,7.94,0.02,20.29
15552,0.1519,-0.2175,0.8717,-6.03,7.88,0.02,20.26
15562,0.155,-0.2212,0.8732,-6.02,7.77,0.0,20.29
15572,0.1532,-0.2198,0.8661,-6.12,7.74,0.03,20.29
15582,0.1534,-0.2217,0.8643,-6.08,7.6,-0.12,20.27
15592,0.1554,-0.2213,0.8643,-6.05,7.65,-0.05,20.27
15602,0.1542,-0.2206,0.8657,-5.95,7.74,0.0,20.26
15612,0.1556,-0.2179,0.8647,-5.85,7.83,-0.02,20.27
15622,0.1545,-0.2148,0.8739,-5.95,7.86,-0.02,20.27
15632,0.152,-0.2174,0.8717,-6.09,7.8,0.02,20.28
15642,0.1556,-0.2228,0.8649,-6.26,7.62,0.03,20.28
15652,0.1531,-0.2249,0.864,-6.37,7.82,0.08,20.28
15662,0.1549,-0.2236,0.8578,-6.18,7.89,-0.03,20.29
15672,0.1483,-0.2209,0.8635,-5.95,7.8,-0.02,20.27
15682,0.1479,-0.2205,0.8612,-5.88,7.56,-0.02,20.28
15692,0.1521,-0.2213,0.8654,-5.88,7.44,0.06,20.29
15702,0.1537,-0.2195,0.8667,-5.91,7.57,-0.02,20.29
15712,0.1543,-0.2216,0.8652,-5.95,7.86,0.12,20.27
15722,0.1534,-0.2191,0.8666,-6.17,8.11,0.09,20.28
15732,0.1497,-0.2228,0.869,-6.05,8.12,0.02,20.28
15742,0.1473,-0.2251,0.8676,-6.15,7.79,-0.02,20.24
15752,0.1539,-0.224,0.8646,-6.11,7.51,-0.11,20.27
15762,0.1548,-0.222,0.8597,-6.06,7.45,-0.03,20.29
15772,0.155,-0.2203,0.8635,-5.83,7.77,-0.03,20.26
15782,0.1512,-0.217,0.8639,-5.69,7.91,0.08,20.26
15792,0.1508,-0.2148,0.8713,-5.77,7.8,0.03,20.31
15802,0.1494,-0.2139,0.8684,-5.98,7.53,-0.08,20.28
15812,0.1536,-0.2157,0.8679,-6.17,7.33,-0.12,20.29
15822,0.1569,-0.2163,0.8712,-6.18,7.69,-0.09,20.27
15832,0.1578,-0.2236,0.8674,-6.17,8.15,0.0,20.26
15842,0.156,-0.2273,0.8715,-6.08,8.29,0.12,20.28
15852,0.1509,-0.225,0.8717,-6.03,7.91,-0.02,20.27
15862,0.1516,-0.2273,0.8673,-6.14,7.44,-0.02,20.28
15872,0.1539,-0.2258,0.8624,-6.0,7.27,-0.06,20.28
15882,0.1542,-0.2192,0.8623,-5.94,7.63,0.08,20.26
15892,0.1521,-0.2148,0.8621,-5.86,7.92,0.08,20.25
15903,0.1487,-0.2146,0.8613,-5.85,7.98,-0.03,20.27
15913,0.1531,-0.2195,0.8695,-5.83,7.76,-0.14,20.28
15923,0.1505,-0.2188,0.8726,-5.98,7.62,-0.11,20.26
15933,0.1556,-0.2188,0.8713,-6.15,7.53,-0.15,20.27
15943,0.1516,-0.2227,0.863,-6.32,7.73,0.02,20.29
15953,0.1523,-0.225,0.8582,-6.35,7.91,0.0,20.29
15963,0.1526,-0.2255,0.8594,-5.97,7.89,0.0,20.28
15973,0.1528,-0.2219,0.8599,-5.8,7.71,-0.02,20.27
15983,0.1517,-0.2166,0.863,-5.5,7.71,0.11,20.27
15993,0.155,-0.2156,0.8704,-5.6,7.69,0.03,20.28
16003,0.1545,-0.2144,0.8754,-5.89,7.68,-0.03,20.29
16013,0.1526,-0.218,0.8738,-6.27,7.71,-0.05,20.27
16023,0.1536,-0.2158,0.8627,-6.41,7.71,0.05,20.28
16033,0.1515,-0.2188,0.859,-6.23,7.92,-0.02,20.26
16043,0.1508,-0.2236,0.8595,-6.02,8.0,0.0,20.27
16054,0.1526,-0.2244,0.8622,-5.88,7.79,0.02,20.28
16064,0.15,-0.2186,0.8624,-5.82,7.73,-0.03,20.26
16074,0.1526,-0.2206,0.874,-5.89,7.69,0.02,20.28
16084,0.1508,-0.2225,0.865,-6.09,7.71,0.03,20.28
16094,0.1519,-0.2209,0.8679,-6.03,7.77,0.08,20.28
16104,0.1511,-0.2217,0.8694,-6.0,7.8,-0.02,20.27
16114,0.1493,-0.2214,0.8685,-5.85,7.86,0.11,20.28
16124,0.1484,-0.2191,0.8691,-5.83,7.73,0.05,20.31
16134,0.1472,-0.2227,0.8671,-5.89,7.62,-0.02,20.28
16144,0.1536,-0.2208,0.8688,-6.14,7.71,-0.11,20.29
16154,0.1558,-0.2219,0.8643,-6.03,7.89,-0.12,20.28
16164,0.1515,-0.2213,0.8629,-5.97,8.02,0.0,20.3
16174,0.1501,-0.2209,0.8611,-5.91,7.89,0.03,20.29
16184,0.1501,-0.2212,0.8673,-5.92,7.73,0.03,20.29
16194,0.1519,-0.2183,0.8643,-5.79,7.42,-0.08,20.29
16204,0.1567,-0.215,0.8639,-5.79,7.48,-0.06,20.3
16214,0.1555,-0.2161,0.8646,-5.92,7.71,-0.06,20.27
16224,0.1545,-0.2145,0.8666,-5.94,7.77,-0.03,20.28
16234,0.1547,-0.2145,0.8652,-6.17,7.71,-0.05,20.27
16244,0.1552,-0.2169,0.8677,-6.14,7.54,-0.06,20.29
16254,0.1566,-0.214,0.8604,-6.21,7.5,-0.15,20.27
16264,0.1569,-0.2169,0.8619,-6.2,7.6,-0.12,20.31
16274,0.1584,-0.2209,0.8617,-6.15,7.8,-0.06,20.27
16284,0.1539,-0.2206,0.864,-6.08,7.92,0.0,20.28
16294,0.152,-0.2184,0.8646,-5.97,7.88,-0.02,20.27
16304,0.1503,-0.2207,0.8638,-6.03,7.66,-0.08,20.29
16314,0.1479,-0.2164,0.8646,-6.14,7.57,-0.17,20.27
16324,0.1501,-0.2162,0.8671,-6.09,7.56,-0.15,20.27
16334,0.1493,-0.2164,0.8646,-6.14,7.69,-0.14,20.27
16344,0.1504,-0.2157,0.8616,-6.21,7.79,-0.12,20.26
16354,0.1514,-0.2186,0.8676,-6.34,7.76,-0.21,20.25
16364,0.1532,-0.2222,0.8635,-6.18,7.63,-0.23,20.28
16374,0.155,-0.2253,0.8643,-6.05,7.6,-0.18,20.28
16384,0.1572,-0.2242,0.8632,-6.27,7.59,-0.02,20.27
16394,0.1539,-0.2247,0.8656,-6.27,7.73,-0.03,20.3
16404,0.1533,-0.2272,0.8621,-6.15,7.8,0.0,20.26
16414,0.1514,-0.2262,0.8607,-5.98,7.82,0.05,20.28
16424,0.1493,-0.2235,0.8644,-5.98,7.73,-0.09,20.31
16434,0.1506,-0.2206,0.8716,-5.77,7.71,0.0,20.29
16444,0.1495,-0.2189,0.8756,-5.95,7.68,-0.06,20.26
16454,0.1517,-0.22,0.8733,-6.11,7.76,-0.06,20.27
16464,0.1488,-0.2216,0.8644,-6.21,7.74,-0.05,20.26
16474,0.1482,-0.2247,0.8608,-6.06,7.68,-0.06,20.27
16484,0.1503,-0.2228,0.8627,-6.15,7.73,-0.02,20.27
16494,0.1519,-0.2268,0.8618,-6.05,7.69,-0.05,20.3
16504,0.1542,-0.2252,0.8643,-6.02,7.73,-0.05,20.27
16514,0.1523,-0.2241,0.8668,-5.97,7.76,0.02,20.26
16524,0.1541,-0.2195,0.8657,-5.94,7.56,0.02,20.27
16534,0.1506,-0.2191,0.8622,-6.03,7.63,0.03,20.29
16544,0.1544,-0.2167,0.8646,-6.05,7.69,0.03,20.27
16554,0.1553,-0.2192,0.8649,-6.06,7.74,-0.06,20.28
16564,0.155,-0.2185,0.8635,-5.97,7.77,-0.03,20.27
16574,0.1536,-0.2207,0.8619,-6.05,7.86,-0.08,20.28
16584,0.1527,-0.2203,0.8674,-5.97,7.82,0.02,20.29
16594,0.151,-0.2211,0.8679,-6.24,7.68,-0.05,20.26
16604,0.1537,-0.2205,0.865,-6.18,7.69,-0.06,20.27
16614,0.1541,-0.2201,0.8579,-6.11,7.76,-0.11,20.27
16624,0.1534,-0.2207,0.8639,-5.92,7.85,0.02,20.28
16634,0.151,-0.2196,0.8633,-5.92,7.95,0.06,20.26
16644,0.1488,-0.2205,0.8717,-5.73,7.89,-0.02,20.29
16654,0.1495,-0.2198,0.8759,-5.89,7.74,0.0,20.3
16664,0.1506,-0.2169,0.8658,-6.11,7.63,-0.09,20.25
16674,0.153,-0.2219,0.8665,-6.12,7.62,-0.17,20.26
16684,0.1543,-0.225,0.86,-6.2,7.71,-0.09,20.27
16694,0.1521,-0.2207,0.8632,-6.02,7.91,-0.02,20.27
16704,0.1508,-0.2239,0.8663,-5.94,7.95,0.02,20.25
16714,0.1509,-0.2218,0.8712,-5.88,7.8,-0.09,20.25
16724,0.1498,-0.2196,0.8724,-5.95,7.66,0.0,20.3
16734,0.1536,-0.2194,0.8668,-6.05,7.54,-0.06,20.27
16744,0.152,-0.2195,0.8672,-6.03,7.68,0.03,20.29
16754,0.1506,-0.219,0.8661,-6.09,7.8,-0.06,20.27
16764,0.1531,-0.218,0.8678,-6.06,7.76,-0.05,20.27
16774,0.1515,-0.2217,0.8673,-6.05,7.73,-0.06,20.29
16784,0.1549,-0.22,0.8676,-6.0,7.54,-0.06,20.3
16794,0.1561,-0.2192,0.865,-6.08,7.68,-0.08,20.29
16804,0.1566,-0.2184,0.8685,-6.15,7.92,0.09,20.29
16814,0.1517,-0.2208,0.8671,-6.26,7.92,0.0,20.26
16824,0.1531,-0.2198,0.8684,-6.17,7.76,0.03,20.27
16834,0.1536,-0.2194,0.8662,-6.03,7.4,-0.14,20.27
16844,0.1527,-0.2229,0.8685,-5.89,7.5,-0.17,20.27
16854,0.1537,-0.2197,0.863,-5.91,7.59,-0.14,20.27
16864,0.1534,-0.2175,0.8621,-5.91,7.86,0.05,20.27
16874,0.1526,-0.2183,0.8718,-5.95,7.91,0.08,20.27
16884,0.1504,-0.2172,0.8701,-6.08,7.83,-0.06,20.28
16894,0.1538,-0.2177,0.8654,-6.02,7.63,-0.09,20.28
16904,0.1528,-0.2185,0.864,-6.08,7.65,-0.05,20.27
16914,0.1536,-0.2188,0.8629,-6.2,7.69,-0.02,20.28
16924,0.1519,-0.2214,0.859,-6.08,7.86,-0.08,20.25
16934,0.1526,-0.2225,0.8647,-5.92,7.92,-0.08,20.28
16944,0.1517,-0.2238,0.8655,-5.92,7.68,-0.09,20.27
16954,0.1487,-0.2194,0.8646,-5.89,7.59,-0.08,20.27
16964,0.15,-0.2184,0.8684,-5.89,7.65,-0.02,20.27
16974,0.1539,-0.2207,0.8673,-6.06,7.85,-0.02,20.29
16984,0.1527,-0.2207,0.863,-6.15,7.88,-0.02,20.3
16994,0.1488,-0.2223,0.869,-6.09,7.79,-0.05,20.28
17004,0.1506,-0.2219,0.8634,-6.17,7.6,-0.03,20.28
17014,0.1541,-0.2241,0.8639,-6.06,7.63,-0.05,20.26
17024,0.1541,-0.223,0.8665,-6.05,7.63,-0.03,20.3
17034,0.1516,-0.2196,0.8621,-6.0,7.79,0.0,20.27
17044,0.1476,-0.2192,0.8677,-5.86,7.83,0.05,20.27
17054,0.153,-0.219,0.8699,-5.92,7.74,-0.05,20.28
17064,0.1504,-0.2177,0.8674,-6.11,7.47,-0.02,20.3
17074,0.1504,-0.2173,0.8666,-6.11,7.57,-0.06,20.3
17084,0.1569,-0.2217,0.8643,-6.09,7.74,-0.02,20.3
17094,0.1528,-0.2209,0.8683,-6.0,7.86,-0.06,20.29
17104,0.1519,-0.2207,0.8658,-6.05,7.94,0.02,20.29
17114,0.1516,-0.2198,0.869,-5.98,7.68,-0.02,20.29
17124,0.1523,-0.2251,0.8685,-6.06,7.57,-0.14,20.3
17134,0.1508,-0.2198,0.8635,-6.06,7.39,-0.02,20.28
17144,0.1542,-0.2203,0.8651,-6.21,7.79,-0.11,20.29
17154,0.1527,-0.2184,0.8625,-5.97,7.76,-0.08,20.29
17164,0.1516,-0.2242,0.8687,-5.89,7.97,-0.02,20.28
17174,0.1487,-0.2219,0.8683,-6.06,7.86,-0.02,20.3
17184,0.1486,-0.2181,0.8596,-6.27,7.54,-0.03,20.28
17194,0.1523,-0.2194,0.8613,-6.03,7.45,-0.06,20.28
17204,0.1569,-0.2197,0.8633,-5.97,7.76,0.0,20.29
17214,0.1523,-0.2191,0.8673,-5.92,8.0,0.05,20.3
17224,0.153,-0.2207,0.8667,-5.98,7.92,-0.06,20.29
17234,0.1538,-0.2239,0.8677,-6.14,7.68,-0.05,20.29
17244,0.1527,-0.2239,0.8655,-6.15,7.71,-0.06,20.27
17254,0.1511,-0.2234,0.8604,-6.02,7.79,0.14,20.27
17264,0.1522,-0.222,0.8622,-6.02,7.95,0.02,20.29
17274,0.1497,-0.2208,0.8677,-5.98,7.85,-0.02,20.29
17284,0.151,-0.2194,0.8676,-5.83,7.66,0.05,20.29
17294,0.1484,-0.2198,0.8654,-5.82,7.48,-0.06,20.29
17304,0.149,-0.2174,0.8657,-6.08,7.42,-0.09,20.28
17314,0.1536,-0.2175,0.8623,-6.05,7.71,-0.09,20.29
17324,0.1517,-0.2153,0.8629,-6.03,7.85,0.02,20.3
17334,0.1494,-0.2194,0.8611,-6.14,7.91,-0.02,20.29
17344,0.1492,-0.2186,0.864,-6.09,7.74,-0.02,20.3
17354,0.1532,-0.2183,0.8661,-6.02,7.59,0.0,20.31
17364,0.1542,-0.225,0.8695,-6.08,7.48,-0.09,20.33
17374,0.1532,-0.2233,0.8654,-6.08,7.6,-0.11,20.29
17384,0.1541,-0.2225,0.8651,-6.18,7.69,-0.09,20.28
17394,0.1538,-0.2201,0.8638,-6.21,7.83,-0.09,20.27
17404,0.1523,-0.2203,0.8643,-6.14,7.74,-0.12,20.27
17414,0.1506,-0.2207,0.864,-6.0,7.73,-0.09,20.27
17424,0.1531,-0.22,0.8636,-6.02,7.6,-0.03,20.29
17435,0.1526,-0.2225,0.866,-6.0,7.82,-0.02,20.29
17446,0.1525,-0.2246,0.8657,-6.08,7.8,-0.03,20.29
17456,0.1511,-0.2216,0.8688,-6.11,7.66,-0.05,20.28
17466,0.1487,-0.2222,0.8668,-6.15,7.54,-0.17,20.29
17476,0.1509,-0.218,0.8645,-6.05,7.45,-0.05,20.29
17486,0.1527,-0.2152,0.8596,-6.08,7.57,-0.06,20.28
17496,0.1494,-0.2153,0.866,-5.95,7.82,0.05,20.26
17506,0.1541,-0.2144,0.8669,-5.92,8.02,-0.03,20.29
17516,0.1543,-0.2183,0.8734,-6.08,7.95,-0.05,20.27
17526,0.1492,-0.2212,0.8722,-6.09,7.6,-0.12,20.29
17536,0.1543,-0.2216,0.8694,-6.41,7.45,-0.11,20.27
17546,0.1537,-0.2207,0.8616,-6.34,7.63,-0.08,20.28
17556,0.1539,-0.2209,0.8635,-6.14,7.79,-0.05,20.3
17566,0.1498,-0.2223,0.8635,-5.89,7.97,0.02,20.3
17576,0.1493,-0.2205,0.8678,-5.8,7.82,-0.02,20.29
17586,0.1501,-0.2201,0.8674,-5.94,7.56,-0.06,20.32
17596,0.1523,-0.2211,0.8711,-6.11,7.44,-0.09,20.29
17606,0.1515,-0.2179,0.8687,-6.2,7.47,0.02,20.29
17616,0.156,-0.2198,0.8628,-6.15,7.62,-0.12,20.3
17626,0.1539,-0.2203,0.8652,-6.03,7.68,-0.15,20.28
17636,0.1538,-0.2191,0.8654,-6.03,7.74,-0.03,20.27
17646,0.1522,-0.218,0.868,-6.09,7.57,-0.09,20.3
17656,0.1499,-0.2184,0.8705,-6.14,7.48,-0.12,20.31
17666,0.1541,-0.2196,0.8649,-6.18,7.59,-0.09,20.3
17676,0.1562,-0.2177,0.8644,-6.15,7.74,-0.05,20.3
17686,0.1538,-0.2189,0.8621,-6.26,7.77,-0.08,20.27
17696,0.1511,-0.2196,0.8677,-6.14,7.77,-0.09,20.28
17706,0.156,-0.2197,0.8649,-6.12,7.65,0.06,20.31
17716,0.1545,-0.22,0.8694,-5.97,7.53,-0.17,20.28
17726,0.153,-0.2222,0.8707,-6.23,7.63,-0.12,20.3
17736,0.1521,-0.2234,0.8655,-6.29,7.79,-0.06,20.29
17746,0.1544,-0.2231,0.8623,-6.2,7.88,-0.05,20.3
17756,0.1487,-0.2234,0.863,-6.15,7.68,-0.03,20.29
17766,0.1505,-0.2227,0.8604,-6.06,7.63,-0.11,20.29
17776,0.1533,-0.2218,0.8679,-6.03,7.51,-0.11,20.28
17786,0.153,-0.2218,0.8629,-5.97,7.66,-0.03,20.29
17796,0.1508,-0.2188,0.8702,-5.91,7.76,-0.06,20.29
17806,0.1493,-0.2186,0.8683,-6.14,7.71,-0.09,20.27
17816,0.1508,-0.2211,0.8689,-6.06,7.47,-0.18,20.26
17826,0.1527,-0.2181,0.8633,-6.2,7.5,-0.09,20.29
17836,0.1534,-0.2177,0.8661,-6.26,7.48,-0.14,20.3
17846,0.1545,-0.2213,0.8578,-6.05,7.73,-0.03,20.29
17856,0.1536,-0.2173,0.8669,-5.98,7.79,-0.03,20.29
17866,0.1532,-0.2159,0.8674,-6.12,7.74,-0.11,20.29
17876,0.152,-0.2198,0.8688,-6.18,7.56,-0.09,20.29
17886,0.1544,-0.2211,0.869,-6.27,7.56,-0.18,20.27
17896,0.1569,-0.2231,0.8665,-6.34,7.68,-0.14,20.29
17906,0.1514,-0.2267,0.8696,-6.11,8.0,-0.05,20.3
17916,0.1547,-0.2261,0.8656,-6.14,7.92,0.02,20.28
17926,0.1516,-0.2251,0.8688,-6.09,7.86,0.14,20.29
17936,0.1494,-0.2244,0.8627,-6.08,7.57,-0.06,20.3
17946,0.1454,-0.2223,0.8628,-5.95,7.57,-0.06,20.3
17956,0.1508,-0.2213,0.8669,-5.88,7.69,-0.02,20.28
17966,0.1501,-0.2214,0.8662,-6.05,7.89,-0.02,20.29
17976,0.1472,-0.2201,0.8669,-6.08,7.86,0.0,20.3
17986,0.1471,-0.2236,0.8669,-6.03,7.76,0.0,20.29
17996,0.1465,-0.2175,0.8678,-6.08,7.53,-0.02,20.29
18006,0.1526,-0.22,0.8601,-5.98,7.48,-0.06,20.3
18016,0.1543,-0.2186,0.8622,-5.98,7.57,-0.12,20.31
18026,0.1532,-0.2172,0.8647,-5.92,7.76,-0.05,20.29
18036,0.152,-0.2157,0.8636,-5.92,7.79,-0.03,20.31
18046,0.1533,-0.2158,0.869,-6.17,7.59,-0.06,20.3
18056,0.156,-0.219,0.8677,-6.17,7.5,-0.12,20.29
18066,0.1572,-0.2178,0.8655,-6.27,7.53,-0.08,20.27
18076,0.1554,-0.2178,0.8689,-6.27,7.91,0.0,20.28
18086,0.1561,-0.219,0.8647,-6.23,8.02,0.05,20.3
18096,0.1514,-0.2217,0.8669,-6.18,7.79,-0.11,20.29
18106,0.1509,-0.2181,0.8689,-6.06,7.57,-0.12,20.3
18116,0.1512,-0.2189,0.8655,-6.17,7.36,-0.12,20.29
18126,0.1541,-0.2206,0.8632,-6.05,7.4,-0.14,20.3
18136,0.1558,-0.2216,0.8661,-6.12,7.56,-0.18,20.28
18146,0.1576,-0.2188,0.8611,-6.12,7.71,-0.05,20.32
18156,0.1556,-0.224,0.8624,-6.03,7.73,-0.08,20.3
18166,0.1543,-0.2213,0.8634,-6.08,7.53,-0.18,20.27
18176,0.1572,-0.2214,0.8671,-6.0,7.65,-0.12,20.28
18186,0.1586,-0.2255,0.8668,-6.18,7.79,-0.09,20.3
18196,0.1552,-0.224,0.869,-6.12,7.85,-0.11,20.29
18206,0.1553,-0.2279,0.866,-6.11,7.8,-0.09,20.32
18216,0.152,-0.2228,0.8657,-5.98,7.66,-0.08,20.31
18226,0.1514,-0.219,0.866,-5.83,7.71,-0.09,20.29
18236,0.1503,-0.2194,0.8647,-5.95,7.66,-0.05,20.31
18246,0.1505,-0.2173,0.8667,-6.03,7.76,-0.05,20.29
18256,0.1476,-0.2184,0.8641,-6.18,7.74,-0.06,20.27
18266,0.1456,-0.2217,0.8635,-6.29,7.77,-0.08,20.27
18276,0.1483,-0.2244,0.8638,-6.23,7.73,-0.05,20.28
18286,0.1465,-0.224,0.8599,-6.06,7.79,-0.02,20.3
18296,0.1484,-0.2277,0.8613,-6.0,7.88,-0.06,20.3
18306,0.1489,-0.2238,0.865,-5.89,7.71,0.02,20.29
18316,0.1482,-0.2236,0.8663,-6.02,7.65,-0.05,20.29
18326,0.1492,-0.2202,0.8652,-5.94,7.57,-0.08,20.3
18336,0.1487,-0.2236,0.8687,-6.03,7.53,-0.05,20.27
18346,0.1533,-0.2213,0.86,-6.08,7.53,-0.05,20.28
18356,0.149,-0.2169,0.8651,-6.2,7.79,-0.08,20.28
18366,0.1514,-0.2214,0.8589,-6.15,7.69,-0.02,20.28
18376,0.1522,-0.2209,0.8612,-6.15,7.66,-0.08,20.28
18386,0.1572,-0.2228,0.859,-6.12,7.94,0.06,20.29
18396,0.1566,-0.2239,0.864,-6.03,8.2,0.05,20.32
18406,0.1554,-0.2283,0.8713,-5.88,8.03,0.12,20.29
18416,0.1548,-0.2283,0.8696,-6.03,7.92,0.06,20.29
18426,0.1536,-0.2247,0.8702,-6.06,7.77,0.06,20.31
18436,0.1565,-0.2253,0.8706,-6.02,7.6,-0.09,20.28
18446,0.1571,-0.2249,0.8696,-5.85,7.59,0.02,20.31
18456,0.1561,-0.2194,0.8706,-5.71,7.74,-0.02,20.29
18466,0.1576,-0.2195,0.8677,-5.76,7.86,-0.09,20.28
18476,0.1545,-0.2189,0.8702,-5.86,7.79,0.02,20.29
18486,0.1522,-0.2163,0.8687,-6.11,7.74,-0.03,20.27
18496,0.1505,-0.2172,0.8608,-6.23,7.82,-0.12,20.3
18506,0.1548,-0.2179,0.8523,-6.15,7.74,-0.17,20.3
18516,0.1493,-0.2164,0.8579,-5.92,7.82,-0.11,20.28
18526,0.1523,-0.2163,0.8639,-5.65,7.91,0.02,20.28
18536,0.1512,-0.217,0.8718,-5.63,7.89,-0.03,20.29
18546,0.151,-0.2137,0.8729,-6.02,7.6,-0.05,20.29
18556,0.1521,-0.2159,0.8708,-6.34,7.4,-0.18,20.3
18566,0.1536,-0.2177,0.8608,-6.64,7.62,-0.12,20.29
18576,0.1542,-0.2239,0.8584,-6.6,7.94,-0.11,20.29
18586,0.1559,-0.2277,0.8544,-6.26,8.06,-0.03,20.32
18596,0.1503,-0.2313,0.8611,-5.88,7.95,-0.12,20.29
18606,0.1383,-0.2118,0.8278,-6.56,6.53,-0.38,20.29
18616,0.1681,-0.2334,0.8422,-6.58,5.16,-0.6,20.28
18626,0.1805,-0.2268,0.8584,-4.92,7.88,0.23,20.28
18636,0.1748,-0.234,0.8961,-4.12,11.27,0.55,20.32
18646,0.1312,-0.2273,0.9135,-5.02,10.24,0.38,20.29
18656,0.1198,-0.2256,0.9038,-6.66,6.11,-0.23,20.27
18666,0.137,-0.2267,0.869,-7.88,4.0,-0.85,20.29
18676,0.1603,-0.2263,0.8274,-7.92,5.13,-0.63,20.3
18686,0.1742,-0.2245,0.8151,-6.73,8.46,0.21,20.28
18696,0.1625,-0.2113,0.8322,-4.75,11.25,0.58,20.29
18706,0.1398,-0.2169,0.875,-3.65,10.64,0.6,20.29
18716,0.1311,-0.2123,0.9014,-4.05,7.3,0.0,20.3
18726,0.1492,-0.2087,0.9031,-5.45,4.46,-0.53,20.28
18736,0.1726,-0.2129,0.8811,-7.1,4.93,-0.52,20.28
18746,0.1798,-0.2206,0.8579,-8.03,8.32,0.03,20.32
18756,0.1631,-0.2285,0.8456,-7.63,11.27,0.47,20.3
18766,0.1412,-0.2307,0.8551,-6.05,10.95,0.61,20.31
18776,0.129,-0.2257,0.873,-4.72,7.97,0.2,20.29
18786,0.137,-0.2191,0.8854,-4.55,5.02,-0.35,20.29
18796,0.156,-0.2111,0.8708,-5.37,4.78,-0.55,20.31
18806,0.1702,-0.2133,0.8619,-6.78,7.1,-0.23,20.31
18816,0.1654,-0.22,0.8527,-7.54,9.83,0.15,20.27
18826,0.1483,-0.2262,0.8524,-7.08,10.32,0.34,20.29
18836,0.1411,-0.2311,0.8591,-5.71,8.24,0.06,20.29
18846,0.1498,-0.2288,0.8757,-4.55,5.82,-0.27,20.29
18856,0.1648,-0.2207,0.8748,-4.67,5.19,-0.38,20.27
18866,0.173,-0.2148,0.8776,-5.48,6.82,-0.2,20.29
18876,0.1716,-0.219,0.8679,-6.72,8.99,0.09,20.29
18886,0.155,-0.2206,0.8595,-7.37,9.95,0.23,20.3
18896,0.1472,-0.2197,0.8542,-6.9,8.72,0.08,20.31
18906,0.1488,-0.219,0.8536,-5.82,6.85,-0.14,20.3
18916,0.1589,-0.2159,0.856,-5.01,6.12,-0.2,20.3
18926,0.1621,-0.2113,0.8618,-4.85,6.98,-0.06,20.28
18936,0.1584,-0.209,0.8739,-5.47,8.41,0.12,20.31
18946,0.1472,-0.2131,0.8757,-6.53,9.1,0.12,20.3
18956,0.1411,-0.2188,0.8673,-7.25,8.64,-0.05,20.32
18966,0.1417,-0.2231,0.8634,-7.24,7.65,-0.12,20.32
18976,0.1479,-0.2277,0.8523,-6.67,7.25,-0.23,20.31
18986,0.1523,-0.2291,0.8563,-5.88,7.63,0.02,20.3
18996,0.1517,-0.2273,0.8676,-5.25,8.11,0.18,20.28
19006,0.1469,-0.225,0.8788,-5.18,8.26,0.08,20.27
19016,0.145,-0.2216,0.8877,-5.76,7.39,-0.08,20.29
19026,0.1512,-0.2213,0.8798,-6.55,6.84,-0.14,20.29
19036,0.1565,-0.2209,0.8634,-6.82,6.98,-0.15,20.31
19046,0.1605,-0.2235,0.8586,-6.64,7.77,-0.05,20.31
19056,0.1571,-0.2225,0.8562,-5.88,8.53,0.09,20.31
19066,0.1515,-0.2188,0.8669,-5.34,8.46,0.23,20.31
19076,0.15,-0.2179,0.8738,-5.27,7.68,0.03,20.32
19086,0.1527,-0.217,0.8781,-5.82,6.85,-0.21,20.32
19096,0.158,-0.2173,0.8694,-6.46,6.87,-0.2,20.3
19106,0.1631,-0.2192,0.8604,-6.78,7.68,-0.09,20.29
19116,0.1595,-0.2196,0.8582,-6.49,8.53,0.09,20.31
19126,0.1498,-0.2257,0.8616,-6.14,8.63,0.12,20.3
19136,0.1434,-0.2268,0.8643,-5.65,7.88,0.0,20.29
19146,0.149,-0.2229,0.8694,-5.62,7.16,-0.12,20.27
19156,0.1537,-0.2212,0.8685,-5.89,7.1,-0.12,20.28
19166,0.1566,-0.2214,0.8657,-6.32,7.71,0.0,20.29
19176,0.1542,-0.2201,0.8613,-6.43,8.24,0.06,20.31
19186,0.1498,-0.2214,0.8589,-6.18,8.15,0.02,20.32
19196,0.1495,-0.2209,0.8593,-5.97,7.65,-0.03,20.28
19206,0.1509,-0.2184,0.859,-5.74,7.16,-0.11,20.3
19216,0.153,-0.2211,0.8633,-5.83,7.22,-0.14,20.3
19226,0.1561,-0.2172,0.8676,-5.95,7.88,0.0,20.32
19236,0.1552,-0.218,0.8683,-6.15,8.24,0.05,20.3
19246,0.1517,-0.2217,0.8695,-6.34,8.15,0.05,20.3
19256,0.1501,-0.2197,0.8641,-6.18,7.62,-0.09,20.27
19266,0.1547,-0.2225,0.8624,-6.11,7.25,-0.11,20.3
19276,0.1566,-0.2224,0.8623,-6.02,7.47,-0.02,20.28
19286,0.1604,-0.2207,0.8645,-5.92,7.91,0.06,20.29
19296,0.1521,-0.2207,0.8638,-6.15,8.23,0.09,20.3
19306,0.15,-0.2208,0.8677,-6.11,8.02,-0.03,20.3
19316,0.1493,-0.2222,0.8671,-6.17,7.59,0.0,20.3
19326,0.1543,-0.2211,0.866,-6.11,7.27,-0.14,20.28
19336,0.1573,-0.2241,0.8671,-6.09,7.4,-0.17,20.27
19346,0.1562,-0.2256,0.8722,-6.11,7.82,-0.18,20.31
19356,0.1545,-0.224,0.8625,-6.11,8.06,-0.05,20.31
19366,0.1499,-0.2272,0.8669,-6.03,7.98,0.0,20.31
19376,0.1482,-0.2219,0.8673,-5.95,7.54,-0.03,20.3
19386,0.1519,-0.2216,0.8665,-5.97,7.34,-0.15,20.31
19396,0.1542,-0.2203,0.8654,-6.09,7.56,-0.11,20.3
19406,0.1567,-0.2201,0.8654,-6.02,7.77,-0.09,20.29
19416,0.1514,-0.2238,0.8688,-5.95,8.05,-0.05,20.31
19426,0.1506,-0.2211,0.8619,-6.02,7.94,0.05,20.32
19436,0.15,-0.2217,0.8662,-6.05,7.71,-0.06,20.32
19446,0.1545,-0.2203,0.8641,-6.06,7.62,-0.15,20.31
19456,0.1537,-0.2183,0.8616,-6.09,7.66,-0.06,20.31
19466,0.1522,-0.2218,0.8634,-6.0,7.85,-0.03,20.32
19476,0.1521,-0.2212,0.864,-5.89,7.97,0.09,20.32
19486,0.1522,-0.2216,0.8671,-5.92,7.82,0.02,20.32
19496,0.1515,-0.2191,0.8628,-6.09,7.56,0.08,20.3
19506,0.1511,-0.2191,0.8636,-6.17,7.47,-0.08,20.3
19516,0.1549,-0.2181,0.8634,-6.18,7.54,-0.08,20.32
19526,0.1542,-0.219,0.8606,-6.08,7.86,0.06,20.29
19536,0.1522,-0.2169,0.8627,-5.98,7.92,-0.05,20.32
19546,0.1553,-0.2168,0.8662,-5.98,7.79,-0.05,20.32
19556,0.1511,-0.2179,0.8651,-6.02,7.6,-0.09,20.33
19566,0.1531,-0.2185,0.8687,-6.09,7.56,-0.06,20.3
19576,0.1549,-0.2198,0.8649,-6.26,7.69,-0.02,20.32
19586,0.1562,-0.2227,0.8641,-6.23,7.88,-0.03,20.31
19596,0.1526,-0.2225,0.8649,-6.2,7.95,0.02,20.32
19606,0.1522,-0.2205,0.8644,-6.02,7.8,-0.03,20.29
19616,0.1525,-0.2209,0.8622,-6.02,7.59,-0.12,20.3
19626,0.1516,-0.2231,0.8647,-6.06,7.56,-0.14,20.32
19636,0.1545,-0.2194,0.8633,-6.11,7.69,-0.11,20.3
19646,0.1565,-0.2258,0.8652,-6.15,7.77,-0.08,20.32
19656,0.1541,-0.2255,0.8634,-6.18,7.85,-0.09,20.31
19666,0.1527,-0.2244,0.8654,-6.12,7.77,-0.03,20.31
19676,0.1527,-0.2235,0.8645,-5.97,7.74,-0.11,20.31
19686,0.1519,-0.2218,0.8663,-5.92,7.6,-0.03,20.32
19696,0.1542,-0.2216,0.871,-5.97,7.68,0.03,20.28
19706,0.1542,-0.2181,0.8689,-5.92,7.8,-0.02,20.33
19716,0.1519,-0.2212,0.8713,-6.11,7.83,-0.02,20.32
19726,0.1501,-0.2208,0.8663,-6.18,7.79,-0.03,20.3
19736,0.1526,-0.2207,0.8662,-6.21,7.71,-0.08,20.29
19746,0.1523,-0.2198,0.8652,-6.09,7.65,-0.09,20.33
19756,0.15,-0.2222,0.8633,-5.98,7.76,-0.06,20.31
19766,0.1544,-0.2183,0.8632,-5.97,7.83,-0.11,20.33
19776,0.1549,-0.2205,0.8611,-5.92,7.76,-0.02,20.32
19786,0.1537,-0.2211,0.865,-6.11,7.68,-0.02,20.33
19796,0.1547,-0.2201,0.8617,-5.95,7.59,0.0,20.33
19806,0.1545,-0.2188,0.8652,-6.03,7.63,-0.06,20.32
19816,0.1509,-0.2197,0.8612,-5.97,7.82,-0.03,20.31
19826,0.1501,-0.2196,0.8611,-6.02,7.8,-0.02,20.3
19836,0.1494,-0.2203,0.8619,-5.95,7.74,0.03,20.29
19846,0.1514,-0.2185,0.8662,-6.03,7.69,-0.05,20.3
19856,0.1509,-0.2202,0.8655,-5.98,7.57,-0.03,20.31
19866,0.1537,-0.2206,0.8636,-6.15,7.63,-0.12,20.3
19876,0.1548,-0.2227,0.8649,-6.2,7.77,0.03,20.31
19886,0.1555,-0.2207,0.8608,-6.03,7.8,-0.06,20.29
19896,0.1533,-0.2191,0.8651,-6.09,7.86,0.03,20.32
19906,0.1523,-0.2216,0.8688,-6.0,7.79,0.02,20.34
19916,0.1528,-0.2206,0.8682,-5.98,7.79,-0.02,20.3
19926,0.1543,-0.2211,0.8676,-6.09,7.74,-0.03,20.3
19936,0.152,-0.2239,0.8733,-6.09,7.76,-0.11,20.3
19946,0.1545,-0.2219,0.8687,-6.14,7.74,-0.06,20.31
19956,0.1525,-0.2207,0.8654,-6.0,7.77,0.0,20.29
19966,0.152,-0.2234,0.8673,-6.02,7.68,-0.06,20.29
19976,0.152,-0.2207,0.8698,-6.05,7.71,-0.08,20.28
19986,0.1558,-0.2205,0.8645,-6.05,7.69,0.06,20.31
19996,0.1545,-0.2224,0.8661,-6.02,7.79,0.0,20.33
20006,0.1514,-0.2213,0.8668,-6.03,7.73,-0.06,20.31
20016,0.1527,-0.2194,0.8678,-6.0,7.76,-0.06,20.31
20026,0.1531,-0.2197,0.8665,-6.08,7.83,-0.06,20.32
20036,0.1534,-0.2197,0.8644,-6.02,7.76,-0.02,20.3
20046,0.1508,-0.2216,0.8662,-6.02,7.73,-0.08,20.3
20056,0.1511,-0.2178,0.8641,-6.05,7.82,-0.09,20.32
20066,0.155,-0.2173,0.8672,-6.0,7.8,-0.09,20.31
20076,0.1543,-0.2211,0.8656,-6.03,7.74,-0.08,20.3
20086,0.1538,-0.2218,0.8657,-6.17,7.63,-0.06,20.32
20096,0.1514,-0.2241,0.8669,-6.15,7.63,-0.08,20.31
20106,0.1515,-0.2225,0.8644,-6.09,7.66,-0.11,20.29
20116,0.1531,-0.2207,0.8629,-6.03,7.66,-0.05,20.28
20126,0.1533,-0.2207,0.8663,-6.03,7.76,0.03,20.3
20136,0.1554,-0.2216,0.8646,-5.97,7.71,-0.05,20.33
20146,0.1534,-0.2174,0.8683,-5.98,7.59,0.06,20.32
20156,0.1554,-0.2192,0.8663,-6.02,7.66,-0.08,20.32
20166,0.1542,-0.2206,0.8674,-6.02,7.71,0.0,20.3
20176,0.1542,-0.2202,0.8684,-6.14,7.73,-0.08,20.32
20186,0.153,-0.2197,0.8633,-6.12,7.8,-0.06,20.31
20196,0.155,-0.2212,0.8651,-6.12,7.82,-0.05,20.32
20206,0.1552,-0.2202,0.8663,-6.02,7.57,-0.06,20.33
20216,0.1559,-0.2208,0.868,-6.03,7.65,0.03,20.3
20226,0.1538,-0.2214,0.864,-6.15,7.71,-0.08,20.31
20236,0.1523,-0.2217,0.8652,-6.06,7.79,-0.02,20.31
20246,0.149,-0.2222,0.8663,-6.15,7.77,-0.06,20.32
20256,0.1515,-0.2214,0.866,-6.08,7.82,-0.06,20.32
20266,0.1531,-0.2234,0.8691,-6.09,7.73,0.02,20.31
20276,0.1522,-0.2267,0.8677,-5.98,7.85,0.02,20.32
20286,0.1503,-0.2252,0.8668,-5.92,7.68,-0.05,20.32
20296,0.1528,-0.2203,0.8667,-5.97,7.71,-0.08,20.31
20306,0.1487,-0.2207,0.8636,-6.06,7.68,-0.05,20.3
20316,0.1533,-0.2209,0.8673,-6.02,7.66,-0.08,20.33
20326,0.1497,-0.2223,0.8654,-6.05,7.77,-0.12,20.32
20336,0.1526,-0.2198,0.8679,-6.0,7.69,-0.02,20.32
20346,0.1521,-0.2197,0.8629,-5.97,7.71,-0.08,20.31
20356,0.1499,-0.2198,0.865,-6.0,7.79,-0.08,20.32
20366,0.1505,-0.2197,0.8671,-5.98,7.74,-0.02,20.31
20376,0.1542,-0.2218,0.8661,-6.12,7.68,-0.09,20.28
20386,0.1531,-0.2211,0.8629,-6.11,7.69,-0.02,20.32
20396,0.1526,-0.2218,0.8625,-6.09,7.77,0.08,20.33
20406,0.1531,-0.2192,0.8604,-6.08,7.68,-0.02,20.32
20416,0.1543,-0.2174,0.8656,-6.02,7.68,-0.02,20.32
20426,0.1516,-0.2205,0.8655,-6.06,7.76,-0.06,20.31
20436,0.1523,-0.2217,0.8622,-6.12,7.69,-0.02,20.32
20446,0.1564,-0.2228,0.8666,-6.09,7.76,-0.03,20.33
20456,0.1556,-0.2203,0.8628,-6.06,7.76,0.0,20.3
20466,0.1531,-0.2211,0.8646,-5.92,7.73,-0.02,20.33
20476,0.151,-0.2208,0.8656,-6.05,7.79,-0.08,20.32
20486,0.1526,-0.2229,0.8638,-5.97,7.65,-0.05,20.31
20496,0.1506,-0.2202,0.8676,-6.12,7.69,-0.06,20.34
20506,0.1498,-0.222,0.8721,-6.02,7.76,-0.09,20.32
20516,0.1539,-0.2197,0.8663,-6.02,7.77,0.02,20.32
20526,0.1521,-0.219,0.8649,-6.12,7.8,0.02,20.33
20536,0.1519,-0.2218,0.8685,-6.08,7.63,0.03,20.32
20546,0.1521,-0.2177,0.8657,-6.06,7.74,-0.08,20.32
20556,0.1532,-0.2189,0.8691,-6.15,7.74,-0.03,20.33
20566,0.1508,-0.2191,0.8668,-6.05,7.73,-0.06,20.32
20576,0.152,-0.2231,0.866,-6.09,7.71,-0.08,20.33
20586,0.1508,-0.2231,0.8649,-6.05,7.79,-0.08,20.32
20596,0.1539,-0.2213,0.8623,-6.05,7.68,-0.08,20.36
20606,0.1533,-0.2231,0.8666,-5.98,7.74,-0.02,20.34
20616,0.1532,-0.2183,0.8645,-5.95,7.71,-0.05,20.33
20626,0.1547,-0.2195,0.8673,-6.09,7.77,-0.08,20.33
20636,0.1528,-0.2195,0.869,-6.06,7.74,-0.03,20.34
20646,0.1505,-0.2212,0.8656,-5.98,7.69,-0.05,20.32
20656,0.153,-0.2192,0.8687,-6.08,7.63,-0.03,20.33
20666,0.1512,-0.2198,0.8645,-6.05,7.74,0.0,20.33
20676,0.1515,-0.2203,0.8673,-6.08,7.71,-0.06,20.3
20686,0.1567,-0.2222,0.864,-6.11,7.62,-0.06,20.33
20696,0.1531,-0.2222,0.8632,-6.11,7.76,-0.12,20.32
20706,0.155,-0.2235,0.8625,-5.98,7.79,-0.06,20.33
20716,0.1572,-0.2208,0.8669,-5.94,7.77,-0.05,20.31
20726,0.1545,-0.2201,0.8661,-6.0,7.71,0.0,20.31
20736,0.1548,-0.2205,0.8652,-6.06,7.71,-0.09,20.32
20746,0.1505,-0.2195,0.8647,-6.12,7.69,-0.08,20.32
20756,0.1515,-0.222,0.8624,-6.08,7.65,0.02,20.32
20766,0.1536,-0.2194,0.8608,-6.17,7.73,0.0,20.31
20776,0.1549,-0.2227,0.8643,-6.06,7.71,-0.05,20.32
20786,0.155,-0.2244,0.8676,-6.09,7.71,0.0,20.3
20796,0.1505,-0.2203,0.8646,-6.08,7.77,0.0,20.33
20806,0.1548,-0.2203,0.8647,-6.0,7.77,-0.05,20.32
20816,0.1527,-0.2216,0.8669,-6.06,7.76,-0.06,20.31
20826,0.1515,-0.2201,0.866,-6.08,7.76,0.02,20.32
20836,0.1519,-0.2227,0.8654,-6.02,7.74,-0.02,20.36
20846,0.1532,-0.2218,0.8593,-5.98,7.82,-0.03,20.34
20856,0.1521,-0.2236,0.866,-5.97,7.69,0.03,20.34
20866,0.1516,-0.2218,0.8662,-6.08,7.74,-0.05,20.32
20876,0.151,-0.2222,0.8649,-6.06,7.69,-0.08,20.33
20886,0.1519,-0.2206,0.8658,-6.0,7.73,-0.08,20.34
20896,0.1477,-0.2213,0.8658,-6.05,7.73,-0.08,20.31
20906,0.1544,-0.2205,0.8672,-6.08,7.66,-0.02,20.32
20916,0.153,-0.2212,0.8677,-6.11,7.73,-0.06,20.34
20926,0.1517,-0.2218,0.8638,-6.08,7.73,-0.03,20.34
20936,0.1533,-0.2218,0.8654,-6.11,7.71,-0.03,20.36
20946,0.153,-0.2188,0.8643,-5.98,7.65,0.0,20.34
20956,0.1533,-0.219,0.8687,-6.02,7.74,-0.09,20.35
20966,0.1501,-0.2195,0.8668,-6.02,7.79,-0.09,20.32
20976,0.1523,-0.2211,0.8698,-5.94,7.69,-0.02,20.33
20986,0.1514,-0.2213,0.8704,-6.15,7.66,0.09,20.32
20996,0.1537,-0.2207,0.8682,-6.14,7.73,0.06,20.34
21006,0.1552,-0.2205,0.8656,-6.03,7.77,0.05,20.34
21016,0.1523,-0.2212,0.8639,-5.97,7.74,0.0,20.33
21026,0.1523,-0.2197,0.8661,-5.97,7.79,0.0,20.33
21036,0.1545,-0.2195,0.8628,-5.88,7.71,-0.02,20.35
21046,0.1528,-0.2192,0.8668,-6.08,7.66,-0.03,20.33
21056,0.1519,-0.2196,0.8661,-6.06,7.79,-0.02,20.37
21066,0.153,-0.2208,0.8634,-6.08,7.82,0.0,20.35
21076,0.1526,-0.2218,0.8673,-6.03,7.8,-0.08,20.35
21086,0.152,-0.2227,0.8657,-6.12,7.77,0.06,20.34
21096,0.1538,-0.2228,0.8661,-6.08,7.77,-0.03,20.34
21106,0.1538,-0.2233,0.8627,-6.09,7.6,-0.08,20.34
21116,0.1501,-0.2218,0.863,-6.03,7.66,-0.03,20.35
21126,0.1515,-0.2198,0.8647,-6.06,7.66,0.02,20.33
21136,0.1542,-0.2197,0.865,-6.14,7.66,-0.12,20.36
21146,0.1523,-0.2203,0.8615,-5.97,7.74,-0.08,20.34
21156,0.1544,-0.2177,0.8682,-6.05,7.76,-0.02,20.36
21166,0.151,-0.222,0.8662,-6.06,7.8,-0.03,20.36
21176,0.1523,-0.2219,0.8662,-6.11,7.69,-0.06,20.34
21186,0.1554,-0.2238,0.8667,-6.09,7.74,-0.02,20.33
21196,0.1528,-0.2209,0.8672,-6.09,7.73,-0.09,20.33
21206,0.1509,-0.2217,0.868,-6.15,7.68,-0.08,20.33
21216,0.1545,-0.2223,0.8677,-6.05,7.79,-0.09,20.34
21226,0.1537,-0.2229,0.8654,-5.94,7.79,-0.02,20.34
21236,0.1501,-0.2202,0.8602,-6.0,7.79,0.0,20.34
21246,0.1499,-0.2225,0.8624,-6.05,7.71,-0.05,20.33
21256,0.1526,-0.2202,0.8606,-6.11,7.69,-0.08,20.34
21266,0.1545,-0.2201,0.8693,-6.06,7.73,0.08,20.31
21276,0.1538,-0.2194,0.8676,-6.03,7.77,-0.05,20.33
21286,0.1505,-0.2191,0.8712,-6.02,7.79,0.0,20.33
21296,0.1523,-0.2208,0.8656,-5.98,7.73,-0.09,20.32
21306,0.1536,-0.2238,0.8646,-6.02,7.77,-0.06,20.34
21316,0.1548,-0.2234,0.8666,-6.02,7.73,-0.06,20.33
21326,0.1538,-0.2195,0.8636,-6.05,7.66,-0.11,20.32
21336,0.1506,-0.2213,0.8649,-6.11,7.73,-0.06,20.34
21346,0.1544,-0.2213,0.8667,-6.11,7.76,0.0,20.32
21356,0.152,-0.2216,0.8646,-6.05,7.74,-0.05,20.33
21366,0.1522,-0.2202,0.8672,-6.0,7.71,-0.06,20.35
21376,0.1541,-0.2202,0.8654,-6.14,7.66,-0.06,20.35
21386,0.1547,-0.2209,0.8665,-6.06,7.76,-0.03,20.35
21396,0.1537,-0.2185,0.8665,-6.06,7.83,-0.06,20.33
21406,0.1521,-0.2205,0.866,-6.09,7.69,-0.02,20.34
21416,0.1497,-0.2216,0.8657,-6.05,7.73,0.0,20.35
21426,0.1537,-0.2207,0.8654,-6.06,7.66,0.06,20.34
21436,0.155,-0.2211,0.8689,-6.02,7.71,0.05,20.33
21446,0.1569,-0.2212,0.8712,-6.0,7.76,-0.02,20.35
21456,0.1552,-0.2217,0.8666,-6.08,7.77,-0.06,20.34
21466,0.1572,-0.2183,0.8654,-6.09,7.71,-0.09,20.35
21476,0.1556,-0.2198,0.8618,-6.12,7.71,-0.14,20.34
21486,0.153,-0.2202,0.8617,-6.08,7.73,-0.06,20.34
21496,0.1516,-0.2229,0.8654,-6.05,7.77,-0.02,20.35
21506,0.1521,-0.2175,0.8586,-6.11,7.76,-0.06,20.35
21516,0.1519,-0.2206,0.8684,-5.97,7.76,-0.02,20.34
21526,0.1528,-0.22,0.8688,-6.0,7.73,-0.06,20.32
21536,0.1543,-0.2228,0.8636,-6.03,7.71,-0.08,20.35
21546,0.1505,-0.2203,0.863,-6.03,7.79,-0.08,20.35
21556,0.1528,-0.2229,0.8647,-5.89,7.66,-0.06,20.34
21566,0.1537,-0.2225,0.8663,-6.06,7.66,-0.06,20.34
21576,0.1516,-0.2212,0.8662,-6.11,7.73,-0.03,20.32
21586,0.1494,-0.22,0.8636,-6.11,7.71,0.02,20.36
21596,0.1499,-0.2196,0.8646,-5.98,7.68,-0.06,20.33
21606,0.1501,-0.2219,0.8618,-5.98,7.66,0.05,20.33
21616,0.1533,-0.2203,0.8683,-6.03,7.73,-0.03,20.34
21626,0.151,-0.2197,0.8668,-6.03,7.79,-0.06,20.34
21636,0.1511,-0.2192,0.8632,-6.05,7.74,-0.06,20.34
21646,0.1515,-0.2207,0.8632,-5.98,7.77,0.02,20.35
21656,0.1521,-0.2185,0.8633,-5.98,7.79,0.02,20.33
21666,0.1549,-0.2196,0.8633,-6.08,7.8,-0.08,20.34
21676,0.1528,-0.2205,0.8666,-6.08,7.71,0.03,20.31
21686,0.1521,-0.219,0.8669,-6.03,7.66,-0.05,20.34
21696,0.1521,-0.2229,0.8639,-6.02,7.66,0.03,20.33
21706,0.1528,-0.2219,0.8667,-6.06,7.77,0.0,20.32
21716,0.1533,-0.2194,0.8677,-6.06,7.69,-0.06,20.31
21726,0.1517,-0.2194,0.8629,-5.95,7.71,-0.03,20.33
21736,0.1519,-0.2192,0.8672,-5.98,7.71,0.06,20.34
21746,0.1528,-0.2184,0.8652,-6.0,7.68,-0.02,20.32
21756,0.1554,-0.2181,0.8662,-6.06,7.8,0.0,20.33
21766,0.1533,-0.2192,0.8662,-6.08,7.69,0.03,20.34
21776,0.1543,-0.2229,0.865,-6.0,7.77,0.06,20.34
21786,0.1542,-0.2235,0.8657,-6.11,7.77,0.02,20.31
21796,0.153,-0.2224,0.8677,-6.09,7.76,-0.09,20.35
21806,0.1522,-0.2203,0.8695,-6.11,7.82,0.05,20.36
21816,0.1525,-0.2196,0.8657,-6.08,7.66,-0.05,20.34
21826,0.1534,-0.2196,0.8656,-6.0,7.62,0.05,20.34
21836,0.1527,-0.2206,0.8651,-6.09,7.62,-0.06,20.34
21846,0.1531,-0.2168,0.8593,-6.06,7.76,-0.08,20.33
21856,0.1527,-0.2206,0.8633,-6.03,7.66,-0.09,20.35
21866,0.1538,-0.2227,0.8622,-6.03,7.79,0.02,20.34
21876,0.1521,-0.2241,0.8666,-6.09,7.83,0.05,20.34
21886,0.1503,-0.2217,0.8668,-6.05,7.66,-0.11,20.33
21896,0.1533,-0.2242,0.868,-6.12,7.66,-0.06,20.34
21906,0.153,-0.2222,0.8695,-6.05,7.71,-0.03,20.33
21916,0.1553,-0.2251,0.8632,-5.95,7.83,-0.06,20.34
21926,0.151,-0.2205,0.8586,-5.91,7.82,-0.06,20.36
21936,0.1525,-0.2217,0.8667,-5.94,7.76,0.0,20.31
21946,0.1531,-0.2241,0.8683,-6.06,7.65,0.0,20.33
21956,0.1523,-0.2218,0.8661,-6.2,7.59,0.0,20.33
21966,0.1539,-0.2235,0.8625,-6.11,7.66,-0.09,20.33
21976,0.1544,-0.2212,0.8663,-6.12,7.62,-0.14,20.34
21986,0.1525,-0.2213,0.8621,-5.94,7.66,-0.08,20.34
21996,0.152,-0.2229,0.8638,-5.77,7.6,0.0,20.33
22006,0.1552,-0.2198,0.8651,-5.89,7.63,-0.08,20.36
22016,0.153,-0.2216,0.8708,-5.92,7.59,0.02,20.37
22026,0.1525,-0.2177,0.8717,-6.05,7.69,-0.05,20.36
22036,0.157,-0.219,0.8708,-6.02,7.86,-0.02,20.36
22046,0.1548,-0.2191,0.8713,-6.05,8.08,-0.03,20.36
22056,0.1523,-0.2184,0.8688,-6.06,8.0,0.0,20.35
22066,0.1487,-0.2203,0.8704,-6.23,7.82,0.0,20.34
22076,0.1504,-0.2208,0.8672,-6.32,7.54,-0.06,20.33
22086,0.1509,-0.2177,0.8584,-6.26,7.71,-0.11,20.34
22096,0.1545,-0.2153,0.8574,-5.92,7.89,0.05,20.34
22106,0.1515,-0.2185,0.8612,-5.79,7.95,0.11,20.33
22116,0.1503,-0.2144,0.8693,-5.94,7.83,0.0,20.34
22126,0.149,-0.2146,0.8668,-6.08,7.56,-0.08,20.36
22136,0.151,-0.2136,0.865,-6.17,7.45,-0.15,20.34
22146,0.1538,-0.2186,0.8677,-6.4,7.57,-0.2,20.34
22156,0.1545,-0.2218,0.8651,-6.43,7.98,-0.05,20.32
22166,0.1584,-0.2257,0.8641,-6.43,8.05,0.02,20.35
22176,0.1528,-0.2281,0.8643,-6.29,7.95,0.0,20.37
22186,0.1522,-0.2256,0.8662,-6.32,7.57,-0.03,20.36
22196,0.1527,-0.2267,0.8602,-6.21,7.36,-0.06,20.35
22206,0.1527,-0.2231,0.8601,-5.91,7.65,0.02,20.34
22216,0.156,-0.2238,0.8634,-5.91,7.89,0.02,20.35
22226,0.1544,-0.2267,0.8685,-5.85,8.08,0.03,20.32
22236,0.1473,-0.224,0.8735,-6.02,7.95,0.05,20.34
22246,0.1492,-0.2244,0.8699,-5.92,7.73,0.0,20.31
22256,0.1539,-0.2241,0.8717,-6.17,7.51,0.06,20.36
22266,0.1549,-0.2257,0.8666,-6.23,7.68,0.0,20.36
22276,0.1541,-0.2257,0.8599,-6.09,7.92,-0.03,20.35
22286,0.1517,-0.2264,0.8596,-5.92,7.98,0.09,20.36
22296,0.1515,-0.222,0.8655,-5.66,7.77,0.06,20.35
22306,0.151,-0.2217,0.8688,-5.56,7.51,-0.05,20.34
22316,0.1542,-0.2196,0.8732,-5.73,7.37,-0.06,20.3
22326,0.1536,-0.2183,0.8674,-6.08,7.68,-0.02,20.34
22336,0.1561,-0.2177,0.8655,-6.15,7.82,-0.05,20.33
22346,0.1558,-0.2207,0.8627,-6.02,7.94,0.05,20.33
22356,0.1539,-0.2225,0.8649,-5.89,7.74,-0.05,20.35
22366,0.1531,-0.218,0.8657,-5.85,7.63,-0.08,20.34
22376,0.1598,-0.2183,0.8715,-5.82,7.5,-0.09,20.37
22386,0.16,-0.2172,0.8699,-5.95,7.54,-0.09,20.34
22396,0.1565,-0.2183,0.8646,-6.18,7.8,-0.05,20.36
22406,0.1567,-0.2186,0.8646,-6.21,7.83,0.05,20.35
22416,0.1602,-0.2205,0.8644,-6.0,7.85,-0.15,20.34
22426,0.1566,-0.2195,0.8647,-5.86,7.63,0.08,20.37
22436,0.1545,-0.2183,0.8618,-5.88,7.54,-0.06,20.34
22446,0.1544,-0.2173,0.8661,-6.06,7.66,-0.12,20.33
22456,0.155,-0.2163,0.8638,-6.23,7.66,-0.06,20.35
22466,0.1523,-0.2218,0.8636,-6.31,7.82,-0.08,20.33
22476,0.1527,-0.2219,0.8619,-6.31,7.8,-0.08,20.37
22486,0.1532,-0.2223,0.8628,-6.15,7.68,-0.05,20.35
22496,0.1509,-0.2219,0.8635,-5.94,7.68,-0.03,20.34
22506,0.1521,-0.2197,0.8684,-5.88,7.66,-0.06,20.35
22516,0.1545,-0.2214,0.8656,-6.03,7.66,-0.08,20.34
22526,0.1505,-0.2219,0.8672,-6.09,7.6,-0.09,20.36
22536,0.1505,-0.2211,0.868,-6.24,7.8,-0.06,20.34
22546,0.1501,-0.2205,0.8665,-6.26,7.76,-0.12,20.32
22556,0.1486,-0.2224,0.8671,-6.15,7.79,-0.02,20.32
22566,0.1467,-0.2211,0.8612,-5.95,7.69,-0.11,20.34
22576,0.15,-0.2229,0.8649,-5.91,7.62,-0.11,20.35
22586,0.1499,-0.2247,0.866,-6.03,7.48,-0.08,20.33
22596,0.153,-0.2216,0.869,-6.12,7.39,-0.15,20.37
22606,0.1577,-0.2179,0.8717,-5.92,7.4,-0.06,20.34
22616,0.1538,-0.2174,0.8682,-5.82,7.76,-0.03,20.35
22626,0.1528,-0.2152,0.8724,-6.05,8.02,-0.02,20.34
22636,0.1515,-0.2134,0.8647,-6.29,7.89,-0.03,20.33
22646,0.1488,-0.2147,0.8616,-6.18,7.65,0.02,20.32
22656,0.1514,-0.2189,0.8605,-6.03,7.51,-0.09,20.34
22666,0.1545,-0.2202,0.8662,-6.09,7.74,-0.18,20.37
22676,0.1533,-0.2179,0.8671,-6.21,8.06,-0.03,20.34
22686,0.1508,-0.2206,0.8652,-6.34,8.17,-0.05,20.34
22696,0.152,-0.2257,0.8596,-6.35,7.92,-0.05,20.33
22706,0.1532,-0.226,0.8608,-6.27,7.53,-0.11,20.33
22716,0.155,-0.2236,0.8634,-6.0,7.39,-0.12,20.35
22726,0.1542,-0.2251,0.8601,-5.76,7.65,0.03,20.35
22737,0.1519,-0.2222,0.8616,-5.85,7.97,0.0,20.37
22747,0.1508,-0.22,0.8699,-6.0,7.92,0.03,20.32
22757,0.1521,-0.2203,0.8705,-6.21,7.79,0.0,20.33
22768,0.1501,-0.2231,0.8689,-6.31,7.53,-0.09,20.34
22778,0.155,-0.225,0.8629,-6.34,7.65,-0.12,20.33
22788,0.155,-0.2258,0.8624,-6.17,7.86,-0.02,20.35
22798,0.1554,-0.2274,0.8651,-5.97,7.97,0.03,20.33
22808,0.153,-0.2286,0.8687,-5.79,7.79,-0.05,20.35
22818,0.1526,-0.2244,0.8676,-5.76,7.54,-0.08,20.32
22828,0.1567,-0.2222,0.873,-5.88,7.54,0.02,20.34
22838,0.1532,-0.2201,0.8671,-6.05,7.73,0.02,20.34
22848,0.1537,-0.2201,0.8677,-6.09,7.83,-0.03,20.36
22858,0.1528,-0.2192,0.8674,-6.03,7.94,-0.06,20.32
22868,0.1528,-0.2225,0.8665,-6.03,7.82,0.0,20.33
22878,0.152,-0.224,0.8672,-5.94,7.53,-0.08,20.33
22888,0.1556,-0.226,0.8662,-5.89,7.5,-0.09,20.32
22898,0.1544,-0.2233,0.8645,-5.89,7.59,-0.05,20.33
22908,0.1539,-0.222,0.8693,-6.02,7.68,-0.08,20.36
22918,0.1538,-0.2192,0.8689,-5.86,7.65,-0.06,20.35
22928,0.1517,-0.215,0.8678,-5.86,7.54,0.02,20.37
22938,0.1553,-0.2169,0.8726,-5.86,7.45,-0.12,20.34
22948,0.152,-0.2148,0.8734,-5.91,7.54,-0.03,20.35
22958,0.155,-0.2177,0.8735,-6.06,7.82,-0.06,20.34
22968,0.1525,-0.217,0.8665,-6.14,7.89,-0.11,20.32
22978,0.1536,-0.2201,0.8682,-6.2,7.85,-0.05,20.37
22988,0.1542,-0.2194,0.8645,-6.29,7.8,-0.03,20.34
22998,0.153,-0.2205,0.8634,-6.15,7.68,-0.05,20.37
23008,0.1527,-0.2209,0.8596,-6.03,7.77,-0.06,20.31
23018,0.1545,-0.2206,0.858,-5.95,7.8,0.05,20.32
23028,0.1508,-0.2184,0.8633,-5.91,7.77,0.03,20.34
23038,0.1521,-0.2191,0.8633,-5.97,7.79,0.0,20.34
23048,0.1514,-0.2208,0.8649,-5.97,7.73,-0.03,20.33
23058,0.1488,-0.2222,0.8661,-6.08,7.66,0.06,20.35
23068,0.152,-0.222,0.8625,-6.09,7.76,-0.02,20.36
23078,0.1517,-0.2217,0.8616,-5.94,7.79,-0.02,20.35
23088,0.1541,-0.2238,0.8629,-5.95,7.8,-0.03,20.36
23098,0.1519,-0.2198,0.8676,-6.0,7.66,0.02,20.36
23108,0.1489,-0.2211,0.8735,-6.11,7.68,-0.08,20.35
23118,0.1539,-0.2186,0.8663,-6.02,7.69,-0.06,20.34
23128,0.1517,-0.2212,0.869,-6.09,7.76,0.06,20.35
23138,0.1525,-0.2181,0.8685,-6.05,7.76,0.08,20.36
23148,0.152,-0.2168,0.8678,-6.03,7.86,0.02,20.35
23158,0.1527,-0.22,0.8726,-6.08,7.86,-0.06,20.35
23168,0.1525,-0.2177,0.8645,-6.05,7.76,-0.11,20.34
23178,0.1539,-0.2223,0.8658,-6.15,7.68,-0.08,20.35
23188,0.1519,-0.2239,0.8673,-6.14,7.88,0.02,20.34
23198,0.155,-0.2201,0.8644,-6.08,7.85,-0.02,20.35
23208,0.1553,-0.2268,0.868,-6.14,7.74,-0.06,20.33
23218,0.153,-0.2235,0.865,-6.02,7.71,-0.06,20.36
23228,0.155,-0.2239,0.8658,-5.95,7.5,-0.08,20.34
23238,0.155,-0.2252,0.8645,-5.94,7.57,-0.05,20.35
23248,0.1537,-0.2209,0.8641,-6.02,7.66,-0.02,20.35
23258,0.1528,-0.2197,0.8657,-6.0,7.73,-0.03,20.35
23268,0.1545,-0.2186,0.8666,-6.0,7.74,-0.05,20.36
23278,0.1554,-0.2191,0.8668,-6.03,7.66,-0.03,20.34
23288,0.1564,-0.2197,0.8695,-6.02,7.74,-0.05,20.33
23298,0.1544,-0.2186,0.8612,-6.14,7.83,-0.06,20.34
23308,0.1532,-0.2195,0.8665,-6.2,7.79,-0.05,20.35
23318,0.1512,-0.2238,0.8633,-6.23,7.69,-0.06,20.34
23328,0.1505,-0.2181,0.8633,-6.03,7.69,-0.06,20.35
23338,0.1538,-0.2217,0.8624,-6.09,7.74,-0.08,20.33
23348,0.153,-0.2219,0.8634,-6.03,7.74,-0.03,20.34
23358,0.1532,-0.2216,0.8668,-6.03,7.79,-0.03,20.35
23368,0.1511,-0.2213,0.8688,-6.03,7.73,-0.02,20.34
23378,0.1536,-0.2218,0.8651,-6.15,7.65,-0.02,20.36
23388,0.1552,-0.2217,0.8641,-6.14,7.62,-0.15,20.35
23398,0.1541,-0.2244,0.8618,-6.02,7.57,-0.11,20.36
23408,0.1559,-0.2238,0.8649,-5.91,7.74,0.0,20.37
23418,0.1545,-0.22,0.8646,-5.92,7.68,0.05,20.35
23428,0.1525,-0.2202,0.8658,-5.91,7.8,0.02,20.35
23438,0.1538,-0.2196,0.8715,-5.94,7.66,0.05,20.37
23448,0.1555,-0.2209,0.869,-5.95,7.66,0.02,20.35
23458,0.1509,-0.2166,0.869,-6.15,7.82,-0.03,20.36
23468,0.1522,-0.2209,0.8657,-6.27,7.79,-0.06,20.36
23478,0.1501,-0.2202,0.8633,-5.97,7.8,-0.02,20.35
23488,0.1511,-0.2222,0.869,-6.02,7.79,0.02,20.34
23498,0.1534,-0.2217,0.8668,-6.08,7.71,-0.08,20.37
23508,0.1523,-0.2234,0.8655,-5.86,7.66,-0.05,20.37
23518,0.1562,-0.2217,0.8691,-5.88,7.79,0.03,20.36
23528,0.1547,-0.2214,0.868,-5.98,7.83,-0.03,20.36
23538,0.1553,-0.2195,0.8672,-6.0,7.8,-0.06,20.35
23548,0.1531,-0.2223,0.8684,-5.98,7.71,-0.09,20.36
23558,0.1533,-0.2209,0.8683,-6.11,7.68,-0.05,20.34
23568,0.1536,-0.2211,0.8624,-6.0,7.6,-0.14,20.36
23578,0.1566,-0.2169,0.8666,-5.98,7.63,0.02,20.34
23588,0.1542,-0.2194,0.8657,-6.0,7.79,-0.09,20.36
23598,0.1521,-0.2202,0.8647,-5.98,7.8,-0.02,20.36
23608,0.1511,-0.2192,0.8657,-6.11,7.74,-0.05,20.35
23618,0.1488,-0.2209,0.8661,-6.12,7.63,-0.06,20.34
23628,0.1498,-0.2191,0.8635,-6.21,7.66,-0.05,20.34
23638,0.1498,-0.22,0.8628,-6.2,7.76,0.02,20.37
23648,0.1515,-0.2225,0.8627,-6.14,7.83,0.03,20.35
23658,0.1504,-0.2229,0.8683,-5.94,7.8,0.0,20.35
23668,0.1512,-0.222,0.8655,-6.11,7.79,0.02,20.37
23678,0.1519,-0.2207,0.8683,-6.08,7.66,-0.11,20.37
23688,0.1548,-0.2224,0.8671,-6.09,7.73,-0.03,20.35
23698,0.1515,-0.2242,0.864,-6.17,7.71,-0.08,20.35
23708,0.1528,-0.2214,0.8668,-6.06,7.73,-0.02,20.35
23718,0.1521,-0.2219,0.8671,-6.02,7.8,-0.08,20.34
23728,0.1517,-0.2234,0.8689,-6.06,7.65,-0.03,20.35
23738,0.1525,-0.2181,0.868,-6.02,7.57,-0.02,20.35
23748,0.1523,-0.2194,0.8639,-6.17,7.65,0.09,20.37
23758,0.155,-0.2227,0.8646,-6.11,7.73,0.0,20.33
23768,0.1571,-0.2217,0.8618,-6.17,7.8,0.03,20.35
23778,0.153,-0.2218,0.8655,-6.18,7.83,-0.06,20.32
23788,0.1522,-0.2206,0.868,-6.03,7.92,-0.03,20.36
23798,0.1539,-0.2184,0.8689,-5.94,7.76,0.0,20.36
23808,0.1509,-0.2169,0.8672,-5.88,7.54,-0.11,20.36
23818,0.1517,-0.2188,0.8639,-6.17,7.44,-0.03,20.35
23828,0.1527,-0.2201,0.8627,-6.31,7.69,-0.14,20.36
23838,0.1548,-0.2241,0.8651,-6.15,7.85,-0.03,20.36
23848,0.1542,-0.2262,0.8666,-6.09,8.08,-0.03,20.34
23858,0.1538,-0.2279,0.8667,-5.94,8.05,0.0,20.34
23868,0.1531,-0.228,0.8728,-5.94,7.82,-0.08,20.35
23878,0.1536,-0.2308,0.8679,-6.08,7.57,-0.09,20.35
23888,0.1555,-0.2268,0.8619,-6.03,7.54,-0.09,20.36
23898,0.1511,-0.228,0.8625,-6.02,7.56,0.14,20.34
23908,0.153,-0.2245,0.8616,-5.89,7.8,0.02,20.37
23918,0.1495,-0.2203,0.8645,-5.71,7.76,0.05,20.34
23928,0.1549,-0.2151,0.8663,-5.6,7.6,0.06,20.36
23938,0.1526,-0.2135,0.8682,-5.85,7.53,-0.11,20.34
23948,0.1515,-0.2152,0.8715,-5.97,7.56,-0.06,20.36
23958,0.1528,-0.2163,0.8669,-6.2,7.8,-0.05,20.36
23968,0.1542,-0.219,0.8674,-6.24,7.85,0.0,20.34
23978,0.1532,-0.2203,0.8621,-6.12,7.83,0.0,20.36
23988,0.1553,-0.2224,0.8654,-5.97,7.69,0.0,20.35
23998,0.1516,-0.2206,0.8645,-5.89,7.57,-0.05,20.35
24008,0.1553,-0.2177,0.8704,-5.88,7.62,-0.05,20.36
24018,0.1559,-0.2179,0.8638,-6.08,7.76,-0.08,20.35
24028,0.1516,-0.2179,0.8666,-6.14,7.88,0.05,20.36
24038,0.1501,-0.2169,0.8682,-6.24,7.83,-0.02,20.35
24048,0.1539,-0.2164,0.8687,-6.2,7.74,-0.11,20.36
24058,0.1527,-0.2201,0.8627,-6.15,7.51,-0.09,20.34
24068,0.1537,-0.2241,0.8601,-6.12,7.48,-0.2,20.35
24078,0.1539,-0.223,0.8632,-6.15,7.65,-0.09,20.35
24088,0.1549,-0.222,0.8665,-6.05,7.68,-0.09,20.37
24098,0.1556,-0.2231,0.8638,-5.94,7.73,0.0,20.37
24108,0.1542,-0.22,0.8691,-5.97,7.73,-0.09,20.36
24118,0.1523,-0.218,0.871,-6.0,7.6,-0.02,20.37
24128,0.1521,-0.219,0.868,-6.08,7.56,-0.02,20.35
24138,0.1531,-0.2191,0.8649,-6.08,7.68,-0.08,20.37
24148,0.1521,-0.2183,0.8676,-6.11,7.71,-0.09,20.35
24158,0.1494,-0.2217,0.8663,-6.03,7.74,-0.03,20.34
24168,0.15,-0.22,0.8666,-6.05,7.85,-0.02,20.37
24178,0.1522,-0.2185,0.8684,-5.98,7.66,-0.02,20.33
24188,0.1519,-0.2216,0.8682,-6.14,7.66,-0.06,20.36
24198,0.1545,-0.222,0.8656,-6.03,7.8,-0.03,20.34
24208,0.1508,-0.2184,0.8641,-6.08,7.79,-0.06,20.37
24218,0.1505,-0.2179,0.8666,-6.03,7.79,-0.14,20.35
24228,0.1538,-0.2225,0.8694,-6.02,7.69,-0.17,20.34
24238,0.1545,-0.224,0.8698,-6.06,7.53,-0.09,20.38
24248,0.1547,-0.2236,0.871,-6.02,7.6,-0.11,20.39
24258,0.1577,-0.2246,0.865,-6.05,7.76,-0.03,20.37
24268,0.1584,-0.2218,0.8634,-6.15,7.92,-0.02,20.36
24278,0.1544,-0.2225,0.86,-6.18,7.97,-0.05,20.35
24288,0.1512,-0.2222,0.8646,-6.03,7.77,-0.12,20.34
24298,0.1514,-0.2235,0.8655,-5.98,7.63,0.02,20.37
24308,0.1534,-0.2217,0.8644,-5.94,7.65,-0.02,20.36
24318,0.1549,-0.2196,0.8621,-6.09,7.76,-0.06,20.38
24328,0.1541,-0.2216,0.8612,-6.09,7.79,-0.03,20.37
24338,0.1515,-0.2191,0.8632,-6.17,7.74,-0.03,20.34
24348,0.1516,-0.2247,0.8618,-5.98,7.83,0.08,20.36
24358,0.1521,-0.2179,0.8615,-6.03,7.65,0.05,20.38
24369,0.1517,-0.2195,0.8615,-5.97,7.66,0.02,20.39
24379,0.1538,-0.2202,0.8691,-6.0,7.62,-0.06,20.34
24389,0.1553,-0.2196,0.866,-5.91,7.68,-0.05,20.33
24400,0.1532,-0.2191,0.8698,-5.85,7.79,-0.06,20.36
24410,0.156,-0.2233,0.8694,-5.89,7.74,-0.06,20.35
24420,0.1562,-0.2229,0.8715,-6.09,7.69,-0.02,20.38
24430,0.1526,-0.2216,0.8702,-6.14,7.76,-0.09,20.37
24440,0.1527,-0.2224,0.866,-6.18,7.83,-0.02,20.38
24450,0.1544,-0.2233,0.8636,-6.11,7.91,0.03,20.34
24460,0.1542,-0.2242,0.8655,-5.97,7.83,0.0,20.37
24470,0.1527,-0.223,0.8707,-5.91,7.74,-0.08,20.36
24480,0.1522,-0.2246,0.8732,-5.97,7.5,-0.06,20.37
24490,0.1544,-0.2205,0.8717,-5.98,7.53,0.0,20.35
24500,0.1512,-0.2219,0.868,-6.03,7.71,-0.08,20.36
24510,0.1531,-0.2194,0.8687,-6.15,7.68,-0.05,20.4
24520,0.1521,-0.2183,0.8646,-6.2,7.86,-0.06,20.36
24530,0.1516,-0.2196,0.8621,-6.14,7.82,0.02,20.37
24540,0.1522,-0.2222,0.864,-5.98,7.79,0.02,20.37
24550,0.1503,-0.2208,0.8663,-5.95,7.63,-0.12,20.37
24560,0.1506,-0.2194,0.8619,-6.03,7.66,-0.02,20.36
24570,0.1517,-0.2183,0.8618,-6.14,7.69,-0.08,20.37
24580,0.1512,-0.218,0.8617,-6.09,7.77,-0.03,20.37
24590,0.1504,-0.2194,0.8566,-6.06,7.85,0.05,20.38
24600,0.15,-0.2185,0.8604,-6.05,7.82,-0.06,20.35
24610,0.151,-0.218,0.8624,-6.0,7.68,-0.06,20.35
24620,0.1528,-0.2167,0.8634,-6.18,7.62,-0.09,20.37
24630,0.1544,-0.2203,0.8656,-6.08,7.68,-0.06,20.38
24640,0.1516,-0.2197,0.8641,-6.05,7.63,-0.08,20.38
24650,0.1526,-0.2189,0.8646,-6.05,7.69,-0.06,20.37
24660,0.1541,-0.222,0.8616,-6.12,7.8,0.0,20.37
24670,0.1555,-0.2206,0.8679,-5.98,7.68,-0.03,20.38
24680,0.1512,-0.2178,0.8743,-6.09,7.74,-0.09,20.38
24690,0.153,-0.2184,0.8678,-6.24,7.73,-0.02,20.37
24700,0.1539,-0.2205,0.8673,-6.23,7.74,-0.06,20.36
24710,0.151,-0.2223,0.8638,-6.23,7.8,-0.18,20.39
24720,0.1523,-0.2224,0.8706,-6.09,7.77,-0.09,20.38
24730,0.1506,-0.2247,0.8672,-6.11,7.77,-0.11,20.37
24740,0.1548,-0.2229,0.8662,-5.89,7.68,-0.11,20.37
24750,0.1525,-0.2245,0.8707,-6.02,7.76,-0.12,20.37
24760,0.1511,-0.2267,0.8705,-6.05,7.74,-0.09,20.36
24770,0.1501,-0.2274,0.8676,-6.06,7.69,-0.06,20.37
24780,0.1497,-0.2269,0.8689,-5.94,7.73,-0.06,20.36
24790,0.1493,-0.2229,0.8668,-5.91,7.66,-0.17,20.37
24800,0.1515,-0.223,0.8689,-6.09,7.57,-0.05,20.38
24810,0.1523,-0.2242,0.8676,-5.89,7.57,-0.03,20.38
24820,0.1534,-0.2223,0.8683,-5.98,7.69,0.06,20.38
24830,0.1555,-0.2238,0.8713,-5.98,7.74,0.0,20.38
24840,0.152,-0.2214,0.8732,-5.98,7.83,0.0,20.39
24850,0.1542,-0.2219,0.8666,-6.11,7.77,0.03,20.37
24860,0.1542,-0.2205,0.8682,-6.06,7.65,0.08,20.37
24870,0.1539,-0.2212,0.8654,-6.03,7.66,0.06,20.36
24880,0.1525,-0.2207,0.8645,-5.95,7.76,0.0,20.36
24890,0.1549,-0.2197,0.8612,-6.06,7.71,0.02,20.37
24900,0.1514,-0.219,0.8645,-6.02,7.8,0.11,20.36
24910,0.1539,-0.2151,0.8627,-6.08,7.71,-0.03,20.37
24920,0.1532,-0.2168,0.8667,-6.12,7.68,0.03,20.39
24930,0.152,-0.2169,0.8616,-6.05,7.71,-0.02,20.38
24940,0.1542,-0.2198,0.8624,-5.95,7.68,-0.03,20.39
24950,0.1515,-0.2167,0.8594,-6.08,7.79,-0.11,20.36
24960,0.1493,-0.2166,0.8606,-6.09,7.76,0.05,20.35
24970,0.1547,-0.2195,0.8555,-6.18,7.8,0.02,20.34
24981,0.1532,-0.2168,0.8574,-6.12,7.76,-0.06,20.36
24991,0.153,-0.2192,0.8633,-6.08,7.69,0.0,20.37
25001,0.1525,-0.2168,0.8646,-6.0,7.85,-0.03,20.35
25011,0.1533,-0.2217,0.8617,-6.09,7.8,-0.06,20.37
25021,0.1506,-0.2196,0.8684,-6.14,7.82,-0.11,20.39
25031,0.1523,-0.223,0.8656,-6.05,7.77,-0.03,20.36
25041,0.1501,-0.223,0.8722,-6.03,7.6,-0.11,20.38
25051,0.1512,-0.2236,0.8694,-6.08,7.56,-0.02,20.35
25061,0.1519,-0.222,0.8729,-6.05,7.74,-0.02,20.36
25072,0.1531,-0.2229,0.8745,-5.98,7.82,-0.08,20.37
25082,0.1514,-0.2247,0.869,-5.89,7.66,-0.08,20.38
25092,0.1511,-0.2247,0.8712,-5.98,7.56,-0.05,20.37
25102,0.1508,-0.2229,0.8698,-5.97,7.8,-0.03,20.37
25112,0.1493,-0.2224,0.8706,-5.91,7.77,-0.05,20.38
25122,0.1527,-0.2231,0.8691,-5.97,7.47,0.02,20.35
25132,0.1515,-0.2181,0.8718,-6.05,7.56,-0.05,20.39
25142,0.1497,-0.218,0.8708,-6.06,7.74,-0.09,20.37
25152,0.1558,-0.2201,0.8658,-6.0,7.62,-0.09,20.37
25162,0.1531,-0.2179,0.8688,-6.17,7.63,-0.08,20.38
25172,0.1561,-0.2179,0.8658,-6.17,7.63,-0.02,20.37
25182,0.1571,-0.2218,0.8661,-6.2,7.71,-0.06,20.37
25192,0.155,-0.217,0.864,-6.24,7.71,-0.08,20.37
25202,0.1541,-0.2201,0.8645,-6.18,7.8,-0.02,20.38
25212,0.1538,-0.2214,0.8611,-5.98,7.76,-0.09,20.38
25222,0.1559,-0.2196,0.8661,-6.11,7.65,-0.06,20.38
25232,0.1528,-0.218,0.8602,-6.15,7.63,-0.12,20.35
25242,0.1522,-0.2179,0.8593,-6.15,7.6,-0.09,20.39
25252,0.1512,-0.22,0.8595,-6.27,7.6,-0.11,20.38
25262,0.1545,-0.2222,0.8584,-6.17,7.74,-0.05,20.38
25272,0.1544,-0.2242,0.8578,-6.05,7.8,-0.06,20.38
25282,0.1503,-0.223,0.8596,-5.98,7.79,-0.05,20.35
25292,0.15,-0.222,0.8638,-6.02,7.8,-0.11,20.37
25302,0.1505,-0.2229,0.8623,-6.08,7.66,0.0,20.38
25312,0.1495,-0.2236,0.8663,-6.15,7.71,-0.11,20.36
25322,0.15,-0.2209,0.8634,-6.12,7.76,0.03,20.37
25332,0.1526,-0.2195,0.8618,-6.02,7.85,-0.06,20.36
25342,0.1515,-0.2235,0.8654,-6.0,7.85,-0.06,20.39
25352,0.1504,-0.2231,0.8634,-5.97,7.86,-0.09,20.39
25362,0.1494,-0.2244,0.8687,-5.94,7.85,-0.02,20.36
25372,0.152,-0.2227,0.8671,-5.97,7.85,0.06,20.37
25382,0.1527,-0.2239,0.8656,-5.94,7.69,-0.03,20.37
25392,0.1547,-0.2217,0.8672,-6.09,7.73,-0.08,20.37
25402,0.1564,-0.2251,0.8665,-6.12,7.59,-0.05,20.36
25412,0.1549,-0.2219,0.8682,-6.09,7.63,-0.09,20.39
25422,0.1566,-0.2244,0.8678,-6.0,7.65,-0.11,20.38
25432,0.1545,-0.2196,0.8716,-5.89,7.71,-0.03,20.39
25442,0.1533,-0.2192,0.8717,-5.85,7.77,-0.03,20.35
25452,0.1543,-0.2183,0.8707,-5.98,7.69,-0.08,20.36
25462,0.156,-0.2185,0.8743,-6.06,7.69,-0.11,20.38
25472,0.1523,-0.2201,0.8674,-6.06,7.65,-0.09,20.37
25482,0.1522,-0.2202,0.8677,-6.15,7.69,-0.05,20.36
25492,0.1537,-0.2208,0.8678,-6.14,7.71,-0.02,20.37
25502,0.1564,-0.2207,0.8658,-6.03,7.69,-0.08,20.36
25512,0.1544,-0.2196,0.8636,-6.02,7.69,-0.05,20.35
25522,0.1539,-0.2195,0.8629,-5.97,7.69,-0.02,20.35
25532,0.1527,-0.2194,0.8634,-5.95,7.73,-0.08,20.36
25542,0.1526,-0.2181,0.8673,-5.97,7.63,-0.09,20.38
25552,0.1533,-0.2192,0.8586,-6.14,7.63,-0.05,20.37
25562,0.1541,-0.2183,0.8618,-6.2,7.76,-0.06,20.38
25572,0.1555,-0.2213,0.8575,-6.08,7.8,0.05,20.36
25582,0.1519,-0.2217,0.8577,-6.05,7.86,-0.09,20.38
25592,0.149,-0.2218,0.8589,-6.0,7.74,-0.03,20.38
25602,0.1506,-0.2216,0.8651,-5.97,7.66,-0.09,20.37
25612,0.1511,-0.2192,0.8633,-5.92,7.68,0.08,20.38
25622,0.1528,-0.2189,0.8635,-6.06,7.73,0.0,20.38
25632,0.1505,-0.2194,0.8646,-6.03,7.76,-0.06,20.38
25642,0.1511,-0.2211,0.8678,-6.08,7.74,-0.05,20.37
25652,0.1503,-0.2214,0.8677,-6.06,7.77,-0.08,20.38
25662,0.1528,-0.2228,0.8661,-6.09,7.69,0.0,20.37
25672,0.1558,-0.223,0.8658,-6.12,7.69,-0.05,20.36
25682,0.1537,-0.2224,0.8658,-6.2,7.62,0.05,20.36
25692,0.1533,-0.2224,0.8647,-6.08,7.8,-0.06,20.38
25702,0.1537,-0.2195,0.8649,-6.05,7.69,-0.06,20.38
25712,0.1544,-0.2238,0.8694,-6.11,7.8,-0.02,20.39
25722,0.1536,-0.2207,0.8671,-6.12,7.8,-0.08,20.37
25732,0.1541,-0.2222,0.8658,-6.06,7.66,-0.09,20.38
25742,0.1586,-0.2238,0.8678,-6.17,7.76,-0.06,20.38
25752,0.155,-0.225,0.8651,-6.2,7.83,-0.06,20.36
25762,0.1526,-0.226,0.8708,-6.05,7.89,0.0,20.37
25772,0.1531,-0.2256,0.8673,-5.94,7.77,-0.03,20.35
25782,0.1512,-0.2256,0.8707,-5.88,7.77,-0.09,20.39
25792,0.1536,-0.2244,0.8676,-6.09,7.62,0.02,20.37
25802,0.1526,-0.224,0.8641,-6.05,7.57,0.0,20.38
25812,0.1522,-0.226,0.8601,-6.14,7.73,-0.05,20.38
25822,0.1558,-0.2257,0.8636,-6.14,7.91,0.03,20.39
25832,0.1569,-0.2234,0.863,-5.95,7.91,0.05,20.38
25842,0.1538,-0.2217,0.8595,-5.69,7.85,0.05,20.37
25852,0.1531,-0.2203,0.8656,-5.8,7.71,-0.08,20.38
25862,0.1503,-0.2196,0.8646,-5.82,7.6,-0.03,20.37
25872,0.1504,-0.2157,0.8643,-5.91,7.59,-0.05,20.38
25882,0.1508,-0.2163,0.863,-6.17,7.74,-0.02,20.38
25892,0.1511,-0.2177,0.864,-6.11,7.79,-0.02,20.41
25902,0.1492,-0.2189,0.8632,-6.02,7.82,-0.02,20.37
25912,0.1476,-0.2184,0.8646,-6.02,7.77,0.05,20.4
25922,0.1498,-0.2197,0.8688,-6.14,7.71,0.11,20.39
25933,0.1537,-0.2231,0.8655,-6.05,7.6,-0.05,20.37
25943,0.153,-0.2214,0.869,-6.2,7.71,-0.06,20.37
25953,0.1511,-0.2224,0.8665,-6.11,7.83,-0.03,20.35
25963,0.152,-0.2217,0.8682,-6.08,7.82,0.05,20.37
25973,0.1534,-0.2234,0.8641,-6.0,7.71,-0.11,20.39
25983,0.15,-0.2213,0.8674,-6.05,7.69,-0.02,20.39
25993,0.1537,-0.2202,0.8671,-5.91,7.6,0.02,20.38
26003,0.1517,-0.2207,0.8678,-6.03,7.74,-0.03,20.35
26013,0.1545,-0.2205,0.8672,-6.06,7.73,-0.02,20.38
26023,0.1534,-0.2206,0.8677,-6.05,7.73,-0.02,20.39
26033,0.1549,-0.2198,0.8663,-6.03,7.62,-0.09,20.39
26043,0.155,-0.219,0.8707,-6.0,7.62,-0.08,20.37
26053,0.158,-0.2219,0.8636,-5.98,7.73,-0.03,20.38
26063,0.1567,-0.2219,0.8671,-6.0,7.73,-0.02,20.39
26073,0.1561,-0.2178,0.8698,-6.0,7.85,-0.02,20.39
26083,0.1543,-0.2198,0.8641,-6.09,7.85,-0.06,20.38
26093,0.153,-0.2217,0.8639,-6.06,7.69,0.02,20.37
26103,0.1542,-0.2218,0.8676,-6.2,7.63,-0.02,20.38
26113,0.1525,-0.2196,0.864,-5.98,7.65,-0.08,20.4
26123,0.1565,-0.2197,0.8627,-6.02,7.76,-0.08,20.37
26133,0.1534,-0.2211,0.8655,-5.94,7.82,0.02,20.38
26143,0.1542,-0.2198,0.8657,-6.08,7.82,0.03,20.38
26153,0.1562,-0.2196,0.8651,-6.11,7.73,0.06,20.38
26163,0.1533,-0.2211,0.8666,-6.15,7.62,-0.05,20.38
26173,0.1526,-0.2201,0.8635,-6.06,7.77,0.0,20.42
26183,0.1548,-0.2238,0.8646,-5.97,7.83,0.05,20.36
26194,0.1516,-0.2197,0.8655,-6.03,7.82,-0.02,20.39
26204,0.1508,-0.2197,0.8629,-5.98,7.79,-0.05,20.4
26214,0.1512,-0.2218,0.8628,-5.97,7.65,-0.06,20.38
26224,0.1511,-0.2207,0.865,-6.08,7.65,-0.03,20.38
26234,0.1527,-0.219,0.8654,-6.05,7.59,-0.05,20.37
26244,0.1506,-0.2212,0.8655,-6.03,7.88,-0.02,20.39
26254,0.1511,-0.2222,0.8627,-5.94,7.77,-0.05,20.38
26264,0.1523,-0.2211,0.8665,-6.03,7.79,-0.02,20.4
26274,0.1534,-0.2222,0.8671,-6.02,7.62,0.09,20.39
26284,0.1559,-0.2202,0.869,-6.06,7.6,-0.05,20.39
26294,0.153,-0.2224,0.8665,-6.15,7.69,-0.03,20.38
26304,0.1532,-0.2218,0.8596,-6.03,7.79,-0.02,20.4
26314,0.1531,-0.2195,0.8625,-6.05,7.8,-0.12,20.4
26324,0.1525,-0.222,0.863,-6.12,7.71,-0.06,20.37
26334,0.1539,-0.2228,0.8628,-5.95,7.66,0.06,20.38
26344,0.1541,-0.2228,0.8646,-5.98,7.76,-0.09,20.37
26354,0.156,-0.2201,0.8673,-5.98,7.63,0.03,20.41
26364,0.1549,-0.2185,0.8677,-5.98,7.79,0.02,20.39
26374,0.1544,-0.2229,0.8688,-6.03,7.76,-0.02,20.38
26384,0.1511,-0.2235,0.8667,-6.03,7.66,-0.05,20.39
26394,0.1531,-0.2205,0.8668,-6.06,7.65,0.02,20.39
26404,0.156,-0.2209,0.8647,-6.02,7.66,-0.05,20.39
26414,0.1531,-0.2229,0.8622,-6.08,7.8,-0.08,20.38
26424,0.1508,-0.2233,0.866,-6.06,7.71,-0.11,20.39
26434,0.1528,-0.2207,0.8677,-6.11,7.76,0.03,20.39
26444,0.151,-0.2205,0.8636,-6.12,7.71,0.02,20.4
26454,0.155,-0.218,0.8673,-6.08,7.71,0.02,20.4
26464,0.1525,-0.2207,0.8655,-6.15,7.65,-0.03,20.41
26474,0.1539,-0.2218,0.8668,-6.11,7.74,-0.06,20.37
26484,0.1536,-0.2203,0.863,-6.09,7.88,0.03,20.39
26494,0.1528,-0.2236,0.8668,-6.08,7.82,-0.09,20.4
26504,0.1522,-0.2225,0.8661,-5.94,7.69,-0.08,20.4
26514,0.1522,-0.2212,0.8687,-6.0,7.73,-0.11,20.4
26524,0.1533,-0.2209,0.8641,-6.08,7.69,-0.12,20.4
26534,0.152,-0.2214,0.8619,-6.14,7.82,-0.06,20.39
26544,0.1533,-0.2197,0.8584,-6.06,7.77,0.05,20.4
26554,0.1521,-0.2234,0.864,-6.08,7.82,0.0,20.38
26564,0.1538,-0.22,0.866,-5.98,7.83,-0.09,20.4
26574,0.1547,-0.2195,0.8672,-6.02,7.77,-0.08,20.38
26584,0.1521,-0.2183,0.8688,-6.09,7.66,-0.02,20.39
26594,0.151,-0.2213,0.8684,-6.05,7.71,-0.09,20.39
26604,0.1545,-0.2223,0.8636,-6.11,7.71,-0.15,20.38
26614,0.1523,-0.2208,0.8658,-6.08,7.82,-0.08,20.38
26624,0.152,-0.2213,0.8638,-6.09,7.83,-0.06,20.42
26634,0.1532,-0.2208,0.8662,-6.05,7.71,-0.08,20.39
26644,0.1523,-0.2211,0.8695,-6.0,7.71,-0.12,20.39
26654,0.153,-0.2205,0.8673,-6.08,7.62,-0.09,20.38
26664,0.151,-0.2201,0.8668,-6.06,7.66,-0.11,20.39
26674,0.1545,-0.2225,0.8671,-6.09,7.62,0.03,20.39
26684,0.1508,-0.2203,0.8639,-6.0,7.73,0.02,20.4
26694,0.1511,-0.2201,0.8639,-6.0,7.79,-0.08,20.39
26704,0.1536,-0.2191,0.8665,-5.88,7.69,0.0,20.41
26714,0.1516,-0.219,0.8657,-6.0,7.69,-0.05,20.39
26724,0.1506,-0.2184,0.865,-6.14,7.68,-0.02,20.42
26734,0.1534,-0.2207,0.8672,-6.05,7.73,-0.02,20.4
26744,0.1534,-0.2225,0.8643,-6.15,7.73,-0.12,20.39
26754,0.1552,-0.2234,0.8679,-6.18,7.77,-0.11,20.39
26764,0.1542,-0.2212,0.8711,-6.08,7.73,-0.09,20.4
26774,0.1525,-0.2238,0.8683,-6.09,7.79,-0.08,20.41
26784,0.152,-0.2231,0.8667,-6.0,7.77,0.0,20.39
26794,0.1537,-0.222,0.8652,-6.15,7.69,-0.06,20.39
26804,0.1542,-0.2231,0.8657,-6.03,7.68,-0.09,20.39
26814,0.1543,-0.2195,0.8649,-6.03,7.62,-0.05,20.38
26824,0.1534,-0.2197,0.8639,-6.06,7.62,0.03,20.37
26834,0.1517,-0.2175,0.8625,-6.0,7.62,-0.14,20.38
26844,0.1555,-0.2177,0.8636,-6.0,7.62,-0.15,20.42
26854,0.1552,-0.2194,0.8658,-6.02,7.56,-0.14,20.38
26864,0.1573,-0.22,0.8643,-6.06,7.62,-0.11,20.39
26874,0.1581,-0.2225,0.8683,-6.17,7.73,-0.11,20.37
26884,0.1581,-0.2247,0.8645,-6.18,7.74,-0.09,20.39
26894,0.1528,-0.2255,0.8623,-6.27,7.82,0.0,20.39
26904,0.1566,-0.2255,0.8639,-6.14,7.8,-0.02,20.39
26914,0.1564,-0.2255,0.8644,-5.98,7.73,-0.03,20.42
26924,0.1504,-0.2227,0.863,-5.83,7.8,0.05,20.39
26934,0.1503,-0.2223,0.8654,-5.91,7.76,0.05,20.37
26944,0.1495,-0.2223,0.8643,-5.91,7.69,-0.05,20.39
26954,0.1501,-0.222,0.8698,-6.08,7.65,-0.11,20.41
26964,0.1497,-0.2192,0.868,-5.95,7.71,-0.02,20.39
26974,0.1498,-0.2213,0.8652,-6.0,7.77,-0.06,20.38
26984,0.1512,-0.2189,0.8682,-5.97,7.77,-0.05,20.37
26994,0.1534,-0.2246,0.8651,-6.02,7.73,0.02,20.39
27004,0.1537,-0.2235,0.8679,-6.11,7.65,-0.06,20.38
27014,0.1531,-0.2209,0.8633,-5.97,7.68,0.02,20.39
27024,0.1539,-0.2212,0.868,-5.94,7.73,0.09,20.37
27034,0.1519,-0.2197,0.8718,-6.0,7.82,-0.03,20.39
27044,0.1531,-0.2177,0.8679,-5.98,7.89,0.03,20.39
27054,0.1533,-0.2196,0.8668,-6.0,7.86,0.0,20.39
27064,0.1537,-0.2217,0.8644,-5.94,7.68,0.02,20.39
27074,0.1505,-0.2173,0.8668,-6.02,7.68,-0.05,20.38
27084,0.151,-0.2151,0.86,-5.98,7.57,-0.06,20.37
27094,0.1531,-0.2152,0.8602,-6.08,7.56,-0.08,20.39
27104,0.157,-0.215,0.8658,-6.05,7.63,-0.11,20.39
27114,0.1532,-0.2159,0.8658,-6.15,7.77,-0.05,20.38
27124,0.1571,-0.2209,0.8722,-6.21,8.0,0.02,20.39
27134,0.156,-0.228,0.8695,-6.4,7.97,-0.05,20.39
27144,0.155,-0.2284,0.866,-6.37,7.86,0.05,20.38
27154,0.1548,-0.2306,0.8611,-6.29,7.8,-0.05,20.38
27164,0.1538,-0.2314,0.8627,-6.14,7.91,0.03,20.4
27174,0.1517,-0.2246,0.8577,-5.76,7.76,0.0,20.4
27184,0.147,-0.2231,0.8629,-5.69,7.66,0.03,20.4
27194,0.1495,-0.2205,0.8638,-5.8,7.48,-0.06,20.39
27204,0.1525,-0.2186,0.8627,-5.85,7.65,0.06,20.4
27214,0.153,-0.222,0.8691,-5.88,7.92,0.0,20.38
27224,0.1536,-0.2257,0.8741,-6.12,8.17,0.09,20.4
27234,0.15,-0.2277,0.8691,-6.23,8.0,0.0,20.41
27244,0.1473,-0.2308,0.8695,-6.03,7.74,-0.03,20.4
27254,0.1526,-0.2258,0.8646,-5.85,7.5,-0.02,20.4
27264,0.1494,-0.2235,0.8682,-5.69,7.65,0.05,20.42
27274,0.1522,-0.2207,0.8698,-5.53,7.66,0.02,20.41
27284,0.1528,-0.2202,0.8682,-5.65,7.69,0.0,20.4
27294,0.1506,-0.2111,0.8682,-5.76,7.69,0.0,20.39
27304,0.1522,-0.2168,0.8652,-6.09,7.62,-0.11,20.39
27314,0.1554,-0.2214,0.863,-6.34,7.48,-0.08,20.38
27324,0.1573,-0.2251,0.86,-6.15,7.82,-0.08,20.39
27334,0.1561,-0.225,0.8561,-5.79,8.05,0.03,20.4
27344,0.1515,-0.2261,0.8666,-5.56,7.89,0.02,20.38
27354,0.1517,-0.2211,0.8727,-5.68,7.63,-0.02,20.4
27364,0.1545,-0.2196,0.8657,-5.69,7.25,-0.09,20.39
27374,0.156,-0.2145,0.8649,-5.76,7.21,-0.05,20.39
27384,0.162,-0.2096,0.8677,-6.06,7.73,-0.05,20.38
27394,0.1484,-0.2106,0.8615,-6.18,8.11,0.08,20.39
27404,0.1488,-0.2111,0.8601,-5.63,7.66,-0.09,20.41
27414,0.1554,-0.2119,0.8717,-5.6,7.5,-0.2,20.39
27424,0.1562,-0.214,0.8735,-5.95,7.69,-0.06,20.39
27434,0.1545,-0.2196,0.8693,-6.37,7.86,-0.11,20.41
27444,0.1559,-0.2212,0.8647,-6.67,8.06,-0.02,20.39
27454,0.1543,-0.2261,0.8595,-6.7,7.95,-0.05,20.37
27464,0.1539,-0.228,0.8563,-5.88,7.65,-0.11,20.38
27474,0.156,-0.2235,0.8627,-5.56,7.57,-0.08,20.41
27484,0.1565,-0.2223,0.8638,-5.66,7.83,0.0,20.38
27494,0.1506,-0.2207,0.8715,-5.86,7.98,-0.03,20.4
27504,0.1494,-0.2203,0.8734,-6.02,7.82,-0.06,20.4
27514,0.1476,-0.2206,0.8661,-6.15,7.69,-0.06,20.39
27524,0.1511,-0.2202,0.863,-5.91,7.53,-0.06,20.39
27534,0.1495,-0.2206,0.8676,-5.83,7.71,-0.09,20.4
27544,0.1486,-0.2186,0.8656,-6.06,7.88,-0.05,20.38
27554,0.1494,-0.2214,0.87,-6.17,7.88,0.0,20.37
27564,0.1514,-0.2233,0.8661,-6.14,7.76,0.09,20.39
27574,0.151,-0.222,0.8683,-5.98,7.69,-0.11,20.41
27584,0.1533,-0.2208,0.8689,-5.98,7.77,0.03,20.39
27594,0.1523,-0.2197,0.868,-5.95,7.83,0.02,20.4
27604,0.1578,-0.2241,0.8792,-6.4,7.77,0.21,20.38
27614,0.1488,-0.2152,0.8772,-7.22,8.18,0.69,20.4
27624,0.181,-0.213,0.8496,-8.27,7.88,-0.58,20.39
27634,0.1613,-0.2158,0.8215,-8.34,8.27,1.34,20.38
27644,0.1311,-0.2334,0.8677,-6.95,7.86,0.95,20.39
27654,0.1494,-0.2269,0.8438,-5.02,5.6,0.09,20.41
27664,0.192,-0.2103,0.8917,-6.0,7.39,0.18,20.4
27674,0.1562,-0.218,0.8992,-9.31,12.46,0.38,20.4
27684,0.1295,-0.2469,0.8198,-8.53,11.25,-0.09,20.42
27694,0.114,-0.2538,0.7863,-2.58,3.45,-0.66,20.4
