t_ms,accel_x_g,accel_y_g,accel_z_g,gyro_x_dps,gyro_y_dps,gyro_z_dps,imu_temp_c
3272,0.2686,-0.0358,0.8668,-5.88,7.65,-0.05,18.42
3283,0.2755,-0.036,0.8806,-5.86,7.69,-0.11,18.45
3293,0.2716,-0.0333,0.8715,-5.94,7.85,-0.05,18.44
3303,0.2732,-0.0342,0.8738,-5.82,7.77,-0.03,18.46
3313,0.2781,-0.0366,0.875,-5.88,7.74,0.0,18.46
3323,0.275,-0.0369,0.8716,-5.91,7.89,-0.11,18.44
3333,0.2732,-0.0371,0.8694,-5.91,7.76,-0.06,18.46
3343,0.2717,-0.0364,0.8734,-5.77,7.76,-0.03,18.44
3353,0.2731,-0.0355,0.87,-5.91,7.85,-0.05,18.46
3363,0.2703,-0.0341,0.8668,-5.82,7.76,0.0,18.47
3373,0.2736,-0.0349,0.871,-5.85,7.74,-0.06,18.44
3383,0.2711,-0.0331,0.8687,-5.79,7.83,0.0,18.46
3393,0.2679,-0.0312,0.8691,-5.77,7.76,-0.08,18.47
3403,0.2704,-0.0339,0.8683,-5.88,7.71,-0.08,18.45
3413,0.2683,-0.0304,0.8724,-5.97,7.8,-0.09,18.45
3423,0.2654,-0.0338,0.8665,-5.88,7.79,-0.03,18.46
3433,0.2577,-0.0319,0.8553,-5.82,7.66,-0.09,18.46
3443,0.2599,-0.0343,0.8551,-5.91,7.65,0.02,18.43
3453,0.2653,-0.015,0.8542,-5.91,7.8,-0.08,18.47
3463,0.2756,-0.0211,0.8629,-5.86,7.47,-0.03,18.45
3473,0.2802,-0.0455,0.8856,-5.86,7.65,-0.06,18.46
3483,0.2904,-0.0413,0.8999,-6.09,7.92,-0.08,18.48
3493,0.2932,-0.0406,0.8949,-6.06,7.74,0.09,18.48
3503,0.2925,-0.0347,0.8896,-6.09,7.74,0.05,18.49
3513,0.2812,-0.0281,0.8782,-6.09,7.88,-0.06,18.45
3523,0.2682,-0.0226,0.87,-5.98,7.77,0.03,18.48
3533,0.2632,-0.0229,0.8691,-5.92,7.76,-0.05,18.48
3543,0.2612,-0.0314,0.8597,-5.8,7.76,-0.15,18.49
3553,0.2627,-0.0398,0.8538,-5.68,7.69,-0.08,18.46
3563,0.2632,-0.0406,0.8615,-5.91,7.68,-0.17,18.48
3573,0.2664,-0.0426,0.8628,-5.89,7.65,-0.08,18.47
3583,0.269,-0.0372,0.8597,-6.06,7.6,-0.02,18.47
3593,0.2709,-0.0254,0.8682,-6.08,7.51,-0.02,18.48
3603,0.2725,-0.022,0.8734,-6.06,7.6,-0.08,18.47
3613,0.2725,-0.0225,0.8763,-6.03,7.59,0.02,18.47
3623,0.2729,-0.0298,0.8851,-6.02,7.5,-0.08,18.48
3633,0.2781,-0.0371,0.8818,-6.0,7.59,-0.09,18.46
3643,0.277,-0.0436,0.8845,-5.89,7.68,-0.11,18.47
3653,0.2745,-0.0464,0.8779,-5.92,7.69,-0.11,18.47
3663,0.2776,-0.0413,0.8765,-6.0,7.77,-0.05,18.47
3673,0.2688,-0.0371,0.8607,-5.82,7.71,0.03,18.48
3683,0.264,-0.0354,0.8652,-5.82,7.76,-0.03,18.48
3693,0.2686,-0.0361,0.8617,-5.8,7.77,-0.06,18.47
3703,0.2682,-0.0312,0.8618,-5.88,7.63,0.03,18.47
3713,0.2704,-0.0326,0.8625,-5.83,7.6,-0.06,18.47
3723,0.2708,-0.0304,0.8651,-5.98,7.71,-0.06,18.49
3733,0.2709,-0.032,0.8622,-5.94,7.69,-0.11,18.48
3743,0.2657,-0.0343,0.8625,-5.95,7.65,-0.06,18.48
3753,0.2653,-0.0299,0.8708,-6.05,7.65,-0.02,18.46
3763,0.2686,-0.0336,0.8726,-5.98,7.6,-0.06,18.51
3773,0.2666,-0.0321,0.8785,-6.03,7.59,-0.05,18.48
3783,0.271,-0.0295,0.8781,-6.03,7.57,-0.02,18.5
3793,0.2759,-0.0315,0.8796,-6.0,7.6,-0.02,18.51
3803,0.2766,-0.0354,0.8804,-6.05,7.59,0.0,18.48
3813,0.2751,-0.0365,0.8778,-6.11,7.73,-0.06,18.5
3823,0.2756,-0.04,0.8727,-6.11,7.69,0.0,18.49
3833,0.2709,-0.0381,0.8684,-6.11,7.63,0.05,18.5
3843,0.2715,-0.0375,0.8662,-5.98,7.65,0.03,18.49
3853,0.2677,-0.0359,0.8617,-6.0,7.69,-0.06,18.49
3863,0.2679,-0.037,0.8682,-5.85,7.68,0.03,18.48
3873,0.271,-0.0388,0.8671,-5.83,7.59,0.02,18.49
3883,0.2747,-0.036,0.8705,-5.89,7.63,-0.03,18.51
3894,0.2717,-0.0325,0.8756,-5.92,7.65,-0.03,18.49
3904,0.2725,-0.0325,0.8813,-5.89,7.59,0.0,18.49
3914,0.2773,-0.0322,0.882,-5.98,7.59,-0.08,18.5
3924,0.274,-0.0358,0.8846,-5.89,7.66,0.03,18.52
3934,0.2736,-0.0345,0.8748,-5.95,7.65,-0.03,18.53
3944,0.2776,-0.0371,0.8738,-5.91,7.65,-0.03,18.54
3954,0.2698,-0.0443,0.8765,-5.8,7.82,-0.05,18.48
3964,0.2712,-0.0421,0.8683,-5.85,7.71,-0.11,18.51
3974,0.2721,-0.0394,0.865,-5.83,7.71,-0.03,18.51
3984,0.2704,-0.0385,0.8694,-5.77,7.74,-0.02,18.51
3994,0.2708,-0.0337,0.865,-5.89,7.68,-0.03,18.52
4004,0.2733,-0.0327,0.8685,-5.77,7.74,-0.08,18.51
4014,0.2705,-0.036,0.87,-5.82,7.68,-0.11,18.49
4024,0.2711,-0.0352,0.8635,-5.79,7.71,-0.05,18.52
4034,0.2731,-0.0344,0.8645,-5.82,7.79,-0.09,18.5
4044,0.2703,-0.0294,0.8662,-5.8,7.71,-0.11,18.52
4054,0.2673,-0.0326,0.8669,-5.85,7.71,-0.02,18.49
4064,0.2665,-0.0294,0.8687,-5.89,7.74,-0.11,18.54
4074,0.2689,-0.0294,0.8699,-5.91,7.69,0.03,18.53
4084,0.2705,-0.0278,0.8745,-6.02,7.73,-0.02,18.49
4094,0.2701,-0.0273,0.8696,-6.0,7.66,0.02,18.5
4105,0.2726,-0.0304,0.874,-6.06,7.76,-0.06,18.51
4115,0.2726,-0.0333,0.8704,-6.06,7.74,-0.03,18.52
4125,0.2692,-0.0322,0.871,-5.97,7.73,-0.02,18.55
4135,0.2708,-0.0336,0.8728,-6.0,7.68,-0.02,18.51
4145,0.2697,-0.03,0.8751,-5.92,7.73,-0.08,18.53
4155,0.2688,-0.0277,0.8704,-5.91,7.71,-0.06,18.51
4165,0.2745,-0.0299,0.8781,-6.06,7.63,0.05,18.52
4175,0.2731,-0.0315,0.877,-6.05,7.68,-0.06,18.53
4185,0.2719,-0.0345,0.8727,-6.03,7.63,-0.08,18.5
4195,0.2705,-0.0375,0.8745,-6.03,7.66,-0.05,18.54
4205,0.2728,-0.0382,0.8751,-6.03,7.63,-0.05,18.52
4215,0.2717,-0.0377,0.8744,-6.0,7.66,-0.09,18.49
4225,0.2719,-0.036,0.8788,-5.89,7.62,-0.05,18.51
4235,0.275,-0.0343,0.8795,-6.05,7.66,-0.09,18.51
4245,0.2748,-0.0352,0.8724,-5.95,7.68,-0.09,18.51
4255,0.2753,-0.0355,0.877,-5.91,7.65,-0.15,18.51
4265,0.2747,-0.037,0.8754,-5.92,7.66,-0.2,18.52
4275,0.2753,-0.0337,0.8689,-5.85,7.68,-0.14,18.53
4285,0.275,-0.0375,0.8706,-5.92,7.63,-0.15,18.52
4295,0.2716,-0.0367,0.8689,-5.88,7.66,-0.08,18.52
4305,0.2736,-0.0399,0.8669,-5.85,7.71,-0.11,18.52
4315,0.274,-0.037,0.8724,-5.79,7.76,-0.09,18.53
4325,0.272,-0.038,0.8705,-5.76,7.71,0.0,18.53
4335,0.2705,-0.036,0.8718,-5.79,7.79,-0.06,18.54
4345,0.2686,-0.0353,0.8636,-5.89,7.77,-0.11,18.52
4355,0.2701,-0.0349,0.861,-5.91,7.56,1.42,18.52
4365,0.2655,-0.0376,0.8661,-5.89,7.76,0.03,18.49
4375,0.2648,-0.0367,0.8688,-5.82,7.76,-0.02,18.53
4385,0.2695,-0.0372,0.864,-5.94,7.79,-0.02,18.54
4395,0.2695,-0.0382,0.8662,-5.91,7.74,-0.05,18.52
4405,0.2684,-0.0352,0.8691,-5.92,7.73,0.02,18.54
4415,0.2712,-0.0336,0.8652,-6.0,7.71,0.05,18.53
4425,0.2704,-0.0328,0.8658,-5.89,7.83,-0.02,18.54
4435,0.2693,-0.0325,0.8695,-5.95,7.77,0.03,18.54
4445,0.2706,-0.0305,0.8716,-5.94,7.69,0.0,18.53
4455,0.2721,-0.0331,0.8734,-5.94,7.77,-0.05,18.54
4465,0.2684,-0.0341,0.8737,-5.94,7.77,-0.03,18.52
4475,0.271,-0.0331,0.8741,-5.86,7.71,-0.02,18.52
4485,0.2733,-0.0311,0.8711,-6.0,7.71,-0.08,18.51
4495,0.2709,-0.0333,0.8767,-5.89,7.74,-0.05,18.53
4505,0.2731,-0.0328,0.876,-6.0,7.76,-0.06,18.52
4515,0.2761,-0.0312,0.8776,-6.08,7.6,-0.02,18.54
4525,0.2699,-0.0284,0.8798,-5.91,7.6,-0.11,18.55
4535,0.2704,-0.0297,0.8763,-6.0,7.56,-0.06,18.54
4545,0.2701,-0.0317,0.8767,-5.92,7.56,-0.03,18.53
4555,0.2717,-0.0328,0.8724,-5.97,7.63,-0.11,18.57
4565,0.2704,-0.031,0.8744,-5.89,7.59,-0.03,18.56
4575,0.2698,-0.0349,0.8722,-5.95,7.56,-0.03,18.57
4585,0.2742,-0.0326,0.8745,-5.86,7.57,-0.03,18.54
4595,0.2709,-0.0316,0.87,-6.03,7.56,-0.08,18.54
4605,0.2677,-0.0309,0.8757,-5.97,7.57,-0.06,18.55
4615,0.2689,-0.0315,0.8722,-5.98,7.63,-0.09,18.55
4625,0.2709,-0.032,0.8651,-5.98,7.6,-0.03,18.56
4635,0.2704,-0.0343,0.8706,-5.95,7.62,-0.05,18.54
4645,0.2736,-0.0359,0.8712,-5.94,7.63,-0.06,18.57
4655,0.2742,-0.0396,0.8718,-5.91,7.6,-0.02,18.55
4665,0.2744,-0.036,0.8687,-5.89,7.65,-0.05,18.54
4675,0.2726,-0.0354,0.8676,-5.95,7.62,-0.02,18.56
4685,0.2712,-0.0358,0.8737,-6.03,7.63,-0.02,18.55
4695,0.2723,-0.0349,0.8655,-6.06,7.68,-0.02,18.57
4705,0.2708,-0.035,0.8643,-6.06,7.76,-0.05,18.56
4715,0.2648,-0.0389,0.8628,-5.95,7.76,0.02,18.54
4725,0.2682,-0.037,0.864,-6.05,7.69,-0.02,18.56
4735,0.2651,-0.0387,0.8589,-6.03,7.73,0.03,18.55
4745,0.2682,-0.0374,0.8638,-6.06,7.71,0.02,18.54
4755,0.2686,-0.0323,0.8673,-6.09,7.73,-0.06,18.55
4765,0.27,-0.0299,0.871,-6.12,7.59,-0.06,18.56
4775,0.2733,-0.0278,0.8722,-6.09,7.57,0.02,18.55
4785,0.2705,-0.0272,0.8732,-6.03,7.62,-0.03,18.57
4795,0.27,-0.0287,0.8643,-6.05,7.62,0.03,18.59
4805,0.266,-0.0327,0.8706,-6.21,7.68,0.14,18.59
4815,0.2621,-0.0321,0.8651,-6.24,7.71,0.03,18.55
4825,0.2617,-0.0298,0.8578,-6.34,7.66,0.03,18.56
4835,0.2645,-0.0253,0.8628,-6.23,7.53,0.02,18.54
4845,0.2712,-0.0282,0.8688,-6.2,7.48,-0.02,18.55
4855,0.281,-0.0314,0.8805,-6.11,7.39,-0.12,18.57
4865,0.2885,-0.0342,0.9014,-6.0,7.28,-0.08,18.55
4875,0.2931,-0.0378,0.9167,-5.88,7.59,-0.06,18.54
4885,0.2914,-0.0391,0.9102,-5.94,7.6,-0.09,18.56
4895,0.2815,-0.0421,0.8998,-5.98,7.74,-0.14,18.56
4905,0.2709,-0.036,0.885,-6.05,7.8,-0.06,18.54
4915,0.2654,-0.0389,0.868,-6.06,7.73,-0.11,18.53
4925,0.2659,-0.0381,0.8621,-6.09,7.62,-0.17,18.58
4935,0.2667,-0.0414,0.8644,-6.03,7.53,-0.18,18.56
4945,0.2758,-0.0475,0.8737,-5.8,7.53,-0.2,18.57
4955,0.2762,-0.0509,0.879,-5.76,7.5,-0.17,18.57
4965,0.2792,-0.0461,0.8766,-5.59,7.51,-0.14,18.58
4975,0.2758,-0.0438,0.8781,-5.51,7.71,-0.12,18.57
4985,0.2738,-0.0391,0.8682,-5.56,7.79,-0.15,18.59
4995,0.2683,-0.0327,0.8558,-5.56,7.73,-0.15,18.59
5005,0.2653,-0.0236,0.858,-5.62,7.8,-0.15,18.56
5015,0.2643,-0.0277,0.8591,-5.85,7.76,-0.11,18.56
5025,0.2617,-0.0292,0.8591,-5.91,7.69,-0.05,18.57
5035,0.265,-0.0352,0.8663,-5.98,7.77,-0.14,18.56
5045,0.266,-0.0402,0.8588,-6.02,7.83,-0.05,18.57
5055,0.2681,-0.0433,0.8618,-6.0,7.77,-0.06,18.55
5065,0.2714,-0.046,0.8611,-6.0,7.82,0.02,18.57
5075,0.2753,-0.0459,0.8645,-6.02,7.82,0.08,18.57
5085,0.2764,-0.0417,0.8624,-5.94,7.83,0.02,18.58
5095,0.2762,-0.038,0.8676,-5.88,7.85,0.12,18.57
5105,0.2766,-0.0342,0.8717,-5.91,7.91,0.05,18.59
5115,0.274,-0.0332,0.8734,-5.89,7.82,0.0,18.57
5125,0.2697,-0.0341,0.8727,-5.88,7.91,-0.03,18.57
5135,0.2668,-0.0354,0.8779,-5.97,8.02,0.0,18.57
5145,0.2684,-0.0349,0.8741,-5.83,7.92,0.02,18.6
5155,0.2661,-0.0361,0.8733,-5.83,7.86,0.06,18.6
5165,0.269,-0.033,0.877,-5.82,7.86,0.0,18.6
5175,0.2721,-0.0311,0.8795,-5.82,7.8,0.0,18.58
5185,0.2743,-0.0297,0.8788,-5.79,7.82,-0.03,18.58
5195,0.2791,-0.0264,0.8783,-5.8,7.88,-0.05,18.57
5205,0.2758,-0.0295,0.8779,-5.8,7.86,-0.02,18.54
5215,0.2728,-0.0323,0.8717,-5.89,7.82,-0.02,18.58
5225,0.2747,-0.0295,0.8773,-5.98,7.77,-0.03,18.59
5235,0.2729,-0.0309,0.8778,-5.91,7.88,-0.14,18.56
5245,0.2751,-0.0247,0.8777,-5.86,7.79,-0.14,18.56
5255,0.2715,-0.0284,0.881,-5.82,7.8,-0.2,18.57
5265,0.2721,-0.0314,0.8788,-5.71,7.76,-0.12,18.57
5275,0.27,-0.0298,0.8688,-5.74,7.74,-0.15,18.57
5285,0.2704,-0.0312,0.8684,-5.69,7.77,-0.15,18.58
5295,0.267,-0.0283,0.8652,-5.86,7.73,-0.09,18.59
5305,0.2638,-0.026,0.8617,-5.98,7.76,-0.11,18.57
5315,0.2645,-0.0291,0.8612,-5.97,7.74,-0.02,18.57
5325,0.2657,-0.0242,0.8629,-6.05,7.66,-0.08,18.59
5335,0.265,-0.0244,0.8599,-5.97,7.6,-0.18,18.59
5345,0.2686,-0.0292,0.8644,-6.12,7.62,-0.17,18.58
5355,0.2705,-0.0314,0.8651,-5.91,7.65,-0.05,18.62
5365,0.2695,-0.0345,0.864,-6.02,7.69,-0.12,18.56
5375,0.2694,-0.0364,0.8684,-6.06,7.65,0.0,18.58
5385,0.2642,-0.0363,0.8666,-6.18,7.69,-0.02,18.57
5395,0.2646,-0.0306,0.8696,-6.15,7.65,-0.02,18.58
5405,0.2684,-0.0375,0.8677,-6.15,7.63,-0.06,18.58
5415,0.2675,-0.0342,0.8688,-6.21,7.57,0.03,18.6
5425,0.2721,-0.0364,0.8712,-6.15,7.59,-0.05,18.57
5435,0.2721,-0.0394,0.8722,-6.26,7.63,-0.05,18.6
5445,0.277,-0.0397,0.8745,-6.21,7.62,0.03,18.61
5455,0.2662,-0.0444,0.8765,-6.14,7.62,0.05,18.59
5465,0.2643,-0.0376,0.886,-6.06,7.98,-0.11,18.6
5475,0.2782,-0.0344,0.8689,-6.15,7.65,-0.02,18.58
5485,0.2775,-0.0388,0.8745,-6.14,7.54,-0.05,18.6
5495,0.2714,-0.0405,0.8813,-6.14,7.73,-0.05,18.6
5505,0.2712,-0.0381,0.8811,-6.03,7.62,0.02,18.59
5515,0.2781,-0.0339,0.8904,-6.05,7.51,-0.03,18.61
5525,0.2788,-0.0431,0.886,-5.97,7.62,0.03,18.61
5535,0.2728,-0.05,0.887,-5.95,7.57,-0.02,18.59
5545,0.2797,-0.0413,0.892,-5.85,7.63,-0.18,18.58
5555,0.2808,-0.0432,0.8865,-5.79,7.73,-0.08,18.62
5565,0.2743,-0.0514,0.8799,-5.71,7.65,-0.06,18.59
5575,0.2729,-0.0431,0.8767,-5.71,7.82,-0.18,18.6
5585,0.2725,-0.0347,0.8759,-5.63,7.77,-0.14,18.59
5595,0.2736,-0.0416,0.8679,-5.59,7.69,-0.11,18.62
5605,0.274,-0.0441,0.8671,-5.6,7.79,-0.18,18.59
5615,0.2744,-0.0343,0.8654,-5.53,7.74,-0.17,18.62
5625,0.2733,-0.0293,0.8669,-5.65,7.73,-0.14,18.61
5635,0.2708,-0.0392,0.8668,-5.54,7.85,-0.14,18.58
5645,0.2668,-0.0374,0.8597,-5.62,7.85,-0.17,18.61
5655,0.2695,-0.0291,0.8635,-5.54,7.82,-0.15,18.6
5665,0.267,-0.0284,0.8622,-5.68,7.85,-0.09,18.58
5675,0.2644,-0.0353,0.8607,-5.71,7.89,-0.05,18.59
5685,0.2671,-0.0314,0.8646,-5.59,7.86,-0.24,18.63
5695,0.2695,-0.0272,0.8661,-5.71,7.86,-0.09,18.59
5705,0.2721,-0.0295,0.8612,-5.68,7.91,-0.03,18.6
5715,0.2677,-0.0354,0.8591,-5.8,8.0,-0.08,18.6
5725,0.2672,-0.0287,0.8702,-5.82,8.05,-0.08,18.59
5735,0.2682,-0.0283,0.8677,-5.91,7.97,-0.05,18.61
5745,0.2646,-0.032,0.8684,-5.88,7.94,0.03,18.59
5755,0.2654,-0.0305,0.8685,-5.91,8.02,-0.05,18.61
5765,0.269,-0.0267,0.8678,-6.02,7.92,0.02,18.62
5775,0.2722,-0.0294,0.8744,-5.98,7.92,-0.02,18.64
5785,0.2705,-0.0322,0.8781,-5.89,7.88,-0.12,18.58
5795,0.2686,-0.0284,0.8809,-5.92,7.88,-0.11,18.61
5805,0.2689,-0.0259,0.8799,-6.02,7.88,-0.02,18.63
5815,0.2736,-0.0287,0.8799,-5.91,7.91,0.03,18.61
5825,0.2678,-0.0284,0.8782,-6.0,7.97,0.02,18.6
5835,0.2673,-0.026,0.8771,-6.03,7.91,-0.02,18.62
5845,0.2686,-0.0233,0.881,-6.03,7.92,-0.08,18.62
5855,0.2706,-0.0283,0.8765,-6.03,7.94,-0.05,18.6
5865,0.2729,-0.032,0.8743,-6.03,7.82,-0.06,18.6
5875,0.2714,-0.0289,0.8777,-6.06,7.88,-0.11,18.59
5885,0.2714,-0.0311,0.8739,-5.94,7.89,-0.11,18.64
5895,0.275,-0.0349,0.8708,-5.94,7.91,-0.12,18.57
5905,0.2754,-0.0354,0.8724,-6.03,7.86,-0.11,18.59
5915,0.2751,-0.0336,0.8706,-5.97,7.85,-0.12,18.6
5925,0.2736,-0.0355,0.8746,-5.91,7.8,-0.15,18.6
5935,0.2726,-0.0332,0.869,-5.83,7.86,-0.12,18.62
5945,0.2733,-0.0275,0.8699,-5.83,7.83,-0.11,18.61
5955,0.2733,-0.0341,0.8698,-5.82,7.8,-0.17,18.61
5965,0.2686,-0.035,0.8702,-5.83,7.88,-0.21,18.62
5975,0.2683,-0.0358,0.868,-5.88,7.85,-0.12,18.64
5985,0.2703,-0.0355,0.8727,-5.88,7.86,-0.15,18.61
5995,0.267,-0.0352,0.8651,-5.86,7.76,-0.18,18.59
6005,0.2672,-0.038,0.8674,-5.94,7.77,-0.06,18.62
6015,0.2637,-0.0366,0.863,-5.95,7.8,-0.12,18.61
6025,0.2629,-0.0341,0.8668,-5.94,7.79,-0.05,18.62
6035,0.265,-0.0393,0.8672,-5.97,7.79,-0.08,18.63
6045,0.2649,-0.0337,0.8638,-5.97,7.73,-0.06,18.63
6055,0.266,-0.0344,0.8724,-5.98,7.74,-0.05,18.62
6065,0.2651,-0.0339,0.87,-5.97,7.69,-0.03,18.63
6075,0.2677,-0.0315,0.8689,-6.05,7.74,-0.02,18.61
6085,0.2664,-0.035,0.8735,-6.03,7.77,0.05,18.62
6095,0.2686,-0.0339,0.8696,-5.94,7.68,-0.03,18.6
6105,0.2704,-0.0349,0.874,-6.08,7.73,0.0,18.63
6115,0.2708,-0.0345,0.8739,-6.09,7.76,0.11,18.6
6125,0.2731,-0.0343,0.877,-6.05,7.73,0.06,18.62
6135,0.2727,-0.0385,0.8781,-6.15,7.69,0.03,18.62
6145,0.2761,-0.0363,0.8805,-6.12,7.6,-0.02,18.61
6155,0.2732,-0.0364,0.8777,-6.06,7.66,0.03,18.59
6165,0.2771,-0.0382,0.8727,-6.11,7.63,-0.02,18.61
6175,0.2715,-0.0369,0.8719,-6.02,7.65,0.03,18.66
6185,0.276,-0.0356,0.8722,-6.05,7.63,0.02,18.64
6195,0.2755,-0.0349,0.8761,-5.85,7.68,0.0,18.66
6205,0.2767,-0.0361,0.877,-5.92,7.62,-0.05,18.62
6215,0.2756,-0.0348,0.8774,-5.82,7.63,0.05,18.62
6225,0.2751,-0.0339,0.8793,-5.79,7.68,0.0,18.62
6235,0.2731,-0.0353,0.8773,-5.76,7.62,-0.08,18.65
6245,0.2723,-0.0304,0.8741,-5.71,7.66,-0.09,18.61
6255,0.2693,-0.032,0.8721,-5.74,7.6,-0.15,18.63
6265,0.271,-0.0331,0.8715,-5.79,7.65,-0.11,18.61
6275,0.2711,-0.0312,0.8677,-5.6,7.6,-0.03,18.61
6285,0.2687,-0.0311,0.868,-5.73,7.63,-0.08,18.62
6295,0.2655,-0.0328,0.8691,-5.77,7.68,-0.09,18.64
6305,0.2667,-0.0323,0.8695,-5.79,7.66,-0.12,18.63
6315,0.2677,-0.031,0.8696,-5.79,7.69,-0.08,18.62
6325,0.2637,-0.0322,0.865,-5.77,7.74,-0.15,18.61
6335,0.2642,-0.0299,0.8666,-5.85,7.68,-0.09,18.59
6345,0.2668,-0.0297,0.8678,-5.86,7.73,-0.03,18.64
6355,0.266,-0.0298,0.8677,-5.95,7.66,-0.05,18.64
6365,0.2659,-0.0311,0.8694,-5.98,7.66,-0.08,18.64
6375,0.269,-0.0331,0.8726,-5.92,7.74,0.02,18.63
6385,0.2688,-0.0299,0.8658,-5.95,7.76,-0.05,18.63
6395,0.2678,-0.0299,0.87,-6.05,7.76,0.02,18.64
6405,0.2698,-0.0306,0.8693,-6.0,7.77,-0.08,18.66
6415,0.271,-0.0295,0.8729,-6.11,7.74,0.08,18.61
6425,0.2716,-0.0322,0.8705,-5.97,7.76,-0.03,18.66
6435,0.2726,-0.0319,0.8712,-6.08,7.71,0.02,18.64
6446,0.2722,-0.0316,0.8751,-6.14,7.63,-0.21,18.64
6456,0.2749,-0.0314,0.8744,-6.12,7.68,0.02,18.62
6466,0.2705,-0.0352,0.8739,-6.14,7.71,0.0,18.62
6476,0.2687,-0.0323,0.8755,-6.12,7.85,-0.03,18.63
6486,0.2733,-0.033,0.8795,-6.08,7.76,-0.03,18.64
6496,0.272,-0.0327,0.8739,-6.06,7.76,-0.02,18.62
6506,0.2732,-0.0343,0.8748,-6.03,7.73,-0.03,18.63
6517,0.2725,-0.0332,0.8717,-5.98,7.73,-0.03,18.63
6527,0.2712,-0.0358,0.8812,-6.09,7.73,-0.02,18.64
6537,0.2728,-0.0356,0.876,-5.94,7.71,-0.03,18.64
6547,0.2706,-0.0375,0.874,-5.94,7.76,-0.12,18.64
6557,0.2725,-0.0343,0.8757,-5.95,7.76,-0.08,18.63
6567,0.2727,-0.0374,0.8748,-6.0,7.65,-0.08,18.66
6577,0.2727,-0.0365,0.8755,-5.91,7.69,-0.02,18.65
6587,0.272,-0.0352,0.8719,-5.89,7.66,-0.14,18.65
6597,0.2734,-0.0369,0.8688,-5.92,7.73,-0.18,18.62
6607,0.2697,-0.0376,0.8661,-5.89,7.65,-0.14,18.63
6617,0.2688,-0.037,0.8661,-5.97,7.68,-0.08,18.65
6627,0.2679,-0.035,0.8716,-5.85,7.69,-0.11,18.64
6637,0.2668,-0.038,0.8688,-5.89,7.71,-0.12,18.64
6647,0.2688,-0.0344,0.8671,-5.86,7.66,-0.08,18.63
6657,0.2692,-0.0349,0.8727,-5.82,7.63,0.0,18.64
6667,0.2693,-0.0349,0.8702,-5.88,7.69,-0.12,18.66
6677,0.267,-0.0354,0.8705,-5.88,7.66,-0.02,18.64
6687,0.2693,-0.0359,0.8702,-5.89,7.71,-0.06,18.64
6697,0.2683,-0.0321,0.8689,-5.88,7.74,-0.06,18.63
6707,0.269,-0.035,0.8711,-5.94,7.68,-0.08,18.65
6717,0.2699,-0.0317,0.8726,-5.94,7.74,0.03,18.66
6727,0.2717,-0.0303,0.871,-5.94,7.71,-0.02,18.65
6737,0.27,-0.0332,0.8727,-5.92,7.69,0.03,18.65
6747,0.2748,-0.0326,0.8704,-5.98,7.68,-0.03,18.67
6757,0.2742,-0.031,0.8698,-5.91,7.76,0.0,18.66
6767,0.2719,-0.0306,0.8694,-5.97,7.68,0.06,18.66
6777,0.2738,-0.0347,0.8721,-5.91,7.66,-0.03,18.64
6787,0.2743,-0.0319,0.8727,-5.94,7.68,-0.02,18.66
6797,0.2708,-0.0319,0.8744,-6.0,7.68,0.03,18.65
6807,0.2704,-0.0303,0.8729,-5.95,7.71,-0.05,18.63
6817,0.2723,-0.031,0.8728,-5.92,7.79,-0.03,18.66
6827,0.269,-0.032,0.8706,-6.09,7.73,-0.02,18.62
6837,0.2715,-0.0319,0.8726,-6.0,7.69,-0.05,18.67
6847,0.2684,-0.0294,0.8756,-5.86,7.79,-0.08,18.64
6857,0.2699,-0.0326,0.8724,-5.94,7.77,-0.09,18.64
6867,0.2704,-0.0302,0.8726,-5.94,7.74,-0.08,18.66
6877,0.2686,-0.03,0.8717,-5.82,7.66,-0.09,18.66
6887,0.2684,-0.0316,0.87,-5.94,7.63,-0.05,18.62
6897,0.2677,-0.0286,0.8682,-5.92,7.71,-0.06,18.65
6907,0.2662,-0.0297,0.8698,-6.0,7.71,-0.11,18.64
6917,0.2699,-0.0342,0.868,-5.92,7.66,-0.03,18.66
6927,0.2684,-0.0304,0.8722,-5.94,7.69,-0.08,18.65
6937,0.2706,-0.0289,0.8682,-5.94,7.71,-0.06,18.65
6947,0.2675,-0.0339,0.8719,-5.98,7.66,-0.09,18.65
6957,0.2714,-0.0339,0.8696,-6.02,7.69,-0.08,18.67
6967,0.2709,-0.0322,0.873,-5.95,7.73,-0.06,18.69
6977,0.2679,-0.036,0.8729,-5.95,7.65,-0.05,18.66
6987,0.2701,-0.0349,0.873,-6.0,7.63,-0.08,18.65
6997,0.2722,-0.0359,0.8754,-5.95,7.68,-0.12,18.66
7007,0.2703,-0.0354,0.8694,-6.05,7.73,-0.05,18.67
7017,0.2673,-0.035,0.8673,-6.0,7.68,-0.05,18.64
7027,0.2675,-0.033,0.8713,-5.98,7.69,-0.02,18.67
7037,0.2684,-0.0358,0.8724,-5.98,7.69,-0.03,18.67
7047,0.2682,-0.037,0.8676,-6.02,7.66,-0.06,18.66
7057,0.27,-0.036,0.8699,-6.08,7.68,0.0,18.66
7067,0.2693,-0.0358,0.873,-6.0,7.69,-0.05,18.66
7078,0.2662,-0.0344,0.8705,-5.98,7.66,-0.03,18.65
7088,0.2686,-0.0355,0.8739,-6.02,7.65,-0.02,18.66
7098,0.27,-0.036,0.874,-5.98,7.68,-0.05,18.65
7108,0.2712,-0.0365,0.8739,-5.95,7.71,0.03,18.67
7118,0.2689,-0.0419,0.8735,-5.95,7.65,0.06,18.67
7128,0.2721,-0.0328,0.8718,-6.05,7.68,0.0,18.66
7138,0.2698,-0.0374,0.8724,-5.98,7.76,-0.09,18.66
7148,0.2723,-0.0343,0.8752,-5.91,7.69,-0.05,18.65
7158,0.27,-0.0374,0.876,-5.97,7.77,-0.06,18.64
7168,0.2734,-0.0355,0.8761,-6.03,7.71,0.0,18.66
7178,0.2729,-0.0337,0.875,-5.86,7.74,-0.09,18.67
7188,0.2687,-0.036,0.8727,-5.83,7.65,-0.11,18.67
7198,0.2717,-0.0348,0.8761,-5.88,7.8,0.0,18.66
7208,0.2715,-0.0323,0.8712,-5.92,7.77,-0.02,18.66
7218,0.2678,-0.0319,0.875,-5.83,7.71,0.0,18.67
7228,0.2705,-0.0305,0.8712,-5.94,7.71,-0.03,18.67
7238,0.2725,-0.0327,0.8699,-5.89,7.65,-0.09,18.67
7248,0.2687,-0.0304,0.8744,-5.85,7.71,-0.02,18.67
7258,0.2655,-0.0319,0.8734,-5.97,7.77,-0.03,18.7
7268,0.2684,-0.0322,0.8672,-5.92,7.74,-0.11,18.66
7285,0.2676,-0.033,0.8677,-5.95,7.79,-0.08,18.67
7295,0.2683,-0.0319,0.8746,-6.05,7.68,-0.05,18.68
7305,0.2686,-0.0331,0.8721,-5.92,7.73,-0.09,18.67
7315,0.2681,-0.0326,0.8669,-5.92,7.69,-0.08,18.64
7325,0.2692,-0.0317,0.87,-5.86,7.73,-0.05,18.67
7335,0.2721,-0.0306,0.8718,-5.98,7.69,-0.03,18.66
7345,0.269,-0.0304,0.8679,-5.95,7.71,-0.08,18.68
7356,0.2711,-0.0284,0.8694,-5.97,7.66,0.05,18.65
7366,0.2692,-0.0302,0.8722,-6.03,7.71,-0.03,18.65
7376,0.2715,-0.032,0.8738,-5.98,7.66,0.03,18.66
7386,0.2711,-0.0322,0.8732,-5.97,7.65,-0.02,18.68
7396,0.2719,-0.0321,0.8773,-6.11,7.62,-0.06,18.68
7406,0.2721,-0.0316,0.8766,-5.94,7.66,-0.02,18.69
7416,0.2725,-0.0319,0.8721,-6.03,7.66,-0.14,18.66
7426,0.2716,-0.0312,0.8719,-5.92,7.71,-0.03,18.66
7436,0.2722,-0.0339,0.874,-6.03,7.63,-0.03,18.67
7446,0.2708,-0.035,0.874,-5.95,7.56,-0.03,18.66
7456,0.2689,-0.0347,0.869,-5.89,7.6,-0.08,18.64
7466,0.271,-0.0327,0.8743,-5.95,7.74,-0.03,18.67
7476,0.2698,-0.0361,0.8749,-6.0,7.74,-0.03,18.69
7486,0.2709,-0.0358,0.8705,-5.98,7.66,-0.03,18.66
7496,0.2719,-0.0332,0.8711,-6.02,7.69,-0.02,18.67
7506,0.2725,-0.0353,0.8672,-5.97,7.63,-0.06,18.67
7516,0.2721,-0.0338,0.8682,-5.86,7.71,-0.03,18.67
7526,0.271,-0.033,0.8702,-5.92,7.69,-0.08,18.68
7536,0.2704,-0.0369,0.8727,-5.89,7.68,-0.06,18.67
7546,0.2706,-0.0383,0.8711,-6.0,7.69,-0.03,18.68
7556,0.269,-0.035,0.8691,-5.95,7.69,-0.14,18.65
7566,0.2705,-0.0349,0.8708,-5.92,7.69,-0.03,18.67
7576,0.269,-0.0332,0.8723,-5.97,7.71,-0.03,18.67
7586,0.272,-0.0369,0.8693,-5.92,7.76,-0.08,18.66
7596,0.2692,-0.0381,0.8727,-5.92,7.8,0.03,18.66
7606,0.2709,-0.0355,0.8699,-5.95,7.73,-0.03,18.69
7616,0.2689,-0.0356,0.8733,-6.0,7.71,-0.09,18.68
7627,0.272,-0.0359,0.8762,-6.0,7.77,-0.12,18.69
7637,0.2683,-0.0322,0.8756,-5.92,7.74,-0.12,18.68
7647,0.2721,-0.0347,0.87,-5.97,7.74,0.0,18.69
7657,0.2681,-0.0326,0.8713,-5.89,7.73,-0.03,18.69
7667,0.2693,-0.0331,0.87,-5.88,7.74,-0.03,18.67
7677,0.2694,-0.0317,0.8733,-5.89,7.71,-0.05,18.67
7687,0.2694,-0.0311,0.8719,-5.91,7.68,-0.05,18.7
7697,0.2714,-0.0343,0.8715,-5.97,7.74,0.05,18.7
7707,0.2709,-0.0321,0.8717,-5.98,7.69,-0.02,18.7
7717,0.2704,-0.0343,0.8727,-6.0,7.6,-0.06,18.7
7727,0.2716,-0.0331,0.8652,-6.0,7.73,-0.06,18.69
7737,0.2703,-0.0315,0.8708,-5.94,7.68,-0.08,18.67
7747,0.2701,-0.0348,0.8689,-5.98,7.69,-0.11,18.68
7757,0.2712,-0.0364,0.8713,-5.94,7.66,-0.11,18.68
7767,0.2714,-0.0347,0.8726,-5.91,7.68,-0.03,18.69
7777,0.271,-0.0338,0.8694,-5.94,7.66,-0.06,18.71
7787,0.2722,-0.0322,0.8721,-6.0,7.68,-0.03,18.68
7797,0.2717,-0.0333,0.8718,-6.0,7.69,-0.11,18.67
7807,0.2683,-0.0295,0.8719,-5.97,7.69,-0.08,18.67
7817,0.2711,-0.0317,0.8776,-5.97,7.69,-0.05,18.71
7827,0.27,-0.0281,0.8729,-5.95,7.77,-0.06,18.71
7837,0.2686,-0.0294,0.8698,-5.97,7.69,-0.05,18.69
7847,0.2699,-0.0347,0.8749,-6.02,7.66,-0.11,18.69
7857,0.2705,-0.0322,0.8689,-5.97,7.71,-0.05,18.71
7868,0.2679,-0.0355,0.8715,-5.92,7.68,0.02,18.68
7878,0.2688,-0.0319,0.8744,-5.97,7.65,-0.06,18.67
7888,0.2708,-0.0349,0.8737,-6.02,7.63,-0.03,18.68
7898,0.2714,-0.0326,0.8727,-6.06,7.63,-0.09,18.66
7908,0.2701,-0.035,0.8684,-6.05,7.68,-0.09,18.69
7918,0.2676,-0.0347,0.8728,-6.02,7.69,-0.06,18.68
7928,0.27,-0.0347,0.8657,-6.02,7.73,-0.11,18.71
7938,0.2692,-0.0319,0.8671,-5.97,7.66,-0.08,18.7
7948,0.2709,-0.0344,0.8658,-5.97,7.69,-0.09,18.67
7958,0.2686,-0.0353,0.8636,-5.97,7.71,-0.06,18.68
7968,0.2705,-0.0355,0.8694,-6.0,7.74,-0.06,18.68
7978,0.2679,-0.0326,0.8702,-5.98,7.74,-0.08,18.68
7988,0.2716,-0.0343,0.8744,-5.97,7.69,-0.02,18.72
7998,0.2739,-0.0372,0.8757,-5.97,7.74,-0.06,18.69
8008,0.2703,-0.0372,0.8722,-5.94,7.69,-0.08,18.71
8018,0.2708,-0.0358,0.875,-5.89,7.71,-0.06,18.68
8028,0.2695,-0.0374,0.8737,-5.98,7.66,0.03,18.69
8038,0.2704,-0.0369,0.871,-5.95,7.68,-0.06,18.72
8048,0.2687,-0.031,0.8724,-5.98,7.73,-0.05,18.7
8058,0.2695,-0.0358,0.8729,-5.92,7.74,-0.05,18.7
8068,0.2712,-0.0352,0.8744,-5.94,7.74,0.03,18.69
8078,0.2732,-0.0316,0.8745,-5.95,7.65,0.0,18.71
8088,0.2698,-0.0332,0.8724,-6.0,7.71,0.02,18.69
8098,0.271,-0.0337,0.8734,-5.88,7.66,0.02,18.68
8108,0.2719,-0.0341,0.8732,-5.95,7.69,-0.03,18.68
8119,0.2699,-0.0352,0.8678,-5.92,7.79,-0.05,18.7
8129,0.2717,-0.0358,0.8722,-5.88,7.73,0.03,18.69
8139,0.272,-0.0327,0.87,-5.94,7.68,-0.03,18.72
8149,0.2708,-0.0328,0.8696,-5.88,7.77,-0.09,18.7
8159,0.2722,-0.0347,0.8674,-5.92,7.74,0.02,18.68
8169,0.2715,-0.0322,0.8721,-6.0,7.71,0.0,18.69
8179,0.2705,-0.0325,0.869,-5.92,7.74,-0.06,18.69
8189,0.2699,-0.0323,0.8705,-5.97,7.66,-0.03,18.71
8199,0.2699,-0.033,0.8654,-5.89,7.66,-0.08,18.72
8209,0.2704,-0.0331,0.865,-5.95,7.65,-0.02,18.69
8219,0.2703,-0.0353,0.8711,-5.98,7.76,-0.06,18.69
8229,0.2693,-0.031,0.8644,-5.89,7.71,-0.08,18.69
8239,0.2716,-0.0311,0.8726,-5.89,7.73,-0.02,18.71
8249,0.2688,-0.031,0.871,-5.89,7.76,-0.05,18.72
8259,0.2677,-0.033,0.8684,-6.02,7.69,-0.02,18.71
8269,0.2677,-0.0302,0.8706,-5.95,7.74,-0.02,18.7
8279,0.2687,-0.03,0.8698,-5.97,7.68,-0.17,18.69
8289,0.2687,-0.0303,0.8729,-6.0,7.68,0.02,18.71
8299,0.2699,-0.0305,0.87,-5.97,7.65,-0.11,18.7
8309,0.2698,-0.0311,0.8724,-5.97,7.66,0.02,18.7
8319,0.2692,-0.0358,0.8746,-6.02,7.71,0.0,18.73
8329,0.2686,-0.0305,0.8757,-5.94,7.66,-0.03,18.7
8339,0.2733,-0.0316,0.8765,-6.02,7.71,-0.06,18.71
8349,0.2714,-0.0315,0.8767,-5.95,7.76,0.02,18.71
8359,0.2738,-0.0319,0.8738,-6.02,7.76,0.0,18.68
8369,0.269,-0.0337,0.8749,-5.92,7.71,-0.02,18.69
8379,0.2709,-0.0338,0.8751,-5.94,7.77,0.02,18.73
8389,0.2705,-0.0347,0.8718,-5.97,7.82,-0.08,18.7
8399,0.272,-0.036,0.8715,-5.94,7.71,0.0,18.71
8409,0.2727,-0.0341,0.8676,-6.06,7.79,0.0,18.72
8419,0.2704,-0.0344,0.8723,-5.91,7.79,-0.06,18.68
8429,0.2721,-0.0304,0.8701,-5.91,7.74,0.02,18.69
8439,0.2694,-0.0314,0.8702,-5.92,7.66,-0.03,18.7
8449,0.2675,-0.0327,0.8735,-6.0,7.68,0.02,18.73
8459,0.2677,-0.0328,0.8718,-5.97,7.77,-0.12,18.72
8469,0.2701,-0.0336,0.8683,-5.98,7.71,-0.05,18.72
8479,0.2684,-0.0354,0.8711,-5.94,7.63,-0.08,18.69
8489,0.2706,-0.0359,0.8704,-6.02,7.71,-0.02,18.69
8499,0.2694,-0.0361,0.8732,-5.97,7.68,-0.02,18.69
8509,0.2678,-0.035,0.8691,-5.97,7.65,-0.02,18.69
8519,0.2705,-0.0338,0.8693,-5.92,7.68,0.02,18.71
8529,0.2694,-0.0364,0.8705,-6.05,7.71,-0.09,18.72
8539,0.2698,-0.0366,0.8719,-5.95,7.68,0.0,18.7
8549,0.2683,-0.0375,0.8726,-5.95,7.74,-0.12,18.71
8559,0.2698,-0.0358,0.8679,-5.94,7.71,-0.06,18.71
8569,0.271,-0.0354,0.8678,-5.95,7.71,0.03,18.72
8580,0.2719,-0.0321,0.8691,-5.92,7.62,-0.06,18.71
8590,0.2728,-0.0336,0.8696,-5.85,7.71,0.02,18.72
8600,0.2708,-0.0325,0.8723,-5.98,7.69,-0.08,18.71
8610,0.27,-0.0347,0.8673,-5.95,7.71,-0.09,18.73
8620,0.2695,-0.0315,0.8669,-5.94,7.66,-0.06,18.72
8630,0.27,-0.0322,0.8674,-5.89,7.68,0.02,18.74
8640,0.2679,-0.0331,0.8694,-5.92,7.73,0.0,18.72
8650,0.2694,-0.0306,0.8679,-5.98,7.68,-0.05,18.72
8660,0.2664,-0.0304,0.871,-5.98,7.63,-0.06,18.7
8670,0.2684,-0.0342,0.8685,-5.92,7.66,-0.03,18.73
8680,0.2715,-0.0325,0.8726,-5.95,7.63,-0.12,18.74
8690,0.2708,-0.0334,0.8734,-5.92,7.66,-0.11,18.72
8700,0.2687,-0.0332,0.8752,-5.91,7.65,-0.08,18.71
8710,0.2709,-0.0305,0.8713,-5.89,7.73,0.03,18.72
8720,0.2732,-0.0319,0.8749,-5.91,7.66,-0.03,18.72
8731,0.2743,-0.035,0.8735,-5.95,7.65,-0.05,18.72
8741,0.2734,-0.0326,0.8754,-5.92,7.73,-0.03,18.72
8751,0.27,-0.0364,0.8759,-6.03,7.77,0.0,18.72
8761,0.2711,-0.0322,0.8726,-5.98,7.73,-0.02,18.72
8771,0.2709,-0.0344,0.8716,-5.98,7.77,-0.02,18.73
8781,0.2717,-0.0316,0.8718,-5.89,7.77,-0.03,18.74
8791,0.2714,-0.0311,0.8713,-5.98,7.83,-0.03,18.71
8801,0.2682,-0.0322,0.8733,-5.97,7.71,-0.06,18.72
8811,0.2701,-0.0326,0.8708,-5.91,7.69,-0.08,18.73
8821,0.266,-0.0337,0.869,-5.92,7.77,0.0,18.7
8831,0.2687,-0.0328,0.8663,-5.97,7.71,-0.05,18.74
8841,0.2682,-0.0337,0.8711,-5.92,7.71,-0.05,18.69
8851,0.2668,-0.0294,0.8704,-6.03,7.74,-0.05,18.71
8861,0.2676,-0.0317,0.8661,-6.02,7.76,-0.02,18.73
8871,0.2694,-0.0308,0.8684,-6.02,7.83,0.0,18.72
8881,0.2688,-0.0309,0.8688,-6.03,7.73,-0.03,18.74
8891,0.2671,-0.0331,0.8705,-6.05,7.76,-0.11,18.72
8901,0.2683,-0.0334,0.8705,-6.08,7.69,0.05,18.72
8911,0.2683,-0.0341,0.8724,-6.02,7.69,-0.03,18.73
8921,0.2703,-0.0322,0.8751,-6.03,7.76,-0.15,18.71
8931,0.2704,-0.0367,0.8776,-6.02,7.66,-0.03,18.74
8941,0.2719,-0.0349,0.8757,-6.0,7.74,-0.05,18.7
8951,0.2722,-0.0355,0.8756,-6.05,7.66,-0.06,18.7
8961,0.2721,-0.0383,0.8755,-5.98,7.73,-0.05,18.72
8971,0.2709,-0.0372,0.8743,-5.98,7.66,-0.03,18.73
8981,0.2714,-0.0326,0.8717,-5.94,7.69,-0.03,18.72
8991,0.2726,-0.0333,0.8715,-5.89,7.65,-0.03,18.71
9001,0.2706,-0.0337,0.8704,-5.94,7.69,-0.02,18.73
9011,0.2688,-0.0333,0.869,-5.91,7.69,-0.05,18.72
9021,0.2722,-0.0358,0.8672,-6.0,7.6,0.03,18.73
9031,0.2723,-0.035,0.8704,-5.92,7.71,-0.02,18.73
9041,0.2688,-0.0334,0.868,-5.95,7.6,-0.03,18.71
9051,0.2703,-0.0347,0.8708,-5.85,7.71,0.02,18.71
9061,0.2704,-0.036,0.8701,-5.94,7.69,-0.02,18.71
9071,0.27,-0.0325,0.87,-5.94,7.62,-0.03,18.73
9081,0.2683,-0.0323,0.8682,-5.98,7.65,-0.11,18.72
9091,0.2671,-0.0343,0.8687,-5.95,7.65,0.02,18.74
9101,0.2686,-0.0325,0.871,-5.86,7.71,-0.05,18.71
9111,0.2677,-0.0352,0.8735,-5.94,7.71,0.03,18.72
9121,0.266,-0.0331,0.8723,-6.02,7.69,0.0,18.71
9131,0.2671,-0.0333,0.8726,-5.88,7.73,-0.05,18.76
9141,0.2716,-0.0334,0.8707,-5.91,7.71,0.0,18.75
9151,0.2695,-0.0302,0.8704,-5.91,7.77,-0.03,18.72
9161,0.2695,-0.0342,0.8691,-5.92,7.71,0.0,18.73
9171,0.2692,-0.0332,0.868,-5.88,7.73,-0.11,18.74
9181,0.2683,-0.0333,0.8701,-5.95,7.74,0.05,18.73
9191,0.2705,-0.0344,0.8727,-6.02,7.73,-0.06,18.74
9201,0.2695,-0.0332,0.8682,-5.91,7.73,-0.06,18.73
9211,0.2727,-0.0333,0.8733,-5.92,7.69,-0.06,18.74
9221,0.27,-0.0326,0.8734,-6.02,7.74,-0.03,18.72
9231,0.2703,-0.0319,0.8743,-5.91,7.76,-0.12,18.74
9241,0.2744,-0.0328,0.8768,-5.97,7.74,0.05,18.75
9251,0.2731,-0.0328,0.8738,-5.95,7.73,-0.05,18.75
9261,0.2687,-0.0328,0.874,-5.92,7.8,-0.06,18.71
9271,0.2708,-0.0342,0.8746,-5.95,7.79,-0.08,18.74
9281,0.2723,-0.0363,0.8755,-5.92,7.69,-0.02,18.74
9291,0.2709,-0.0339,0.874,-6.03,7.69,-0.08,18.75
9301,0.2715,-0.0356,0.8713,-5.91,7.76,-0.08,18.73
9311,0.269,-0.0291,0.8676,-5.97,7.73,-0.02,18.76
9321,0.2678,-0.0344,0.8755,-5.94,7.79,-0.14,18.76
9331,0.2684,-0.0352,0.8695,-5.98,7.74,-0.03,18.72
9341,0.2692,-0.0306,0.8695,-5.94,7.76,-0.06,18.71
9351,0.2692,-0.0338,0.8743,-5.95,7.73,-0.06,18.75
9361,0.2693,-0.033,0.8702,-5.95,7.63,-0.02,18.75
9371,0.2697,-0.0333,0.8756,-6.08,7.66,-0.03,18.74
9381,0.2673,-0.0352,0.8724,-6.0,7.63,-0.05,18.73
9391,0.2675,-0.0325,0.8696,-6.03,7.73,0.0,18.73
9401,0.2686,-0.0366,0.8713,-6.02,7.73,-0.02,18.73
9411,0.2687,-0.0332,0.8749,-6.06,7.69,-0.03,18.74
9421,0.2711,-0.0365,0.8741,-6.0,7.68,0.05,18.74
9431,0.2706,-0.0347,0.8735,-6.02,7.65,-0.05,18.76
9441,0.2722,-0.0374,0.873,-6.03,7.71,-0.11,18.74
9451,0.2729,-0.0347,0.8748,-5.94,7.69,-0.08,18.73
9461,0.269,-0.0326,0.8733,-6.03,7.71,-0.08,18.77
9471,0.2687,-0.0323,0.8734,-5.95,7.76,-0.02,18.73
9481,0.2708,-0.0336,0.8684,-5.97,7.71,-0.05,18.75
9491,0.2701,-0.0336,0.8723,-5.89,7.71,-0.09,18.74
9503,0.2695,-0.0325,0.869,-5.95,7.65,-0.06,18.73
9513,0.2708,-0.032,0.869,-5.95,7.66,-0.03,18.74
9523,0.2703,-0.0342,0.8702,-5.94,7.68,-0.05,18.74
9533,0.2712,-0.0345,0.8723,-6.02,7.6,-0.03,18.75
9543,0.2706,-0.0317,0.8717,-6.03,7.69,0.0,18.76
9553,0.2726,-0.0361,0.8716,-5.94,7.74,-0.03,18.77
9563,0.2689,-0.0328,0.8682,-5.89,7.65,-0.02,18.75
9573,0.2726,-0.0348,0.8721,-5.92,7.79,-0.11,18.74
9583,0.2706,-0.0341,0.8706,-5.83,7.76,-0.09,18.73
9593,0.2688,-0.0331,0.8745,-5.89,7.73,-0.09,18.73
9603,0.2698,-0.0319,0.8743,-5.89,7.77,-0.09,18.72
9613,0.2698,-0.0353,0.8743,-5.91,7.71,-0.05,18.73
9623,0.2692,-0.0359,0.8717,-5.88,7.73,0.03,18.72
9633,0.2712,-0.0342,0.8767,-5.89,7.69,-0.02,18.75
9643,0.2698,-0.0323,0.8708,-5.98,7.69,-0.06,18.75
9653,0.272,-0.0317,0.8718,-5.98,7.79,-0.02,18.76
9663,0.2693,-0.0342,0.8734,-5.83,7.73,0.02,18.77
9673,0.2693,-0.0342,0.871,-5.91,7.71,-0.05,18.76
9683,0.2693,-0.0315,0.8708,-5.91,7.66,-0.09,18.75
9693,0.2714,-0.0344,0.8757,-5.92,7.71,-0.09,18.72
9703,0.2733,-0.0312,0.8713,-6.03,7.69,-0.03,18.73
9713,0.275,-0.0331,0.8727,-5.98,7.71,0.0,18.75
9723,0.2721,-0.0311,0.8759,-5.98,7.73,-0.08,18.74
9733,0.2719,-0.0306,0.8744,-6.05,7.77,-0.08,18.77
9743,0.271,-0.0316,0.8782,-6.0,7.77,0.03,18.75
9753,0.2704,-0.0333,0.8706,-6.15,7.77,-0.05,18.77
9763,0.2708,-0.0341,0.8716,-6.05,7.71,0.0,18.74
9773,0.2682,-0.0317,0.8651,-5.98,7.69,0.05,18.76
9783,0.2683,-0.0332,0.8645,-6.06,7.74,-0.06,18.76
9793,0.2662,-0.0333,0.8644,-5.98,7.73,-0.05,18.76
9803,0.2689,-0.0303,0.8672,-6.06,7.76,-0.06,18.77
9813,0.2681,-0.0349,0.8695,-5.98,7.74,-0.09,18.77
9823,0.2699,-0.0361,0.8745,-6.06,7.71,-0.08,18.75
9833,0.2716,-0.0374,0.8721,-6.03,7.66,-0.05,18.78
9843,0.2694,-0.0388,0.8761,-6.03,7.66,-0.03,18.78
9853,0.2714,-0.0387,0.8761,-6.05,7.69,-0.03,18.76
9863,0.2722,-0.0361,0.876,-5.95,7.66,-0.06,18.77
9873,0.2719,-0.0378,0.8733,-6.02,7.71,-0.03,18.75
9883,0.2733,-0.0364,0.8728,-5.91,7.69,-0.06,18.74
9893,0.2719,-0.0349,0.8716,-5.85,7.68,-0.08,18.75
9903,0.2672,-0.0354,0.8732,-5.89,7.73,-0.05,18.77
9913,0.267,-0.031,0.8735,-5.91,7.71,-0.02,18.76
9923,0.2673,-0.0302,0.877,-5.89,7.74,-0.06,18.78
9933,0.2704,-0.0325,0.8757,-5.94,7.69,-0.05,18.76
9943,0.2693,-0.0326,0.8745,-5.91,7.73,-0.06,18.75
9953,0.2737,-0.033,0.8684,-5.92,7.69,-0.06,18.77
9963,0.2699,-0.0336,0.8671,-6.05,7.71,-0.09,18.77
9973,0.2678,-0.0375,0.8677,-5.94,7.68,-0.03,18.75
9983,0.2722,-0.0354,0.8634,-6.0,7.69,-0.09,18.75
9993,0.2751,-0.0366,0.8662,-6.0,7.65,-0.06,18.76
10003,0.2744,-0.0366,0.8706,-5.91,7.73,0.02,18.76
10013,0.2754,-0.0363,0.8732,-5.97,7.71,-0.02,18.76
10023,0.2736,-0.0309,0.8729,-6.02,7.73,-0.11,18.77
10033,0.2725,-0.0355,0.8741,-6.03,7.77,-0.02,18.74
10043,0.271,-0.0353,0.8707,-5.91,7.71,-0.09,18.78
10053,0.2688,-0.0314,0.8726,-5.88,7.77,-0.05,18.77
10063,0.2662,-0.0327,0.8702,-5.97,7.74,-0.08,18.77
10073,0.2686,-0.0331,0.8707,-6.0,7.65,-0.02,18.76
10083,0.2682,-0.0326,0.8743,-6.02,7.73,-0.09,18.77
10093,0.2671,-0.0315,0.8727,-5.88,7.68,-0.11,18.75
10103,0.2651,-0.0342,0.8748,-5.89,7.71,0.02,18.77
10113,0.2709,-0.0322,0.8748,-5.97,7.71,0.02,18.77
10123,0.2704,-0.0334,0.868,-6.02,7.68,-0.06,18.77
10133,0.2692,-0.0317,0.8712,-6.0,7.68,-0.05,18.75
10143,0.2698,-0.0312,0.8704,-6.0,7.68,-0.06,18.77
10153,0.2723,-0.0319,0.8751,-6.0,7.74,-0.03,18.77
10163,0.2726,-0.0344,0.8738,-5.98,7.68,-0.03,18.77
10173,0.2744,-0.0347,0.8737,-6.05,7.69,-0.03,18.75
10183,0.2736,-0.0345,0.8694,-6.02,7.74,0.02,18.76
10193,0.2709,-0.0334,0.8734,-6.03,7.71,0.03,18.76
10203,0.2703,-0.0342,0.8696,-6.0,7.63,-0.03,18.79
10213,0.271,-0.0358,0.8733,-5.94,7.62,0.02,18.76
10223,0.2701,-0.0331,0.8759,-6.0,7.77,-0.02,18.78
10233,0.2656,-0.0332,0.8693,-6.02,7.73,-0.05,18.77
10243,0.2657,-0.0333,0.8702,-5.94,7.73,-0.05,18.76
10253,0.2698,-0.0353,0.8754,-5.91,7.68,-0.11,18.76
10263,0.2682,-0.0317,0.8696,-6.0,7.74,-0.08,18.77
10273,0.2676,-0.0332,0.871,-5.98,7.71,-0.11,18.77
10283,0.2684,-0.0364,0.8679,-5.91,7.6,-0.06,18.74
10293,0.2729,-0.0314,0.8708,-5.97,7.71,-0.08,18.77
10303,0.2704,-0.0366,0.8713,-5.97,7.74,-0.03,18.78
10313,0.2703,-0.0358,0.8745,-5.98,7.63,-0.09,18.78
10323,0.2729,-0.0323,0.8733,-6.08,7.66,0.0,18.76
10333,0.2719,-0.0333,0.8717,-6.06,7.65,-0.06,18.77
10343,0.2729,-0.0353,0.8768,-5.98,7.71,-0.03,18.78
10353,0.2681,-0.035,0.8729,-5.94,7.66,-0.05,18.78
10363,0.2711,-0.0345,0.8754,-5.98,7.66,0.0,18.78
10373,0.272,-0.0355,0.8698,-6.03,7.68,-0.05,18.79
10383,0.2712,-0.0377,0.8696,-6.06,7.65,0.02,18.77
10393,0.272,-0.0325,0.8707,-6.0,7.69,0.0,18.78
10403,0.2679,-0.0312,0.869,-5.95,7.73,-0.02,18.75
10413,0.2703,-0.0347,0.8732,-5.95,7.74,0.0,18.77
10423,0.2682,-0.0367,0.8755,-5.92,7.69,-0.09,18.77
10433,0.2716,-0.0358,0.8746,-5.91,7.74,-0.06,18.78
10443,0.2692,-0.0363,0.8732,-5.95,7.73,-0.05,18.78
10453,0.2673,-0.0327,0.8729,-5.95,7.74,-0.05,18.76
10463,0.27,-0.0311,0.8701,-5.95,7.65,-0.05,18.76
10473,0.2701,-0.0331,0.8688,-5.98,7.71,-0.06,18.77
10483,0.2719,-0.0328,0.8749,-5.95,7.71,-0.02,18.77
10493,0.2695,-0.0323,0.87,-5.98,7.77,-0.08,18.75
10503,0.2687,-0.0319,0.8721,-5.98,7.73,0.0,18.78
10513,0.271,-0.0325,0.8738,-5.98,7.73,0.0,18.76
10523,0.2705,-0.0337,0.8754,-5.95,7.73,-0.03,18.79
10533,0.271,-0.0321,0.8727,-5.98,7.74,-0.09,18.77
10543,0.2722,-0.0333,0.8704,-6.02,7.71,-0.05,18.81
10553,0.2729,-0.0306,0.8735,-5.94,7.77,-0.05,18.77
10563,0.2682,-0.031,0.8763,-5.95,7.71,-0.06,18.75
10573,0.2675,-0.0333,0.8745,-6.0,7.73,-0.06,18.79
10583,0.2706,-0.0332,0.8734,-5.94,7.77,0.0,18.77
10593,0.2704,-0.0344,0.8711,-6.02,7.8,-0.09,18.78
10603,0.2708,-0.0327,0.8724,-5.97,7.73,-0.03,18.74
10613,0.2717,-0.0294,0.8749,-5.95,7.74,-0.03,18.78
10623,0.271,-0.0311,0.8713,-5.92,7.68,-0.03,18.76
10633,0.2695,-0.0317,0.8707,-5.92,7.82,-0.06,18.77
10643,0.2698,-0.0334,0.8701,-5.97,7.68,-0.08,18.78
10653,0.2671,-0.0316,0.8746,-6.02,7.74,0.0,18.78
10663,0.2668,-0.0321,0.8759,-6.03,7.69,0.0,18.79
10673,0.2725,-0.0322,0.875,-6.0,7.79,-0.06,18.79
10683,0.2705,-0.0336,0.8732,-6.06,7.69,-0.02,18.77
10693,0.2698,-0.0326,0.8729,-6.05,7.71,-0.14,18.77
10703,0.2701,-0.0364,0.8698,-6.0,7.63,0.02,18.78
10713,0.2717,-0.0349,0.8704,-6.02,7.76,-0.06,18.76
10723,0.2705,-0.0345,0.8705,-5.92,7.66,-0.06,18.77
10733,0.2704,-0.0322,0.8717,-6.0,7.66,-0.11,18.77
10743,0.27,-0.0356,0.8734,-6.02,7.65,-0.06,18.77
10753,0.2728,-0.0352,0.8687,-6.0,7.71,-0.02,18.77
10763,0.2729,-0.0342,0.8726,-5.98,7.62,-0.09,18.78
10773,0.2721,-0.0349,0.8744,-5.91,7.69,0.03,18.77
10783,0.271,-0.0361,0.8705,-6.06,7.66,-0.02,18.78
10793,0.2694,-0.0358,0.8718,-5.92,7.66,-0.05,18.78
10803,0.271,-0.0332,0.8696,-5.94,7.68,-0.09,18.77
10813,0.2704,-0.0345,0.875,-5.97,7.73,-0.14,18.77
10823,0.2732,-0.0347,0.8711,-5.98,7.73,-0.15,18.78
10833,0.271,-0.0339,0.8682,-5.92,7.76,0.0,18.78
10843,0.269,-0.0345,0.8688,-5.98,7.66,0.0,18.77
10853,0.2711,-0.0334,0.8715,-5.92,7.71,0.02,18.76
10863,0.2679,-0.0336,0.8708,-5.88,7.69,-0.05,18.79
10873,0.2675,-0.0337,0.8696,-5.88,7.73,-0.09,18.77
10883,0.2665,-0.035,0.8715,-5.97,7.65,-0.08,18.79
10893,0.2687,-0.0317,0.8696,-5.91,7.71,-0.05,18.78
10903,0.2694,-0.0319,0.8735,-5.91,7.73,-0.05,18.8
10913,0.2656,-0.0333,0.8735,-5.95,7.69,-0.05,18.79
10923,0.271,-0.0365,0.8739,-5.95,7.63,-0.02,18.78
10933,0.27,-0.036,0.8705,-6.02,7.71,-0.03,18.79
10943,0.2683,-0.0341,0.8695,-6.03,7.74,-0.08,18.79
10953,0.271,-0.03,0.8701,-5.95,7.65,-0.14,18.79
10963,0.2716,-0.0383,0.8713,-5.89,7.65,-0.12,18.8
10973,0.2732,-0.0352,0.8682,-5.95,7.76,-0.05,18.79
10983,0.2701,-0.0337,0.8702,-5.98,7.71,-0.06,18.79
10993,0.2705,-0.03,0.8717,-5.98,7.73,0.0,18.81
11003,0.2701,-0.0341,0.8708,-5.98,7.77,-0.02,18.79
11013,0.2694,-0.0325,0.869,-6.05,7.69,-0.06,18.78
11023,0.267,-0.0315,0.8712,-5.97,7.71,0.02,18.78
11033,0.269,-0.035,0.8718,-5.97,7.69,-0.03,18.78
11043,0.2697,-0.032,0.8748,-6.02,7.71,-0.03,18.79
11053,0.2703,-0.0315,0.8727,-6.11,7.76,-0.08,18.78
11063,0.2704,-0.0353,0.8732,-6.02,7.73,-0.05,18.77
11073,0.2694,-0.0355,0.8737,-5.98,7.66,-0.08,18.79
11083,0.2684,-0.0342,0.8738,-5.97,7.69,-0.05,18.79
11093,0.2676,-0.0332,0.8705,-5.94,7.82,-0.09,18.79
11103,0.2723,-0.0349,0.8715,-5.94,7.65,-0.08,18.77
11113,0.2699,-0.033,0.8699,-5.95,7.73,-0.05,18.81
11123,0.2673,-0.032,0.8733,-6.02,7.65,-0.12,18.79
11133,0.2737,-0.0349,0.8673,-5.92,7.73,-0.11,18.78
11143,0.2705,-0.0339,0.8674,-5.88,7.71,-0.03,18.8
11153,0.2714,-0.0343,0.8728,-5.97,7.76,-0.08,18.78
11163,0.2694,-0.0344,0.8706,-5.98,7.73,-0.03,18.79
11173,0.2688,-0.0342,0.8705,-5.98,7.66,-0.06,18.8
11183,0.2698,-0.0334,0.874,-5.95,7.68,-0.08,18.79
11193,0.271,-0.0331,0.8762,-6.02,7.65,-0.02,18.8
11203,0.2697,-0.0311,0.8726,-6.03,7.74,-0.09,18.82
11213,0.2728,-0.0358,0.8721,-5.97,7.68,-0.05,18.78
11223,0.2705,-0.0323,0.8701,-5.95,7.66,-0.11,18.8
11233,0.2698,-0.0345,0.8752,-5.95,7.73,-0.12,18.8
11243,0.2687,-0.0374,0.8717,-6.0,7.73,-0.05,18.78
11253,0.2716,-0.0354,0.8684,-6.02,7.69,-0.02,18.78
11263,0.2725,-0.033,0.868,-5.97,7.76,-0.08,18.78
11273,0.2694,-0.0334,0.8743,-5.91,7.66,0.0,18.8
11283,0.27,-0.036,0.8738,-5.97,7.69,-0.06,18.8
11293,0.2676,-0.0334,0.8669,-6.0,7.68,-0.05,18.8
11303,0.2709,-0.0358,0.869,-5.94,7.76,-0.05,18.8
11313,0.2677,-0.0354,0.8721,-6.0,7.73,-0.05,18.81
11323,0.2686,-0.0315,0.8722,-5.94,7.69,-0.06,18.78
11333,0.2661,-0.0317,0.8729,-5.91,7.73,-0.14,18.79
11343,0.2719,-0.0325,0.8694,-5.88,7.73,-0.12,18.81
11353,0.2677,-0.0355,0.8705,-5.95,7.71,-0.03,18.81
11363,0.2686,-0.0358,0.8745,-5.97,7.69,-0.08,18.8
11373,0.2717,-0.0342,0.8721,-5.97,7.69,0.02,18.82
11383,0.2689,-0.0326,0.8723,-5.95,7.68,-0.02,18.82
11393,0.2686,-0.0325,0.8711,-5.95,7.68,-0.11,18.8
11403,0.2695,-0.0337,0.875,-6.06,7.69,-0.05,18.8
11413,0.2711,-0.0322,0.8739,-5.89,7.73,-0.03,18.79
11423,0.2681,-0.0344,0.8721,-5.83,7.77,0.03,18.79
11433,0.2692,-0.0342,0.8701,-5.98,7.71,-0.03,18.79
11443,0.2697,-0.0332,0.8688,-5.92,7.76,0.0,18.81
11453,0.2712,-0.0341,0.8705,-5.94,7.76,-0.02,18.78
11463,0.2701,-0.0342,0.8707,-5.95,7.77,-0.09,18.82
11473,0.272,-0.0323,0.8691,-5.97,7.77,-0.05,18.8
11483,0.2714,-0.0327,0.8739,-6.0,7.68,-0.05,18.79
11493,0.2711,-0.033,0.8739,-5.95,7.68,0.02,18.81
11503,0.2706,-0.0304,0.8716,-5.95,7.65,-0.05,18.81
11513,0.2701,-0.032,0.8746,-5.98,7.71,-0.03,18.79
11523,0.2705,-0.0339,0.8717,-5.92,7.65,0.0,18.81
11533,0.2697,-0.0344,0.8688,-5.94,7.73,-0.11,18.84
11543,0.2695,-0.0298,0.8683,-6.03,7.71,-0.09,18.81
11553,0.2675,-0.0344,0.8682,-6.02,7.65,-0.09,18.8
11563,0.2692,-0.0303,0.8741,-5.92,7.66,-0.05,18.82
11573,0.27,-0.0311,0.8707,-5.94,7.65,-0.06,18.8
11583,0.269,-0.0323,0.8718,-5.94,7.68,0.02,18.8
11593,0.272,-0.0332,0.8684,-6.06,7.62,-0.03,18.81
11603,0.27,-0.0347,0.875,-6.03,7.68,-0.08,18.8
11613,0.2705,-0.0323,0.8748,-6.08,7.66,-0.05,18.8
11623,0.2728,-0.0347,0.8702,-5.98,7.71,0.0,18.82
11633,0.2688,-0.0295,0.8729,-5.91,7.71,-0.11,18.8
11643,0.272,-0.0336,0.8724,-5.89,7.66,-0.08,18.79
11653,0.2733,-0.0338,0.8715,-6.08,7.66,-0.03,18.81
11663,0.2705,-0.0371,0.8696,-5.98,7.68,-0.14,18.81
11673,0.2693,-0.0319,0.8661,-5.94,7.77,-0.08,18.82
11683,0.2699,-0.0332,0.8713,-5.91,7.71,-0.09,18.81
11693,0.2706,-0.0354,0.8722,-5.95,7.74,0.03,18.8
11703,0.2734,-0.037,0.8702,-5.95,7.66,-0.09,18.82
11713,0.2698,-0.0344,0.8707,-5.92,7.76,-0.06,18.79
11723,0.2719,-0.0363,0.8705,-6.0,7.68,-0.06,18.82
11733,0.2722,-0.035,0.8718,-5.91,7.71,-0.02,18.79
11743,0.2721,-0.035,0.8746,-5.91,7.74,-0.05,18.79
11753,0.2699,-0.0337,0.876,-5.97,7.68,-0.05,18.81
11763,0.2675,-0.0338,0.8732,-5.92,7.69,-0.14,18.82
11773,0.2681,-0.0321,0.8748,-5.95,7.74,-0.03,18.82
11783,0.2731,-0.0321,0.8721,-6.03,7.76,0.06,18.82
11793,0.2678,-0.033,0.8718,-6.0,7.63,-0.05,18.8
11803,0.2699,-0.0339,0.8711,-6.08,7.74,-0.14,18.79
11813,0.2716,-0.0349,0.8702,-6.02,7.68,0.02,18.79
11823,0.2714,-0.0345,0.8691,-6.02,7.66,0.02,18.79
11833,0.2712,-0.0343,0.8743,-5.94,7.73,-0.02,18.81
11843,0.2701,-0.035,0.8741,-5.97,7.69,-0.02,18.82
11853,0.2708,-0.036,0.8718,-5.94,7.71,-0.08,18.82
11863,0.2701,-0.035,0.8716,-5.95,7.71,0.0,18.82
11873,0.2732,-0.0354,0.8713,-5.92,7.63,-0.02,18.83
11883,0.2714,-0.0341,0.8707,-6.0,7.71,-0.06,18.81
11893,0.2727,-0.0331,0.8715,-6.03,7.77,-0.03,18.82
11903,0.2714,-0.0343,0.8695,-6.05,7.69,-0.03,18.8
11913,0.2689,-0.0348,0.8722,-5.98,7.74,-0.02,18.8
11923,0.2703,-0.0314,0.8756,-6.02,7.73,0.0,18.81
11933,0.2689,-0.0339,0.8711,-6.06,7.65,-0.06,18.82
11943,0.2709,-0.0302,0.8732,-5.98,7.73,-0.02,18.81
11953,0.2677,-0.0316,0.8701,-5.98,7.65,-0.05,18.8
11963,0.27,-0.0294,0.8669,-6.0,7.68,-0.06,18.81
11973,0.2709,-0.032,0.8735,-5.98,7.65,-0.09,18.82
11983,0.2731,-0.031,0.8716,-5.95,7.59,-0.06,18.83
11993,0.2704,-0.0354,0.8729,-5.98,7.65,-0.05,18.79
12003,0.2686,-0.0364,0.8737,-6.05,7.65,-0.05,18.83
12013,0.2698,-0.0355,0.871,-6.11,7.68,-0.06,18.84
12023,0.2706,-0.0315,0.8704,-6.08,7.69,-0.08,18.79
12033,0.271,-0.0334,0.8716,-6.0,7.69,-0.09,18.84
12043,0.27,-0.0332,0.8732,-6.03,7.69,-0.12,18.81
12053,0.2703,-0.0341,0.8716,-6.06,7.66,-0.11,18.79
12063,0.2722,-0.0345,0.873,-5.98,7.65,-0.11,18.83
12073,0.2727,-0.0322,0.8726,-5.97,7.69,-0.08,18.81
12083,0.2739,-0.035,0.873,-5.91,7.6,-0.02,18.81
12093,0.2689,-0.035,0.8723,-5.86,7.69,0.0,18.82
12103,0.2721,-0.0333,0.8687,-5.89,7.65,-0.06,18.81
12113,0.2681,-0.0345,0.8755,-5.94,7.65,-0.08,18.79
12123,0.2687,-0.0358,0.8696,-6.03,7.69,0.02,18.82
12133,0.2701,-0.0326,0.8688,-5.98,7.73,-0.02,18.82
12143,0.2719,-0.0328,0.8743,-5.95,7.69,0.05,18.81
12154,0.2683,-0.0332,0.8734,-5.95,7.71,-0.08,18.82
12164,0.27,-0.0332,0.8704,-5.97,7.77,-0.08,18.84
12174,0.2676,-0.0338,0.8699,-5.98,7.76,-0.08,18.83
12184,0.2712,-0.0342,0.8676,-6.02,7.71,-0.03,18.84
12194,0.2717,-0.0338,0.8715,-6.03,7.69,-0.09,18.83
12204,0.2717,-0.0365,0.8727,-6.0,7.83,-0.02,18.82
12214,0.2701,-0.0345,0.8727,-5.89,7.74,-0.06,18.79
12224,0.2695,-0.0322,0.8728,-5.94,7.73,-0.08,18.81
12234,0.2699,-0.0328,0.8717,-5.94,7.74,-0.06,18.81
12244,0.2697,-0.0347,0.8722,-5.98,7.71,-0.03,18.82
12254,0.2682,-0.0326,0.8683,-6.02,7.68,-0.03,18.83
12264,0.2705,-0.0319,0.8748,-5.94,7.68,-0.09,18.82
12274,0.2717,-0.0322,0.875,-5.94,7.71,-0.12,18.83
12284,0.2739,-0.0348,0.8717,-5.97,7.73,0.0,18.81
12294,0.271,-0.0337,0.8711,-5.97,7.68,-0.02,18.82
12304,0.2697,-0.0309,0.8719,-5.94,7.76,-0.05,18.83
12314,0.2703,-0.0319,0.8702,-5.92,7.63,-0.03,18.85
12324,0.2698,-0.0343,0.8755,-6.02,7.74,-0.06,18.82
12334,0.2711,-0.032,0.8722,-5.94,7.71,-0.03,18.82
12344,0.2684,-0.0328,0.8755,-6.0,7.71,-0.03,18.81
12354,0.2703,-0.0315,0.8717,-5.98,7.71,0.02,18.83
12364,0.2727,-0.0338,0.8712,-5.95,7.73,-0.09,18.82
12374,0.2697,-0.0359,0.8737,-5.95,7.68,-0.03,18.83
12384,0.2684,-0.0331,0.873,-6.0,7.68,0.03,18.82
12394,0.2694,-0.0353,0.8723,-5.91,7.71,0.02,18.82
12404,0.2706,-0.0343,0.8702,-5.92,7.77,-0.05,18.81
12414,0.2705,-0.0334,0.8702,-5.94,7.68,-0.08,18.82
12424,0.2708,-0.0327,0.8701,-5.94,7.68,-0.06,18.82
12434,0.2695,-0.032,0.8741,-5.98,7.68,-0.08,18.82
12444,0.2694,-0.0337,0.8691,-6.06,7.68,-0.09,18.84
12454,0.2711,-0.0343,0.8757,-6.0,7.69,-0.09,18.83
12464,0.2693,-0.0339,0.8711,-5.95,7.68,-0.03,18.81
12474,0.2701,-0.0336,0.8674,-6.0,7.74,-0.08,18.84
12484,0.2693,-0.0336,0.8715,-6.02,7.66,-0.09,18.85
12494,0.2698,-0.0339,0.8711,-5.97,7.76,-0.02,18.83
12504,0.2688,-0.035,0.869,-6.0,7.71,0.03,18.84
12514,0.27,-0.0361,0.8702,-5.97,7.76,-0.06,18.84
12524,0.2721,-0.0334,0.8743,-5.95,7.76,-0.03,18.84
12534,0.2732,-0.0353,0.8707,-5.92,7.73,-0.05,18.82
12544,0.2695,-0.032,0.8727,-5.97,7.79,-0.11,18.81
12554,0.27,-0.0328,0.8712,-6.0,7.74,0.0,18.84
12564,0.271,-0.0355,0.875,-5.98,7.73,0.0,18.82
12574,0.2705,-0.0353,0.8735,-6.0,7.66,-0.08,18.83
12584,0.2715,-0.0332,0.8767,-5.94,7.77,-0.09,18.82
12594,0.2739,-0.0343,0.8715,-6.0,7.76,-0.06,18.78
12604,0.272,-0.0345,0.8746,-5.95,7.76,-0.02,18.83
12614,0.2698,-0.0326,0.8737,-6.0,7.69,-0.09,18.83
12624,0.2704,-0.0333,0.8687,-5.98,7.69,-0.03,18.85
12634,0.2705,-0.0338,0.8715,-5.94,7.69,0.0,18.83
12644,0.2681,-0.0361,0.8724,-5.97,7.71,0.02,18.84
12654,0.2694,-0.0342,0.8715,-5.95,7.62,-0.06,18.84
12664,0.2684,-0.0327,0.874,-5.95,7.68,-0.12,18.81
12674,0.2703,-0.0365,0.869,-5.95,7.69,-0.09,18.83
12684,0.2712,-0.035,0.8688,-5.92,7.69,-0.05,18.84
12694,0.2708,-0.0363,0.8719,-5.91,7.69,-0.02,18.83
12704,0.2701,-0.0339,0.8696,-5.98,7.68,-0.06,18.84
12714,0.2699,-0.0326,0.87,-6.0,7.71,-0.06,18.83
12724,0.2682,-0.0345,0.8711,-5.95,7.71,-0.08,18.85
12734,0.2708,-0.0341,0.8688,-5.94,7.73,-0.02,18.82
12744,0.269,-0.0338,0.8701,-5.94,7.69,-0.03,18.83
12754,0.272,-0.0306,0.8732,-5.92,7.65,-0.08,18.83
12764,0.266,-0.0305,0.8717,-5.97,7.71,-0.05,18.82
12774,0.2714,-0.0322,0.8691,-5.97,7.69,0.0,18.82
12784,0.2672,-0.0293,0.873,-5.97,7.74,-0.02,18.83
12794,0.2686,-0.0312,0.8696,-5.95,7.71,-0.12,18.83
12804,0.2687,-0.0334,0.8707,-5.98,7.73,-0.03,18.83
12814,0.2686,-0.03,0.8717,-6.03,7.65,0.02,18.84
12824,0.2698,-0.0348,0.8732,-6.08,7.65,0.02,18.85
12834,0.2705,-0.035,0.8724,-6.0,7.66,-0.09,18.85
12844,0.2687,-0.0347,0.8724,-5.98,7.73,-0.02,18.85
12854,0.2699,-0.0328,0.8738,-5.97,7.65,-0.02,18.85
12864,0.2712,-0.0347,0.8719,-6.0,7.74,-0.03,18.84
12874,0.2692,-0.0331,0.8765,-6.0,7.69,0.0,18.84
12884,0.2715,-0.0349,0.8746,-5.97,7.69,-0.05,18.83
12895,0.2736,-0.0328,0.8738,-6.0,7.74,-0.08,18.83
12905,0.2719,-0.0319,0.8748,-5.98,7.73,-0.06,18.83
12915,0.272,-0.0347,0.874,-5.92,7.74,-0.09,18.84
12925,0.2723,-0.0385,0.8702,-5.98,7.65,-0.15,18.85
12935,0.27,-0.033,0.8724,-5.89,7.65,-0.08,18.84
12945,0.2701,-0.0339,0.8768,-5.97,7.65,-0.11,18.83
12955,0.2697,-0.0315,0.8722,-6.02,7.66,0.02,18.82
12965,0.2677,-0.0319,0.8745,-5.98,7.62,-0.03,18.84
12975,0.271,-0.0353,0.8738,-5.95,7.73,-0.11,18.84
12985,0.2717,-0.0298,0.8759,-5.92,7.77,-0.08,18.84
12995,0.2697,-0.0341,0.8759,-5.92,7.77,-0.11,18.84
13005,0.2678,-0.0331,0.8715,-6.0,7.77,-0.03,18.84
13015,0.2726,-0.0331,0.8744,-6.05,7.69,-0.12,18.84
13025,0.2715,-0.0334,0.8718,-5.89,7.69,-0.11,18.85
13035,0.2725,-0.0339,0.8702,-5.88,7.76,-0.09,18.84
13045,0.2682,-0.0332,0.8693,-6.0,7.69,-0.09,18.84
13055,0.2689,-0.0341,0.8677,-5.95,7.66,-0.05,18.83
13065,0.2684,-0.0336,0.8684,-5.98,7.73,-0.03,18.83
13075,0.2715,-0.0352,0.8688,-5.97,7.69,-0.05,18.83
13085,0.2706,-0.0333,0.87,-6.02,7.68,0.03,18.82
13095,0.2684,-0.0344,0.8687,-5.92,7.68,-0.09,18.82
13105,0.27,-0.0391,0.8737,-5.94,7.65,-0.02,18.82
13115,0.2715,-0.0339,0.8749,-5.97,7.73,-0.05,18.82
13125,0.2698,-0.0314,0.871,-5.92,7.65,-0.11,18.82
13135,0.2706,-0.0352,0.8734,-6.03,7.65,-0.03,18.83
13145,0.2712,-0.035,0.8773,-6.03,7.69,0.0,18.83
13155,0.272,-0.0332,0.8749,-6.03,7.74,-0.09,18.82
13165,0.272,-0.0338,0.8739,-5.98,7.74,-0.08,18.83
13175,0.275,-0.0321,0.8728,-6.03,7.66,-0.06,18.83
13185,0.2704,-0.0341,0.8751,-5.95,7.66,-0.11,18.82
13195,0.2709,-0.0338,0.8768,-5.98,7.77,0.03,18.83
13205,0.2708,-0.0354,0.8744,-5.92,7.73,-0.06,18.84
13215,0.2695,-0.0339,0.8707,-6.05,7.65,-0.06,18.85
13225,0.2706,-0.0319,0.8704,-5.98,7.74,-0.11,18.86
13235,0.271,-0.0339,0.8745,-6.03,7.77,-0.06,18.83
13245,0.2711,-0.0353,0.8708,-5.95,7.69,0.0,18.83
13255,0.2701,-0.0323,0.8727,-5.97,7.74,0.05,18.83
13265,0.2705,-0.0342,0.8698,-5.94,7.77,-0.02,18.85
13275,0.2692,-0.0325,0.8733,-6.0,7.71,-0.05,18.82
13285,0.265,-0.0325,0.8727,-5.98,7.69,-0.09,18.87
13295,0.2693,-0.0326,0.8679,-6.02,7.71,0.0,18.86
13305,0.2698,-0.0348,0.8699,-5.95,7.73,-0.06,18.86
13315,0.2697,-0.0356,0.8685,-5.98,7.68,-0.06,18.83
13325,0.27,-0.0333,0.8677,-6.0,7.76,-0.11,18.84
13335,0.2694,-0.0355,0.8694,-6.0,7.69,-0.03,18.84
13345,0.2695,-0.0344,0.8727,-5.94,7.74,-0.06,18.84
13355,0.2667,-0.0339,0.8688,-5.97,7.66,-0.06,18.84
13365,0.2683,-0.0338,0.8734,-6.03,7.76,-0.03,18.83
13375,0.2681,-0.0333,0.8719,-5.98,7.63,-0.09,18.83
13385,0.2698,-0.0326,0.8743,-6.02,7.73,-0.14,18.85
13395,0.2716,-0.035,0.8723,-5.95,7.8,0.05,18.84
13405,0.2722,-0.0356,0.8746,-5.97,7.76,-0.09,18.86
13415,0.2708,-0.0332,0.8732,-5.95,7.73,-0.06,18.85
13425,0.2743,-0.0342,0.8721,-5.98,7.74,-0.02,18.84
13435,0.2732,-0.0323,0.8726,-6.03,7.79,-0.06,18.84
13445,0.2727,-0.0316,0.8698,-5.95,7.68,-0.11,18.86
13455,0.2717,-0.0323,0.8696,-5.95,7.69,-0.08,18.85
13465,0.2675,-0.0344,0.8699,-6.02,7.76,-0.03,18.81
13475,0.2695,-0.0327,0.8721,-5.95,7.79,-0.09,18.84
13485,0.2708,-0.0305,0.8735,-6.08,7.74,-0.03,18.86
13495,0.2697,-0.0323,0.8746,-6.06,7.71,-0.09,18.84
13505,0.2666,-0.0353,0.8702,-6.0,7.68,-0.12,18.83
13515,0.2704,-0.0366,0.875,-6.08,7.71,-0.05,18.84
13525,0.2686,-0.0345,0.873,-6.03,7.69,-0.05,18.85
13535,0.2689,-0.0337,0.8676,-6.03,7.74,-0.02,18.87
13545,0.2693,-0.0342,0.8739,-5.97,7.69,-0.08,18.85
13555,0.2701,-0.0321,0.875,-5.98,7.74,-0.02,18.85
13565,0.2714,-0.0323,0.8737,-5.91,7.68,-0.03,18.85
13575,0.2694,-0.0344,0.8723,-6.02,7.79,-0.08,18.85
13585,0.271,-0.0353,0.8761,-5.95,7.63,0.03,18.88
13595,0.2721,-0.0348,0.8721,-5.94,7.73,-0.11,18.88
13605,0.2715,-0.0342,0.8721,-5.98,7.76,-0.02,18.84
13615,0.2727,-0.0328,0.8743,-5.92,7.73,-0.08,18.87
13625,0.2698,-0.0327,0.8715,-6.0,7.71,-0.11,18.86
13635,0.272,-0.0319,0.8722,-5.98,7.66,-0.12,18.85
13645,0.2681,-0.0316,0.8712,-5.97,7.71,-0.09,18.86
13655,0.2692,-0.0338,0.8705,-5.95,7.71,-0.09,18.86
13665,0.2709,-0.0328,0.8737,-6.06,7.69,-0.09,18.88
13675,0.271,-0.0328,0.8748,-6.06,7.66,-0.03,18.84
13685,0.271,-0.0315,0.8712,-5.97,7.74,-0.03,18.87
13695,0.2695,-0.0315,0.8693,-6.0,7.69,-0.14,18.84
13705,0.2722,-0.0334,0.8699,-5.94,7.73,-0.09,18.86
13715,0.2676,-0.0332,0.8695,-5.89,7.69,-0.02,18.86
13725,0.2692,-0.0352,0.869,-5.98,7.74,-0.05,18.85
13735,0.2709,-0.033,0.8734,-5.94,7.71,-0.03,18.85
13745,0.2706,-0.0298,0.8754,-5.97,7.68,0.0,18.88
13755,0.2721,-0.0326,0.8719,-6.0,7.77,-0.03,18.85
13765,0.2738,-0.0338,0.8715,-6.0,7.66,-0.05,18.87
13775,0.2704,-0.035,0.8745,-6.05,7.68,-0.06,18.87
13785,0.2703,-0.0323,0.8743,-5.92,7.68,-0.03,18.87
13795,0.271,-0.0302,0.874,-6.02,7.69,-0.06,18.87
13805,0.2703,-0.0336,0.8691,-6.0,7.73,-0.06,18.86
13815,0.2697,-0.035,0.8733,-5.98,7.74,-0.12,18.88
13825,0.2689,-0.0341,0.8694,-5.92,7.71,-0.02,18.87
13835,0.2712,-0.0325,0.8702,-5.95,7.73,-0.03,18.86
13845,0.2704,-0.0347,0.8694,-6.03,7.71,-0.14,18.86
13855,0.271,-0.0342,0.8734,-5.94,7.68,-0.11,18.87
13865,0.2695,-0.0312,0.8738,-5.94,7.8,-0.08,18.86
13875,0.2715,-0.0327,0.8724,-5.97,7.71,0.0,18.87
13885,0.2699,-0.0327,0.87,-6.0,7.77,-0.06,18.85
13895,0.2699,-0.0347,0.8683,-6.03,7.74,-0.08,18.85
13905,0.2729,-0.0328,0.8691,-6.03,7.69,0.0,18.86
13915,0.2711,-0.0332,0.8705,-6.02,7.77,-0.12,18.84
13925,0.2708,-0.0336,0.8687,-5.97,7.66,-0.08,18.89
13935,0.2675,-0.0325,0.8651,-5.92,7.71,-0.08,18.86
13945,0.2693,-0.0343,0.8723,-5.95,7.77,0.02,18.87
13955,0.2678,-0.0342,0.8695,-6.02,7.68,-0.11,18.85
13965,0.2708,-0.0322,0.873,-6.0,7.73,-0.09,18.84
13975,0.267,-0.0371,0.8732,-5.95,7.76,-0.06,18.84
13985,0.2668,-0.033,0.8722,-6.02,7.69,-0.06,18.85
13995,0.2732,-0.0369,0.8726,-5.98,7.74,0.02,18.84
14005,0.2731,-0.0342,0.8737,-6.0,7.73,-0.05,18.86
14015,0.2734,-0.0352,0.8717,-6.03,7.73,-0.05,18.84
14025,0.2719,-0.0337,0.8722,-5.94,7.76,-0.06,18.85
14035,0.2721,-0.0295,0.8719,-6.0,7.73,-0.05,18.85
14045,0.2727,-0.0359,0.8738,-5.95,7.74,-0.18,18.86
14055,0.271,-0.0353,0.8693,-6.02,7.74,-0.05,18.86
14065,0.2711,-0.0372,0.8723,-6.02,7.73,-0.02,18.86
14075,0.2734,-0.0347,0.8708,-6.0,7.71,-0.02,18.86
14085,0.2734,-0.035,0.8733,-5.91,7.71,-0.06,18.85
14095,0.2692,-0.0364,0.8716,-5.94,7.73,-0.03,18.86
14105,0.2692,-0.0349,0.8734,-5.98,7.68,-0.05,18.84
14115,0.2736,-0.0342,0.8755,-5.91,7.76,-0.06,18.86
14125,0.2733,-0.0347,0.8712,-5.98,7.73,-0.03,18.87
14135,0.272,-0.0322,0.8712,-5.95,7.69,-0.05,18.85
14145,0.2701,-0.0353,0.8689,-5.95,7.68,-0.09,18.86
14155,0.2731,-0.0345,0.8698,-5.95,7.73,-0.05,18.87
14165,0.271,-0.0321,0.8718,-5.94,7.76,-0.08,18.85
14175,0.2689,-0.0345,0.8727,-5.88,7.69,-0.08,18.87
14185,0.2708,-0.0349,0.8689,-5.95,7.76,-0.03,18.85
14195,0.2683,-0.0331,0.8745,-5.92,7.66,-0.14,18.88
14205,0.2706,-0.0327,0.868,-5.97,7.69,-0.05,18.88
14215,0.2723,-0.0367,0.8721,-5.97,7.74,0.0,18.87
14225,0.2687,-0.0348,0.8708,-5.94,7.76,-0.03,18.91
14235,0.2719,-0.0308,0.8738,-5.98,7.73,-0.09,18.87
14245,0.2701,-0.0332,0.8694,-5.86,7.73,-0.08,18.87
14255,0.2698,-0.0317,0.8717,-6.05,7.69,-0.08,18.88
14265,0.2694,-0.0327,0.8716,-5.92,7.65,-0.12,18.86
14276,0.2701,-0.0342,0.8708,-5.92,7.63,-0.06,18.88
14288,0.2683,-0.0349,0.8767,-5.97,7.74,-0.08,18.89
14298,0.2714,-0.0312,0.8749,-6.0,7.66,-0.05,18.88
14308,0.2694,-0.0366,0.8752,-5.91,7.66,-0.06,18.87
14318,0.2705,-0.0369,0.8751,-5.92,7.71,-0.08,18.86
14328,0.274,-0.035,0.8735,-6.03,7.66,-0.02,18.86
14338,0.2694,-0.0332,0.8778,-6.05,7.69,-0.08,18.86
14348,0.2712,-0.0325,0.8757,-5.98,7.69,-0.05,18.85
14358,0.2729,-0.0354,0.8761,-5.98,7.71,-0.08,18.85
14368,0.2716,-0.0322,0.8728,-5.92,7.73,0.02,18.88
14378,0.2705,-0.0333,0.871,-6.02,7.76,-0.02,18.86
14388,0.2712,-0.0359,0.8774,-5.97,7.71,0.0,18.87
14398,0.2743,-0.0342,0.8713,-6.05,7.68,-0.05,18.86
14408,0.2712,-0.0333,0.8726,-6.05,7.71,-0.03,18.86
14418,0.2706,-0.0328,0.8687,-5.94,7.71,0.0,18.87
14428,0.2714,-0.0323,0.8723,-5.91,7.68,-0.05,18.87
14438,0.2656,-0.0352,0.8733,-6.03,7.66,-0.03,18.87
14448,0.2697,-0.0328,0.8708,-6.02,7.73,-0.02,18.88
14458,0.2692,-0.0315,0.8704,-5.97,7.73,0.0,18.88
14468,0.2706,-0.0336,0.8685,-6.06,7.76,0.02,18.92
14478,0.2676,-0.0353,0.8691,-6.0,7.74,-0.03,18.88
14488,0.2705,-0.0348,0.87,-6.02,7.69,-0.05,18.87
14498,0.2689,-0.0325,0.8708,-5.98,7.77,-0.08,18.89
14508,0.2705,-0.0337,0.8741,-5.98,7.73,-0.15,18.88
14518,0.2684,-0.0345,0.8677,-5.98,7.69,0.0,18.87
14528,0.2694,-0.0355,0.8699,-5.97,7.69,-0.03,18.87
14538,0.2695,-0.0339,0.8691,-5.95,7.77,-0.05,18.87
14548,0.2697,-0.0344,0.8702,-5.98,7.74,-0.14,18.87
14558,0.2695,-0.035,0.871,-5.97,7.76,-0.09,18.89
14568,0.2732,-0.0365,0.8744,-5.85,7.68,-0.05,18.87
14578,0.2721,-0.0341,0.8749,-6.02,7.71,-0.05,18.88
14588,0.2721,-0.031,0.8757,-6.02,7.76,-0.03,18.88
14598,0.2717,-0.0353,0.8718,-6.0,7.65,-0.08,18.87
14608,0.2705,-0.0319,0.8715,-5.89,7.74,-0.05,18.86
14618,0.2704,-0.0317,0.8713,-6.03,7.71,-0.02,18.85
14629,0.2716,-0.0312,0.8754,-5.92,7.76,-0.03,18.88
14639,0.2705,-0.0316,0.8718,-6.0,7.74,-0.05,18.89
14649,0.2704,-0.0352,0.8738,-6.02,7.69,-0.05,18.89
14659,0.2725,-0.0326,0.8735,-5.98,7.69,-0.06,18.86
14669,0.2716,-0.0327,0.8768,-6.0,7.69,-0.11,18.87
14679,0.2731,-0.0315,0.8722,-6.03,7.68,-0.05,18.87
14689,0.2704,-0.0341,0.8715,-6.0,7.71,-0.02,18.89
14699,0.2695,-0.0323,0.8691,-5.98,7.62,-0.11,18.9
14709,0.269,-0.0327,0.8707,-5.98,7.69,-0.08,18.89
14719,0.2701,-0.0359,0.8684,-6.06,7.69,-0.03,18.85
14729,0.272,-0.0345,0.8696,-5.98,7.71,-0.06,18.9
14739,0.272,-0.0352,0.869,-5.94,7.63,-0.12,18.87
14749,0.2689,-0.0297,0.8694,-6.14,7.68,-0.09,18.91
14759,0.2703,-0.0338,0.8717,-6.08,7.66,-0.08,18.88
14769,0.2705,-0.0343,0.8726,-6.03,7.69,-0.05,18.89
14779,0.2706,-0.0342,0.8665,-5.92,7.65,-0.03,18.89
14789,0.2693,-0.0338,0.8684,-5.95,7.66,-0.08,18.88
14799,0.27,-0.0337,0.8718,-6.06,7.68,-0.06,18.89
14809,0.2706,-0.0347,0.8685,-5.94,7.73,-0.03,18.9
14819,0.27,-0.0349,0.8734,-5.92,7.71,-0.11,18.89
14829,0.2692,-0.0306,0.8722,-5.94,7.71,-0.09,18.9
14839,0.2684,-0.0376,0.8713,-5.97,7.73,-0.09,18.87
14849,0.2731,-0.0355,0.873,-5.94,7.66,-0.02,18.9
14859,0.2732,-0.0363,0.8668,-5.97,7.69,-0.08,18.9
14869,0.2714,-0.0345,0.8694,-6.05,7.74,-0.06,18.89
14879,0.2705,-0.0308,0.8743,-6.09,7.77,-0.06,18.87
14889,0.2693,-0.0325,0.8763,-5.94,7.82,-0.03,18.89
14899,0.2705,-0.0344,0.8719,-6.05,7.73,-0.09,18.87
14909,0.2733,-0.0293,0.8788,-5.91,7.74,-0.08,18.89
14919,0.2722,-0.0308,0.875,-5.98,7.66,-0.06,18.87
14929,0.2716,-0.0327,0.8768,-5.98,7.65,-0.06,18.87
14939,0.2695,-0.0355,0.8761,-6.08,7.68,-0.09,18.89
14949,0.2716,-0.0325,0.874,-5.94,7.71,-0.02,18.9
14959,0.2711,-0.0327,0.8728,-5.91,7.76,0.02,18.89
14969,0.2684,-0.0345,0.8765,-5.94,7.76,-0.05,18.89
14979,0.2706,-0.0334,0.8733,-5.94,7.73,-0.06,18.89
14989,0.2706,-0.0361,0.8701,-5.95,7.69,-0.02,18.89
14999,0.2693,-0.0312,0.8749,-5.86,7.74,-0.03,18.9
15009,0.2672,-0.0317,0.8748,-5.92,7.73,0.0,18.89
15019,0.2693,-0.028,0.873,-5.95,7.76,0.0,18.91
15029,0.2697,-0.0326,0.8677,-6.08,7.82,-0.09,18.88
15039,0.2709,-0.0292,0.8728,-6.02,7.79,-0.06,18.87
15049,0.2706,-0.0309,0.8728,-5.94,7.73,-0.06,18.88
15059,0.27,-0.0325,0.8722,-6.0,7.65,-0.11,18.89
15069,0.2672,-0.0314,0.8713,-5.92,7.79,-0.08,18.9
15079,0.2703,-0.0297,0.8738,-6.02,7.77,-0.05,18.9
15089,0.2704,-0.0322,0.8733,-6.02,7.71,0.02,18.87
15099,0.2738,-0.0341,0.8701,-6.08,7.76,-0.08,18.9
15109,0.2728,-0.0337,0.8749,-6.05,7.65,-0.09,18.89
15119,0.2672,-0.0343,0.8717,-5.97,7.71,-0.02,18.91
15129,0.2687,-0.0328,0.8712,-6.06,7.62,0.02,18.89
15139,0.2688,-0.0322,0.874,-5.98,7.74,-0.02,18.88
15149,0.2728,-0.0364,0.8735,-5.98,7.68,-0.03,18.9
15159,0.2687,-0.0344,0.8705,-5.97,7.66,0.03,18.9
15169,0.271,-0.032,0.8717,-6.0,7.73,-0.03,18.89
15179,0.27,-0.0327,0.8716,-6.02,7.71,-0.08,18.9
15189,0.2714,-0.032,0.8743,-6.03,7.73,-0.08,18.88
15199,0.2709,-0.0333,0.8721,-5.88,7.69,0.02,18.91
15209,0.2706,-0.0334,0.8682,-5.95,7.68,-0.09,18.91
15219,0.2743,-0.0336,0.8717,-6.0,7.79,-0.09,18.92
15229,0.2704,-0.0341,0.8712,-5.91,7.63,-0.06,18.9
15239,0.2688,-0.0336,0.868,-6.03,7.68,-0.02,18.92
15249,0.2693,-0.0356,0.871,-5.98,7.71,-0.05,18.89
15259,0.2667,-0.032,0.8712,-6.03,7.71,0.03,18.91
15269,0.2675,-0.0344,0.8744,-5.95,7.74,-0.12,18.92
15279,0.27,-0.0338,0.8746,-6.03,7.68,-0.03,18.91
15289,0.2703,-0.0359,0.8687,-6.08,7.66,-0.08,18.9
15299,0.2703,-0.0339,0.8696,-5.98,7.68,-0.05,18.91
15309,0.2695,-0.0322,0.8713,-6.0,7.76,-0.02,18.89
15319,0.2692,-0.0347,0.8676,-5.89,7.69,-0.05,18.9
15329,0.2703,-0.0323,0.8707,-6.03,7.69,-0.02,18.9
15339,0.27,-0.0334,0.8744,-5.97,7.73,0.06,18.89
15349,0.2697,-0.0308,0.8743,-6.05,7.66,0.0,18.91
15359,0.2684,-0.0311,0.8724,-5.98,7.65,-0.02,18.92
15369,0.2698,-0.032,0.8737,-6.05,7.69,-0.05,18.91
15379,0.2723,-0.0343,0.8761,-6.0,7.76,-0.08,18.91
15389,0.2712,-0.0312,0.8708,-5.98,7.68,-0.08,18.9
15399,0.2728,-0.0332,0.8735,-5.97,7.77,-0.09,18.89
15409,0.2714,-0.0367,0.8718,-5.97,7.74,-0.05,18.91
15419,0.2689,-0.0311,0.8726,-6.02,7.76,-0.06,18.93
15429,0.2687,-0.0328,0.8749,-5.89,7.63,-0.11,18.92
15439,0.2714,-0.0337,0.8734,-5.91,7.71,-0.12,18.91
15449,0.2681,-0.0344,0.8749,-6.02,7.73,-0.14,18.89
15459,0.2689,-0.0321,0.8733,-5.98,7.73,-0.03,18.92
15469,0.27,-0.032,0.8707,-6.0,7.69,-0.08,18.9
15479,0.2699,-0.0361,0.8713,-6.0,7.63,-0.09,18.88
15489,0.2694,-0.0336,0.8698,-5.97,7.74,-0.11,18.9
15499,0.2711,-0.0309,0.869,-5.94,7.69,-0.06,18.92
15510,0.2656,-0.0347,0.869,-5.92,7.65,0.05,18.91
15520,0.2676,-0.0309,0.8705,-5.98,7.74,-0.05,18.89
15530,0.2681,-0.0338,0.8712,-5.92,7.77,-0.08,18.89
15541,0.2703,-0.0338,0.8708,-5.88,7.68,-0.08,18.91
15551,0.2693,-0.0334,0.8701,-5.89,7.73,-0.05,18.91
15561,0.2681,-0.0309,0.8726,-5.97,7.71,-0.09,18.9
15571,0.2694,-0.0327,0.8699,-5.92,7.69,-0.06,18.92
15581,0.2715,-0.0326,0.8689,-6.03,7.73,-0.12,18.92
15591,0.2686,-0.0334,0.8744,-5.94,7.68,-0.05,18.9
15601,0.2672,-0.0327,0.8716,-6.0,7.69,-0.08,18.89
15611,0.2705,-0.0312,0.8734,-5.91,7.69,-0.06,18.91
15621,0.272,-0.0321,0.8718,-6.02,7.74,-0.03,18.92
15631,0.2716,-0.0356,0.8708,-5.94,7.74,-0.02,18.92
15641,0.2693,-0.0332,0.8688,-5.91,7.74,0.0,18.9
15651,0.2722,-0.0322,0.8751,-6.06,7.73,-0.08,18.92
15661,0.271,-0.0315,0.8674,-6.05,7.73,-0.05,18.87
15671,0.2692,-0.0333,0.8737,-6.0,7.68,-0.03,18.88
15681,0.272,-0.0317,0.8761,-6.02,7.68,-0.05,18.89
15691,0.2722,-0.0309,0.8755,-6.05,7.65,0.02,18.89
15701,0.2721,-0.0306,0.8723,-5.97,7.76,-0.06,18.91
15711,0.2715,-0.0352,0.874,-6.0,7.66,-0.02,18.89
15721,0.2716,-0.0326,0.876,-5.95,7.66,0.0,18.9
15731,0.2704,-0.0348,0.877,-5.95,7.62,-0.08,18.89
15741,0.2689,-0.0339,0.8748,-6.0,7.74,-0.03,18.89
15751,0.2712,-0.0343,0.8739,-5.92,7.76,-0.05,18.93
15761,0.2714,-0.0364,0.8715,-6.02,7.63,0.0,18.92
15771,0.2679,-0.0339,0.8744,-6.0,7.68,-0.06,18.89
15781,0.2689,-0.0332,0.8698,-6.02,7.66,-0.02,18.9
15791,0.2729,-0.0334,0.8717,-5.98,7.73,-0.05,18.91
15801,0.2728,-0.0342,0.866,-5.98,7.79,0.03,18.91
15811,0.2699,-0.0321,0.8689,-5.97,7.73,0.0,18.92
15821,0.2695,-0.0319,0.8687,-5.95,7.6,-0.09,18.89
15831,0.2697,-0.0289,0.8666,-6.05,7.71,-0.11,18.91
15841,0.2714,-0.0332,0.8651,-5.94,7.8,-0.02,18.89
15851,0.2737,-0.035,0.8695,-6.0,7.59,-0.11,18.91
15861,0.2737,-0.0339,0.8705,-6.0,7.62,-0.06,18.9
15871,0.267,-0.0344,0.8755,-6.05,7.77,-0.02,18.9
15881,0.2672,-0.0376,0.8727,-6.0,7.71,-0.08,18.9
15891,0.2736,-0.0355,0.8593,-6.02,7.71,-0.06,18.93
15901,0.2816,-0.0359,0.8643,-6.0,7.56,-0.03,18.93
15911,0.2679,-0.0305,0.877,-6.02,7.83,-0.06,18.89
15921,0.2661,-0.0315,0.8738,-6.0,7.62,-0.03,18.92
15931,0.2764,-0.0295,0.8838,-6.03,7.92,-0.11,18.89
15941,0.2717,-0.0363,0.8673,-6.12,7.86,-0.02,18.9
15951,0.2714,-0.03,0.8666,-5.97,7.53,-0.14,18.92
15961,0.2684,-0.0391,0.8893,-6.0,7.89,-0.08,18.92
15971,0.2244,-0.0525,0.9071,-6.05,7.44,0.02,18.89
15981,0.2426,-0.0258,0.9249,-5.88,8.52,-0.09,18.93
15991,0.2322,-0.0267,0.873,-5.91,9.1,-0.11,18.9
16001,0.2969,-0.0303,0.8545,-6.09,6.9,-0.02,18.89
16011,0.2953,-0.0328,0.8702,-5.94,7.73,-0.02,18.91
16021,0.2772,-0.0283,0.8342,-6.15,7.28,0.0,18.89
16031,0.2655,-0.0349,0.8877,-5.91,8.24,-0.11,18.9
16041,0.287,-0.0382,0.8699,-6.06,7.95,-0.14,18.94
16051,0.2744,-0.0334,0.8528,-5.86,7.57,-0.06,18.91
16061,0.2794,-0.0305,0.8802,-6.0,7.31,0.0,18.91
16071,0.2656,-0.0352,0.8778,-6.02,8.06,-0.08,18.92
16081,0.2628,-0.0325,0.87,-5.95,7.65,0.0,18.92
16091,0.2795,-0.0331,0.8756,-5.98,7.68,0.02,18.9
16101,0.2773,-0.037,0.8589,-6.02,7.63,0.03,18.91
16111,0.2733,-0.0289,0.861,-5.91,7.33,-0.05,18.89
16122,0.2734,-0.0275,0.8715,-6.08,7.76,-0.08,18.91
16132,0.2719,-0.0336,0.8707,-6.02,7.63,-0.02,18.92
16142,0.2773,-0.0339,0.8595,-5.91,7.42,0.02,18.92
16152,0.2524,-0.0315,0.8988,-6.35,8.34,-0.09,18.92
16162,0.2764,-0.0404,0.8542,-6.02,7.62,-0.09,18.92
16172,0.3027,-0.0322,0.8446,-5.95,6.41,0.03,18.91
16182,0.2838,-0.031,0.8723,-5.89,6.84,0.03,18.91
16192,0.2592,-0.035,0.8862,-5.94,7.69,-0.05,18.91
16202,0.2559,-0.0334,0.8862,-6.05,8.11,-0.09,18.91
16212,0.272,-0.0316,0.8676,-5.92,7.88,-0.02,18.91
16222,0.2727,-0.0333,0.8663,-5.94,7.59,-0.03,18.91
16232,0.2745,-0.0339,0.8782,-6.05,7.6,-0.06,18.92
16242,0.2687,-0.0353,0.8782,-6.03,7.91,-0.11,18.93
16252,0.2705,-0.037,0.8672,-6.03,7.56,-0.03,18.93
16262,0.2686,-0.0366,0.8707,-5.91,7.59,-0.03,18.93
16272,0.2704,-0.0333,0.8727,-5.98,7.73,-0.08,18.89
16283,0.2701,-0.0332,0.874,-6.02,7.76,-0.05,18.9
16293,0.267,-0.0333,0.8705,-6.05,7.77,-0.05,18.89
16303,0.2709,-0.0332,0.8735,-5.98,7.69,0.02,18.91
16313,0.2731,-0.035,0.8773,-5.92,7.59,-0.03,18.92
16323,0.2723,-0.0353,0.8696,-5.94,7.54,-0.08,18.89
16333,0.2721,-0.038,0.8629,-6.0,7.6,-0.09,18.92
16343,0.2657,-0.0364,0.8702,-5.97,7.83,-0.05,18.93
16353,0.2667,-0.0326,0.8668,-5.98,7.65,-0.05,18.92
16363,0.2684,-0.0332,0.8739,-5.98,7.68,-0.05,18.92
16373,0.2683,-0.0315,0.8792,-5.94,7.79,-0.06,18.9
16383,0.2675,-0.0339,0.8795,-5.98,7.86,-0.09,18.91
16393,0.2738,-0.0332,0.8734,-5.98,7.74,-0.06,18.94
16403,0.2695,-0.0359,0.8768,-6.03,7.79,-0.06,18.9
16413,0.2722,-0.0334,0.8662,-6.03,7.6,-0.09,18.9
16423,0.2673,-0.0341,0.8768,-6.06,7.77,-0.12,18.91
16433,0.2698,-0.0361,0.871,-5.94,7.73,-0.05,18.94
16443,0.2654,-0.0356,0.8717,-5.94,7.69,-0.12,18.91
16453,0.2681,-0.0322,0.8645,-6.03,7.73,-0.02,18.9
16463,0.2649,-0.0359,0.868,-5.95,7.68,-0.02,18.93
16473,0.257,-0.0403,0.88,-5.91,8.26,-0.14,18.94
16483,0.2914,-0.032,0.8529,-5.98,7.74,-0.06,18.93
16493,0.2841,-0.0304,0.8678,-5.98,7.45,-0.03,18.93
16503,0.2776,-0.0354,0.8666,-5.95,7.54,0.0,18.91
16513,0.2648,-0.0338,0.8822,-6.14,7.91,-0.12,18.92
16523,0.2764,-0.0341,0.87,-6.08,7.56,-0.03,18.93
16533,0.2662,-0.0338,0.8759,-6.02,7.88,-0.06,18.93
16543,0.2729,-0.0361,0.8657,-6.02,7.74,-0.03,18.92
16553,0.2738,-0.0349,0.8717,-5.89,7.73,-0.06,18.92
16563,0.2704,-0.0322,0.8752,-5.92,7.74,-0.06,18.93
16573,0.269,-0.0358,0.8716,-5.98,7.69,-0.09,18.92
16583,0.2667,-0.0273,0.873,-5.95,7.79,-0.06,18.93
16593,0.2693,-0.0306,0.8711,-5.95,7.71,-0.06,18.92
16603,0.2679,-0.0453,0.8713,-5.97,7.73,-0.14,18.93
16613,0.2914,-0.0691,0.8636,-6.08,7.19,0.0,18.92
16623,0.3315,-0.0336,0.8624,-6.09,5.92,0.05,18.94
16633,0.3224,-0.027,0.8224,-5.95,7.91,-0.08,18.94
16643,0.2542,-0.0315,0.8833,-5.94,6.85,0.03,18.92
16653,0.2192,-0.0349,0.912,-5.91,9.05,-0.21,18.94
16663,0.2623,-0.0297,0.8765,-6.06,8.52,-0.11,18.92
16673,0.2997,-0.0349,0.8489,-5.86,7.16,-0.03,18.93
16683,0.2922,-0.0321,0.859,-6.11,7.07,0.03,18.94
16693,0.2756,-0.0332,0.8667,-5.92,7.36,0.0,18.94
16703,0.2616,-0.0299,0.8853,-6.0,7.82,-0.02,18.92
16713,0.272,-0.0338,0.8682,-6.0,7.94,-0.03,18.91
16723,0.275,-0.0352,0.8613,-5.95,7.44,0.02,18.92
16733,0.2728,-0.0294,0.8728,-5.97,7.63,-0.05,18.91
16743,0.2686,-0.0336,0.87,-6.05,7.74,-0.05,18.92
16753,0.2677,-0.0383,0.8602,-6.0,7.54,-0.08,18.92
16763,0.2643,-0.0328,0.8793,-6.09,7.79,-0.08,18.93
16773,0.2687,-0.0306,0.8685,-6.06,7.82,-0.15,18.92
16783,0.2705,-0.0317,0.8673,-6.02,7.62,-0.02,18.93
16793,0.2742,-0.0325,0.8751,-5.98,7.76,-0.02,18.91
16803,0.27,-0.0333,0.8677,-5.97,7.77,-0.06,18.94
16813,0.2673,-0.0365,0.8744,-5.98,7.63,-0.03,18.93
16823,0.2709,-0.0344,0.8741,-5.97,7.74,-0.11,18.93
16833,0.2653,-0.0331,0.8693,-5.98,7.8,-0.08,18.94
16843,0.2722,-0.0291,0.8704,-5.95,7.57,-0.06,18.94
16853,0.2686,-0.0328,0.8734,-5.97,7.71,-0.02,18.92
16863,0.2661,-0.032,0.8674,-5.92,7.79,-0.08,18.92
16874,0.2715,-0.0295,0.8716,-5.98,7.68,-0.06,18.93
16884,0.2709,-0.0343,0.8768,-6.0,7.69,0.0,18.94
16894,0.2686,-0.0312,0.8738,-5.92,7.69,-0.06,18.94
16904,0.2729,-0.0327,0.8738,-6.02,7.63,0.05,18.94
16914,0.2706,-0.0332,0.8785,-6.08,7.74,0.0,18.94
16924,0.2701,-0.0343,0.8724,-5.97,7.77,0.0,18.94
16934,0.2688,-0.0347,0.8771,-6.03,7.69,-0.09,18.95
16944,0.2704,-0.0375,0.8732,-6.08,7.77,-0.02,18.94
16954,0.2692,-0.0353,0.8712,-5.95,7.65,-0.05,18.94
16964,0.2698,-0.0337,0.8704,-5.95,7.71,-0.08,18.93
16974,0.2711,-0.0328,0.8691,-5.95,7.77,-0.14,18.93
16984,0.2703,-0.0288,0.8705,-5.94,7.65,-0.06,18.92
16994,0.272,-0.0323,0.8759,-5.97,7.74,-0.06,18.93
17004,0.2705,-0.0334,0.8671,-6.0,7.74,-0.02,18.94
17014,0.2667,-0.03,0.8673,-5.97,7.76,-0.08,18.93
17024,0.2676,-0.0334,0.8674,-5.98,7.63,-0.06,18.92
17034,0.2678,-0.031,0.8672,-6.03,7.76,-0.09,18.95
17044,0.2697,-0.0341,0.8708,-6.05,7.6,-0.03,18.92
17054,0.2709,-0.0344,0.873,-6.05,7.66,-0.05,18.93
17064,0.269,-0.0369,0.8711,-6.05,7.73,-0.06,18.91
17074,0.2698,-0.036,0.8737,-6.08,7.69,-0.05,18.93
17084,0.272,-0.0345,0.8732,-6.0,7.73,-0.05,18.94
17094,0.2666,-0.0345,0.8744,-6.06,7.73,-0.09,18.95
17104,0.2687,-0.0331,0.8715,-5.97,7.63,-0.08,18.91
17114,0.2648,-0.0306,0.8726,-6.0,7.83,-0.03,18.91
17124,0.2725,-0.037,0.8608,-6.05,7.63,-0.08,18.95
17134,0.2362,-0.0309,0.9001,-6.11,8.08,-0.05,18.95
17144,0.2245,-0.0298,0.9087,-6.06,9.08,-0.14,18.94
17154,0.2467,-0.0366,0.8872,-5.98,8.89,-0.12,18.93
17164,0.271,-0.0323,0.8779,-6.05,7.92,-0.09,18.94
17174,0.2678,-0.0316,0.8787,-5.95,7.71,-0.02,18.95
17185,0.2823,-0.0361,0.8665,-5.94,7.3,0.03,18.94
17195,0.2759,-0.036,0.868,-5.97,7.37,0.06,18.94
17205,0.271,-0.0323,0.873,-5.98,7.6,-0.06,18.94
17215,0.2682,-0.0342,0.8727,-6.0,7.77,-0.05,18.94
17225,0.2725,-0.0349,0.8719,-5.95,7.71,0.0,18.94
17235,0.2786,-0.0376,0.8676,-5.95,7.51,0.0,18.96
17245,0.275,-0.0344,0.869,-5.92,7.66,-0.12,18.97
17255,0.2689,-0.0367,0.875,-5.88,7.69,0.0,18.94
17265,0.2638,-0.0339,0.8759,-5.92,7.92,-0.02,18.94
17276,0.2717,-0.0337,0.8674,-5.95,7.65,-0.06,18.94
17286,0.2676,-0.0322,0.87,-5.92,7.73,-0.05,18.94
17296,0.2681,-0.032,0.8711,-5.97,7.76,-0.03,18.96
17306,0.2682,-0.0297,0.8715,-6.05,7.77,-0.02,18.95
17316,0.2668,-0.0289,0.8691,-6.06,7.79,-0.02,18.94
17326,0.2681,-0.0308,0.8698,-5.91,7.73,-0.03,18.93
17336,0.2701,-0.0354,0.8658,-6.03,7.74,0.02,18.94
17346,0.2714,-0.0348,0.8669,-6.12,7.8,-0.03,18.95
17356,0.2676,-0.0354,0.8685,-5.92,7.69,0.0,18.93
17366,0.2765,-0.0328,0.8663,-6.02,7.6,-0.05,18.94
17376,0.272,-0.0342,0.8706,-5.92,7.47,0.0,18.96
17386,0.2719,-0.0333,0.8685,-5.95,7.63,-0.06,18.95
17396,0.2705,-0.0315,0.8745,-5.94,7.71,0.0,18.93
17406,0.2687,-0.0355,0.8745,-6.0,7.71,-0.08,18.94
17416,0.2737,-0.0316,0.8728,-6.03,7.73,-0.03,18.92
17426,0.2705,-0.033,0.8754,-5.98,7.73,-0.06,18.94
17437,0.2726,-0.0345,0.8713,-5.92,7.63,-0.09,18.95
17447,0.2711,-0.037,0.8743,-5.92,7.69,-0.03,18.96
17457,0.2927,-0.0427,0.8545,-5.98,8.02,-0.11,18.96
17467,0.3529,-0.0424,0.7977,-5.74,5.4,0.12,18.95
17477,0.3037,-0.0404,0.8529,-6.02,6.43,0.06,18.95
17487,0.2717,-0.0328,0.8789,-5.98,7.36,-0.09,18.95
17497,0.2711,-0.0298,0.8704,-5.91,7.63,-0.05,18.95
17507,0.2781,-0.0323,0.8679,-5.92,7.8,-0.08,18.95
17517,0.2827,-0.0325,0.8661,-6.0,7.51,-0.03,18.95
17527,0.2755,-0.0341,0.8691,-6.03,7.5,-0.05,18.95
17537,0.2681,-0.0331,0.8704,-6.03,7.83,0.02,18.96
17547,0.2698,-0.0336,0.8706,-6.14,7.76,-0.05,18.92
17557,0.2668,-0.0323,0.8655,-5.98,7.71,-0.05,18.92
17567,0.271,-0.031,0.87,-5.97,7.6,-0.15,18.96
17577,0.2723,-0.0358,0.8706,-6.02,7.69,-0.12,18.95
17587,0.2689,-0.0365,0.8719,-5.92,7.74,-0.08,18.94
17597,0.2668,-0.0341,0.8704,-5.92,7.79,0.02,18.95
17607,0.2701,-0.0358,0.8749,-6.02,7.69,-0.06,18.95
17617,0.2731,-0.037,0.8723,-6.05,7.76,0.05,18.96
17627,0.2721,-0.0355,0.8707,-5.97,7.65,-0.03,18.93
17637,0.2672,-0.0336,0.8739,-6.0,7.73,-0.05,18.94
17647,0.2684,-0.0323,0.869,-6.02,7.82,0.03,18.92
17657,0.2711,-0.0352,0.8732,-5.92,7.79,0.0,18.96
17667,0.2699,-0.0354,0.8688,-5.94,7.65,-0.09,18.95
17677,0.2701,-0.0344,0.8644,-6.0,7.73,-0.02,18.95
17687,0.27,-0.0326,0.8665,-5.94,7.68,-0.05,18.97
17697,0.271,-0.0321,0.8705,-6.08,7.74,-0.05,18.95
17707,0.2701,-0.0326,0.8708,-5.97,7.76,-0.08,18.94
17717,0.2695,-0.0308,0.871,-6.05,7.73,0.0,19.0
17727,0.269,-0.0326,0.8708,-6.03,7.74,-0.08,18.95
17737,0.2693,-0.0322,0.8713,-6.06,7.76,-0.03,18.93
17747,0.2712,-0.0311,0.8711,-5.98,7.68,-0.05,18.96
17757,0.2695,-0.0344,0.8734,-5.94,7.69,-0.08,18.96
17767,0.2719,-0.0353,0.874,-5.91,7.73,-0.05,18.94
17777,0.2708,-0.0342,0.8766,-6.0,7.66,-0.06,18.94
17787,0.2699,-0.0344,0.8737,-6.0,7.68,-0.05,18.96
17797,0.271,-0.0317,0.8702,-5.95,7.63,-0.08,18.95
17807,0.271,-0.0327,0.8719,-6.0,7.76,-0.08,18.96
17817,0.2723,-0.0342,0.8723,-6.05,7.76,-0.09,18.95
17827,0.2723,-0.0356,0.8704,-6.03,7.74,-0.09,18.95
17837,0.2711,-0.0333,0.8738,-6.05,7.71,-0.08,18.95
17847,0.271,-0.0341,0.8754,-6.0,7.69,-0.12,18.95
17857,0.2673,-0.0337,0.8699,-6.0,7.68,-0.05,18.93
17867,0.2689,-0.032,0.8698,-5.91,7.66,-0.05,18.97
17877,0.2712,-0.035,0.8665,-5.92,7.73,-0.08,18.95
17887,0.2687,-0.0328,0.8735,-5.88,7.65,-0.05,18.95
17897,0.2706,-0.0347,0.8698,-6.0,7.63,-0.06,18.96
17907,0.2694,-0.0339,0.8738,-5.95,7.69,-0.03,18.98
17917,0.2675,-0.0336,0.8672,-5.97,7.73,-0.14,18.94
17927,0.2704,-0.0355,0.873,-6.05,7.68,-0.08,18.97
17937,0.2703,-0.0325,0.8696,-5.95,7.71,-0.06,18.97
17947,0.2731,-0.0327,0.8691,-5.92,7.63,-0.08,18.96
17958,0.2695,-0.0316,0.868,-5.98,7.69,-0.06,18.96
17968,0.2688,-0.0341,0.8718,-6.02,7.69,-0.05,18.97
17978,0.2719,-0.0337,0.8748,-5.95,7.76,0.03,18.97
17989,0.2701,-0.0375,0.8727,-6.02,7.71,-0.03,18.98
17999,0.272,-0.0342,0.8721,-6.09,7.74,-0.05,18.97
18009,0.2679,-0.0337,0.8723,-6.06,7.63,-0.09,18.96
18019,0.2698,-0.0326,0.8754,-5.98,7.71,-0.06,18.95
18029,0.2705,-0.0343,0.8733,-6.02,7.71,-0.03,18.95
18039,0.2708,-0.032,0.8759,-5.92,7.73,-0.02,18.95
18049,0.2723,-0.0348,0.87,-6.06,7.69,-0.06,18.96
18059,0.2704,-0.0338,0.8713,-6.05,7.76,-0.09,18.94
18069,0.2723,-0.0327,0.8721,-5.95,7.79,0.0,18.96
18079,0.2722,-0.0344,0.8751,-5.95,7.66,-0.02,18.97
18089,0.2698,-0.0306,0.8735,-5.91,7.62,0.0,18.97
18099,0.2703,-0.033,0.8706,-6.05,7.77,0.0,18.96
18109,0.2716,-0.0352,0.8746,-5.95,7.66,-0.06,18.97
18119,0.2714,-0.0361,0.8717,-5.94,7.71,0.0,18.98
18129,0.2717,-0.0372,0.8706,-5.94,7.74,-0.11,18.95
18139,0.2657,-0.0334,0.87,-6.0,7.73,0.02,18.95
18149,0.2721,-0.0365,0.8729,-5.98,7.66,-0.06,18.98
18159,0.2709,-0.0355,0.8713,-5.98,7.68,-0.05,18.98
18169,0.2694,-0.0358,0.8738,-5.92,7.73,0.0,18.97
18179,0.2708,-0.0325,0.874,-5.91,7.73,-0.09,18.97
18189,0.2732,-0.0325,0.8684,-5.94,7.65,-0.03,18.97
18199,0.271,-0.0348,0.8733,-5.94,7.77,-0.05,18.98
18209,0.2703,-0.0325,0.8705,-5.91,7.73,-0.05,18.95
18219,0.2709,-0.0315,0.8671,-6.03,7.69,-0.11,18.97
18229,0.2695,-0.0328,0.8694,-6.05,7.69,-0.14,18.94
18239,0.271,-0.0316,0.8685,-5.89,7.68,-0.03,18.97
18249,0.2697,-0.0343,0.8732,-5.97,7.74,-0.09,18.97
18259,0.2693,-0.0331,0.8702,-5.98,7.71,-0.02,18.94
18269,0.2721,-0.035,0.8702,-5.95,7.69,0.0,18.97
18279,0.27,-0.0334,0.8706,-5.95,7.65,-0.02,18.96
18289,0.2688,-0.0314,0.8716,-6.05,7.74,0.0,18.97
18299,0.2703,-0.0312,0.871,-6.0,7.73,-0.06,18.97
18309,0.2723,-0.0353,0.868,-5.98,7.76,-0.08,18.96
18319,0.2721,-0.0353,0.8677,-6.12,7.76,-0.02,18.96
18329,0.2694,-0.0343,0.8696,-6.05,7.68,-0.05,18.96
18339,0.272,-0.0339,0.8715,-6.02,7.71,-0.08,18.95
18349,0.2726,-0.0359,0.8722,-6.09,7.71,0.0,18.97
18359,0.2748,-0.0331,0.8746,-5.97,7.63,-0.06,18.97
18369,0.2734,-0.0338,0.8765,-5.94,7.71,-0.06,18.97
18379,0.2728,-0.0359,0.8756,-5.94,7.77,-0.14,18.96
18389,0.2717,-0.0334,0.8792,-5.92,7.76,-0.06,18.97
18399,0.2729,-0.0363,0.8776,-5.94,7.73,-0.11,18.96
18409,0.2704,-0.0355,0.8757,-5.94,7.71,-0.03,18.97
18419,0.2683,-0.0345,0.8721,-5.97,7.73,-0.11,18.96
18429,0.2708,-0.0331,0.8662,-5.97,7.73,-0.05,18.96
18439,0.2703,-0.0331,0.8707,-6.0,7.79,-0.06,18.95
18449,0.2721,-0.0342,0.8663,-6.03,7.74,-0.03,18.96
18459,0.2693,-0.032,0.8672,-6.05,7.69,0.02,18.96
18470,0.2698,-0.035,0.8646,-6.0,7.73,-0.06,18.96
18481,0.2694,-0.0344,0.8689,-5.98,7.71,-0.02,18.96
18491,0.271,-0.0312,0.8719,-6.05,7.68,-0.09,18.99
18501,0.2726,-0.036,0.8729,-5.95,7.68,-0.06,18.95
18511,0.2711,-0.0306,0.8779,-5.94,7.77,-0.06,18.97
18521,0.2701,-0.0306,0.8768,-5.92,7.69,-0.06,18.96
18531,0.2706,-0.028,0.8777,-5.95,7.63,-0.02,18.98
18541,0.2671,-0.0339,0.8754,-6.0,7.77,-0.09,18.95
18551,0.2672,-0.0336,0.8719,-6.02,7.69,0.05,18.97
18561,0.269,-0.0332,0.8702,-6.06,7.66,-0.03,18.98
18571,0.2711,-0.0366,0.8744,-6.05,7.71,-0.14,18.97
18581,0.2712,-0.0353,0.8715,-6.0,7.66,-0.02,18.97
18591,0.2738,-0.0386,0.8712,-6.05,7.69,-0.05,18.97
18601,0.2717,-0.0339,0.8724,-5.94,7.74,0.02,18.97
18611,0.2715,-0.0342,0.8741,-5.92,7.73,-0.09,18.96
18621,0.2703,-0.0326,0.8745,-5.98,7.76,-0.05,18.96
18631,0.2716,-0.0332,0.8718,-5.98,7.73,-0.08,18.97
18641,0.2686,-0.0312,0.8721,-6.0,7.62,-0.09,18.97
18651,0.271,-0.0333,0.8734,-6.0,7.71,-0.09,18.99
18662,0.2708,-0.0343,0.8768,-5.98,7.66,-0.08,18.98
18672,0.2714,-0.0328,0.876,-6.0,7.71,-0.06,18.96
18682,0.2716,-0.0358,0.8737,-5.89,7.68,0.02,18.99
18692,0.2727,-0.0369,0.8763,-5.91,7.63,0.0,18.98
18702,0.2665,-0.0386,0.8707,-5.98,7.73,-0.03,18.98
18712,0.2698,-0.0336,0.8672,-5.97,7.73,-0.05,18.96
18722,0.2711,-0.0352,0.8708,-5.88,7.74,-0.08,18.95
18732,0.2719,-0.0333,0.8672,-5.97,7.66,-0.02,18.94
18742,0.2709,-0.0316,0.8674,-5.92,7.73,-0.09,18.97
18752,0.2697,-0.0333,0.8708,-5.89,7.74,-0.03,18.96
18762,0.2698,-0.0343,0.8656,-5.92,7.68,-0.02,18.95
18772,0.2703,-0.0325,0.8682,-5.95,7.74,-0.05,18.95
18782,0.2705,-0.0325,0.8677,-5.97,7.65,-0.05,18.99
18792,0.2666,-0.0343,0.8695,-5.97,7.66,-0.05,18.98
18802,0.2662,-0.0336,0.8706,-6.05,7.71,-0.11,18.95
18812,0.2682,-0.0337,0.8765,-5.98,7.66,-0.06,18.97
18822,0.2697,-0.0323,0.8751,-5.98,7.74,-0.06,18.97
18832,0.2677,-0.0311,0.8743,-6.0,7.73,-0.11,18.98
18842,0.2681,-0.0332,0.8759,-5.98,7.77,-0.06,18.97
18852,0.2677,-0.0321,0.8718,-6.06,7.8,-0.05,18.99
18862,0.271,-0.0339,0.874,-6.0,7.79,0.03,18.97
18872,0.2694,-0.0343,0.8763,-5.97,7.66,-0.05,18.96
18882,0.2699,-0.0345,0.8755,-6.0,7.69,0.02,18.97
18892,0.2727,-0.0361,0.8765,-6.05,7.69,-0.06,18.95
18902,0.2703,-0.0358,0.8745,-6.0,7.68,-0.03,18.97
18912,0.2729,-0.0345,0.875,-6.02,7.69,-0.09,18.95
18922,0.2721,-0.0337,0.8696,-5.92,7.77,-0.03,18.96
18932,0.2721,-0.0334,0.8738,-6.0,7.73,-0.02,18.96
18942,0.2715,-0.0352,0.8715,-5.97,7.69,-0.08,18.99
18952,0.2708,-0.0302,0.8701,-5.92,7.73,-0.03,18.96
18962,0.2667,-0.0317,0.8701,-6.05,7.71,-0.09,18.97
18973,0.266,-0.0332,0.8732,-5.97,7.66,0.0,18.97
18983,0.2684,-0.0349,0.866,-6.0,7.66,-0.02,18.98
18993,0.2681,-0.0316,0.8708,-5.95,7.69,-0.02,18.98
19003,0.2672,-0.0325,0.8717,-6.02,7.66,0.0,18.99
19013,0.2721,-0.0369,0.8699,-6.03,7.69,0.02,18.97
19023,0.2678,-0.0341,0.8688,-5.97,7.66,-0.05,18.96
19033,0.2703,-0.0352,0.8722,-6.0,7.71,0.0,18.99
19043,0.2709,-0.0371,0.8705,-5.94,7.76,-0.02,19.0
19053,0.2699,-0.0339,0.8744,-5.97,7.77,-0.03,18.99
19063,0.2737,-0.0345,0.8748,-6.0,7.76,-0.08,18.98
19073,0.2671,-0.0345,0.8727,-5.97,7.68,-0.08,18.97
19083,0.269,-0.0341,0.868,-5.94,7.77,-0.06,18.98
19093,0.2671,-0.0353,0.8702,-6.02,7.74,-0.08,18.98
19103,0.2693,-0.0345,0.8702,-5.91,7.65,0.03,18.99
19113,0.2701,-0.0377,0.8715,-5.98,7.69,-0.08,18.99
19123,0.27,-0.0372,0.8738,-6.03,7.66,-0.03,18.97
19133,0.2683,-0.0333,0.8756,-6.0,7.68,0.0,18.98
19143,0.2716,-0.0343,0.8756,-5.95,7.71,-0.02,18.98
19153,0.2708,-0.033,0.8765,-5.89,7.69,-0.08,18.99
19163,0.2723,-0.0322,0.8787,-5.97,7.69,-0.06,18.99
19173,0.2698,-0.0312,0.8754,-5.94,7.71,-0.05,18.99
19183,0.2703,-0.0317,0.8738,-5.97,7.66,-0.03,18.97
19193,0.2701,-0.0352,0.8729,-5.98,7.77,-0.11,18.94
19203,0.2701,-0.033,0.8721,-5.98,7.71,-0.08,18.97
19213,0.2689,-0.0336,0.8743,-5.95,7.77,-0.06,18.95
19223,0.2699,-0.0332,0.8724,-5.98,7.73,-0.08,18.96
19233,0.271,-0.0349,0.8699,-5.92,7.68,-0.15,18.97
19243,0.2723,-0.035,0.8713,-6.02,7.71,-0.05,18.97
19253,0.2694,-0.0304,0.8678,-5.97,7.66,-0.09,18.98
19263,0.2714,-0.0326,0.8707,-5.95,7.69,0.0,18.99
19273,0.2688,-0.0317,0.8696,-6.0,7.71,-0.14,18.99
19283,0.2703,-0.0322,0.8698,-5.91,7.69,0.0,19.0
19293,0.2704,-0.0316,0.8702,-6.03,7.74,-0.02,18.98
19303,0.2677,-0.0293,0.8719,-6.02,7.66,-0.03,18.99
19313,0.2676,-0.0305,0.8716,-5.92,7.79,-0.12,18.99
19323,0.269,-0.0356,0.8683,-6.02,7.63,-0.09,18.97
19333,0.2671,-0.0342,0.8667,-5.97,7.71,-0.08,18.99
19343,0.27,-0.0337,0.8706,-6.02,7.69,-0.05,18.98
19353,0.2689,-0.0314,0.8724,-6.03,7.65,-0.05,18.99
19363,0.2703,-0.0323,0.8711,-6.11,7.69,-0.03,18.98
19373,0.2684,-0.0316,0.8733,-6.03,7.65,-0.06,18.99
19383,0.2719,-0.0314,0.875,-5.97,7.68,-0.03,19.0
19393,0.271,-0.0328,0.8726,-6.08,7.73,-0.03,18.98
19403,0.2721,-0.0342,0.873,-6.09,7.69,0.02,18.99
19413,0.2711,-0.0328,0.8716,-5.97,7.71,-0.03,18.98
19423,0.2717,-0.0334,0.8751,-6.06,7.74,-0.08,19.0
19433,0.2722,-0.0341,0.8726,-6.03,7.71,-0.09,18.97
19443,0.2731,-0.0332,0.8777,-5.98,7.68,-0.09,19.0
19453,0.2709,-0.0327,0.8763,-5.97,7.63,-0.05,19.01
19463,0.2716,-0.0323,0.8729,-6.03,7.66,0.05,19.0
19473,0.2704,-0.036,0.8762,-5.97,7.74,-0.03,18.99
19483,0.2726,-0.0311,0.8727,-5.91,7.69,-0.02,18.99
19493,0.271,-0.0327,0.8726,-5.95,7.68,-0.06,18.97
19503,0.271,-0.0326,0.876,-6.03,7.73,-0.03,18.97
19513,0.2719,-0.033,0.8707,-5.94,7.71,-0.18,18.98
19523,0.2687,-0.0333,0.8695,-6.03,7.69,-0.03,18.98
19533,0.2665,-0.0325,0.8698,-6.0,7.71,-0.12,18.99
19543,0.2686,-0.0349,0.868,-6.0,7.68,-0.09,18.99
19553,0.2683,-0.036,0.8722,-5.94,7.73,-0.06,19.0
19563,0.27,-0.0355,0.873,-6.03,7.69,-0.06,19.0
19573,0.2698,-0.0332,0.8728,-6.02,7.65,-0.06,18.98
19583,0.2693,-0.0348,0.8699,-6.03,7.63,-0.03,18.97
19593,0.2726,-0.0348,0.8688,-5.98,7.73,0.0,18.98
19603,0.2719,-0.0353,0.8671,-5.94,7.68,-0.06,18.98
19613,0.2704,-0.0336,0.8739,-5.92,7.68,0.0,18.97
19623,0.2672,-0.0363,0.8685,-5.97,7.74,-0.08,18.97
19633,0.2684,-0.0339,0.8723,-6.0,7.79,-0.02,18.98
19643,0.2709,-0.0309,0.868,-6.02,7.68,-0.09,18.98
19653,0.269,-0.0358,0.873,-5.97,7.66,0.0,19.0
19663,0.2715,-0.0356,0.8737,-5.95,7.73,-0.03,18.99
19673,0.2688,-0.036,0.8695,-5.98,7.65,-0.02,18.99
19683,0.2694,-0.0338,0.8766,-6.02,7.68,-0.03,19.02
19693,0.2698,-0.0308,0.871,-6.05,7.79,0.0,19.0
19703,0.2716,-0.0304,0.8739,-6.03,7.69,-0.08,18.98
19713,0.2731,-0.0323,0.8778,-6.0,7.68,-0.03,18.99
19723,0.2701,-0.0322,0.8776,-6.05,7.68,-0.02,18.99
19733,0.2689,-0.0305,0.8784,-6.0,7.65,-0.12,18.98
19743,0.2668,-0.0319,0.8716,-6.05,7.65,-0.09,18.99
19753,0.2708,-0.0344,0.8715,-6.02,7.69,-0.06,18.98
19763,0.2729,-0.0337,0.8684,-6.02,7.66,0.02,18.99
19773,0.2744,-0.0336,0.8751,-5.97,7.71,0.05,18.98
19783,0.2715,-0.0334,0.8704,-5.97,7.76,0.0,18.99
19793,0.2749,-0.0321,0.8722,-6.02,7.71,0.03,18.99
19803,0.2704,-0.0343,0.8711,-6.06,7.71,-0.02,18.98
19813,0.2695,-0.0326,0.8734,-6.03,7.74,-0.08,18.99
19823,0.2715,-0.036,0.8705,-6.03,7.73,-0.08,19.0
19833,0.2717,-0.0354,0.8699,-6.02,7.71,-0.03,18.99
19843,0.2681,-0.0361,0.8745,-5.89,7.77,-0.02,18.99
19853,0.269,-0.0358,0.8721,-6.02,7.73,-0.09,19.02
19863,0.2673,-0.0366,0.8715,-6.05,7.65,-0.02,19.02
19873,0.2704,-0.0336,0.8707,-5.97,7.68,-0.11,18.98
19883,0.27,-0.0331,0.8744,-6.02,7.77,-0.06,18.99
19893,0.2678,-0.0343,0.8716,-5.97,7.77,-0.08,18.98
19903,0.2667,-0.0328,0.8732,-5.98,7.73,-0.08,18.98
19913,0.269,-0.0323,0.8684,-6.0,7.77,-0.06,19.02
19923,0.2694,-0.0337,0.8688,-5.92,7.71,-0.02,18.98
19933,0.2676,-0.0323,0.8724,-5.97,7.76,-0.05,19.01
19943,0.2704,-0.0337,0.8704,-6.0,7.76,-0.03,18.98
19953,0.2672,-0.031,0.87,-5.97,7.73,-0.03,19.0
19963,0.2672,-0.0305,0.8704,-6.0,7.65,-0.06,18.98
19973,0.2682,-0.0321,0.8671,-6.11,7.71,-0.02,18.98
19983,0.2704,-0.0355,0.8759,-6.02,7.69,-0.11,19.0
19993,0.2693,-0.0367,0.8733,-6.08,7.71,-0.11,18.99
20003,0.2692,-0.0367,0.8749,-5.97,7.74,-0.12,18.99
20013,0.2731,-0.0382,0.8699,-6.03,7.68,-0.02,18.98
20023,0.2714,-0.0366,0.8745,-6.08,7.66,-0.06,19.0
20033,0.2712,-0.0376,0.8773,-6.02,7.68,-0.03,19.01
20043,0.2716,-0.0378,0.874,-5.92,7.69,-0.08,18.99
20053,0.2727,-0.033,0.8721,-5.92,7.71,-0.12,18.99
20063,0.2683,-0.0366,0.8702,-6.0,7.66,0.0,19.03
20073,0.2767,-0.0303,0.8761,-6.03,7.68,-0.06,18.99
20083,0.2711,-0.0312,0.8735,-6.0,7.69,-0.08,18.99
20093,0.2725,-0.0331,0.8727,-6.0,7.73,-0.03,18.99
20103,0.2708,-0.0323,0.8728,-6.02,7.62,-0.08,19.01
20113,0.2721,-0.0328,0.8701,-5.98,7.74,-0.06,19.0
20123,0.2706,-0.0302,0.8705,-5.94,7.73,0.0,18.99
20133,0.2698,-0.033,0.8696,-5.97,7.68,-0.06,19.02
20143,0.2697,-0.0347,0.8663,-5.95,7.73,0.03,18.99
20153,0.2681,-0.0299,0.8656,-6.0,7.68,0.02,19.02
20163,0.2701,-0.0352,0.8689,-5.98,7.71,0.0,19.0
20173,0.2711,-0.0331,0.8687,-6.06,7.65,-0.09,18.98
20183,0.2715,-0.0331,0.8713,-5.91,7.71,-0.09,19.02
20193,0.2698,-0.0365,0.8689,-5.98,7.68,-0.08,19.0
20203,0.2689,-0.037,0.8716,-5.94,7.69,-0.09,19.01
20213,0.271,-0.0344,0.8696,-5.92,7.71,-0.08,18.99
20223,0.2712,-0.0358,0.8734,-5.95,7.73,-0.03,19.02
20233,0.272,-0.0345,0.8696,-5.89,7.73,-0.08,19.02
20243,0.2729,-0.0323,0.8711,-5.83,7.69,-0.08,19.0
20253,0.2694,-0.0305,0.8696,-5.94,7.73,0.03,19.02
20264,0.2686,-0.0264,0.8699,-5.98,7.77,-0.08,19.01
20274,0.2688,-0.0294,0.8708,-5.95,7.77,-0.05,19.01
20284,0.2642,-0.033,0.8711,-5.98,7.71,-0.02,19.02
20294,0.2678,-0.0328,0.8712,-5.92,7.68,-0.08,18.98
20304,0.2712,-0.031,0.87,-6.02,7.69,0.05,19.01
20314,0.2694,-0.0345,0.8717,-6.06,7.69,-0.06,18.99
20324,0.27,-0.0344,0.8707,-6.09,7.71,-0.03,18.99
20335,0.2716,-0.0322,0.875,-6.09,7.69,0.02,18.99
20345,0.2725,-0.035,0.8754,-6.11,7.65,0.02,19.01
20355,0.2712,-0.0331,0.8713,-6.02,7.68,-0.06,19.02
20365,0.2717,-0.0326,0.8755,-6.05,7.79,-0.11,19.04
20375,0.2699,-0.035,0.8705,-5.95,7.74,-0.06,19.02
20385,0.2728,-0.0382,0.8727,-6.03,7.73,0.03,19.02
20395,0.2705,-0.0385,0.8744,-6.03,7.66,-0.11,19.01
20405,0.2734,-0.0337,0.8773,-5.98,7.68,-0.09,18.99
20415,0.2699,-0.033,0.8721,-6.03,7.71,-0.05,19.01
20425,0.2715,-0.0322,0.8705,-5.94,7.66,-0.08,18.99
20435,0.2671,-0.0343,0.8745,-5.91,7.91,-0.03,19.0
20445,0.2737,-0.0315,0.8645,-6.03,7.54,-0.09,19.02
20455,0.2705,-0.0295,0.8712,-5.88,7.73,-0.05,19.0
20465,0.2684,-0.0311,0.871,-5.97,7.66,0.0,19.02
20475,0.2688,-0.0321,0.8687,-6.02,7.5,0.08,19.01
20485,0.2676,-0.0341,0.8705,-6.03,7.71,0.0,19.0
20495,0.266,-0.0337,0.8744,-5.89,7.79,-0.06,19.02
20505,0.2705,-0.0359,0.8706,-5.89,7.76,-0.09,19.02
20515,0.272,-0.0354,0.8748,-6.03,7.69,-0.03,19.01
20525,0.27,-0.035,0.8679,-5.97,7.68,-0.02,18.99
20535,0.2719,-0.038,0.8678,-5.94,7.68,0.0,18.97
20545,0.2706,-0.0359,0.8743,-5.98,7.76,-0.03,18.98
20555,0.271,-0.0348,0.8713,-5.89,7.65,-0.05,19.02
20565,0.2715,-0.0328,0.8695,-5.98,7.73,-0.05,19.0
20575,0.2666,-0.0339,0.8745,-5.98,7.71,-0.03,19.01
20585,0.2675,-0.0308,0.8695,-5.98,7.76,-0.11,19.0
20595,0.2677,-0.0325,0.8718,-5.95,7.65,-0.06,19.01
20605,0.2694,-0.0338,0.8716,-6.0,7.71,-0.11,19.01
20615,0.2679,-0.0303,0.8702,-6.02,7.76,-0.08,19.01
20625,0.2678,-0.0331,0.8713,-5.98,7.73,-0.03,19.01
20635,0.2712,-0.0345,0.873,-5.98,7.69,-0.09,19.0
20645,0.2699,-0.0375,0.8738,-6.0,7.71,-0.03,19.02
20655,0.2701,-0.0355,0.8728,-6.05,7.73,-0.02,18.99
20665,0.2715,-0.0334,0.8704,-6.03,7.68,0.03,18.99
20675,0.2703,-0.0319,0.8677,-6.03,7.66,-0.09,19.02
20685,0.2715,-0.0333,0.8712,-6.0,7.69,0.0,19.0
20695,0.2716,-0.0319,0.8743,-6.02,7.76,-0.03,19.01
20705,0.2704,-0.0343,0.8732,-6.06,7.74,-0.02,19.01
20715,0.2686,-0.0322,0.873,-5.98,7.69,-0.06,19.02
20725,0.2701,-0.0356,0.8719,-6.06,7.73,-0.02,19.01
20735,0.2693,-0.0336,0.8728,-6.06,7.79,0.02,19.01
20745,0.2701,-0.0352,0.8712,-6.02,7.74,-0.09,19.01
20755,0.2703,-0.0343,0.8715,-6.03,7.71,-0.03,19.01
20765,0.2678,-0.0327,0.8718,-6.0,7.71,-0.03,19.0
20775,0.2675,-0.033,0.8702,-5.94,7.68,-0.06,19.01
20785,0.2676,-0.0297,0.8727,-6.09,7.66,0.02,19.01
20795,0.2683,-0.0334,0.8718,-6.02,7.73,-0.06,19.0
20805,0.2714,-0.0321,0.8745,-6.05,7.76,-0.05,18.99
20815,0.2687,-0.035,0.8732,-6.03,7.73,-0.05,19.0
20825,0.2717,-0.0336,0.8694,-5.97,7.66,-0.03,18.99
20835,0.2706,-0.0348,0.8727,-6.02,7.74,-0.03,19.01
20845,0.2668,-0.0332,0.8702,-5.91,7.69,0.02,19.02
20855,0.2727,-0.0339,0.871,-5.91,7.73,-0.06,19.01
20865,0.2689,-0.0333,0.8756,-5.97,7.73,0.03,19.0
20875,0.269,-0.0338,0.875,-5.95,7.68,-0.02,19.01
20885,0.269,-0.0327,0.8684,-6.02,7.69,-0.06,19.02
20895,0.2664,-0.0352,0.8701,-5.94,7.76,0.0,19.0
20905,0.2683,-0.0353,0.8735,-6.03,7.66,-0.08,19.02
20915,0.2716,-0.0339,0.8728,-6.11,7.77,-0.05,19.02
20925,0.2676,-0.0348,0.8719,-6.0,7.66,0.05,19.02
20935,0.267,-0.0345,0.8722,-5.98,7.69,-0.06,18.99
20945,0.2722,-0.0328,0.8716,-6.05,7.77,-0.03,19.01
20955,0.2731,-0.0316,0.8727,-5.98,7.66,0.0,19.01
20965,0.2686,-0.0338,0.8735,-6.02,7.68,0.0,19.03
20975,0.2717,-0.033,0.8741,-6.02,7.69,0.02,19.01
20985,0.2732,-0.033,0.876,-5.95,7.71,-0.08,19.02
20995,0.275,-0.0325,0.8701,-6.03,7.76,-0.08,19.01
21005,0.2756,-0.0319,0.8718,-5.97,7.68,-0.08,19.02
21015,0.2717,-0.0326,0.8698,-5.98,7.66,-0.15,19.03
21025,0.2703,-0.0341,0.8687,-6.0,7.73,-0.08,19.02
21035,0.2678,-0.0366,0.8683,-5.94,7.74,0.02,19.03
21045,0.2705,-0.0328,0.8708,-6.05,7.73,-0.05,19.01
21055,0.2686,-0.0345,0.8705,-6.03,7.77,0.02,19.01
21065,0.2677,-0.0347,0.8685,-5.95,7.73,0.02,19.02
21075,0.2693,-0.0349,0.8691,-6.0,7.74,0.05,19.01
21085,0.2692,-0.0337,0.8743,-5.98,7.79,-0.02,19.03
21095,0.2709,-0.0349,0.8712,-6.02,7.68,-0.02,19.02
21105,0.2692,-0.0352,0.8726,-5.98,7.71,-0.05,19.01
21116,0.2695,-0.0328,0.8683,-5.94,7.76,-0.11,19.03
21126,0.2701,-0.0302,0.8708,-5.98,7.71,-0.11,19.02
21136,0.272,-0.0309,0.8729,-6.02,7.79,-0.05,19.01
21146,0.2722,-0.0325,0.8718,-5.98,7.73,-0.03,19.02
21156,0.2699,-0.0322,0.8756,-6.03,7.73,-0.02,19.0
21166,0.27,-0.0309,0.8756,-5.97,7.71,-0.08,19.0
21176,0.2716,-0.0312,0.8728,-5.95,7.69,-0.05,19.04
21186,0.2722,-0.0306,0.8756,-5.98,7.66,-0.02,19.01
21196,0.2727,-0.0336,0.8748,-6.08,7.71,0.05,19.0
21206,0.266,-0.0338,0.8761,-5.95,7.71,-0.06,19.01
21216,0.2695,-0.0337,0.8763,-5.95,7.68,-0.05,19.01
21226,0.2721,-0.0334,0.879,-5.85,7.73,0.05,18.99
21236,0.2717,-0.0321,0.8756,-5.94,7.65,-0.03,19.0
21247,0.2731,-0.0332,0.8729,-5.98,7.68,-0.06,19.02
21257,0.2728,-0.0342,0.8688,-5.94,7.71,-0.08,19.03
21267,0.271,-0.0359,0.8679,-6.0,7.65,-0.05,19.02
21277,0.2694,-0.0321,0.8669,-5.94,7.74,-0.03,19.02
21287,0.2686,-0.0344,0.8665,-6.03,7.71,-0.11,19.0
21297,0.2697,-0.0333,0.8663,-6.02,7.69,0.02,19.03
21307,0.2668,-0.0347,0.8654,-6.0,7.71,0.05,19.0
21317,0.266,-0.0334,0.8687,-5.97,7.73,-0.05,19.02
21327,0.2676,-0.0338,0.8683,-5.98,7.65,0.0,19.01
21337,0.2667,-0.0341,0.8715,-5.95,7.71,-0.11,19.02
21347,0.2668,-0.0322,0.8699,-5.92,7.59,0.0,19.02
21357,0.2676,-0.0317,0.8683,-5.95,7.65,-0.03,19.01
21367,0.2689,-0.0317,0.8729,-5.92,7.71,-0.03,18.99
21377,0.2679,-0.0336,0.8738,-6.05,7.71,-0.08,19.01
21387,0.2682,-0.0359,0.8691,-5.98,7.69,-0.11,19.02
21397,0.2683,-0.0345,0.8743,-6.03,7.69,-0.15,19.04
21407,0.2695,-0.0343,0.8726,-6.0,7.65,-0.11,19.03
21417,0.272,-0.0338,0.8715,-5.97,7.66,-0.03,19.03
21427,0.2706,-0.0342,0.8706,-5.98,7.73,0.02,19.0
21437,0.2706,-0.0358,0.8719,-6.02,7.69,-0.08,19.01
21447,0.2731,-0.0323,0.876,-5.95,7.68,-0.11,19.03
21457,0.2731,-0.0344,0.873,-6.03,7.77,-0.08,19.04
21467,0.2721,-0.0342,0.8732,-5.95,7.66,-0.05,19.02
21477,0.2695,-0.0342,0.8737,-6.0,7.65,-0.02,19.02
21487,0.2699,-0.0338,0.8728,-5.97,7.66,-0.06,19.02
21497,0.2694,-0.0339,0.87,-5.98,7.73,-0.03,19.03
21507,0.2704,-0.0336,0.8712,-5.94,7.73,-0.09,19.02
21517,0.2684,-0.035,0.8694,-5.92,7.79,-0.02,19.02
21527,0.2684,-0.0344,0.8744,-5.98,7.76,-0.05,19.03
21537,0.2722,-0.033,0.8705,-6.02,7.73,-0.06,19.03
21547,0.2715,-0.0356,0.8693,-6.12,7.68,-0.06,19.04
21557,0.2703,-0.0334,0.8723,-5.91,7.79,-0.03,19.05
21567,0.2714,-0.0321,0.8702,-6.02,7.66,-0.06,19.02
21577,0.2708,-0.0361,0.8671,-6.02,7.73,-0.03,19.04
21587,0.2678,-0.0341,0.87,-5.98,7.74,0.02,19.02
21597,0.2705,-0.0361,0.874,-6.0,7.69,0.0,19.02
21607,0.2692,-0.0338,0.8733,-6.05,7.69,-0.06,19.03
21617,0.2695,-0.0333,0.8772,-6.0,7.71,-0.06,19.05
21627,0.2668,-0.0342,0.8717,-6.02,7.69,-0.05,19.02
21637,0.2682,-0.0337,0.8728,-5.94,7.68,-0.03,19.04
21647,0.2683,-0.0332,0.8732,-5.92,7.69,0.02,19.04
21657,0.269,-0.0337,0.876,-5.98,7.73,-0.03,19.02
21667,0.2687,-0.033,0.8748,-6.09,7.57,-0.14,19.03
21677,0.2689,-0.0325,0.876,-5.91,7.68,-0.03,19.05
21687,0.2732,-0.0338,0.8766,-5.97,7.68,-0.14,19.04
21697,0.271,-0.0343,0.8744,-6.02,7.68,-0.09,19.01
21707,0.272,-0.0334,0.8761,-5.88,7.63,-0.05,19.04
21717,0.272,-0.0326,0.8702,-5.85,7.68,-0.05,19.04
21727,0.2705,-0.0348,0.8666,-5.91,7.79,-0.14,19.05
21737,0.2686,-0.0337,0.8712,-5.85,7.68,0.0,19.04
21747,0.2673,-0.0298,0.871,-5.89,7.68,-0.05,19.03
21757,0.2687,-0.0323,0.8657,-6.0,7.69,-0.05,19.05
21767,0.2693,-0.0304,0.8693,-5.98,7.66,-0.05,19.04
21777,0.2721,-0.0332,0.8693,-6.06,7.69,-0.02,19.06
21787,0.2692,-0.0306,0.8661,-6.02,7.68,0.05,19.03
21797,0.2712,-0.0325,0.8682,-6.06,7.69,-0.06,19.01
21807,0.27,-0.032,0.8707,-6.09,7.74,-0.03,19.04
21817,0.2659,-0.0353,0.8696,-6.06,7.69,-0.05,19.03
21827,0.2687,-0.0347,0.8702,-6.03,7.65,-0.03,19.01
21837,0.2731,-0.031,0.8693,-6.09,7.74,0.02,19.02
21847,0.2689,-0.0288,0.8728,-6.11,7.74,0.0,19.04
21857,0.2729,-0.0299,0.8773,-6.03,7.74,-0.06,19.02
21867,0.2701,-0.033,0.8722,-6.05,7.74,-0.12,19.03
21877,0.2694,-0.0333,0.8705,-6.05,7.68,0.02,19.02
21887,0.2709,-0.0327,0.8723,-6.02,7.76,-0.11,19.03
21897,0.2708,-0.0326,0.8705,-6.06,7.66,-0.08,19.04
21907,0.2729,-0.0359,0.8732,-6.03,7.66,-0.06,19.04
21917,0.271,-0.0342,0.8737,-6.05,7.63,-0.11,19.03
21927,0.2727,-0.0366,0.8744,-5.98,7.73,0.0,19.04
21937,0.272,-0.0345,0.8777,-6.08,7.76,0.03,19.05
21947,0.2698,-0.036,0.8745,-5.92,7.71,0.03,19.04
21957,0.2719,-0.0366,0.8718,-5.97,7.73,-0.06,19.05
21967,0.2683,-0.0356,0.8741,-5.97,7.68,-0.05,19.02
21977,0.271,-0.0354,0.869,-6.03,7.69,-0.03,19.03
21987,0.2659,-0.0371,0.8688,-6.02,7.65,-0.12,19.03
21997,0.2692,-0.0375,0.8723,-5.94,7.63,-0.09,19.04
22007,0.269,-0.041,0.8712,-5.95,7.73,-0.05,19.04
22017,0.2697,-0.0394,0.8717,-5.94,7.74,-0.12,19.03
22027,0.2711,-0.0396,0.8684,-5.89,7.74,-0.09,19.01
22037,0.2711,-0.0356,0.871,-5.88,7.71,-0.12,19.04
22047,0.2704,-0.037,0.8749,-5.95,7.65,-0.11,19.03
22057,0.2698,-0.0353,0.876,-5.82,7.73,-0.06,19.04
22067,0.2701,-0.0367,0.8762,-5.88,7.76,0.02,19.03
22077,0.2725,-0.0364,0.8763,-5.92,7.74,-0.03,19.02
22087,0.2698,-0.0364,0.8749,-5.88,7.76,-0.02,19.04
22097,0.2684,-0.0345,0.8704,-5.85,7.73,0.05,19.04
22107,0.2686,-0.0316,0.869,-5.86,7.77,-0.06,19.03
22117,0.2681,-0.0361,0.8683,-5.95,7.79,-0.08,19.05
22127,0.2679,-0.0359,0.8665,-5.95,7.77,-0.05,19.03
22137,0.2684,-0.0333,0.8695,-6.02,7.77,0.0,19.04
22147,0.2692,-0.0294,0.8678,-5.95,7.76,-0.11,19.05
22157,0.2703,-0.0331,0.8676,-5.95,7.8,-0.02,19.07
22167,0.2692,-0.0341,0.8651,-5.97,7.8,-0.05,19.05
22177,0.2701,-0.0321,0.8668,-6.08,7.8,0.0,19.05
22187,0.2673,-0.0297,0.8682,-5.97,7.85,0.05,19.04
22197,0.2657,-0.0283,0.8645,-6.11,7.82,0.02,19.05
22207,0.2648,-0.0281,0.8718,-6.05,7.83,-0.02,19.06
22217,0.267,-0.0229,0.8738,-6.06,7.68,-0.06,19.04
22227,0.2733,-0.0255,0.8816,-6.08,7.76,0.05,19.06
22237,0.2689,-0.028,0.8854,-6.05,7.71,0.06,19.03
22247,0.2703,-0.0283,0.8861,-6.12,7.71,0.03,19.02
22257,0.2681,-0.0295,0.8813,-6.17,7.77,-0.02,19.04
22267,0.2681,-0.032,0.8856,-6.11,7.76,-0.09,19.04
22277,0.2727,-0.0326,0.8817,-6.12,7.69,0.0,19.05
22287,0.2732,-0.032,0.8837,-6.03,7.68,-0.05,19.06
22297,0.2727,-0.0327,0.884,-6.02,7.65,-0.09,19.06
22307,0.2765,-0.0281,0.8866,-5.98,7.68,-0.14,19.03
22317,0.2761,-0.0366,0.8846,-5.86,7.68,-0.14,19.05
22327,0.2788,-0.0332,0.882,-5.91,7.62,-0.15,19.05
22337,0.2788,-0.0352,0.8774,-5.89,7.59,-0.09,19.04
22347,0.2764,-0.0344,0.8699,-5.95,7.62,-0.09,19.04
22357,0.2695,-0.0342,0.8702,-5.85,7.65,-0.17,19.07
22367,0.2699,-0.0319,0.8657,-5.86,7.69,-0.08,19.06
22377,0.2681,-0.0311,0.8643,-5.86,7.68,-0.15,19.05
22387,0.2726,-0.0345,0.8694,-6.02,7.62,-0.06,19.05
22397,0.2714,-0.0342,0.8691,-5.94,7.68,-0.09,19.04
22407,0.2703,-0.0342,0.8622,-5.92,7.69,-0.2,19.05
22417,0.2654,-0.0342,0.8623,-5.91,7.69,-0.06,19.02
22427,0.2677,-0.0358,0.8619,-5.94,7.71,-0.12,19.04
22437,0.266,-0.0366,0.8618,-6.06,7.63,-0.06,19.06
22447,0.2618,-0.0349,0.8617,-6.0,7.69,-0.08,19.04
22457,0.2638,-0.0345,0.8652,-6.0,7.63,-0.09,19.06
22467,0.2656,-0.0355,0.8628,-6.0,7.65,0.0,19.03
22477,0.2648,-0.038,0.8706,-6.03,7.6,-0.09,19.04
22487,0.2657,-0.0387,0.8724,-6.02,7.69,-0.05,19.06
22497,0.2661,-0.0345,0.8734,-6.05,7.63,0.03,19.04
22507,0.27,-0.0361,0.8716,-6.08,7.69,-0.05,19.03
22517,0.2719,-0.0359,0.873,-6.0,7.68,0.03,19.04
22527,0.2728,-0.036,0.8749,-6.05,7.69,0.02,19.04
22537,0.2729,-0.0383,0.8762,-6.02,7.66,-0.06,19.05
22547,0.277,-0.0363,0.8766,-6.05,7.71,-0.02,19.04
22557,0.2737,-0.0356,0.8809,-6.03,7.68,-0.05,19.07
22567,0.2751,-0.0328,0.8787,-5.98,7.65,-0.02,19.04
22577,0.2771,-0.0355,0.8763,-5.97,7.71,-0.09,19.04
22587,0.2747,-0.0347,0.8779,-5.92,7.68,-0.03,19.03
22597,0.2784,-0.0378,0.8799,-5.83,7.71,0.0,19.02
22607,0.2737,-0.0372,0.8713,-5.83,7.71,-0.08,19.02
22617,0.2701,-0.0361,0.8728,-5.88,7.71,-0.09,19.04
22627,0.2727,-0.0334,0.8733,-5.85,7.77,-0.02,19.03
22637,0.2727,-0.0339,0.8685,-5.89,7.77,-0.14,19.04
22647,0.2734,-0.0333,0.8718,-5.82,7.62,-0.06,19.07
22657,0.2726,-0.0273,0.8704,-5.83,7.66,0.0,19.06
22667,0.271,-0.032,0.8672,-5.82,7.74,-0.12,19.06
22677,0.2687,-0.0298,0.8677,-5.8,7.77,-0.14,19.04
22687,0.2692,-0.027,0.8722,-5.77,7.77,-0.05,19.06
22697,0.2672,-0.0293,0.8668,-5.88,7.8,0.0,19.07
22707,0.2667,-0.0283,0.8666,-5.89,7.74,-0.08,19.07
22717,0.2681,-0.0293,0.8677,-5.91,7.77,-0.05,19.06
22727,0.2662,-0.0291,0.8674,-6.11,7.73,-0.09,19.03
22737,0.262,-0.0303,0.868,-6.06,7.8,-0.06,19.05
22747,0.2665,-0.0288,0.8704,-6.05,7.74,-0.03,19.04
22757,0.2643,-0.0308,0.8701,-6.03,7.74,-0.08,19.04
22767,0.2683,-0.0298,0.8711,-5.92,7.69,-0.06,19.05
22777,0.2677,-0.0343,0.8777,-6.0,7.77,-0.08,19.06
22787,0.2694,-0.0344,0.8788,-6.09,7.74,-0.06,19.07
22797,0.2677,-0.03,0.8765,-5.95,7.71,-0.03,19.04
22807,0.2671,-0.0297,0.8748,-6.17,7.66,-0.05,19.06
22817,0.2693,-0.0297,0.8733,-6.05,7.66,-0.08,19.04
22827,0.2698,-0.0312,0.8784,-6.02,7.65,0.02,19.05
22837,0.2706,-0.0342,0.8715,-6.17,7.63,0.02,19.06
22848,0.2727,-0.0334,0.8739,-6.11,7.65,0.02,19.06
22858,0.2723,-0.0354,0.8719,-6.02,7.66,-0.03,19.04
22868,0.2734,-0.0369,0.8704,-6.06,7.66,-0.05,19.04
22879,0.2714,-0.0356,0.8685,-6.0,7.69,-0.06,19.04
22889,0.2684,-0.0364,0.8674,-6.03,7.66,0.03,19.05
22899,0.2698,-0.0366,0.868,-6.06,7.65,-0.05,19.04
22909,0.2714,-0.0372,0.8682,-6.08,7.66,-0.03,19.04
22919,0.2701,-0.0345,0.8691,-6.0,7.71,-0.03,19.06
22929,0.2712,-0.0344,0.8679,-5.97,7.68,-0.11,19.07
22939,0.2711,-0.033,0.8687,-5.98,7.73,-0.09,19.06
22949,0.2688,-0.0354,0.8683,-6.02,7.71,-0.06,19.04
22959,0.2667,-0.0367,0.8694,-5.98,7.77,-0.09,19.05
22969,0.2662,-0.0371,0.8702,-5.98,7.73,-0.15,19.04
22979,0.2668,-0.036,0.8671,-6.0,7.66,-0.05,19.05
22989,0.2675,-0.0341,0.8688,-5.98,7.69,-0.05,19.04
23000,0.2662,-0.0322,0.873,-5.97,7.79,-0.03,19.04
23010,0.2665,-0.0328,0.8729,-5.94,7.71,0.0,19.07
23020,0.2673,-0.0333,0.8735,-5.91,7.8,-0.05,19.07
23030,0.2704,-0.0378,0.8706,-5.88,7.73,-0.06,19.05
23040,0.2694,-0.0363,0.873,-5.91,7.73,-0.06,19.05
23050,0.2703,-0.0337,0.871,-6.02,7.69,-0.03,19.05
23060,0.2701,-0.0345,0.8748,-6.06,7.77,0.03,19.04
23070,0.2736,-0.032,0.8805,-5.97,7.74,-0.05,19.03
23080,0.2738,-0.0323,0.8741,-5.91,7.69,-0.08,19.07
23090,0.2759,-0.0347,0.8792,-5.92,7.74,-0.08,19.04
23100,0.2736,-0.0327,0.8811,-5.95,7.65,-0.03,19.04
23110,0.2756,-0.0337,0.8778,-5.88,7.66,-0.08,19.05
23120,0.2711,-0.0356,0.8784,-5.89,7.68,0.0,19.05
23130,0.2732,-0.0325,0.8729,-5.92,7.68,-0.06,19.08
23140,0.2738,-0.0339,0.876,-5.92,7.74,-0.09,19.04
23150,0.2717,-0.0341,0.8739,-5.91,7.65,-0.11,19.06
23160,0.2728,-0.0312,0.8728,-5.94,7.77,-0.09,19.06
23170,0.2706,-0.0311,0.8698,-5.91,7.65,-0.08,19.08
23180,0.2699,-0.0292,0.868,-5.89,7.71,-0.05,19.06
23190,0.2714,-0.0311,0.8656,-5.92,7.71,0.0,19.04
23200,0.2708,-0.0369,0.8625,-5.91,7.74,-0.06,19.05
23210,0.2689,-0.0326,0.8656,-5.91,7.74,0.06,19.04
23220,0.267,-0.0308,0.8619,-5.97,7.69,-0.03,19.06
23230,0.2678,-0.0304,0.8595,-5.92,7.68,-0.06,19.05
23240,0.2675,-0.0289,0.8601,-5.98,7.76,-0.08,19.06
23251,0.2675,-0.0305,0.8633,-6.0,7.74,-0.09,19.08
23261,0.2667,-0.0299,0.8656,-5.97,7.73,-0.06,19.07
23271,0.2679,-0.0336,0.866,-5.95,7.69,-0.08,19.07
23281,0.266,-0.032,0.8696,-6.02,7.71,-0.02,19.06
23291,0.2628,-0.0327,0.8678,-6.05,7.79,-0.08,19.07
23301,0.2656,-0.0321,0.8724,-6.23,7.69,-0.05,19.04
23311,0.2657,-0.0311,0.8749,-6.14,7.74,0.0,19.06
23321,0.27,-0.0314,0.8721,-6.06,7.68,-0.02,19.07
23331,0.2698,-0.0322,0.8717,-6.18,7.71,0.03,19.06
23341,0.27,-0.0325,0.8726,-6.05,7.74,-0.03,19.07
23351,0.2689,-0.0308,0.8771,-6.14,7.73,0.03,19.05
23361,0.2749,-0.0349,0.8792,-6.06,7.76,-0.06,19.04
23371,0.2734,-0.0372,0.8799,-6.12,7.74,-0.05,19.07
23381,0.2722,-0.0371,0.8794,-6.05,7.69,-0.05,19.06
23391,0.2743,-0.0376,0.8802,-6.05,7.63,-0.11,19.09
23401,0.2771,-0.0359,0.8817,-6.08,7.69,0.0,19.06
23411,0.2744,-0.0345,0.8811,-6.0,7.69,0.03,19.07
23421,0.2776,-0.0349,0.881,-6.0,7.79,0.0,19.06
23431,0.2773,-0.036,0.8833,-6.0,7.76,-0.05,19.07
23441,0.2749,-0.0356,0.8748,-5.98,7.82,-0.11,19.05
23451,0.2747,-0.0342,0.871,-5.95,7.71,-0.09,19.06
23461,0.2747,-0.036,0.8705,-5.92,7.69,-0.08,19.08
23471,0.2744,-0.0352,0.8735,-5.83,7.69,-0.08,19.07
23481,0.2762,-0.0358,0.8701,-5.94,7.69,-0.09,19.09
23491,0.2712,-0.0349,0.8641,-5.88,7.66,-0.03,19.07
23501,0.2681,-0.0333,0.8691,-5.89,7.76,-0.11,19.07
23511,0.2648,-0.0339,0.8696,-5.91,7.65,-0.14,19.07
23521,0.2681,-0.0308,0.8635,-5.91,7.69,-0.06,19.08
23531,0.2657,-0.0317,0.8636,-5.94,7.66,-0.11,19.07
23541,0.266,-0.0308,0.8647,-5.94,7.73,-0.11,19.04
23551,0.2651,-0.0312,0.8671,-5.89,7.73,-0.06,19.09
23561,0.2618,-0.0303,0.8701,-5.95,7.73,-0.09,19.07
23571,0.2614,-0.0325,0.8658,-5.97,7.68,-0.11,19.06
23581,0.2622,-0.035,0.8657,-6.05,7.68,-0.03,19.07
23591,0.2657,-0.035,0.8652,-5.97,7.66,-0.02,19.07
23601,0.2671,-0.0319,0.8678,-6.03,7.71,0.05,19.07
23611,0.2654,-0.0326,0.8691,-6.02,7.65,0.02,19.07
23621,0.2703,-0.031,0.8711,-6.0,7.69,0.03,19.06
23631,0.2725,-0.0297,0.8734,-5.95,7.76,0.06,19.1
23641,0.272,-0.0293,0.8701,-6.09,7.68,0.03,19.09
23651,0.2751,-0.03,0.8722,-6.12,7.68,0.0,19.08
23661,0.2714,-0.0309,0.877,-6.17,7.69,-0.05,19.07
23671,0.2711,-0.0298,0.8737,-6.09,7.77,-0.02,19.06
23681,0.2706,-0.0314,0.8727,-6.08,7.76,0.03,19.08
23691,0.272,-0.0364,0.869,-6.15,7.73,0.05,19.1
23701,0.2756,-0.0349,0.8678,-6.08,7.69,0.02,19.07
23711,0.2736,-0.0323,0.8722,-6.08,7.76,-0.09,19.08
23721,0.2711,-0.0359,0.8757,-6.12,7.74,0.0,19.09
23731,0.2769,-0.0342,0.8777,-6.03,7.82,0.0,19.09
23741,0.2743,-0.0316,0.8741,-6.09,7.85,-0.05,19.06
23751,0.2717,-0.0321,0.8759,-6.0,7.82,-0.05,19.07
23761,0.2706,-0.0311,0.8799,-6.0,7.77,-0.08,19.08
23771,0.2686,-0.028,0.8805,-5.95,7.79,0.0,19.1
23781,0.2727,-0.0303,0.8853,-6.02,7.71,-0.09,19.07
23791,0.2761,-0.0298,0.8842,-5.95,7.73,-0.05,19.08
23801,0.2756,-0.0303,0.8885,-6.06,7.8,-0.03,19.09
23811,0.2731,-0.0328,0.8796,-6.08,7.83,-0.11,19.07
23821,0.2686,-0.0322,0.8744,-6.11,7.85,-0.08,19.08
23831,0.2703,-0.0365,0.8656,-6.06,7.89,-0.03,19.07
23841,0.2621,-0.0391,0.8627,-6.11,7.85,-0.08,19.07
23851,0.265,-0.0391,0.8555,-6.14,7.73,-0.11,19.07
23861,0.2676,-0.0386,0.855,-6.05,7.71,-0.09,19.08
23871,0.2678,-0.0396,0.8616,-6.0,7.74,-0.09,19.09
23881,0.267,-0.0358,0.8634,-5.98,7.77,-0.09,19.08
23891,0.2671,-0.0348,0.8612,-5.97,7.82,-0.06,19.07
23901,0.265,-0.0342,0.8612,-5.91,7.82,-0.12,19.07
23911,0.2629,-0.0343,0.8617,-5.92,7.8,-0.09,19.09
23921,0.2655,-0.0321,0.8676,-6.06,7.79,-0.03,19.07
23931,0.2651,-0.0336,0.8717,-6.05,7.8,0.03,19.06
23941,0.2656,-0.0342,0.8719,-6.03,7.68,0.05,19.08
23951,0.2679,-0.0369,0.8773,-6.14,7.73,-0.02,19.09
23961,0.2719,-0.0397,0.8827,-6.02,7.79,0.0,19.06
23971,0.2725,-0.0403,0.8844,-6.06,7.74,-0.05,19.11
23981,0.2697,-0.0392,0.8842,-5.98,7.79,-0.11,19.09
23991,0.2711,-0.0408,0.8817,-5.89,7.71,-0.03,19.09
24001,0.2747,-0.0442,0.8799,-5.85,7.69,-0.03,19.07
24011,0.2728,-0.0424,0.8755,-5.91,7.68,-0.06,19.07
24021,0.2756,-0.043,0.876,-5.83,7.63,0.0,19.06
24031,0.2773,-0.0403,0.8813,-5.82,7.68,-0.05,19.08
24041,0.2766,-0.035,0.8739,-5.86,7.77,-0.05,19.07
24051,0.2759,-0.0364,0.8702,-5.83,7.76,-0.05,19.07
24061,0.2761,-0.033,0.8722,-5.8,7.71,0.02,19.09
24072,0.2722,-0.0304,0.8669,-5.82,7.68,-0.11,19.09
24082,0.2721,-0.0291,0.8678,-5.83,7.68,-0.11,19.08
24092,0.2717,-0.03,0.864,-5.91,7.71,-0.05,19.07
24103,0.2705,-0.0291,0.8613,-5.89,7.66,0.05,19.09
24113,0.2687,-0.0289,0.8618,-5.83,7.62,0.02,19.05
24123,0.2684,-0.0272,0.863,-5.95,7.63,-0.06,19.07
24133,0.2689,-0.0276,0.8636,-5.98,7.73,0.03,19.08
24143,0.2642,-0.0298,0.8624,-5.98,7.68,-0.05,19.08
24153,0.2643,-0.03,0.8672,-5.98,7.66,0.0,19.08
24163,0.2643,-0.0272,0.8699,-6.02,7.66,0.03,19.05
24173,0.264,-0.0294,0.8696,-6.08,7.62,-0.02,19.08
24183,0.2635,-0.0306,0.8771,-6.05,7.69,-0.08,19.09
24193,0.265,-0.03,0.8776,-6.03,7.66,-0.06,19.09
24203,0.266,-0.0331,0.8766,-6.08,7.76,-0.11,19.09
24213,0.2683,-0.0299,0.8813,-6.0,7.68,-0.11,19.07
24223,0.2712,-0.031,0.8772,-6.06,7.71,-0.11,19.09
24233,0.2657,-0.0294,0.8781,-6.06,7.73,-0.06,19.1
24243,0.2708,-0.0316,0.8816,-6.11,7.71,-0.11,19.08
24253,0.2689,-0.0321,0.8756,-6.11,7.71,-0.09,19.07
24263,0.2736,-0.0311,0.8779,-6.02,7.66,-0.08,19.09
24273,0.2769,-0.0328,0.8729,-6.03,7.71,-0.03,19.09
24309,0.2733,-0.036,0.866,-6.0,7.76,-0.08,19.08
24319,0.2732,-0.0371,0.8646,-6.02,7.74,-0.03,19.07
24329,0.2725,-0.0361,0.8673,-6.03,7.74,-0.08,19.09
24339,0.2754,-0.0359,0.8677,-5.94,7.74,0.0,19.09
24349,0.2721,-0.0365,0.8718,-6.0,7.65,-0.11,19.08
24359,0.2715,-0.0359,0.8669,-5.95,7.71,-0.12,19.11
24369,0.2728,-0.0347,0.8683,-6.06,7.74,-0.09,19.09
24380,0.2695,-0.0377,0.8701,-6.03,7.82,-0.11,19.09
24390,0.2668,-0.037,0.8699,-6.02,7.73,-0.06,19.07
24400,0.2668,-0.0367,0.8727,-5.94,7.85,-0.06,19.09
24410,0.2678,-0.0402,0.8738,-6.02,7.74,-0.09,19.06
24420,0.2661,-0.0363,0.8737,-5.94,7.79,-0.05,19.07
24430,0.2694,-0.0391,0.8766,-5.95,7.74,-0.02,19.09
24440,0.2681,-0.0358,0.8748,-5.98,7.71,0.03,19.08
24450,0.2654,-0.0389,0.8739,-5.97,7.66,0.03,19.06
24460,0.2667,-0.0364,0.8756,-5.95,7.71,-0.05,19.08
24470,0.2676,-0.0363,0.8745,-5.97,7.65,-0.05,19.09
24480,0.2681,-0.0371,0.8738,-5.92,7.62,-0.02,19.12
24490,0.2694,-0.0396,0.8744,-5.94,7.71,-0.05,19.1
24500,0.2688,-0.0334,0.8739,-5.88,7.69,0.05,19.11
24510,0.2695,-0.0348,0.8704,-6.02,7.62,-0.09,19.08
24520,0.2704,-0.035,0.8755,-5.95,7.65,-0.02,19.09
24530,0.2729,-0.0366,0.8757,-5.92,7.65,0.02,19.08
24540,0.2727,-0.0309,0.871,-6.02,7.63,0.0,19.07
24550,0.2709,-0.0325,0.871,-6.0,7.66,-0.02,19.08
24560,0.27,-0.0325,0.8694,-6.05,7.66,-0.03,19.07
24570,0.27,-0.0326,0.8689,-5.92,7.68,0.0,19.08
24580,0.269,-0.0337,0.8689,-6.0,7.65,0.02,19.12
24590,0.2697,-0.0325,0.8718,-5.98,7.56,-0.05,19.1
24600,0.2673,-0.0311,0.8695,-5.92,7.65,0.02,19.12
24610,0.2657,-0.0316,0.8666,-5.91,7.68,-0.03,19.1
24620,0.2687,-0.0283,0.8684,-5.88,7.73,0.0,19.1
24630,0.27,-0.0291,0.8684,-5.98,7.66,-0.02,19.1
24640,0.2701,-0.03,0.8698,-5.89,7.65,-0.15,19.09
24650,0.2684,-0.0291,0.8745,-6.06,7.68,-0.09,19.11
24660,0.2701,-0.026,0.8724,-6.05,7.69,-0.02,19.07
24670,0.2684,-0.0272,0.8739,-5.97,7.8,-0.02,19.09
24680,0.2678,-0.0308,0.8768,-5.98,7.76,-0.09,19.11
24691,0.2667,-0.0297,0.8715,-6.08,7.82,-0.11,19.09
24701,0.2673,-0.0291,0.8761,-6.06,7.79,-0.05,19.09
24711,0.2673,-0.0309,0.8756,-6.09,7.79,-0.02,19.1
24721,0.2676,-0.0308,0.8765,-6.11,7.74,-0.14,19.09
24731,0.2682,-0.0312,0.877,-6.09,7.65,-0.03,19.08
24741,0.2682,-0.0327,0.8782,-6.11,7.69,-0.03,19.08
24751,0.2699,-0.0367,0.874,-5.97,7.73,-0.09,19.1
24761,0.2708,-0.0367,0.8782,-5.95,7.76,-0.06,19.1
24771,0.2709,-0.0352,0.8772,-6.03,7.68,-0.11,19.11
24781,0.2719,-0.0321,0.8765,-6.0,7.69,-0.11,19.09
24791,0.2736,-0.0328,0.873,-6.05,7.69,-0.12,19.09
24801,0.2732,-0.0347,0.8744,-6.03,7.71,-0.12,19.09
24812,0.2758,-0.0358,0.8716,-5.98,7.74,-0.02,19.09
24822,0.2726,-0.0365,0.8673,-5.94,7.71,-0.03,19.08
24832,0.2708,-0.036,0.8668,-6.03,7.73,-0.06,19.09
24842,0.27,-0.0332,0.8676,-6.02,7.74,-0.09,19.08
24852,0.2709,-0.0358,0.8629,-6.03,7.8,-0.05,19.09
24862,0.271,-0.035,0.8633,-6.03,7.77,-0.09,19.1
24872,0.2698,-0.0354,0.8628,-6.09,7.79,-0.02,19.1
24882,0.2692,-0.0352,0.864,-6.06,7.74,-0.03,19.09
24892,0.2688,-0.0344,0.864,-6.02,7.76,-0.06,19.1
24902,0.2667,-0.0367,0.8663,-5.97,7.71,0.03,19.07
24912,0.2672,-0.0353,0.8711,-6.02,7.65,-0.06,19.1
24922,0.2678,-0.0331,0.8715,-5.98,7.73,-0.03,19.08
24932,0.2694,-0.036,0.8752,-5.91,7.69,0.02,19.12
24942,0.271,-0.037,0.8757,-6.09,7.66,-0.03,19.12
24952,0.2681,-0.0352,0.8763,-6.03,7.68,-0.03,19.11
24962,0.2682,-0.0386,0.8787,-6.02,7.74,-0.02,19.09
24972,0.2699,-0.036,0.8761,-6.0,7.76,-0.03,19.09
24982,0.2714,-0.0361,0.8781,-5.98,7.69,0.03,19.08
24992,0.2727,-0.0353,0.8765,-6.06,7.74,-0.03,19.1
25002,0.2716,-0.0364,0.8782,-5.95,7.71,0.02,19.1
25012,0.2719,-0.0352,0.8723,-5.94,7.79,-0.03,19.11
25022,0.2736,-0.033,0.8734,-5.88,7.65,-0.03,19.08
25032,0.2722,-0.0345,0.8801,-5.91,7.68,-0.02,19.09
25042,0.2749,-0.0355,0.8788,-5.92,7.69,0.03,19.09
25052,0.2734,-0.0308,0.8707,-5.83,7.74,-0.14,19.11
25062,0.2701,-0.033,0.8732,-5.91,7.69,-0.06,19.08
25072,0.27,-0.0317,0.8752,-5.95,7.76,-0.06,19.09
25082,0.2689,-0.0317,0.8717,-5.88,7.77,-0.09,19.09
25092,0.2708,-0.0311,0.8702,-5.86,7.66,-0.02,19.09
25102,0.2692,-0.0315,0.8715,-5.88,7.68,-0.06,19.11
25112,0.2683,-0.0303,0.8698,-5.94,7.74,-0.05,19.08
25123,0.2709,-0.03,0.8669,-5.92,7.65,-0.03,19.08
25133,0.2697,-0.031,0.8682,-5.92,7.71,-0.02,19.08
25143,0.2709,-0.0273,0.8667,-5.91,7.66,-0.06,19.09
25153,0.2693,-0.0302,0.8683,-5.97,7.71,-0.14,19.1
25163,0.2689,-0.0286,0.8668,-5.89,7.74,-0.17,19.09
25173,0.2662,-0.0289,0.8646,-6.02,7.74,-0.11,19.11
25183,0.2626,-0.0273,0.866,-6.02,7.69,-0.03,19.09
25193,0.2661,-0.028,0.869,-6.03,7.76,0.02,19.09
25203,0.267,-0.0321,0.8676,-5.97,7.76,0.03,19.1
25213,0.2632,-0.0287,0.8654,-6.0,7.74,-0.09,19.12
25223,0.2661,-0.028,0.8655,-6.14,7.73,-0.08,19.09
25233,0.2662,-0.0332,0.871,-6.09,7.77,0.02,19.09
25243,0.2672,-0.0311,0.869,-6.15,7.8,0.03,19.1
25253,0.2675,-0.0314,0.8705,-6.21,7.69,-0.06,19.09
25263,0.2668,-0.0325,0.8748,-6.23,7.74,0.0,19.09
25273,0.2714,-0.0341,0.8774,-6.15,7.69,0.06,19.11
25283,0.2712,-0.0326,0.875,-6.17,7.69,0.02,19.1
25293,0.2733,-0.0334,0.8766,-6.14,7.74,0.05,19.09
25303,0.2703,-0.0372,0.8789,-6.14,7.77,0.0,19.11
25313,0.2736,-0.0358,0.8777,-6.11,7.76,-0.06,19.11
25323,0.2732,-0.0364,0.8811,-6.11,7.74,-0.06,19.1
25333,0.2749,-0.0354,0.8817,-6.2,7.74,-0.02,19.12
25343,0.274,-0.0361,0.8744,-6.11,7.73,-0.14,19.09
25353,0.2743,-0.0393,0.8812,-6.08,7.71,-0.11,19.1
25363,0.2778,-0.0388,0.8822,-6.03,7.8,-0.11,19.1
25373,0.2788,-0.0391,0.8789,-5.95,7.71,-0.08,19.09
25383,0.2736,-0.0388,0.8779,-5.92,7.82,-0.12,19.1
25393,0.2732,-0.0393,0.877,-5.85,7.76,-0.06,19.1
25403,0.2703,-0.0398,0.8755,-5.85,7.77,-0.09,19.08
25413,0.269,-0.0363,0.8693,-5.91,7.82,-0.11,19.1
25423,0.2684,-0.0364,0.8601,-5.85,7.53,-0.06,19.11
25433,0.2622,-0.0355,0.8729,-5.89,7.95,-0.12,19.09
25443,0.257,-0.037,0.8718,-5.89,8.15,-0.11,19.11
25453,0.2678,-0.0317,0.8586,-5.88,7.8,-0.08,19.12
25463,0.2684,-0.0295,0.865,-5.79,7.59,-0.08,19.11
25473,0.2593,-0.0328,0.8723,-5.89,7.65,-0.09,19.1
25483,0.2565,-0.0297,0.8689,-5.91,7.92,-0.11,19.1
25493,0.2617,-0.0302,0.8618,-5.98,7.77,-0.08,19.1
25503,0.2683,-0.0308,0.8621,-5.91,7.57,-0.06,19.12
25513,0.2664,-0.0312,0.8668,-5.97,7.56,0.02,19.12
25523,0.2632,-0.031,0.8743,-6.05,7.79,0.08,19.11
25533,0.2656,-0.033,0.8693,-6.05,7.79,-0.05,19.12
25543,0.2676,-0.0316,0.8683,-6.05,7.69,-0.02,19.12
25553,0.2736,-0.0327,0.8722,-5.98,7.71,0.02,19.12
25563,0.2709,-0.0339,0.8728,-6.06,7.59,-0.11,19.11
25573,0.2684,-0.033,0.8726,-6.08,7.71,0.02,19.12
25583,0.272,-0.0342,0.8793,-6.05,7.73,-0.03,19.11
25593,0.2736,-0.0358,0.8792,-6.08,7.66,-0.03,19.09
25603,0.2743,-0.037,0.8763,-6.14,7.71,-0.02,19.12
25613,0.2751,-0.0332,0.879,-6.02,7.77,-0.03,19.13
25623,0.2728,-0.0338,0.8788,-6.05,7.73,-0.09,19.12
25633,0.275,-0.0291,0.8749,-6.03,7.76,-0.06,19.09
25643,0.2758,-0.0312,0.8752,-5.91,7.76,-0.09,19.09
25653,0.2732,-0.0302,0.8744,-5.97,7.76,-0.09,19.1
25663,0.2719,-0.0273,0.8779,-5.95,7.73,-0.05,19.12
25673,0.2756,-0.0321,0.8748,-6.02,7.73,-0.06,19.1
25683,0.2744,-0.0297,0.874,-6.09,7.76,-0.14,19.1
25693,0.2727,-0.0327,0.8706,-6.03,7.69,-0.14,19.09
25703,0.2694,-0.0338,0.871,-6.02,7.69,-0.11,19.12
25713,0.2714,-0.0321,0.8712,-5.98,7.69,-0.05,19.11
25723,0.2683,-0.0304,0.8685,-6.05,7.66,-0.09,19.11
25733,0.2682,-0.0315,0.8663,-6.03,7.69,-0.12,19.1
25743,0.2699,-0.0354,0.8694,-5.97,7.77,-0.11,19.1
25753,0.266,-0.033,0.8674,-5.89,7.73,-0.11,19.1
25763,0.2651,-0.0339,0.8691,-6.0,7.77,-0.12,19.1
25773,0.267,-0.0339,0.8693,-6.05,7.77,-0.08,19.11
25783,0.2654,-0.0326,0.8651,-6.05,7.74,-0.02,19.11
25793,0.2664,-0.0338,0.8694,-6.03,7.68,-0.02,19.13
25803,0.2677,-0.0332,0.8636,-6.0,7.73,-0.02,19.09
25813,0.2671,-0.0334,0.8707,-6.08,7.71,0.03,19.1
25823,0.2695,-0.0327,0.8633,-6.05,7.76,-0.05,19.13
25833,0.2681,-0.0321,0.8658,-6.08,7.79,0.02,19.11
25843,0.2681,-0.031,0.8695,-6.12,7.74,-0.02,19.12
25853,0.2667,-0.0361,0.8673,-6.09,7.76,0.0,19.11
25863,0.2659,-0.0356,0.8707,-6.14,7.73,-0.05,19.12
25873,0.2708,-0.0347,0.871,-6.2,7.63,0.0,19.11
25883,0.27,-0.0358,0.8695,-6.08,7.63,-0.03,19.11
25893,0.2721,-0.0397,0.8751,-6.11,7.66,0.0,19.12
25903,0.2712,-0.0392,0.8785,-6.02,7.68,0.08,19.13
25913,0.2726,-0.0396,0.8737,-6.06,7.66,0.03,19.1
25923,0.2695,-0.0391,0.8761,-6.06,7.73,-0.11,19.11
25933,0.2725,-0.0392,0.8765,-6.08,7.68,-0.05,19.12
25943,0.274,-0.0358,0.8774,-6.03,7.77,0.0,19.11
25953,0.2755,-0.032,0.8783,-6.05,7.71,-0.02,19.1
25963,0.2748,-0.0349,0.8816,-5.86,7.68,0.02,19.1
25973,0.2747,-0.0312,0.8833,-5.88,7.68,-0.03,19.1
25983,0.2754,-0.0342,0.8832,-5.97,7.71,-0.03,19.12
25993,0.2755,-0.0328,0.8788,-5.94,7.74,-0.03,19.12
26003,0.2786,-0.0367,0.8788,-5.85,7.69,-0.14,19.1
26013,0.2748,-0.037,0.8754,-5.83,7.66,-0.06,19.12
26023,0.2745,-0.0333,0.8806,-5.89,7.65,-0.05,19.11
26033,0.2728,-0.0356,0.8784,-5.97,7.68,-0.15,19.12
26043,0.2726,-0.0325,0.874,-5.97,7.66,-0.11,19.12
26053,0.2729,-0.0327,0.8716,-5.77,7.62,-0.06,19.13
26063,0.2697,-0.0309,0.8649,-5.85,7.66,-0.09,19.12
26073,0.2646,-0.031,0.8615,-5.88,7.73,0.0,19.13
26083,0.2667,-0.0311,0.8606,-5.85,7.68,-0.05,19.12
26093,0.2656,-0.0323,0.8561,-5.89,7.68,-0.12,19.12
26103,0.2625,-0.0304,0.86,-5.85,7.69,-0.09,19.12
26113,0.2634,-0.0295,0.8604,-5.94,7.73,-0.05,19.14
26123,0.2646,-0.0295,0.8602,-5.95,7.63,-0.11,19.12
26133,0.2656,-0.0303,0.8688,-5.94,7.68,-0.03,19.11
26143,0.2635,-0.0294,0.8682,-6.09,7.63,-0.11,19.11
26153,0.2664,-0.031,0.8761,-6.12,7.66,-0.05,19.09
26163,0.2672,-0.0281,0.8708,-6.09,7.79,-0.02,19.1
26173,0.269,-0.0315,0.8793,-6.17,7.83,0.0,19.1
26183,0.2657,-0.0314,0.87,-6.15,7.71,-0.05,19.14
26193,0.2683,-0.0321,0.8788,-6.05,7.79,-0.03,19.12
26203,0.2695,-0.0353,0.8752,-6.06,7.73,-0.03,19.13
26213,0.2717,-0.0366,0.8776,-6.03,7.63,-0.02,19.12
26223,0.2715,-0.0344,0.8781,-6.09,7.65,0.03,19.12
26233,0.2689,-0.0319,0.8799,-6.08,7.68,0.0,19.12
26243,0.2677,-0.035,0.8782,-6.09,7.74,-0.09,19.12
26253,0.275,-0.0327,0.8861,-6.02,7.68,-0.06,19.14
26263,0.2723,-0.033,0.8796,-6.09,7.73,-0.06,19.14
26273,0.2777,-0.0327,0.884,-6.12,7.71,-0.15,19.12
26283,0.2781,-0.0328,0.8831,-6.12,7.69,-0.11,19.12
26293,0.2733,-0.0337,0.8784,-6.02,7.69,-0.05,19.11
26303,0.2772,-0.0349,0.8773,-6.0,7.76,-0.06,19.13
26313,0.2759,-0.0326,0.8699,-5.94,7.66,-0.03,19.11
26323,0.2751,-0.0328,0.8738,-5.94,7.68,-0.02,19.13
26333,0.2729,-0.0331,0.8691,-6.02,7.8,-0.06,19.13
26343,0.2725,-0.0358,0.8595,-5.86,7.74,-0.09,19.12
26353,0.2648,-0.0339,0.8601,-5.97,7.74,-0.08,19.12
26363,0.259,-0.0371,0.8551,-5.95,7.94,-0.02,19.14
26373,0.2582,-0.0354,0.8513,-6.08,7.88,-0.12,19.11
26383,0.2578,-0.0344,0.8499,-6.08,7.74,-0.09,19.13
26393,0.2623,-0.0371,0.8584,-6.14,7.59,-0.11,19.13
26403,0.2666,-0.0322,0.87,-6.03,7.65,-0.03,19.15
26413,0.2726,-0.0341,0.8816,-5.94,7.71,-0.06,19.15
26423,0.2756,-0.0266,0.881,-5.86,7.77,-0.05,19.12
26433,0.2729,-0.0343,0.8812,-5.82,7.88,-0.12,19.12
26443,0.2651,-0.0348,0.8754,-5.91,7.86,0.0,19.12
26453,0.2605,-0.0319,0.8744,-5.94,7.94,-0.02,19.12
26463,0.2617,-0.035,0.8724,-6.08,7.79,-0.02,19.13
26473,0.2655,-0.0333,0.8752,-6.2,7.66,-0.02,19.12
26483,0.2709,-0.0326,0.8798,-6.18,7.73,-0.05,19.12
26493,0.2727,-0.0371,0.8815,-6.09,7.77,-0.05,19.12
26503,0.2745,-0.0376,0.8801,-5.91,7.79,-0.06,19.13
26513,0.274,-0.035,0.8833,-5.86,7.92,-0.02,19.13
26523,0.272,-0.0376,0.881,-5.85,7.91,-0.03,19.12
26533,0.2714,-0.0347,0.8707,-5.89,7.8,-0.09,19.12
26543,0.27,-0.0372,0.8707,-5.85,7.79,-0.09,19.12
26553,0.2703,-0.0289,0.8712,-5.94,7.8,0.02,19.12
26563,0.2728,-0.0249,0.8713,-5.97,7.76,-0.09,19.12
26573,0.2783,-0.0249,0.8853,-6.18,7.83,-0.02,19.12
26583,0.2721,-0.0287,0.8727,-6.21,7.74,-0.06,19.12
26593,0.2709,-0.0363,0.87,-6.06,7.57,0.0,19.12
26603,0.2582,-0.0375,0.871,-6.11,7.94,-0.08,19.13
26613,0.2644,-0.0348,0.8729,-6.06,8.0,-0.11,19.12
26623,0.2717,-0.0369,0.8604,-6.06,7.77,-0.11,19.13
26633,0.2682,-0.0447,0.8621,-6.05,7.54,0.02,19.13
26643,0.266,-0.0439,0.8623,-5.91,7.73,0.03,19.15
26653,0.2621,-0.0385,0.8629,-5.83,7.74,0.02,19.13
26663,0.2607,-0.0363,0.8693,-5.85,7.76,0.05,19.12
26673,0.2655,-0.0352,0.8712,-5.74,7.73,0.05,19.08
26683,0.2621,-0.0303,0.873,-5.76,7.79,0.09,19.14
26693,0.2649,-0.0201,0.8822,-5.73,7.68,0.11,19.13
26703,0.2682,-0.0181,0.8831,-5.88,7.76,0.14,19.14
26713,0.2708,-0.0173,0.884,-6.02,7.76,-0.05,19.13
26723,0.2751,-0.0161,0.8849,-6.17,7.74,-0.06,19.15
26733,0.2755,-0.0167,0.8807,-6.35,7.77,-0.11,19.12
26743,0.2756,-0.0299,0.8717,-6.58,7.8,-0.23,19.14
26753,0.2734,-0.0386,0.8606,-6.6,7.77,-0.27,19.15
26763,0.2719,-0.0472,0.8606,-6.63,7.71,-0.29,19.15
26773,0.2778,-0.048,0.8597,-6.52,7.66,-0.2,19.14
26783,0.2788,-0.0458,0.8672,-6.41,7.69,-0.11,19.13
26793,0.2817,-0.0427,0.8708,-6.37,7.59,-0.05,19.13
26803,0.2831,-0.0317,0.8795,-6.2,7.62,-0.08,19.14
26813,0.2812,-0.0216,0.8804,-6.24,7.57,-0.05,19.13
26823,0.2788,-0.0219,0.8821,-6.31,7.63,-0.03,19.14
26833,0.2697,-0.0289,0.8723,-6.2,7.69,-0.02,19.13
26843,0.2626,-0.0435,0.8622,-6.02,7.68,-0.09,19.1
26853,0.2635,-0.0573,0.8695,-5.73,7.59,-0.08,19.11
26863,0.2617,-0.075,0.8761,-5.28,7.53,0.03,19.12
26873,0.2656,-0.0736,0.8882,-4.92,7.66,0.03,19.12
26883,0.2653,-0.0659,0.8994,-4.9,7.59,0.12,19.13
26893,0.2621,-0.0399,0.895,-5.04,7.74,0.2,19.15
26903,0.2527,-0.0203,0.8883,-5.22,7.88,0.2,19.16
26913,0.2474,-0.005,0.8715,-5.73,7.89,0.11,19.14
26923,0.2491,0.0077,0.8569,-6.03,7.83,-0.02,19.16
26933,0.2528,0.0066,0.848,-6.43,7.65,-0.05,19.15
26943,0.2585,0.002,0.8479,-6.7,7.6,-0.27,19.12
26953,0.2719,-0.0081,0.8507,-6.87,7.6,-0.29,19.14
26963,0.2819,-0.0261,0.8505,-6.84,7.51,-0.34,19.13
26973,0.29,-0.0455,0.8606,-6.69,7.6,-0.34,19.14
26983,0.2944,-0.0476,0.8647,-6.73,7.71,-0.32,19.14
26993,0.2928,-0.0488,0.8645,-6.7,7.73,-0.15,19.13
27003,0.2902,-0.0465,0.8671,-6.69,7.63,-0.15,19.13
27013,0.2838,-0.0398,0.8638,-6.55,7.6,0.12,19.12
27023,0.2834,-0.0377,0.8684,-6.44,7.5,0.17,19.14
27033,0.2805,-0.0354,0.8815,-6.21,7.65,0.11,19.12
27043,0.288,-0.0282,0.889,-6.21,7.54,0.09,19.13
27053,0.2744,-0.0365,0.8921,-5.97,7.59,0.05,19.14
27063,0.252,-0.0505,0.8988,-5.79,8.0,-0.03,19.13
27073,0.244,-0.0673,0.8834,-5.65,7.8,0.02,19.11
27083,0.2427,-0.0649,0.8722,-5.44,7.71,-0.06,19.13
27093,0.2401,-0.0597,0.8707,-5.31,7.71,0.05,19.13
27103,0.2444,-0.0537,0.8683,-5.37,7.88,-0.02,19.13
27113,0.2607,-0.0267,0.8722,-5.37,7.73,0.02,19.14
27123,0.2711,-0.0083,0.8821,-5.71,7.69,0.06,19.12
27133,0.2682,-0.015,0.8784,-5.89,7.73,0.08,19.13
27143,0.2643,-0.0145,0.8696,-5.95,7.68,0.08,19.15
27153,0.2698,-0.0149,0.8701,-5.82,7.63,-0.05,19.15
27163,0.2729,-0.0254,0.8701,-5.76,7.69,-0.08,19.12
27173,0.2761,-0.0393,0.8738,-5.62,7.62,-0.08,19.15
27183,0.2795,-0.0448,0.8824,-5.68,7.65,-0.05,19.13
27193,0.2854,-0.0408,0.8859,-5.76,7.62,-0.03,19.17
27203,0.2816,-0.04,0.8844,-5.91,7.71,0.02,19.14
27213,0.2792,-0.0397,0.8707,-5.89,7.77,0.12,19.13
27223,0.2727,-0.0309,0.8652,-6.0,7.74,0.14,19.13
27233,0.2661,-0.0276,0.853,-5.95,7.77,0.06,19.17
27243,0.2668,-0.0293,0.8485,-6.03,7.79,-0.05,19.13
27253,0.2709,-0.0345,0.8448,-5.82,7.71,-0.18,19.12
27263,0.274,-0.0374,0.8519,-5.79,7.69,-0.23,19.14
27273,0.2802,-0.0396,0.8625,-5.73,7.82,-0.23,19.14
27283,0.2843,-0.0337,0.8651,-5.92,7.71,-0.26,19.13
27293,0.2793,-0.0321,0.8641,-6.02,7.82,-0.21,19.15
27303,0.2738,-0.0305,0.8617,-6.26,7.77,-0.21,19.14
27313,0.2697,-0.0265,0.8569,-6.23,7.82,-0.03,19.13
27323,0.2711,-0.0277,0.8599,-6.12,7.63,0.05,19.14
27333,0.2679,-0.033,0.8724,-6.08,7.45,0.05,19.13
27343,0.2689,-0.0343,0.8823,-6.11,7.62,-0.05,19.14
27353,0.2714,-0.0358,0.8929,-5.89,7.62,-0.03,19.13
27363,0.2788,-0.0334,0.9015,-5.97,7.71,-0.09,19.14
27373,0.2716,-0.0377,0.8999,-5.94,7.74,-0.09,19.12
27383,0.2656,-0.0426,0.8947,-5.97,7.66,-0.08,19.15
