t_ms,accel_x_g,accel_y_g,accel_z_g,gyro_x_dps,gyro_y_dps,gyro_z_dps,imu_temp_c
3299,0.3274,-0.0272,0.8654,-6.5,7.98,0.0,28.19
3309,0.3257,-0.028,0.8634,-6.52,7.91,-0.02,28.19
3319,0.3282,-0.0278,0.8689,-6.66,7.95,-0.11,28.19
3329,0.3245,-0.0234,0.8627,-6.58,7.97,0.02,28.19
3339,0.3285,-0.0236,0.8634,-6.6,7.95,-0.09,28.2
3349,0.3307,-0.0253,0.8597,-6.6,7.91,-0.06,28.19
3359,0.3279,-0.0262,0.8611,-6.61,7.88,0.05,28.2
3369,0.3257,-0.0229,0.8616,-6.63,7.97,-0.03,28.18
3379,0.3271,-0.0278,0.865,-6.61,7.97,-0.03,28.19
3390,0.3264,-0.0245,0.8639,-6.56,8.02,-0.03,28.2
3400,0.3313,-0.0271,0.8622,-6.58,7.97,-0.06,28.22
3410,0.3285,-0.0267,0.865,-6.58,7.94,-0.08,28.21
3420,0.3273,-0.0267,0.8625,-6.55,7.88,-0.03,28.2
3430,0.3271,-0.025,0.8639,-6.66,7.95,-0.05,28.18
3440,0.3275,-0.0272,0.8618,-6.64,7.92,-0.06,28.19
3450,0.3271,-0.025,0.8646,-6.7,7.89,0.02,28.21
3460,0.3279,-0.0258,0.8657,-6.66,7.86,-0.08,28.19
3470,0.3302,-0.0251,0.8635,-6.6,7.92,-0.02,28.21
3481,0.3289,-0.0259,0.8646,-6.63,7.94,-0.08,28.21
3491,0.328,-0.0247,0.864,-6.61,7.88,-0.02,28.22
3501,0.3291,-0.0289,0.8635,-6.56,7.89,-0.11,28.19
3511,0.3301,-0.0264,0.8623,-6.58,7.94,-0.02,28.22
3521,0.3247,-0.0245,0.8607,-6.64,7.97,0.0,28.22
3531,0.3285,-0.0253,0.8668,-6.6,7.98,-0.02,28.23
3541,0.3285,-0.0267,0.8658,-6.63,7.91,0.02,28.22
3551,0.3276,-0.0245,0.8621,-6.69,7.92,0.03,28.2
3561,0.33,-0.0239,0.8596,-6.6,7.94,-0.06,28.22
3571,0.3278,-0.0245,0.8652,-6.55,7.97,-0.03,28.22
3581,0.3274,-0.0247,0.8661,-6.61,7.92,-0.09,28.2
3591,0.3281,-0.0236,0.8669,-6.63,8.02,-0.05,28.21
3601,0.3287,-0.026,0.86,-6.56,8.02,-0.05,28.21
3611,0.3265,-0.0247,0.8627,-6.53,7.94,-0.08,28.21
3621,0.3289,-0.0238,0.8656,-6.58,7.91,-0.08,28.23
3631,0.3279,-0.025,0.8646,-6.61,7.88,-0.08,28.22
3641,0.3302,-0.0264,0.8694,-6.58,7.88,-0.05,28.24
3651,0.3285,-0.0284,0.8623,-6.69,7.91,0.0,28.24
3661,0.3282,-0.025,0.8629,-6.6,7.92,0.0,28.21
3671,0.326,-0.0267,0.8602,-6.75,8.0,-0.05,28.22
3681,0.329,-0.0266,0.8608,-6.6,7.92,-0.08,28.24
3691,0.3291,-0.0276,0.8623,-6.58,7.95,-0.02,28.23
3701,0.3286,-0.028,0.8619,-6.58,7.85,-0.11,28.21
3711,0.3273,-0.025,0.8627,-6.64,7.86,-0.06,28.22
3721,0.3293,-0.0273,0.8676,-6.69,7.91,-0.06,28.22
3731,0.3311,-0.0273,0.8625,-6.56,7.97,-0.08,28.25
3741,0.3268,-0.025,0.8605,-6.6,7.92,-0.03,28.21
3751,0.3301,-0.024,0.8633,-6.66,7.94,-0.08,28.22
3761,0.3269,-0.0245,0.8649,-6.67,7.94,-0.05,28.21
3771,0.3285,-0.027,0.8643,-6.67,8.03,-0.09,28.22
3781,0.3264,-0.0245,0.8625,-6.55,7.97,-0.08,28.24
3791,0.3281,-0.0264,0.865,-6.53,7.85,-0.11,28.23
3801,0.3292,-0.0238,0.8654,-6.55,7.95,-0.03,28.22
3811,0.328,-0.0244,0.8668,-6.58,7.94,-0.05,28.23
3821,0.3281,-0.0264,0.8629,-6.6,7.94,-0.02,28.24
3831,0.3297,-0.0234,0.8674,-6.6,7.89,-0.09,28.22
3841,0.3289,-0.0253,0.8619,-6.6,7.91,-0.06,28.24
3851,0.3285,-0.0256,0.8635,-6.67,7.92,-0.03,28.23
3861,0.3263,-0.0278,0.8615,-6.63,7.98,-0.06,28.23
3871,0.3311,-0.0262,0.8606,-6.58,8.0,-0.03,28.24
3881,0.3289,-0.0259,0.8633,-6.6,7.94,-0.09,28.27
3891,0.3295,-0.0247,0.8636,-6.58,7.89,-0.03,28.23
3901,0.3278,-0.0303,0.8654,-6.6,7.91,-0.02,28.22
3911,0.3259,-0.0271,0.8671,-6.58,8.0,-0.03,28.23
3921,0.328,-0.0249,0.8615,-6.55,8.0,-0.12,28.24
3931,0.33,-0.0234,0.8636,-6.56,7.91,-0.08,28.27
3941,0.3302,-0.026,0.8617,-6.6,7.88,0.0,28.24
3951,0.3291,-0.0269,0.863,-6.58,7.92,-0.02,28.27
3961,0.3292,-0.0253,0.8616,-6.55,7.91,0.0,28.24
3971,0.3262,-0.0266,0.8665,-6.64,7.97,0.06,28.26
3981,0.3287,-0.0261,0.8665,-6.64,7.98,-0.03,28.26
3991,0.328,-0.0239,0.864,-6.64,7.97,-0.11,28.24
4001,0.3292,-0.0276,0.8646,-6.66,7.86,-0.06,28.23
4011,0.3284,-0.026,0.8624,-6.64,7.94,-0.11,28.23
4021,0.3275,-0.0267,0.8669,-6.56,8.05,0.0,28.22
4031,0.3279,-0.0271,0.864,-6.58,7.95,0.02,28.27
4041,0.3267,-0.0262,0.863,-6.55,7.85,0.0,28.26
4051,0.3298,-0.0272,0.8621,-6.53,7.89,-0.05,28.24
4061,0.3269,-0.0248,0.8619,-6.56,8.02,-0.06,28.23
4071,0.3307,-0.0237,0.8632,-6.64,7.98,-0.03,28.26
4081,0.3297,-0.0232,0.8629,-6.58,7.95,0.02,28.28
4091,0.3269,-0.025,0.8585,-6.63,7.92,-0.05,28.27
4101,0.3302,-0.0272,0.863,-6.63,7.85,-0.09,28.25
4111,0.3297,-0.0278,0.8613,-6.56,7.91,-0.05,28.26
4121,0.3287,-0.0254,0.8646,-6.6,7.95,-0.06,28.25
4131,0.3273,-0.025,0.8639,-6.63,7.95,-0.02,28.26
4141,0.33,-0.0275,0.8616,-6.49,7.95,0.0,28.26
4151,0.3312,-0.0275,0.8604,-6.6,7.89,-0.06,28.27
4161,0.3292,-0.0278,0.8611,-6.66,7.89,-0.14,28.28
4171,0.3259,-0.0286,0.8641,-6.55,7.95,-0.11,28.26
4181,0.3275,-0.0251,0.8649,-6.61,7.91,-0.08,28.28
4191,0.3275,-0.0259,0.8634,-6.66,7.8,-0.06,28.26
4201,0.3281,-0.0242,0.8623,-6.58,7.91,0.0,28.24
4211,0.3276,-0.0293,0.8671,-6.55,7.89,-0.09,28.27
4221,0.33,-0.0255,0.8611,-6.6,7.88,-0.02,28.28
4231,0.3271,-0.0262,0.8666,-6.66,7.86,-0.09,28.27
4241,0.327,-0.0251,0.8621,-6.6,7.94,-0.05,28.22
4251,0.3271,-0.0243,0.861,-6.61,7.94,-0.09,28.28
4261,0.3285,-0.0247,0.8634,-6.67,7.94,-0.06,28.27
4271,0.3287,-0.0243,0.8617,-6.64,7.91,-0.02,28.27
4281,0.3304,-0.0264,0.8612,-6.64,7.89,0.0,28.26
4291,0.3265,-0.024,0.8663,-6.53,7.89,-0.06,28.27
4301,0.3281,-0.0248,0.8654,-6.6,7.91,-0.02,28.25
4311,0.3306,-0.0243,0.8625,-6.58,7.98,0.0,28.26
4321,0.3279,-0.0243,0.864,-6.6,7.92,0.02,28.26
4331,0.3276,-0.0288,0.8613,-6.52,7.86,-0.02,28.28
4341,0.3291,-0.0288,0.8615,-6.67,7.89,0.05,28.29
4351,0.329,-0.0251,0.8596,-6.6,7.89,0.02,28.27
4361,0.3199,-0.0266,0.864,-6.61,8.15,-0.02,28.26
4371,0.3292,-0.0282,0.8645,-6.64,7.94,-0.08,28.27
4381,0.3336,-0.0256,0.8624,-6.56,7.82,-0.06,28.27
4391,0.3274,-0.0243,0.8628,-6.67,7.91,-0.05,28.28
4401,0.3289,-0.025,0.8655,-6.63,7.92,0.05,28.27
4411,0.3271,-0.026,0.8645,-6.56,7.92,-0.06,28.28
4421,0.3303,-0.0277,0.8622,-6.66,7.89,0.03,28.27
4431,0.324,-0.0267,0.8677,-6.56,7.97,-0.02,28.27
4441,0.328,-0.0239,0.865,-6.6,7.92,-0.06,28.27
4451,0.3252,-0.0242,0.8619,-6.6,8.02,-0.03,28.28
4461,0.3252,-0.0248,0.868,-6.64,7.92,-0.03,28.31
4471,0.3279,-0.0271,0.864,-6.66,7.89,-0.02,28.27
4481,0.3296,-0.0272,0.8633,-6.66,7.95,-0.02,28.26
4491,0.3271,-0.0277,0.8629,-6.7,7.94,-0.05,28.29
4501,0.33,-0.0253,0.8663,-6.6,7.94,-0.05,28.29
4511,0.3286,-0.0238,0.8657,-6.58,8.02,-0.02,28.3
4521,0.3284,-0.0255,0.8636,-6.58,8.0,-0.08,28.26
4531,0.328,-0.0242,0.865,-6.66,7.91,-0.08,28.29
4541,0.3289,-0.0256,0.8635,-6.6,7.86,-0.05,28.28
4551,0.3296,-0.0251,0.8617,-6.64,7.92,-0.09,28.29
4561,0.329,-0.0276,0.8623,-6.58,7.95,0.03,28.3
4571,0.3309,-0.027,0.866,-6.66,7.91,-0.06,28.27
4581,0.3302,-0.0271,0.8649,-6.64,7.88,-0.06,28.27
4591,0.3312,-0.0265,0.8655,-6.55,7.86,0.03,28.28
4601,0.3295,-0.0308,0.8579,-6.61,7.94,0.0,28.29
4611,0.3289,-0.024,0.8661,-6.64,7.89,0.02,28.31
4621,0.327,-0.0248,0.8643,-6.72,7.88,0.0,28.3
4631,0.33,-0.026,0.8646,-6.52,7.92,-0.03,28.29
4641,0.3284,-0.0272,0.8668,-6.58,7.97,-0.06,28.29
4651,0.327,-0.024,0.8623,-6.61,7.92,-0.03,28.3
4661,0.3265,-0.024,0.8647,-6.63,7.97,-0.08,28.27
4671,0.3279,-0.0273,0.863,-6.61,7.86,-0.09,28.3
4681,0.3285,-0.0262,0.8625,-6.56,7.92,-0.08,28.3
4691,0.3269,-0.0269,0.8667,-6.55,7.95,0.0,28.28
4701,0.326,-0.0261,0.8672,-6.67,7.94,-0.03,28.28
4711,0.3254,-0.0258,0.8652,-6.64,7.88,-0.05,28.3
4721,0.3287,-0.0277,0.864,-6.63,7.89,-0.08,28.29
4731,0.3296,-0.0251,0.8634,-6.63,7.94,-0.09,28.28
4741,0.3259,-0.0269,0.8622,-6.5,7.92,0.02,28.31
4751,0.3297,-0.0283,0.8627,-6.6,7.92,-0.03,28.29
4761,0.3315,-0.0295,0.864,-6.63,7.89,0.06,28.29
4771,0.3296,-0.0276,0.8657,-6.61,7.94,-0.09,28.32
4781,0.3285,-0.0243,0.8649,-6.56,7.92,-0.06,28.32
4791,0.3284,-0.026,0.8638,-6.58,7.86,-0.06,28.32
4801,0.3262,-0.0265,0.8629,-6.64,7.89,-0.06,28.31
4811,0.3254,-0.0272,0.8644,-6.7,7.89,-0.05,28.3
4821,0.3267,-0.0245,0.8621,-6.56,7.88,-0.06,28.29
4831,0.3286,-0.0271,0.8622,-6.6,7.89,-0.03,28.33
4841,0.3286,-0.025,0.8585,-6.61,7.89,-0.09,28.31
4851,0.3313,-0.0254,0.8623,-6.61,7.92,-0.03,28.29
4861,0.3278,-0.0276,0.8622,-6.63,7.95,-0.09,28.28
4871,0.3273,-0.0245,0.8596,-6.61,7.94,-0.09,28.31
4881,0.3265,-0.0247,0.8622,-6.66,7.97,-0.02,28.31
4891,0.3282,-0.0261,0.866,-6.61,7.94,0.0,28.31
4901,0.328,-0.0259,0.8635,-6.6,7.95,0.0,28.29
4911,0.3279,-0.0287,0.8679,-6.66,7.98,-0.09,28.3
4921,0.3297,-0.026,0.8649,-6.64,7.89,-0.14,28.3
4931,0.3276,-0.025,0.8604,-6.52,7.94,-0.14,28.32
4941,0.3312,-0.0275,0.8613,-6.52,7.92,-0.06,28.29
4951,0.3291,-0.027,0.866,-6.53,7.97,-0.06,28.31
4961,0.3291,-0.0237,0.8622,-6.6,7.98,-0.03,28.32
4971,0.3245,-0.025,0.8661,-6.63,7.97,-0.02,28.32
4981,0.3254,-0.0258,0.8632,-6.66,7.89,-0.02,28.32
4991,0.327,-0.0264,0.863,-6.69,7.91,-0.06,28.31
5001,0.3313,-0.0251,0.8628,-6.63,8.0,-0.06,28.29
5011,0.3265,-0.027,0.8663,-6.69,7.92,-0.02,28.3
5021,0.3293,-0.0275,0.8682,-6.55,7.91,0.02,28.31
5031,0.3269,-0.0281,0.8618,-6.58,7.92,-0.03,28.32
5041,0.3257,-0.0277,0.8621,-6.52,7.89,-0.05,28.31
5051,0.3297,-0.0232,0.8651,-6.56,7.95,-0.06,28.32
5061,0.3264,-0.0264,0.869,-6.6,7.97,-0.05,28.32
5071,0.3291,-0.024,0.8623,-6.63,7.85,-0.11,28.31
5081,0.3284,-0.0258,0.8602,-6.58,7.88,-0.02,28.31
5091,0.326,-0.0249,0.863,-6.58,7.86,-0.02,28.34
5101,0.3281,-0.0251,0.8652,-6.58,7.91,-0.03,28.31
5111,0.3273,-0.0256,0.8658,-6.64,7.95,-0.09,28.32
5121,0.3279,-0.027,0.8639,-6.61,7.91,-0.05,28.32
5131,0.326,-0.025,0.861,-6.56,7.94,-0.02,28.3
5141,0.3269,-0.0288,0.8652,-6.58,7.95,0.0,28.3
5151,0.3303,-0.0229,0.8639,-6.66,8.03,0.0,28.32
5161,0.3267,-0.0232,0.8645,-6.66,7.92,-0.03,28.32
5171,0.3278,-0.0238,0.8649,-6.61,7.94,0.0,28.32
5181,0.3263,-0.0242,0.8635,-6.58,7.91,0.02,28.33
5191,0.3269,-0.0282,0.8639,-6.58,7.89,-0.06,28.3
5201,0.3276,-0.0269,0.866,-6.55,7.89,-0.02,28.34
5211,0.3289,-0.026,0.8636,-6.58,7.88,0.02,28.32
5221,0.3286,-0.0245,0.8628,-6.56,7.89,-0.03,28.32
5231,0.3282,-0.0266,0.8639,-6.63,7.97,-0.03,28.33
5241,0.3302,-0.0278,0.8606,-6.6,7.89,-0.03,28.34
5251,0.3273,-0.0264,0.8621,-6.56,7.97,-0.08,28.31
5261,0.3296,-0.0227,0.8665,-6.53,7.92,-0.06,28.33
5271,0.3258,-0.0256,0.8651,-6.7,7.94,-0.05,28.32
5281,0.3248,-0.0245,0.8632,-6.63,7.97,-0.02,28.3
5291,0.3271,-0.0237,0.8588,-6.56,7.85,-0.05,28.29
5301,0.3254,-0.0239,0.8624,-6.64,7.98,-0.03,28.32
5311,0.3287,-0.0265,0.8604,-6.64,7.98,-0.03,28.31
5321,0.325,-0.0244,0.8625,-6.63,7.94,-0.09,28.3
5331,0.3293,-0.0261,0.863,-6.61,7.97,-0.06,28.32
5341,0.3279,-0.0277,0.864,-6.7,7.86,-0.08,28.32
5351,0.3278,-0.0245,0.8658,-6.6,7.91,-0.11,28.31
5361,0.3296,-0.0261,0.866,-6.63,7.95,-0.05,28.31
5371,0.3276,-0.027,0.8636,-6.64,7.95,-0.09,28.31
5381,0.3274,-0.0265,0.8636,-6.64,7.94,-0.09,28.31
5391,0.3285,-0.0248,0.8646,-6.5,7.91,-0.06,28.32
5401,0.3268,-0.0244,0.863,-6.58,7.92,-0.06,28.32
5411,0.3278,-0.0262,0.8658,-6.64,7.88,-0.02,28.33
5421,0.3286,-0.025,0.8647,-6.6,7.92,-0.05,28.35
5431,0.3252,-0.0242,0.8627,-6.64,7.91,-0.03,28.35
5441,0.3282,-0.0256,0.8651,-6.58,7.91,0.02,28.33
5451,0.3276,-0.0281,0.865,-6.61,7.94,-0.05,28.32
5461,0.3291,-0.0243,0.8643,-6.6,7.97,-0.03,28.32
5471,0.3271,-0.0251,0.8636,-6.56,7.88,-0.05,28.31
5481,0.328,-0.0254,0.8615,-6.56,7.94,-0.02,28.34
5491,0.3275,-0.0266,0.866,-6.52,7.86,-0.06,28.32
5501,0.3268,-0.027,0.8665,-6.64,7.97,0.0,28.34
5511,0.3286,-0.0272,0.8651,-6.6,7.88,-0.03,28.33
5521,0.3264,-0.0269,0.8695,-6.58,7.95,-0.08,28.33
5531,0.3242,-0.0249,0.8621,-6.61,7.91,-0.05,28.32
5541,0.3263,-0.0249,0.8641,-6.58,7.97,-0.09,28.34
5551,0.3264,-0.0226,0.8619,-6.53,7.88,-0.14,28.33
5561,0.3273,-0.0254,0.8657,-6.66,7.89,-0.02,28.32
5571,0.3275,-0.0244,0.8646,-6.6,7.95,0.03,28.34
5581,0.3267,-0.0275,0.8635,-6.63,7.88,-0.05,28.34
5591,0.3275,-0.026,0.8638,-6.55,7.92,-0.06,28.34
5601,0.3268,-0.0249,0.8679,-6.58,7.94,-0.03,28.34
5611,0.3304,-0.0275,0.8621,-6.64,7.89,-0.05,28.33
5621,0.3265,-0.0232,0.8665,-6.63,7.97,-0.06,28.33
5632,0.3281,-0.0262,0.8633,-6.64,7.92,-0.09,28.33
5642,0.3289,-0.0266,0.863,-6.58,7.97,-0.03,28.34
5652,0.3284,-0.0266,0.8624,-6.52,7.97,-0.06,28.35
5662,0.3292,-0.0262,0.865,-6.58,8.0,-0.02,28.33
5672,0.3274,-0.0229,0.863,-6.52,7.92,-0.02,28.32
5682,0.3309,-0.022,0.8608,-6.66,7.89,-0.08,28.33
5692,0.3279,-0.0256,0.8617,-6.63,7.86,-0.08,28.33
5702,0.3302,-0.0269,0.8607,-6.6,7.92,0.02,28.33
5712,0.33,-0.0262,0.8611,-6.58,7.95,0.0,28.35
5722,0.3275,-0.0245,0.8624,-6.58,7.91,0.0,28.33
5732,0.3267,-0.0249,0.865,-6.64,7.92,-0.08,28.35
5742,0.3287,-0.0254,0.8629,-6.63,7.91,-0.08,28.35
5752,0.3274,-0.025,0.8663,-6.69,7.95,-0.05,28.32
5762,0.3259,-0.0245,0.8635,-6.61,7.88,-0.09,28.32
5773,0.3236,-0.0259,0.8654,-6.66,7.91,-0.08,28.35
5783,0.3269,-0.0266,0.8628,-6.61,7.92,-0.03,28.35
5793,0.3285,-0.0261,0.8639,-6.61,7.92,-0.05,28.33
5803,0.3259,-0.0264,0.8589,-6.58,7.88,-0.06,28.34
5813,0.3275,-0.0266,0.8629,-6.6,7.89,-0.06,28.32
5823,0.3265,-0.0266,0.861,-6.55,7.85,-0.02,28.33
5833,0.3273,-0.0273,0.8665,-6.63,7.92,-0.09,28.34
5843,0.3282,-0.0259,0.8656,-6.56,7.92,-0.05,28.34
5853,0.3278,-0.0253,0.8672,-6.6,7.94,-0.08,28.35
5863,0.3282,-0.0262,0.8668,-6.55,7.88,-0.05,28.34
5873,0.3328,-0.0236,0.8605,-6.56,7.89,-0.06,28.34
5883,0.3309,-0.0265,0.8622,-6.58,7.91,-0.12,28.35
5893,0.3275,-0.0272,0.8678,-6.58,7.91,-0.11,28.35
5903,0.3276,-0.0259,0.8622,-6.58,7.94,-0.08,28.36
5913,0.3286,-0.0243,0.8622,-6.61,7.94,-0.14,28.37
5923,0.3274,-0.0232,0.8623,-6.58,7.95,-0.12,28.35
5933,0.3279,-0.0277,0.8629,-6.63,7.91,-0.09,28.36
5943,0.3271,-0.0297,0.8663,-6.63,7.97,-0.09,28.33
5953,0.325,-0.0245,0.8671,-6.58,7.91,-0.05,28.34
5963,0.328,-0.0276,0.863,-6.56,8.0,0.02,28.34
5973,0.3269,-0.0238,0.863,-6.61,7.92,-0.05,28.35
5983,0.3263,-0.0253,0.8625,-6.63,8.0,-0.05,28.36
5993,0.3267,-0.0238,0.8608,-6.63,7.86,0.0,28.34
6003,0.328,-0.0264,0.8651,-6.6,7.88,-0.08,28.35
6013,0.326,-0.0269,0.8647,-6.53,7.97,0.02,28.36
6023,0.3269,-0.0255,0.8643,-6.61,7.92,-0.02,28.35
6033,0.3242,-0.0254,0.861,-6.56,7.95,-0.11,28.33
6043,0.3258,-0.0267,0.8611,-6.63,7.89,0.0,28.35
6053,0.3287,-0.024,0.866,-6.63,7.91,0.02,28.34
6063,0.3282,-0.0242,0.8683,-6.63,7.89,-0.03,28.35
6073,0.3239,-0.025,0.8618,-6.58,7.89,-0.05,28.38
6083,0.3275,-0.0283,0.8634,-6.6,7.89,0.0,28.34
6093,0.3273,-0.0262,0.8639,-6.6,7.85,-0.03,28.35
6103,0.3271,-0.0226,0.863,-6.61,7.92,-0.03,28.38
6113,0.3297,-0.0243,0.8639,-6.6,7.95,-0.05,28.36
6123,0.328,-0.0266,0.8623,-6.58,7.98,-0.03,28.39
6133,0.3292,-0.0272,0.8608,-6.55,7.83,-0.03,28.35
6143,0.3291,-0.024,0.8666,-6.61,7.94,-0.02,28.36
6153,0.328,-0.024,0.8646,-6.6,7.88,-0.02,28.35
6163,0.33,-0.0239,0.8577,-6.6,7.89,-0.05,28.36
6173,0.3302,-0.027,0.8638,-6.6,7.92,-0.05,28.37
6183,0.3282,-0.0243,0.8661,-6.61,7.86,-0.06,28.34
6193,0.3292,-0.0258,0.8629,-6.66,7.89,-0.02,28.33
6203,0.3265,-0.0272,0.8627,-6.66,7.92,0.0,28.35
6213,0.3296,-0.026,0.8627,-6.6,7.95,-0.06,28.35
6223,0.3269,-0.0267,0.8611,-6.55,7.97,-0.03,28.35
6233,0.3268,-0.0255,0.8635,-6.6,7.86,-0.06,28.34
6243,0.3285,-0.0267,0.8649,-6.6,7.94,-0.02,28.33
6253,0.3258,-0.0242,0.8623,-6.52,7.95,0.0,28.35
6263,0.3274,-0.0267,0.8612,-6.6,7.88,-0.03,28.36
6273,0.3279,-0.0262,0.8624,-6.66,7.89,0.02,28.36
6283,0.327,-0.0265,0.8632,-6.66,7.88,-0.06,28.35
6293,0.3279,-0.0222,0.861,-6.69,7.94,0.02,28.35
6303,0.3275,-0.024,0.8627,-6.6,7.88,-0.03,28.36
6313,0.3287,-0.0267,0.8601,-6.6,7.97,-0.05,28.34
6323,0.3284,-0.0244,0.8679,-6.56,7.94,-0.03,28.35
6333,0.3279,-0.0231,0.8662,-6.61,7.91,-0.05,28.34
6343,0.3298,-0.0253,0.8628,-6.63,7.85,-0.09,28.34
6353,0.3268,-0.0292,0.858,-6.66,7.83,-0.03,28.36
6363,0.3303,-0.025,0.855,-6.66,7.8,-0.05,28.36
6373,0.3282,-0.0245,0.8671,-6.61,7.91,-0.02,28.36
6383,0.3264,-0.0253,0.8641,-6.61,7.97,0.02,28.37
6393,0.3253,-0.0261,0.8645,-6.56,7.95,-0.15,28.37
6403,0.3311,-0.0231,0.8668,-6.58,7.89,-0.05,28.35
6413,0.3304,-0.0247,0.8666,-6.52,7.88,-0.09,28.36
6423,0.3273,-0.0228,0.8623,-6.64,7.95,-0.02,28.38
6433,0.324,-0.0291,0.8525,-6.63,7.73,0.0,28.39
6445,0.3259,-0.0248,0.8634,-6.38,7.86,0.29,28.37
6455,0.3284,-0.0233,0.864,-6.75,7.91,-0.08,28.39
6465,0.3286,-0.0203,0.871,-6.5,7.92,-0.05,28.37
6475,0.3346,-0.0283,0.8666,-6.7,7.85,-0.05,28.37
6485,0.3274,-0.0293,0.8666,-6.72,7.91,-0.03,28.36
6495,0.327,-0.0248,0.8568,-6.61,7.91,-0.03,28.37
6505,0.324,-0.026,0.8695,-6.64,7.97,-0.09,28.39
6515,0.3258,-0.0255,0.8657,-6.58,7.88,-0.06,28.38
6525,0.3271,-0.0204,0.8639,-6.53,7.89,-0.02,28.37
6535,0.3276,-0.0248,0.8646,-6.58,7.88,-0.05,28.37
6545,0.3275,-0.0237,0.8646,-6.69,7.92,-0.03,28.36
6555,0.3286,-0.025,0.8676,-6.61,8.0,-0.05,28.37
6565,0.3287,-0.0265,0.8625,-6.64,7.95,-0.12,28.39
6575,0.3287,-0.0262,0.8691,-6.55,7.89,-0.02,28.36
6585,0.3286,-0.0292,0.8633,-6.75,7.86,-0.06,28.34
6595,0.326,-0.0276,0.8605,-6.67,7.98,-0.06,28.37
6605,0.3287,-0.0271,0.8643,-6.52,7.94,-0.08,28.35
6615,0.3303,-0.0219,0.8694,-6.52,8.0,-0.08,28.38
6625,0.3289,-0.0256,0.855,-6.67,7.83,0.0,28.37
6635,0.3231,-0.0293,0.8571,-6.6,7.92,-0.03,28.37
6645,0.3291,-0.026,0.8589,-6.58,7.88,-0.02,28.34
6655,0.3267,-0.0269,0.8663,-6.52,7.97,0.0,28.35
6665,0.3286,-0.0284,0.8613,-6.61,8.0,-0.02,28.37
6675,0.3267,-0.0278,0.8638,-6.58,7.94,0.05,28.37
6685,0.3258,-0.0237,0.8672,-6.6,7.91,-0.02,28.35
6695,0.3275,-0.0239,0.8667,-6.63,8.0,-0.03,28.36
6705,0.3323,-0.0258,0.8573,-6.64,7.89,-0.03,28.37
6715,0.3303,-0.0264,0.8591,-6.55,7.94,-0.11,28.38
6725,0.3251,-0.0369,0.8754,-6.61,7.94,-0.02,28.38
6735,0.3359,-0.0239,0.8572,-6.69,7.62,-0.03,28.37
6745,0.3358,-0.0227,0.8634,-6.6,7.86,-0.06,28.37
6755,0.3289,-0.024,0.8602,-6.66,7.92,-0.06,28.37
6765,0.3279,-0.0269,0.8685,-6.6,7.97,-0.08,28.37
6775,0.3258,-0.0247,0.863,-6.69,8.02,-0.08,28.4
6785,0.3256,-0.0259,0.8665,-6.61,7.89,-0.05,28.39
6795,0.3295,-0.0248,0.864,-6.56,7.92,-0.05,28.39
6805,0.3252,-0.0245,0.8679,-6.58,8.0,-0.08,28.38
6815,0.3279,-0.026,0.8619,-6.61,7.88,-0.05,28.36
6825,0.3274,-0.0232,0.8656,-6.64,7.92,-0.03,28.39
6835,0.3306,-0.0228,0.8628,-6.55,7.77,-0.06,28.38
6845,0.3289,-0.0248,0.8643,-6.63,7.92,-0.06,28.39
6855,0.3319,-0.026,0.8615,-6.66,7.88,0.03,28.39
6865,0.3281,-0.0238,0.8579,-6.64,7.85,0.02,28.41
6875,0.3315,-0.0228,0.8654,-6.64,7.89,-0.05,28.36
6885,0.3328,-0.0278,0.8663,-6.56,7.92,-0.11,28.38
6895,0.337,-0.0266,0.8541,-6.49,7.71,-0.02,28.37
6905,0.332,-0.0249,0.8591,-6.66,7.66,-0.05,28.39
6915,0.3293,-0.0242,0.8669,-6.55,7.86,-0.05,28.39
6925,0.3357,-0.0261,0.8701,-6.64,7.92,0.06,28.37
6935,0.3293,-0.025,0.8665,-6.6,8.0,-0.06,28.37
6945,0.3245,-0.0248,0.8605,-6.61,8.0,-0.02,28.37
6956,0.329,-0.0273,0.8571,-6.56,7.86,-0.06,28.4
6966,0.3276,-0.0237,0.8639,-6.58,7.92,-0.05,28.42
6976,0.3308,-0.0232,0.8599,-6.61,7.8,-0.06,28.37
6986,0.3263,-0.0277,0.859,-6.61,7.86,-0.03,28.38
6996,0.3279,-0.0262,0.8683,-6.7,7.97,-0.05,28.38
7006,0.3297,-0.0238,0.8679,-6.55,7.92,-0.08,28.39
7016,0.3263,-0.027,0.8683,-6.63,7.91,-0.03,28.38
7026,0.332,-0.0316,0.8632,-6.55,7.98,0.03,28.39
7036,0.33,-0.0256,0.8676,-6.55,7.98,-0.06,28.4
7046,0.3246,-0.024,0.8607,-6.61,7.91,-0.05,28.36
7056,0.3276,-0.025,0.8633,-6.63,7.94,-0.02,28.41
7066,0.3267,-0.0238,0.8635,-6.61,7.95,0.03,28.4
7076,0.3324,-0.0232,0.8627,-6.63,7.92,0.02,28.39
7086,0.3276,-0.027,0.863,-6.58,7.89,-0.06,28.39
7096,0.3308,-0.0242,0.8619,-6.58,7.95,-0.05,28.4
7106,0.3292,-0.0256,0.8612,-6.66,7.92,-0.02,28.39
7116,0.3275,-0.0265,0.8602,-6.64,7.98,-0.02,28.38
7126,0.3253,-0.0258,0.858,-6.61,7.91,0.0,28.38
7136,0.3281,-0.0255,0.8632,-6.64,8.0,-0.05,28.4
7146,0.3281,-0.026,0.8632,-6.58,7.89,-0.09,28.41
7156,0.3271,-0.0233,0.8602,-6.6,7.91,-0.03,28.37
7166,0.3236,-0.0238,0.8632,-6.61,7.92,-0.05,28.41
7176,0.3303,-0.0232,0.8628,-6.63,7.89,0.02,28.38
7186,0.3273,-0.0253,0.8657,-6.58,7.95,-0.05,28.38
7196,0.3273,-0.0254,0.8665,-6.67,7.86,-0.05,28.41
7206,0.3264,-0.0259,0.8658,-6.58,7.92,0.0,28.39
7216,0.3281,-0.0275,0.863,-6.6,7.91,0.03,28.39
7226,0.3286,-0.022,0.8673,-6.67,7.95,0.05,28.39
7236,0.326,-0.025,0.8658,-6.6,7.94,-0.03,28.37
7246,0.3271,-0.028,0.8647,-6.56,7.98,-0.03,28.39
7256,0.3274,-0.0247,0.8652,-6.56,7.97,-0.09,28.36
7266,0.3285,-0.0236,0.8679,-6.61,7.85,-0.11,28.39
7276,0.3273,-0.0245,0.8658,-6.63,7.95,-0.14,28.38
7286,0.3258,-0.024,0.8623,-6.61,7.94,-0.05,28.39
7296,0.3259,-0.0262,0.8663,-6.61,7.94,-0.05,28.41
7306,0.3258,-0.0253,0.8596,-6.56,7.98,-0.06,28.39
7316,0.3276,-0.0256,0.8586,-6.69,7.92,-0.08,28.39
7326,0.33,-0.0273,0.8586,-6.61,7.98,0.0,28.36
7336,0.3276,-0.0238,0.8629,-6.61,7.95,-0.02,28.39
7346,0.33,-0.0254,0.8666,-6.61,7.85,-0.06,28.43
7358,0.3284,-0.0288,0.8683,-6.55,7.86,0.02,28.39
7368,0.3291,-0.0269,0.8682,-6.58,7.95,-0.09,28.41
7378,0.329,-0.025,0.868,-6.64,7.91,-0.03,28.42
7388,0.3291,-0.027,0.8636,-6.53,7.95,-0.03,28.41
7398,0.3282,-0.0259,0.8571,-6.69,7.95,-0.03,28.41
7408,0.3223,-0.0266,0.8636,-6.44,8.11,-0.05,28.39
7418,0.3301,-0.0238,0.861,-6.73,7.83,-0.03,28.38
7428,0.3258,-0.0238,0.8743,-6.67,7.65,-0.06,28.38
7438,0.3301,-0.0261,0.8613,-6.64,7.95,-0.05,28.4
7448,0.3306,-0.0242,0.8688,-6.56,7.86,-0.02,28.42
7458,0.3331,-0.0266,0.8624,-6.58,7.89,-0.02,28.41
7468,0.3254,-0.0272,0.873,-6.67,7.97,-0.02,28.39
7478,0.3295,-0.0314,0.8654,-6.7,8.08,-0.05,28.39
7488,0.33,-0.0321,0.8578,-6.63,7.98,-0.17,28.4
7498,0.3273,-0.0258,0.8607,-6.55,7.89,0.0,28.4
7508,0.3276,-0.026,0.859,-6.56,7.98,0.02,28.42
7518,0.3268,-0.0244,0.8615,-6.55,7.92,-0.02,28.41
7528,0.3287,-0.0253,0.8589,-6.56,7.86,-0.05,28.42
7538,0.3247,-0.0242,0.8654,-6.63,7.94,-0.06,28.39
7548,0.3276,-0.026,0.8687,-6.6,7.89,-0.02,28.42
7558,0.332,-0.0277,0.8656,-6.6,7.98,-0.06,28.41
7568,0.3307,-0.0267,0.8639,-6.6,7.94,-0.08,28.41
7579,0.3275,-0.0269,0.8652,-6.6,7.95,-0.05,28.4
7589,0.3281,-0.0286,0.8596,-6.58,8.02,-0.11,28.42
7599,0.3295,-0.0267,0.8632,-6.61,7.89,-0.11,28.39
7609,0.3274,-0.025,0.8629,-6.66,7.92,0.0,28.42
7619,0.322,-0.0249,0.8674,-6.6,7.95,-0.05,28.39
7629,0.324,-0.0206,0.87,-6.63,8.03,-0.08,28.42
7639,0.3209,-0.0226,0.8674,-6.56,8.11,-0.05,28.41
7649,0.3271,-0.0265,0.8628,-6.61,7.88,-0.02,28.41
7659,0.3307,-0.028,0.8685,-6.58,7.89,-0.06,28.41
7669,0.3279,-0.03,0.8683,-6.53,7.94,0.06,28.4
7679,0.3267,-0.0297,0.8651,-6.66,8.0,-0.05,28.41
7689,0.3291,-0.0258,0.8622,-6.64,7.85,0.03,28.42
7699,0.3257,-0.026,0.8586,-6.58,7.91,-0.03,28.4
7709,0.3279,-0.0232,0.8579,-6.63,7.91,-0.05,28.41
7719,0.3287,-0.0242,0.8615,-6.5,8.05,-0.02,28.39
7729,0.3287,-0.0208,0.8615,-6.66,7.83,-0.02,28.42
7739,0.324,-0.027,0.8657,-6.52,7.91,-0.06,28.42
7749,0.327,-0.0255,0.8666,-6.6,8.0,-0.09,28.42
7759,0.3218,-0.0251,0.8748,-6.61,8.03,-0.05,28.42
7769,0.3293,-0.0288,0.8695,-6.58,7.98,-0.09,28.42
7779,0.3271,-0.03,0.8595,-6.64,7.94,-0.03,28.4
7789,0.3278,-0.0253,0.8577,-6.58,7.86,-0.05,28.41
7799,0.3228,-0.0229,0.8608,-6.6,7.94,-0.06,28.42
7809,0.3252,-0.0249,0.8628,-6.63,7.91,-0.03,28.4
7819,0.3271,-0.0247,0.8668,-6.66,7.98,-0.03,28.4
7829,0.3289,-0.019,0.8676,-6.64,7.97,-0.03,28.42
7839,0.3271,-0.0249,0.8672,-6.58,7.95,-0.05,28.39
7849,0.3296,-0.0264,0.8672,-6.72,7.94,-0.05,28.42
7859,0.3289,-0.0271,0.8666,-6.64,7.97,-0.06,28.42
7869,0.3281,-0.0291,0.8621,-6.61,7.91,0.06,28.42
7879,0.3273,-0.0259,0.8585,-6.6,7.98,-0.05,28.41
7889,0.3292,-0.0256,0.855,-6.61,7.95,0.0,28.45
7899,0.3234,-0.0256,0.8625,-6.61,7.98,0.02,28.43
7909,0.326,-0.0219,0.8615,-6.63,7.94,0.02,28.39
7919,0.3245,-0.0222,0.8683,-6.61,8.0,0.03,28.4
7929,0.3286,-0.0222,0.8696,-6.61,7.92,-0.03,28.39
7939,0.3301,-0.0254,0.8618,-6.58,7.94,-0.08,28.42
7949,0.3285,-0.0256,0.8665,-6.63,7.91,-0.02,28.43
7959,0.3291,-0.0286,0.8667,-6.63,7.98,0.02,28.41
7969,0.3274,-0.0308,0.8579,-6.56,7.89,0.0,28.41
7979,0.3263,-0.028,0.8584,-6.58,7.95,0.0,28.42
7989,0.3284,-0.0247,0.858,-6.63,7.97,-0.08,28.42
7999,0.3242,-0.0248,0.863,-6.63,7.91,-0.05,28.41
8009,0.3281,-0.0231,0.8662,-6.66,7.91,-0.02,28.43
8019,0.3303,-0.0228,0.8643,-6.56,7.91,-0.06,28.43
8029,0.3285,-0.0228,0.8634,-6.6,7.89,-0.08,28.42
8039,0.3309,-0.025,0.8716,-6.58,7.97,-0.11,28.42
8049,0.3311,-0.0278,0.8665,-6.63,7.98,-0.11,28.41
8059,0.329,-0.0305,0.8646,-6.61,7.98,-0.09,28.43
8069,0.3308,-0.0302,0.8596,-6.7,7.92,-0.06,28.44
8079,0.3289,-0.0254,0.8561,-6.69,7.94,0.0,28.43
8089,0.3247,-0.0229,0.8589,-6.58,7.86,0.0,28.42
8099,0.3253,-0.0215,0.8596,-6.53,7.92,-0.02,28.41
8109,0.327,-0.0243,0.8625,-6.67,7.97,-0.06,28.41
8119,0.3303,-0.0244,0.8684,-6.63,7.94,-0.08,28.43
8129,0.3296,-0.0238,0.8634,-6.6,7.88,-0.12,28.41
8139,0.3291,-0.0288,0.8665,-6.67,7.97,-0.06,28.41
8149,0.3287,-0.0271,0.8657,-6.6,7.86,-0.08,28.41
8159,0.3295,-0.0286,0.8619,-6.5,7.92,-0.03,28.41
8169,0.3271,-0.0294,0.858,-6.58,7.86,-0.09,28.39
8179,0.3273,-0.0258,0.8607,-6.64,7.89,-0.03,28.42
8189,0.3278,-0.0222,0.8607,-6.55,7.92,0.0,28.42
8199,0.3276,-0.0251,0.8618,-6.69,7.95,0.03,28.43
8209,0.3259,-0.0249,0.8622,-6.66,7.91,0.0,28.39
8219,0.3306,-0.025,0.8658,-6.64,7.89,-0.09,28.4
8229,0.3284,-0.0234,0.8672,-6.63,7.89,-0.11,28.42
8239,0.3257,-0.0262,0.8617,-6.6,7.89,-0.06,28.43
8249,0.3323,-0.0278,0.8625,-6.55,7.92,0.02,28.45
8259,0.3276,-0.0278,0.8621,-6.66,7.97,-0.03,28.43
8269,0.3293,-0.0277,0.861,-6.61,7.94,-0.11,28.42
8279,0.3302,-0.0236,0.8628,-6.64,7.88,-0.03,28.43
8289,0.3267,-0.0245,0.8643,-6.53,7.88,-0.05,28.44
8299,0.3256,-0.0233,0.8647,-6.53,8.03,-0.02,28.45
8309,0.3274,-0.0259,0.8639,-6.6,7.97,-0.08,28.44
8319,0.3289,-0.0286,0.8649,-6.61,8.12,-0.08,28.43
8329,0.3306,-0.0309,0.8649,-6.61,7.88,-0.09,28.41
8339,0.3326,-0.0334,0.8682,-6.53,7.82,-0.02,28.41
8349,0.3312,-0.0231,0.8656,-6.63,7.97,-0.02,28.42
8359,0.3234,-0.0184,0.8597,-6.6,8.05,-0.05,28.42
8369,0.3225,-0.0182,0.8544,-6.56,7.94,0.0,28.44
8379,0.3252,-0.0187,0.8546,-6.63,7.8,-0.02,28.44
8389,0.3231,-0.0245,0.8611,-6.64,7.83,-0.06,28.44
8399,0.3289,-0.0244,0.8635,-6.63,7.92,-0.02,28.42
8409,0.3287,-0.0204,0.8601,-6.72,7.89,-0.09,28.42
8419,0.3311,-0.0321,0.871,-6.63,7.86,-0.05,28.42
8429,0.33,-0.0356,0.8733,-6.64,7.92,-0.03,28.42
8439,0.3335,-0.0265,0.8698,-6.56,7.94,0.05,28.44
8449,0.3282,-0.0293,0.8685,-6.66,7.92,-0.06,28.41
8459,0.3243,-0.0308,0.8632,-6.67,7.98,0.0,28.44
8469,0.3278,-0.0264,0.865,-6.61,7.97,-0.05,28.43
8479,0.3245,-0.0226,0.8594,-6.61,7.94,-0.03,28.41
8490,0.3269,-0.0212,0.8577,-6.66,7.85,-0.12,28.44
8500,0.3264,-0.0228,0.861,-6.63,7.91,-0.02,28.42
8510,0.3265,-0.026,0.8611,-6.56,7.95,-0.08,28.41
8520,0.3308,-0.0244,0.8623,-6.66,7.89,-0.11,28.42
8530,0.3339,-0.0281,0.8685,-6.66,7.89,0.0,28.4
8540,0.3389,-0.0272,0.861,-6.53,7.86,-0.09,28.42
8550,0.3247,-0.0306,0.8739,-6.6,8.09,-0.06,28.42
8560,0.323,-0.0247,0.8663,-6.72,7.98,-0.08,28.44
8570,0.3191,-0.0258,0.8743,-6.44,7.94,-0.03,28.42
8581,0.332,-0.0187,0.863,-6.37,8.05,-0.05,28.42
8591,0.333,-0.0231,0.8647,-6.75,7.91,-0.02,28.44
8601,0.3248,-0.0288,0.8627,-6.63,8.0,-0.06,28.44
8611,0.3259,-0.0267,0.8657,-6.64,7.83,-0.05,28.44
8621,0.3293,-0.0264,0.8644,-6.58,7.89,-0.06,28.45
8631,0.3257,-0.0249,0.8652,-6.61,8.03,0.0,28.44
8641,0.3263,-0.0282,0.8608,-6.67,7.94,-0.03,28.43
8651,0.3256,-0.0266,0.8622,-6.61,7.85,-0.05,28.45
8661,0.3292,-0.0221,0.8669,-6.58,7.98,-0.03,28.46
8671,0.3295,-0.0217,0.8702,-6.6,8.0,-0.12,28.45
8681,0.3274,-0.0272,0.8652,-6.58,7.98,-0.02,28.43
8691,0.3287,-0.0275,0.8639,-6.63,7.88,-0.06,28.44
8701,0.3317,-0.0229,0.8644,-6.63,7.91,-0.03,28.43
8711,0.3296,-0.0265,0.8608,-6.58,7.94,0.05,28.44
8721,0.3273,-0.0247,0.8645,-6.6,7.89,-0.05,28.44
8731,0.3279,-0.0259,0.863,-6.64,7.92,-0.06,28.45
8741,0.3282,-0.0272,0.8621,-6.63,7.97,0.0,28.45
8751,0.3292,-0.0281,0.8602,-6.56,7.97,-0.05,28.46
8761,0.3291,-0.0258,0.8605,-6.61,7.98,-0.03,28.44
8771,0.329,-0.0276,0.866,-6.63,7.97,-0.03,28.44
8781,0.3264,-0.0253,0.8633,-6.58,7.94,-0.11,28.43
8791,0.3263,-0.0283,0.8673,-6.6,7.97,-0.02,28.45
8801,0.3297,-0.0245,0.865,-6.58,7.91,-0.06,28.47
8811,0.3251,-0.0251,0.8663,-6.49,7.85,-0.06,28.44
8821,0.3256,-0.0269,0.8647,-6.56,7.97,-0.08,28.43
8831,0.3276,-0.0233,0.8634,-6.61,8.03,-0.09,28.45
8841,0.3268,-0.0251,0.861,-6.55,7.97,0.03,28.44
8851,0.328,-0.0275,0.8635,-6.64,7.91,-0.03,28.44
8861,0.328,-0.0258,0.8652,-6.64,7.89,0.02,28.44
8871,0.3292,-0.026,0.8665,-6.6,8.0,-0.02,28.45
8881,0.3292,-0.0225,0.8695,-6.6,7.89,-0.08,28.44
8891,0.3286,-0.0253,0.8635,-6.61,7.94,-0.03,28.44
8901,0.3297,-0.025,0.8644,-6.66,7.92,-0.03,28.43
8911,0.3273,-0.025,0.864,-6.61,7.91,-0.03,28.46
8921,0.3285,-0.0242,0.8605,-6.53,7.98,0.02,28.45
8931,0.3276,-0.0275,0.8629,-6.56,7.89,0.0,28.46
8941,0.3274,-0.0271,0.8638,-6.66,7.85,-0.03,28.44
8951,0.3282,-0.0253,0.8669,-6.6,8.02,0.03,28.45
8961,0.3273,-0.0238,0.8688,-6.64,7.98,-0.02,28.46
8971,0.3293,-0.0253,0.8635,-6.6,7.92,-0.06,28.46
8981,0.3275,-0.03,0.8641,-6.69,7.94,0.05,28.43
8991,0.3287,-0.0264,0.8646,-6.63,7.95,-0.09,28.46
9001,0.3273,-0.0253,0.8645,-6.58,7.98,-0.05,28.45
9011,0.3263,-0.0288,0.8594,-6.53,7.91,-0.05,28.45
9021,0.3237,-0.0255,0.8602,-6.64,7.98,-0.03,28.44
9031,0.3265,-0.0255,0.8612,-6.64,7.92,-0.08,28.44
9041,0.3295,-0.0227,0.8634,-6.63,7.98,-0.02,28.46
9051,0.3289,-0.0256,0.8624,-6.61,7.92,0.0,28.44
9061,0.3308,-0.0287,0.8628,-6.58,7.95,-0.03,28.44
9071,0.3304,-0.0273,0.8629,-6.64,7.89,-0.11,28.44
9081,0.329,-0.0292,0.8602,-6.55,7.95,-0.06,28.48
9091,0.327,-0.0305,0.8606,-6.6,7.91,-0.05,28.46
9101,0.327,-0.0238,0.8654,-6.58,7.91,-0.06,28.46
9111,0.3306,-0.0267,0.865,-6.58,7.95,-0.03,28.44
9121,0.3298,-0.0221,0.8639,-6.73,7.98,-0.02,28.43
9131,0.3281,-0.0232,0.8672,-6.67,7.92,-0.05,28.43
9141,0.3302,-0.0269,0.8605,-6.53,7.91,-0.06,28.45
9151,0.3285,-0.0242,0.8641,-6.66,7.95,-0.06,28.46
9161,0.3285,-0.0264,0.8651,-6.61,7.94,-0.09,28.44
9171,0.3292,-0.027,0.8596,-6.61,7.88,-0.06,28.47
9181,0.3262,-0.027,0.8589,-6.66,7.89,-0.02,28.47
9191,0.3274,-0.0276,0.8652,-6.64,7.94,-0.06,28.46
9201,0.3291,-0.0264,0.8651,-6.56,8.0,-0.06,28.45
9211,0.3282,-0.0251,0.8623,-6.55,7.95,-0.05,28.44
9221,0.327,-0.0244,0.8612,-6.61,7.98,-0.08,28.46
9231,0.3264,-0.0233,0.8667,-6.63,7.97,-0.03,28.46
9241,0.3273,-0.0249,0.8616,-6.66,7.95,-0.05,28.45
9251,0.327,-0.0284,0.865,-6.66,7.94,-0.02,28.47
9261,0.3265,-0.0293,0.8649,-6.55,7.97,0.06,28.47
9271,0.3286,-0.0272,0.8594,-6.69,7.94,0.06,28.48
9281,0.3281,-0.0265,0.8621,-6.63,7.94,-0.02,28.44
9291,0.3271,-0.0292,0.8624,-6.61,7.88,-0.11,28.43
9301,0.3282,-0.0291,0.8633,-6.67,7.97,0.03,28.46
9311,0.3293,-0.0248,0.8605,-6.63,7.94,0.05,28.46
9321,0.3285,-0.0231,0.8639,-6.6,8.0,0.08,28.46
9331,0.3281,-0.0212,0.8638,-6.6,7.94,-0.02,28.45
9341,0.329,-0.026,0.8618,-6.66,7.97,-0.05,28.48
9351,0.3236,-0.0245,0.8656,-6.64,7.97,-0.06,28.48
9361,0.3262,-0.0259,0.8594,-6.73,7.92,-0.02,28.47
9371,0.3282,-0.0294,0.8613,-6.61,7.98,-0.09,28.45
9381,0.3265,-0.0271,0.8616,-6.61,7.94,-0.05,28.47
9391,0.3271,-0.0266,0.866,-6.67,7.92,0.0,28.47
9401,0.3285,-0.0233,0.8622,-6.6,7.92,-0.11,28.45
9411,0.3271,-0.0253,0.8651,-6.64,7.88,-0.11,28.44
9421,0.3274,-0.0262,0.8639,-6.66,7.98,-0.06,28.47
9431,0.3297,-0.021,0.8622,-6.6,7.94,-0.02,28.48
9441,0.3276,-0.0272,0.864,-6.6,7.92,-0.06,28.47
9451,0.328,-0.0253,0.8665,-6.63,7.97,0.0,28.45
9461,0.3306,-0.0265,0.8673,-6.6,7.95,0.03,28.46
9471,0.3282,-0.0286,0.8651,-6.72,7.95,-0.08,28.47
9481,0.3313,-0.0264,0.8584,-6.7,7.95,0.0,28.46
9491,0.3287,-0.0249,0.8663,-6.63,7.92,-0.06,28.46
9501,0.3296,-0.0269,0.864,-6.67,7.92,-0.09,28.47
9512,0.3284,-0.024,0.8633,-6.64,7.88,-0.03,28.45
9522,0.3276,-0.0239,0.86,-6.58,8.05,-0.06,28.45
9532,0.3268,-0.0226,0.8652,-6.6,7.94,-0.08,28.47
9542,0.3275,-0.0232,0.8601,-6.64,7.92,-0.06,28.45
9552,0.3253,-0.0255,0.865,-6.55,7.94,-0.08,28.47
9562,0.3279,-0.0258,0.8623,-6.67,8.08,-0.05,28.46
9572,0.3291,-0.0289,0.8624,-6.67,7.98,-0.05,28.45
9582,0.3265,-0.0353,0.8661,-6.64,7.86,0.03,28.45
9592,0.3282,-0.0288,0.8636,-6.61,8.08,-0.02,28.45
9602,0.3258,-0.0261,0.8602,-6.64,8.02,0.03,28.47
9612,0.3258,-0.0238,0.8651,-6.5,7.73,-0.05,28.49
9622,0.3278,-0.0201,0.8705,-6.56,7.97,-0.08,28.48
9632,0.3284,-0.0205,0.8656,-6.61,7.97,-0.09,28.46
9643,0.3267,-0.022,0.8622,-6.64,7.86,0.02,28.49
9653,0.3273,-0.0281,0.8639,-6.61,7.82,-0.03,28.49
9663,0.3335,-0.0264,0.8683,-6.56,7.86,-0.03,28.49
9673,0.3268,-0.0294,0.8602,-6.63,7.98,-0.06,28.49
9683,0.3274,-0.0309,0.8597,-6.56,7.91,-0.05,28.45
9693,0.3274,-0.0287,0.864,-6.55,7.82,-0.05,28.44
9703,0.3323,-0.0273,0.8688,-6.6,7.91,-0.05,28.46
9713,0.3254,-0.0273,0.861,-6.53,7.94,-0.02,28.47
9723,0.324,-0.0277,0.8665,-6.58,7.83,-0.08,28.48
9733,0.3267,-0.0251,0.8621,-6.52,7.89,-0.06,28.47
9743,0.3269,-0.0232,0.8654,-6.63,7.91,-0.06,28.47
9753,0.3246,-0.0233,0.8611,-6.67,7.95,-0.06,28.45
9763,0.3274,-0.024,0.8615,-6.58,7.97,-0.03,28.47
9773,0.3295,-0.0265,0.8594,-6.64,7.88,0.03,28.48
9783,0.3315,-0.0249,0.8632,-6.72,7.85,0.03,28.46
9793,0.3296,-0.0271,0.864,-6.58,7.92,0.0,28.48
9803,0.3292,-0.0258,0.8616,-6.63,7.95,0.0,28.47
9813,0.328,-0.0277,0.8649,-6.67,7.94,-0.06,28.47
9823,0.3302,-0.0231,0.8644,-6.63,7.92,-0.05,28.47
9833,0.33,-0.0254,0.8676,-6.63,7.92,-0.09,28.46
9843,0.3271,-0.0247,0.8641,-6.69,7.92,-0.02,28.47
9853,0.3262,-0.0277,0.8612,-6.64,7.86,-0.05,28.48
9863,0.3301,-0.0232,0.8632,-6.5,7.92,-0.02,28.47
9873,0.3287,-0.0293,0.8661,-6.6,7.82,-0.11,28.46
9883,0.3287,-0.0275,0.8645,-6.64,7.92,-0.09,28.43
9893,0.3267,-0.0251,0.8649,-6.61,7.92,-0.03,28.47
9903,0.3312,-0.0217,0.8673,-6.61,8.29,0.02,28.46
9913,0.3257,-0.0278,0.8625,-6.67,8.17,0.0,28.45
9923,0.3236,-0.0258,0.8556,-6.55,7.85,0.0,28.49
9933,0.3301,-0.0226,0.8661,-6.63,7.73,0.05,28.44
9943,0.3281,-0.0204,0.864,-6.7,8.0,-0.08,28.47
9953,0.3282,-0.0243,0.8634,-6.66,7.98,-0.02,28.47
9963,0.3285,-0.0297,0.861,-6.67,7.86,-0.08,28.47
9973,0.3287,-0.0266,0.8644,-6.63,7.94,-0.08,28.45
9983,0.3298,-0.0295,0.8652,-6.58,8.0,-0.02,28.47
9993,0.3286,-0.0293,0.8657,-6.6,7.85,-0.08,28.46
10003,0.3265,-0.0277,0.8607,-6.7,7.97,-0.05,28.45
10013,0.3267,-0.0245,0.8646,-6.61,7.88,0.0,28.48
10023,0.3287,-0.0223,0.8627,-6.55,7.91,-0.05,28.47
10033,0.3257,-0.0231,0.865,-6.66,7.91,0.02,28.48
10043,0.3262,-0.0236,0.8585,-6.58,8.0,-0.05,28.46
10053,0.3282,-0.0247,0.86,-6.66,7.85,-0.05,28.45
10063,0.3254,-0.0271,0.8618,-6.72,7.95,-0.09,28.5
10073,0.3309,-0.0286,0.8644,-6.67,7.98,-0.02,28.49
10083,0.3282,-0.0271,0.8616,-6.67,7.94,-0.02,28.47
10093,0.3275,-0.0282,0.8677,-6.61,7.95,-0.09,28.47
10103,0.3281,-0.0259,0.8669,-6.64,7.91,0.0,28.49
10113,0.328,-0.027,0.8646,-6.67,7.98,-0.06,28.45
10123,0.3264,-0.0244,0.8604,-6.55,7.94,-0.08,28.48
10133,0.3317,-0.0225,0.8615,-6.69,7.92,-0.05,28.47
10143,0.3287,-0.0277,0.8638,-6.58,7.92,-0.03,28.5
10153,0.3268,-0.0229,0.8687,-6.66,7.89,-0.03,28.47
10163,0.3275,-0.0214,0.8654,-6.63,7.92,0.05,28.48
10173,0.3298,-0.0306,0.8655,-6.53,7.98,-0.05,28.48
10183,0.3323,-0.0293,0.8661,-6.56,7.92,-0.09,28.48
10193,0.3335,-0.0245,0.8644,-6.63,7.91,0.06,28.49
10203,0.326,-0.0291,0.8639,-6.66,7.98,-0.02,28.48
10213,0.3264,-0.0281,0.864,-6.61,7.95,0.0,28.47
10223,0.3265,-0.0227,0.8619,-6.53,7.91,-0.02,28.49
10233,0.3265,-0.022,0.8638,-6.63,7.94,0.02,28.48
10243,0.3256,-0.025,0.8617,-6.55,7.94,-0.06,28.5
10253,0.3268,-0.0253,0.8617,-6.6,7.94,-0.03,28.48
10263,0.3296,-0.0275,0.8646,-6.66,7.94,-0.08,28.48
10273,0.3281,-0.0283,0.8646,-6.58,7.88,0.02,28.49
10283,0.3278,-0.0284,0.8628,-6.49,7.91,-0.12,28.47
10293,0.3285,-0.0289,0.863,-6.58,7.95,-0.06,28.47
10303,0.3303,-0.0262,0.8619,-6.64,7.98,-0.12,28.5
10313,0.3296,-0.0261,0.8616,-6.6,7.94,-0.05,28.5
10323,0.3264,-0.0275,0.8633,-6.56,7.92,-0.03,28.49
10333,0.3273,-0.0249,0.8622,-6.64,7.98,-0.06,28.51
10343,0.3302,-0.0245,0.865,-6.67,7.94,-0.02,28.49
10353,0.3289,-0.0286,0.861,-6.73,7.89,-0.06,28.5
10363,0.3303,-0.0244,0.8662,-6.64,7.91,-0.08,28.47
10373,0.3284,-0.0269,0.8619,-6.67,7.92,-0.05,28.47
10383,0.3273,-0.0258,0.8616,-6.6,8.0,-0.05,28.48
10393,0.3276,-0.0251,0.8652,-6.56,7.92,0.0,28.47
10403,0.328,-0.0271,0.8628,-6.61,7.92,-0.05,28.47
10413,0.328,-0.0265,0.8617,-6.63,7.92,-0.02,28.5
10423,0.3295,-0.0271,0.8657,-6.69,7.94,0.02,28.5
10433,0.3287,-0.027,0.869,-6.56,7.88,-0.06,28.48
10443,0.3281,-0.0262,0.863,-6.63,8.17,-0.02,28.48
10453,0.3265,-0.0302,0.858,-6.58,7.85,-0.12,28.5
10463,0.3263,-0.027,0.8641,-6.67,7.79,-0.02,28.49
10473,0.3292,-0.0195,0.8716,-6.66,7.95,-0.02,28.48
10483,0.3276,-0.0232,0.864,-6.67,8.02,-0.12,28.47
10493,0.3274,-0.0271,0.8591,-6.6,7.95,0.0,28.47
10503,0.3298,-0.0284,0.8638,-6.55,7.85,-0.03,28.49
10513,0.3296,-0.0258,0.8677,-6.73,7.91,-0.02,28.48
10523,0.3296,-0.0261,0.866,-6.6,7.98,-0.06,28.47
10533,0.3289,-0.0277,0.8605,-6.67,7.95,0.0,28.46
10543,0.3298,-0.0244,0.8647,-6.66,7.86,0.02,28.5
10553,0.3302,-0.0232,0.8694,-6.7,7.94,-0.03,28.47
10563,0.3296,-0.0254,0.864,-6.58,8.03,-0.05,28.49
10573,0.3256,-0.0276,0.8601,-6.61,7.98,0.0,28.48
10583,0.3264,-0.022,0.8657,-6.61,7.86,-0.05,28.48
10593,0.3245,-0.0256,0.8647,-6.55,7.95,-0.03,28.49
10603,0.326,-0.0254,0.8621,-6.6,7.94,-0.09,28.48
10613,0.3257,-0.028,0.8661,-6.6,7.88,-0.08,28.47
10623,0.3274,-0.0271,0.8623,-6.72,7.91,-0.06,28.51
10633,0.3276,-0.0305,0.8634,-6.67,7.91,-0.09,28.48
10643,0.3298,-0.0237,0.8623,-6.63,7.91,-0.12,28.48
10653,0.3293,-0.0264,0.8607,-6.7,7.85,-0.12,28.48
10663,0.3271,-0.0294,0.8628,-6.64,7.79,-0.09,28.48
10673,0.3285,-0.0201,0.8748,-6.6,7.98,-0.14,28.46
10683,0.3309,-0.0242,0.864,-6.66,7.98,-0.12,28.47
10693,0.3274,-0.0292,0.8575,-6.63,7.95,-0.05,28.47
10703,0.3297,-0.0223,0.8658,-6.67,7.88,-0.12,28.47
10713,0.3322,-0.0229,0.8673,-6.58,7.98,-0.06,28.49
10723,0.3297,-0.0239,0.8636,-6.64,7.95,-0.08,28.49
10734,0.3307,-0.0212,0.8585,-6.56,8.0,0.02,28.49
10744,0.3334,-0.0244,0.8615,-6.73,7.89,-0.06,28.48
10754,0.333,-0.0255,0.8661,-6.67,7.91,-0.05,28.52
10764,0.33,-0.0256,0.8623,-6.61,7.98,-0.06,28.49
10774,0.3318,-0.0289,0.8699,-6.61,7.98,-0.06,28.49
10784,0.3291,-0.025,0.8647,-6.67,7.98,-0.05,28.51
10794,0.3289,-0.0273,0.8635,-6.61,7.95,0.02,28.51
10804,0.3303,-0.0273,0.8612,-6.56,7.97,0.0,28.48
10814,0.3267,-0.0272,0.8654,-6.56,8.0,0.05,28.49
10824,0.3269,-0.0248,0.8574,-6.56,7.91,0.0,28.5
10834,0.3274,-0.0258,0.8633,-6.64,7.95,-0.06,28.51
10844,0.3247,-0.0269,0.8661,-6.63,7.92,0.02,28.48
10854,0.3307,-0.025,0.8622,-6.61,7.95,0.03,28.48
10864,0.3265,-0.0239,0.8662,-6.61,7.89,-0.02,28.47
10874,0.3263,-0.027,0.8606,-6.63,7.89,0.03,28.5
10884,0.3306,-0.0256,0.8662,-6.7,7.94,0.05,28.49
10894,0.3252,-0.025,0.8636,-6.69,7.95,0.0,28.49
10904,0.326,-0.0286,0.8621,-6.61,7.94,-0.02,28.48
10914,0.325,-0.0258,0.8644,-6.55,7.98,-0.05,28.5
10924,0.325,-0.0258,0.8683,-6.61,8.0,0.0,28.52
10934,0.3218,-0.0234,0.8584,-6.64,7.97,-0.06,28.51
10944,0.3267,-0.0253,0.8608,-6.6,7.74,0.03,28.5
10954,0.3285,-0.0273,0.8616,-6.67,8.0,-0.03,28.5
10964,0.3267,-0.0281,0.8668,-6.7,8.03,-0.02,28.49
10974,0.3276,-0.0284,0.8641,-6.53,8.0,-0.12,28.49
10984,0.3285,-0.0275,0.869,-6.56,7.8,-0.11,28.49
10994,0.3306,-0.0254,0.8674,-6.61,7.95,-0.06,28.51
11004,0.3287,-0.0249,0.8647,-6.67,7.97,-0.06,28.49
11014,0.328,-0.0262,0.8623,-6.7,7.91,-0.08,28.5
11024,0.3291,-0.0249,0.8628,-6.6,7.91,-0.03,28.5
11034,0.3276,-0.0229,0.8579,-6.64,7.94,-0.09,28.51
11044,0.3269,-0.0232,0.8578,-6.63,7.97,-0.12,28.51
11054,0.3271,-0.0249,0.8627,-6.69,7.97,0.0,28.49
11064,0.3258,-0.025,0.8645,-6.66,7.94,-0.03,28.49
11074,0.3298,-0.0247,0.8691,-6.58,7.92,-0.03,28.49
11084,0.3287,-0.0293,0.8682,-6.58,8.02,-0.03,28.49
11094,0.3291,-0.0302,0.8651,-6.66,7.98,-0.02,28.51
11104,0.3292,-0.0289,0.8665,-6.64,7.92,-0.02,28.51
11114,0.3264,-0.0276,0.8639,-6.67,7.94,-0.08,28.51
11124,0.3284,-0.0261,0.8579,-6.67,7.95,-0.05,28.51
11134,0.3273,-0.0284,0.859,-6.61,7.88,-0.06,28.52
11144,0.3258,-0.0239,0.8645,-6.58,7.89,-0.05,28.53
11154,0.3258,-0.0236,0.8682,-6.63,7.88,-0.05,28.52
11164,0.327,-0.0221,0.8658,-6.63,7.86,0.0,28.53
11174,0.3279,-0.0223,0.8652,-6.67,7.91,-0.09,28.51
11184,0.3284,-0.0265,0.8668,-6.67,7.91,-0.02,28.5
11194,0.3282,-0.0264,0.8707,-6.56,7.95,-0.11,28.53
11204,0.3297,-0.028,0.8666,-6.67,7.94,0.0,28.51
11214,0.3303,-0.0291,0.8638,-6.67,8.02,0.0,28.52
11224,0.3267,-0.0259,0.8605,-6.69,7.88,-0.02,28.49
11234,0.3262,-0.0271,0.8591,-6.6,7.91,0.02,28.5
11244,0.3254,-0.0251,0.863,-6.6,7.98,0.0,28.53
11254,0.3302,-0.0255,0.8639,-6.61,7.97,0.02,28.51
11264,0.3306,-0.0219,0.8647,-6.66,7.88,0.06,28.51
11274,0.3278,-0.0251,0.8663,-6.63,7.89,-0.02,28.5
11284,0.3306,-0.0264,0.8677,-6.56,7.91,-0.14,28.52
11294,0.3262,-0.0277,0.8668,-6.56,7.94,-0.09,28.52
11304,0.3254,-0.0248,0.8646,-6.61,7.97,-0.02,28.51
11314,0.3262,-0.028,0.8638,-6.58,7.98,-0.02,28.5
11324,0.3303,-0.0321,0.8628,-6.67,8.0,0.0,28.51
11334,0.325,-0.0253,0.8558,-6.46,7.88,-0.02,28.51
11344,0.3252,-0.021,0.8621,-6.61,7.92,0.02,28.52
11354,0.3267,-0.026,0.8607,-6.66,7.88,-0.03,28.53
11364,0.3253,-0.0242,0.8638,-6.61,7.88,-0.09,28.51
11374,0.3298,-0.0226,0.8688,-6.64,7.89,-0.11,28.54
11384,0.3301,-0.0248,0.8688,-6.66,7.97,-0.12,28.52
11394,0.3303,-0.0295,0.8674,-6.63,7.92,-0.03,28.5
11404,0.3314,-0.0294,0.8662,-6.63,7.95,0.03,28.53
11414,0.3292,-0.0256,0.8656,-6.61,7.97,0.02,28.53
11424,0.3259,-0.0277,0.861,-6.58,7.92,-0.08,28.49
11434,0.3243,-0.0255,0.8618,-6.56,7.98,-0.06,28.49
11444,0.321,-0.0209,0.8566,-6.66,7.94,-0.05,28.51
11454,0.3236,-0.0236,0.8574,-6.66,7.95,0.05,28.51
11464,0.3258,-0.0221,0.8651,-6.66,7.89,-0.03,28.51
11474,0.3282,-0.0271,0.8657,-6.63,7.92,-0.06,28.52
11484,0.3276,-0.0233,0.8685,-6.61,7.98,-0.12,28.52
11494,0.3325,-0.0272,0.8683,-6.63,7.88,0.0,28.52
11504,0.3304,-0.0308,0.8694,-6.7,7.97,-0.05,28.52
11514,0.3276,-0.0269,0.8655,-6.63,8.0,-0.11,28.52
11524,0.3271,-0.0272,0.861,-6.6,7.97,-0.03,28.52
11534,0.3245,-0.0256,0.8589,-6.66,7.92,0.0,28.52
11544,0.3267,-0.0222,0.8613,-6.61,7.92,-0.05,28.51
11554,0.3258,-0.0211,0.8606,-6.75,7.97,-0.05,28.53
11564,0.3265,-0.0212,0.8605,-6.67,7.97,-0.02,28.5
11574,0.3258,-0.0262,0.8666,-6.67,7.91,-0.05,28.51
11584,0.3314,-0.0266,0.8669,-6.63,7.94,-0.08,28.5
11594,0.3317,-0.0302,0.8668,-6.56,7.98,-0.08,28.51
11604,0.3301,-0.0306,0.8688,-6.55,7.97,-0.08,28.52
11614,0.3298,-0.032,0.8651,-6.63,8.0,-0.11,28.52
11624,0.3257,-0.0283,0.8624,-6.69,7.94,0.0,28.51
11634,0.3235,-0.0226,0.8635,-6.55,7.92,0.06,28.52
11644,0.3258,-0.0242,0.8629,-6.6,7.92,-0.09,28.51
11654,0.3269,-0.0205,0.8586,-6.63,7.89,-0.05,28.53
11664,0.3254,-0.0217,0.8629,-6.63,7.92,-0.11,28.5
11674,0.3306,-0.0255,0.864,-6.66,7.92,0.0,28.51
11684,0.3306,-0.0278,0.8647,-6.67,7.88,-0.06,28.54
11695,0.3303,-0.0303,0.8663,-6.58,7.95,-0.08,28.52
11705,0.329,-0.0311,0.8633,-6.72,8.0,-0.05,28.51
11715,0.3291,-0.0286,0.8669,-6.67,7.91,0.0,28.5
11725,0.3285,-0.0295,0.8649,-6.58,7.98,0.02,28.51
11735,0.3245,-0.0234,0.8673,-6.61,7.92,0.03,28.52
11745,0.3237,-0.02,0.8601,-6.6,7.98,-0.08,28.51
11755,0.3276,-0.0253,0.8636,-6.67,7.98,-0.11,28.52
11765,0.3274,-0.0222,0.8604,-6.63,7.92,-0.02,28.51
11775,0.3262,-0.0258,0.8608,-6.66,7.94,-0.08,28.52
11785,0.3286,-0.0247,0.8651,-6.64,7.97,-0.06,28.5
11795,0.3303,-0.0284,0.8667,-6.64,7.98,-0.06,28.51
11805,0.3289,-0.0295,0.8649,-6.64,7.92,0.0,28.53
11815,0.3284,-0.0273,0.8643,-6.6,7.97,-0.09,28.53
11825,0.3281,-0.0239,0.8613,-6.63,7.97,-0.06,28.5
11835,0.3248,-0.0256,0.8672,-6.61,7.97,-0.08,28.53
11845,0.3262,-0.0223,0.8619,-6.64,7.97,-0.08,28.52
11855,0.3285,-0.0221,0.8633,-6.61,7.82,-0.09,28.52
11865,0.3281,-0.0221,0.8645,-6.66,7.97,0.0,28.51
11875,0.3276,-0.0264,0.8645,-6.61,7.88,-0.03,28.53
11885,0.3287,-0.0271,0.8654,-6.63,7.95,-0.02,28.53
11895,0.329,-0.0282,0.8617,-6.53,7.89,-0.06,28.5
11905,0.3298,-0.0269,0.8649,-6.55,7.85,0.03,28.53
11915,0.3279,-0.0292,0.8693,-6.55,7.94,-0.12,28.52
11925,0.3303,-0.0266,0.8645,-6.63,7.95,0.02,28.52
11935,0.3273,-0.0262,0.8625,-6.56,8.02,0.03,28.51
11945,0.3269,-0.0236,0.8625,-6.55,7.92,0.02,28.51
11955,0.3298,-0.0223,0.8617,-6.67,7.89,0.06,28.52
11965,0.3273,-0.0215,0.8633,-6.6,8.0,-0.08,28.52
11975,0.3269,-0.0251,0.8612,-6.61,8.0,-0.08,28.51
11985,0.3281,-0.0248,0.8638,-6.55,7.98,0.02,28.52
11995,0.3308,-0.0242,0.864,-6.64,7.97,-0.05,28.5
12005,0.3291,-0.0295,0.8668,-6.63,7.95,-0.06,28.49
12015,0.3286,-0.028,0.8676,-6.7,7.95,-0.03,28.49
12025,0.3279,-0.0258,0.8641,-6.61,7.98,-0.06,28.54
12035,0.3257,-0.0245,0.8607,-6.66,7.97,0.02,28.55
12045,0.3265,-0.0261,0.8619,-6.6,8.02,0.02,28.52
12055,0.3295,-0.0249,0.8629,-6.67,8.02,-0.03,28.51
12065,0.3275,-0.0242,0.8629,-6.67,7.98,-0.05,28.51
12075,0.3278,-0.0243,0.8623,-6.58,7.88,-0.02,28.52
12085,0.3239,-0.0254,0.8621,-6.6,7.94,-0.14,28.53
12095,0.3307,-0.0276,0.8662,-6.58,7.97,-0.09,28.53
12105,0.3296,-0.0271,0.8644,-6.6,7.98,-0.09,28.53
12115,0.3296,-0.0305,0.8721,-6.7,7.92,-0.02,28.53
12125,0.3291,-0.0278,0.866,-6.66,7.95,0.0,28.54
12135,0.3282,-0.0306,0.8619,-6.64,7.97,-0.11,28.5
12145,0.3279,-0.0314,0.8638,-6.64,7.98,-0.02,28.51
12155,0.3274,-0.0229,0.8624,-6.61,7.94,-0.02,28.52
12165,0.3285,-0.0259,0.8582,-6.56,7.98,-0.06,28.52
12175,0.3284,-0.0249,0.8639,-6.63,7.88,-0.02,28.53
12185,0.3243,-0.0245,0.8612,-6.58,8.0,0.0,28.53
12195,0.3292,-0.0264,0.8682,-6.64,7.92,-0.05,28.53
12205,0.3302,-0.0253,0.8663,-6.55,7.89,0.05,28.52
12215,0.3289,-0.0253,0.8639,-6.67,7.98,-0.05,28.51
12225,0.329,-0.0253,0.8638,-6.53,7.94,-0.02,28.52
12235,0.3309,-0.0273,0.866,-6.56,8.03,-0.11,28.51
12245,0.3267,-0.0273,0.8632,-6.63,7.91,-0.05,28.52
12255,0.329,-0.025,0.8639,-6.6,7.97,-0.05,28.5
12265,0.3259,-0.0244,0.8597,-6.61,7.94,0.03,28.51
12275,0.3284,-0.0254,0.8646,-6.69,7.95,-0.02,28.51
12285,0.3285,-0.0253,0.8652,-6.69,7.97,-0.02,28.51
12295,0.327,-0.0233,0.8634,-6.6,7.92,-0.08,28.52
12305,0.3276,-0.0267,0.8655,-6.61,7.95,-0.03,28.53
12315,0.3301,-0.0282,0.8684,-6.58,7.92,-0.08,28.53
12325,0.3285,-0.0286,0.8666,-6.58,7.92,-0.08,28.52
12335,0.3256,-0.027,0.8601,-6.6,7.95,-0.09,28.52
12345,0.3271,-0.0277,0.8623,-6.67,7.94,0.02,28.54
12355,0.3253,-0.0254,0.8617,-6.66,7.92,-0.08,28.52
12365,0.3302,-0.0244,0.8646,-6.63,7.95,-0.06,28.52
12375,0.3264,-0.0258,0.8594,-6.61,7.95,-0.02,28.52
12385,0.3289,-0.0266,0.8643,-6.58,7.97,0.0,28.52
12395,0.3285,-0.0256,0.864,-6.66,8.06,-0.02,28.52
12405,0.3285,-0.0289,0.8634,-6.78,7.95,-0.02,28.52
12415,0.3301,-0.0277,0.8641,-6.58,7.85,0.0,28.53
12425,0.3309,-0.0277,0.865,-6.6,7.89,-0.02,28.52
12435,0.3291,-0.0266,0.8615,-6.53,7.91,-0.03,28.52
12445,0.3258,-0.0249,0.8633,-6.6,7.91,0.05,28.51
12455,0.3243,-0.0253,0.8677,-6.64,7.88,-0.02,28.53
12465,0.3253,-0.0248,0.8623,-6.6,7.91,0.03,28.53
12475,0.3273,-0.0256,0.8645,-6.64,7.95,-0.11,28.54
12485,0.3259,-0.0227,0.8634,-6.63,7.95,-0.09,28.53
12495,0.326,-0.0275,0.8685,-6.69,7.97,0.0,28.54
12505,0.3291,-0.0282,0.8652,-6.63,7.94,-0.06,28.56
12515,0.3315,-0.0292,0.8652,-6.63,7.92,-0.11,28.54
12525,0.3302,-0.0254,0.8636,-6.61,7.83,-0.06,28.53
12535,0.3281,-0.0253,0.8657,-6.64,7.91,-0.06,28.53
12545,0.3276,-0.0261,0.8695,-6.7,7.91,-0.02,28.55
12555,0.3253,-0.0254,0.8641,-6.64,8.0,0.02,28.54
12565,0.3278,-0.0242,0.8611,-6.66,7.92,-0.06,28.53
12575,0.3286,-0.0245,0.8596,-6.63,7.97,-0.09,28.52
12585,0.3274,-0.0249,0.865,-6.58,7.95,-0.03,28.52
12595,0.3278,-0.0283,0.864,-6.67,7.94,-0.12,28.52
12605,0.3296,-0.0272,0.8657,-6.52,7.97,-0.08,28.51
12615,0.3262,-0.0267,0.8633,-6.6,7.95,-0.11,28.52
12625,0.3268,-0.0298,0.8655,-6.63,7.95,-0.06,28.52
12635,0.328,-0.0244,0.8635,-6.6,7.95,-0.03,28.53
12645,0.3271,-0.0248,0.8617,-6.67,7.94,-0.08,28.56
12655,0.3276,-0.0278,0.8633,-6.66,7.92,-0.08,28.53
12665,0.3276,-0.0226,0.863,-6.63,7.94,-0.06,28.52
12675,0.3282,-0.025,0.8627,-6.69,7.98,0.05,28.51
12685,0.3296,-0.0265,0.8607,-6.58,7.91,-0.02,28.53
12695,0.327,-0.0251,0.8616,-6.56,7.92,-0.03,28.53
12705,0.3308,-0.0238,0.8633,-6.49,7.95,-0.08,28.53
12715,0.3254,-0.0261,0.8666,-6.6,8.0,-0.03,28.53
12725,0.3271,-0.0277,0.8588,-6.58,7.86,-0.09,28.54
12735,0.3262,-0.0262,0.8636,-6.5,7.95,-0.09,28.55
12745,0.3276,-0.025,0.8604,-6.69,7.97,-0.08,28.54
12755,0.3245,-0.0266,0.8647,-6.58,8.0,-0.05,28.54
12765,0.3276,-0.0232,0.8635,-6.58,7.92,-0.05,28.55
12775,0.3273,-0.0251,0.8619,-6.61,7.95,-0.08,28.55
12785,0.328,-0.0237,0.8658,-6.64,7.92,-0.02,28.55
12795,0.3271,-0.0277,0.8619,-6.63,8.02,-0.05,28.55
12805,0.3298,-0.026,0.8687,-6.61,7.91,-0.09,28.53
12815,0.329,-0.0271,0.8656,-6.6,7.89,-0.05,28.54
12825,0.329,-0.0264,0.864,-6.61,7.91,-0.06,28.55
12835,0.3271,-0.0238,0.8673,-6.72,7.97,-0.05,28.54
12845,0.3273,-0.0237,0.8655,-6.6,7.91,0.05,28.52
12855,0.3256,-0.0249,0.8646,-6.64,7.97,-0.02,28.54
12865,0.3308,-0.0255,0.8662,-6.64,7.89,-0.09,28.53
12875,0.324,-0.0251,0.8629,-6.58,7.95,-0.11,28.55
12885,0.3284,-0.0258,0.8624,-6.7,7.92,-0.05,28.56
12895,0.3286,-0.0272,0.8602,-6.6,7.95,-0.08,28.58
12905,0.3289,-0.0293,0.8602,-6.6,7.98,-0.09,28.55
12915,0.3275,-0.0276,0.8654,-6.6,7.97,0.02,28.54
12925,0.3271,-0.0306,0.8658,-6.61,7.97,-0.02,28.55
12935,0.3278,-0.0281,0.8654,-6.66,7.94,-0.08,28.54
12945,0.3291,-0.0248,0.8654,-6.6,7.95,-0.05,28.54
12955,0.3262,-0.026,0.8617,-6.53,7.98,-0.06,28.54
12965,0.328,-0.0264,0.8623,-6.64,7.91,-0.11,28.56
12975,0.328,-0.0254,0.8641,-6.6,7.91,-0.06,28.51
12985,0.3257,-0.0219,0.8612,-6.7,7.97,0.03,28.55
12995,0.3291,-0.0242,0.8615,-6.66,7.86,0.05,28.54
13005,0.3276,-0.0267,0.8579,-6.66,7.86,0.0,28.53
13015,0.3289,-0.0275,0.8629,-6.63,7.91,-0.02,28.56
13025,0.3297,-0.0262,0.8638,-6.56,7.89,0.0,28.57
13035,0.3282,-0.0264,0.8634,-6.55,7.95,-0.05,28.53
13045,0.326,-0.0251,0.8672,-6.61,7.88,0.02,28.57
13055,0.3303,-0.0244,0.863,-6.66,7.94,-0.02,28.56
13065,0.3346,-0.0319,0.8632,-6.61,7.83,-0.03,28.55
13075,0.3237,-0.0206,0.8782,-6.63,8.12,-0.08,28.55
13085,0.3234,-0.021,0.8621,-6.61,8.0,-0.06,28.55
13095,0.3241,-0.0262,0.863,-6.64,7.95,-0.14,28.54
13105,0.3273,-0.0306,0.8606,-6.67,7.94,0.02,28.54
13115,0.3273,-0.0228,0.8663,-6.64,7.98,0.03,28.56
13125,0.3237,-0.0266,0.8616,-6.66,7.94,-0.09,28.57
13135,0.3274,-0.022,0.8613,-6.58,7.89,0.03,28.54
13145,0.3269,-0.0242,0.8699,-6.6,7.86,-0.03,28.54
13155,0.3322,-0.025,0.8704,-6.61,7.95,-0.02,28.54
13165,0.3304,-0.0267,0.8712,-6.53,7.95,0.06,28.55
13175,0.3281,-0.0261,0.8599,-6.69,7.97,-0.09,28.55
13185,0.3289,-0.026,0.8604,-6.49,7.8,-0.05,28.57
13195,0.3273,-0.0283,0.8636,-6.55,7.97,-0.12,28.57
13205,0.3289,-0.0258,0.8645,-6.64,8.0,-0.05,28.55
13215,0.3296,-0.0244,0.8647,-6.67,7.97,-0.03,28.56
13225,0.3264,-0.0265,0.8636,-6.67,7.95,-0.11,28.54
13235,0.325,-0.0308,0.8573,-6.56,7.86,-0.05,28.56
13245,0.329,-0.0286,0.8608,-6.53,7.91,0.02,28.56
13255,0.3304,-0.0265,0.8632,-6.73,7.88,0.03,28.55
13265,0.3308,-0.0286,0.8643,-6.66,7.95,-0.02,28.53
13275,0.3274,-0.0292,0.8647,-6.64,7.98,0.05,28.57
13285,0.3314,-0.0287,0.865,-6.7,7.91,0.03,28.56
13295,0.3289,-0.0251,0.8661,-6.67,8.03,-0.02,28.54
13305,0.3303,-0.0267,0.8608,-6.6,8.0,-0.02,28.54
13315,0.3245,-0.0255,0.8584,-6.64,8.0,-0.02,28.55
13325,0.3243,-0.0266,0.8571,-6.64,8.02,0.03,28.55
13335,0.3256,-0.0248,0.859,-6.63,8.0,-0.02,28.56
13345,0.3278,-0.0265,0.8629,-6.67,7.88,0.03,28.55
13355,0.3263,-0.0244,0.8661,-6.58,7.88,0.05,28.59
13365,0.3292,-0.0259,0.8691,-6.69,7.95,0.0,28.56
13375,0.3331,-0.0275,0.8677,-6.66,8.05,0.03,28.54
13385,0.3313,-0.026,0.8695,-6.58,7.97,0.02,28.54
13395,0.3315,-0.0239,0.8663,-6.69,8.05,0.03,28.57
13405,0.329,-0.0264,0.8649,-6.63,8.05,-0.08,28.55
13415,0.3276,-0.0265,0.8607,-6.67,7.91,-0.03,28.56
13425,0.3263,-0.0245,0.8622,-6.6,7.82,-0.09,28.57
13435,0.327,-0.0262,0.8556,-6.67,7.95,-0.08,28.55
13445,0.3237,-0.0278,0.8604,-6.61,7.97,-0.03,28.54
13455,0.3265,-0.0245,0.8668,-6.61,7.98,-0.03,28.54
13465,0.329,-0.027,0.8632,-6.55,7.92,-0.08,28.54
13475,0.3319,-0.0271,0.8668,-6.61,7.95,-0.05,28.57
13485,0.3298,-0.0209,0.8699,-6.6,7.91,-0.03,28.55
13495,0.3259,-0.0303,0.8641,-6.66,7.94,-0.08,28.55
13505,0.3262,-0.0249,0.8618,-6.67,7.86,-0.05,28.57
13515,0.3234,-0.0215,0.8677,-6.58,7.95,-0.14,28.57
13525,0.3237,-0.0291,0.8579,-6.66,7.98,-0.11,28.54
13535,0.3258,-0.0286,0.8547,-6.64,7.86,-0.03,28.57
13545,0.3315,-0.0314,0.8618,-6.76,7.86,-0.11,28.55
13555,0.3298,-0.0281,0.8632,-6.63,8.03,-0.09,28.54
13565,0.3303,-0.0258,0.8596,-6.63,7.98,-0.05,28.57
13575,0.3304,-0.0206,0.866,-6.64,7.83,-0.03,28.54
13585,0.3298,-0.0227,0.8726,-6.6,7.88,-0.03,28.55
13595,0.329,-0.0226,0.8748,-6.58,7.98,-0.06,28.56
13605,0.3291,-0.025,0.866,-6.6,8.09,-0.09,28.56
13615,0.3254,-0.0302,0.859,-6.61,7.98,-0.08,28.55
13625,0.3297,-0.0271,0.8579,-6.64,7.88,-0.12,28.54
13635,0.3278,-0.0278,0.8624,-6.64,7.92,-0.03,28.56
13645,0.3239,-0.0305,0.864,-6.73,8.17,-0.05,28.56
13655,0.3307,-0.0288,0.8486,-6.67,7.56,-0.08,28.56
13665,0.3274,-0.0229,0.8624,-6.67,7.82,-0.03,28.55
13675,0.3287,-0.0228,0.8795,-6.52,8.12,-0.12,28.56
13685,0.3286,-0.0227,0.87,-6.72,8.05,-0.03,28.55
13695,0.3287,-0.0236,0.865,-6.69,7.89,-0.08,28.56
13705,0.3279,-0.0232,0.8684,-6.66,7.88,-0.12,28.56
13715,0.3304,-0.0251,0.8651,-6.66,8.05,-0.05,28.54
13725,0.3228,-0.0283,0.8612,-6.63,8.03,0.0,28.56
13735,0.3252,-0.0255,0.8567,-6.64,7.94,0.06,28.55
13745,0.3286,-0.0244,0.86,-6.6,7.98,0.03,28.56
13755,0.3285,-0.0284,0.8591,-6.64,7.91,-0.06,28.54
13765,0.3274,-0.0262,0.8667,-6.56,7.88,-0.08,28.57
13775,0.3278,-0.0229,0.869,-6.69,7.95,-0.05,28.57
13785,0.3308,-0.0265,0.8701,-6.56,7.91,-0.05,28.59
13795,0.3298,-0.0247,0.8688,-6.67,7.92,0.03,28.54
13805,0.3296,-0.027,0.8672,-6.58,7.92,-0.05,28.56
13815,0.3264,-0.0272,0.859,-6.56,7.94,-0.03,28.55
13825,0.3278,-0.0266,0.8585,-6.72,7.98,-0.09,28.57
13835,0.3243,-0.0258,0.8597,-6.63,8.02,-0.08,28.56
13845,0.3284,-0.0267,0.8573,-6.66,7.91,-0.05,28.58
13855,0.3258,-0.0243,0.8625,-6.6,7.97,-0.09,28.58
13865,0.3285,-0.0251,0.8665,-6.67,7.88,-0.06,28.54
13875,0.3285,-0.0276,0.8674,-6.61,7.95,-0.12,28.57
13885,0.3312,-0.0269,0.8667,-6.7,7.91,-0.02,28.55
13895,0.3303,-0.0264,0.8688,-6.56,7.92,-0.08,28.57
13905,0.3322,-0.0265,0.8633,-6.73,7.88,-0.03,28.57
13915,0.325,-0.0254,0.858,-6.56,7.92,-0.03,28.57
13925,0.3273,-0.0234,0.86,-6.67,7.95,-0.02,28.55
13935,0.3265,-0.0254,0.8604,-6.63,7.92,-0.08,28.57
13945,0.3267,-0.0253,0.859,-6.58,7.89,-0.06,28.58
13955,0.3289,-0.0251,0.8649,-6.6,7.98,-0.06,28.59
13965,0.3254,-0.0247,0.8666,-6.64,7.94,-0.06,28.57
13975,0.3292,-0.0287,0.8704,-6.69,7.91,-0.02,28.56
13985,0.3307,-0.0302,0.8646,-6.61,7.88,-0.08,28.57
13995,0.3328,-0.0283,0.8695,-6.66,7.94,-0.11,28.59
14005,0.3306,-0.0258,0.8621,-6.55,7.91,-0.09,28.57
14015,0.3271,-0.0271,0.8584,-6.6,7.94,-0.06,28.59
14025,0.3245,-0.0253,0.8593,-6.66,7.91,-0.02,28.56
14035,0.3263,-0.0242,0.863,-6.63,7.95,0.02,28.59
14045,0.3251,-0.0262,0.8645,-6.61,7.95,-0.08,28.58
14055,0.3263,-0.0267,0.866,-6.55,7.91,-0.06,28.59
14065,0.3259,-0.0261,0.8622,-6.66,7.97,-0.05,28.58
14075,0.3281,-0.0289,0.8639,-6.64,7.92,-0.06,28.58
14085,0.3264,-0.0272,0.8656,-6.64,7.94,0.05,28.57
14095,0.3284,-0.0265,0.8643,-6.55,7.92,0.0,28.57
14105,0.3302,-0.0248,0.8658,-6.64,7.91,-0.14,28.58
14115,0.3314,-0.025,0.8674,-6.64,7.92,-0.03,28.57
14125,0.3315,-0.0267,0.8627,-6.61,7.91,-0.02,28.56
14135,0.3271,-0.0227,0.863,-6.58,7.95,-0.11,28.57
14145,0.3297,-0.0217,0.8589,-6.63,7.95,-0.03,28.57
14155,0.3279,-0.0262,0.8595,-6.6,7.91,-0.08,28.57
14165,0.3271,-0.0244,0.8625,-6.7,7.92,-0.02,28.59
14175,0.3286,-0.0236,0.8628,-6.69,7.94,-0.05,28.57
14185,0.3297,-0.0254,0.8633,-6.66,7.92,-0.14,28.57
14195,0.3292,-0.0293,0.8643,-6.58,7.97,-0.02,28.57
14205,0.3279,-0.0282,0.8649,-6.63,7.97,-0.05,28.56
14215,0.3306,-0.0277,0.868,-6.66,7.91,-0.09,28.58
14225,0.3286,-0.028,0.8595,-6.61,7.92,-0.11,28.59
14235,0.3241,-0.028,0.8636,-6.64,7.91,0.06,28.57
14245,0.3259,-0.0221,0.864,-6.63,7.91,-0.06,28.56
14255,0.3279,-0.0214,0.8627,-6.64,7.94,-0.09,28.57
14265,0.3264,-0.0247,0.8669,-6.6,7.98,0.0,28.56
14275,0.3279,-0.024,0.8627,-6.67,7.89,-0.06,28.58
14285,0.33,-0.0258,0.8638,-6.61,7.97,-0.15,28.58
14295,0.329,-0.0289,0.8636,-6.61,7.92,-0.09,28.58
14305,0.3314,-0.0291,0.8646,-6.6,7.88,-0.08,28.56
14315,0.3297,-0.0306,0.8655,-6.61,7.92,-0.08,28.56
14325,0.3267,-0.0298,0.8622,-6.64,8.0,-0.09,28.57
14335,0.3252,-0.0282,0.8624,-6.64,7.98,-0.09,28.56
14345,0.3276,-0.0225,0.8669,-6.56,7.94,-0.06,28.57
14355,0.33,-0.0227,0.8622,-6.63,7.88,-0.12,28.58
14365,0.3284,-0.0233,0.8617,-6.63,7.97,-0.03,28.59
14375,0.3281,-0.0234,0.8622,-6.67,7.89,0.02,28.54
14385,0.3274,-0.0255,0.8601,-6.64,7.95,0.0,28.57
14395,0.3301,-0.0297,0.8606,-6.61,7.92,-0.03,28.58
14405,0.3304,-0.0294,0.8627,-6.63,7.97,-0.06,28.57
14415,0.3308,-0.0267,0.8595,-6.72,7.92,-0.03,28.56
14425,0.3306,-0.0272,0.8632,-6.58,7.86,0.03,28.57
14435,0.3285,-0.024,0.8666,-6.66,7.89,-0.03,28.56
14445,0.3259,-0.0276,0.8621,-6.64,8.0,-0.03,28.59
14455,0.3292,-0.0255,0.8666,-6.58,7.94,-0.06,28.6
14465,0.3274,-0.022,0.8656,-6.58,7.97,-0.03,28.59
14475,0.3281,-0.0249,0.8615,-6.63,7.92,-0.05,28.57
14485,0.3297,-0.0254,0.8622,-6.6,7.82,-0.02,28.57
14495,0.329,-0.0266,0.864,-6.58,8.0,-0.08,28.59
14505,0.3268,-0.0275,0.8652,-6.66,7.95,-0.05,28.55
14515,0.3267,-0.027,0.8661,-6.6,7.91,-0.06,28.59
14525,0.326,-0.0272,0.865,-6.61,8.03,-0.05,28.57
14535,0.3275,-0.0284,0.865,-6.66,7.89,-0.02,28.6
14545,0.3285,-0.0262,0.8665,-6.56,7.92,-0.08,28.57
14555,0.3276,-0.024,0.8718,-6.58,7.98,-0.06,28.59
14565,0.3278,-0.0242,0.8612,-6.63,8.05,-0.05,28.57
14575,0.3267,-0.0249,0.8568,-6.56,7.86,-0.03,28.61
14585,0.3278,-0.0247,0.8596,-6.69,8.02,-0.14,28.57
14595,0.3292,-0.0256,0.8597,-6.58,7.98,-0.03,28.57
14605,0.324,-0.0297,0.8629,-6.61,7.98,-0.05,28.59
14615,0.3275,-0.0302,0.8655,-6.72,7.92,-0.05,28.6
14625,0.326,-0.0253,0.8679,-6.67,7.92,-0.05,28.57
14635,0.3301,-0.0276,0.8607,-6.69,7.89,-0.03,28.58
14645,0.3287,-0.0255,0.8641,-6.53,7.91,-0.03,28.6
14655,0.3278,-0.0243,0.8641,-6.64,7.97,0.0,28.58
14665,0.326,-0.0239,0.8634,-6.6,7.92,0.02,28.59
14675,0.3268,-0.0206,0.8628,-6.61,8.0,-0.08,28.57
14685,0.3289,-0.0255,0.8645,-6.58,7.94,-0.02,28.59
14695,0.3263,-0.0214,0.865,-6.55,7.92,-0.06,28.58
14705,0.327,-0.025,0.8638,-6.64,7.97,-0.02,28.59
14715,0.3285,-0.0275,0.8613,-6.58,7.95,-0.08,28.6
14725,0.3334,-0.0282,0.8636,-6.73,7.97,-0.03,28.56
14735,0.3311,-0.0327,0.8667,-6.72,7.89,-0.08,28.56
14745,0.329,-0.0288,0.869,-6.61,7.88,-0.02,28.56
14755,0.3289,-0.0265,0.8644,-6.63,7.91,0.0,28.57
14765,0.3281,-0.0244,0.8627,-6.67,7.92,0.02,28.58
14775,0.3258,-0.02,0.8593,-6.64,7.91,-0.03,28.59
14785,0.3232,-0.0208,0.8584,-6.61,7.94,-0.09,28.57
14795,0.3267,-0.0226,0.8649,-6.63,7.89,-0.06,28.59
14805,0.3263,-0.0258,0.8618,-6.67,8.08,-0.12,28.58
14815,0.3306,-0.0283,0.8657,-6.61,7.85,-0.03,28.6
14825,0.3309,-0.0275,0.8655,-6.63,7.86,-0.02,28.59
14835,0.3268,-0.0258,0.864,-6.56,8.06,-0.06,28.59
14845,0.329,-0.0304,0.8641,-6.6,7.97,-0.06,28.57
14855,0.3279,-0.0292,0.8578,-6.72,8.0,-0.06,28.58
14865,0.3292,-0.0255,0.8655,-6.58,7.98,-0.05,28.57
14875,0.3246,-0.0247,0.8636,-6.66,7.92,-0.03,28.58
14885,0.3259,-0.0248,0.8652,-6.66,7.91,-0.05,28.57
14895,0.3304,-0.0247,0.8624,-6.56,7.89,-0.05,28.59
14905,0.3312,-0.0297,0.86,-6.69,7.92,-0.03,28.59
14915,0.3301,-0.0255,0.8665,-6.61,7.98,-0.02,28.56
14925,0.3306,-0.0288,0.8654,-6.55,7.95,-0.09,28.58
14935,0.3263,-0.0249,0.8654,-6.55,7.91,-0.06,28.58
14945,0.326,-0.0272,0.8645,-6.6,7.92,-0.06,28.59
14955,0.3274,-0.0255,0.8645,-6.55,7.94,0.0,28.6
14965,0.3264,-0.0244,0.859,-6.69,7.94,-0.14,28.59
14975,0.3289,-0.0264,0.8619,-6.61,7.89,0.02,28.59
14985,0.3269,-0.0269,0.8633,-6.66,7.89,-0.06,28.55
14995,0.3276,-0.0262,0.8625,-6.56,7.92,-0.08,28.59
15005,0.3293,-0.0245,0.8665,-6.64,7.92,0.02,28.57
15015,0.3287,-0.0243,0.8627,-6.61,7.91,0.02,28.58
15025,0.3281,-0.0288,0.8693,-6.7,7.91,-0.09,28.58
15035,0.3302,-0.0275,0.8628,-6.66,7.91,-0.05,28.59
15045,0.3306,-0.0266,0.8618,-6.67,7.91,0.02,28.59
15055,0.3298,-0.0238,0.8586,-6.76,7.95,-0.03,28.59
15065,0.3274,-0.0266,0.8615,-6.6,7.92,-0.09,28.59
15075,0.3278,-0.0265,0.8615,-6.61,7.92,-0.03,28.58
15085,0.3298,-0.027,0.8624,-6.61,7.94,-0.14,28.58
15095,0.3276,-0.0271,0.8643,-6.67,7.94,-0.09,28.57
15105,0.3274,-0.0231,0.8678,-6.64,7.95,-0.03,28.61
15115,0.3291,-0.0276,0.8665,-6.75,7.98,-0.02,28.6
15125,0.3284,-0.0269,0.8652,-6.64,7.88,-0.05,28.59
15135,0.3282,-0.0271,0.8652,-6.66,7.91,-0.05,28.59
15145,0.3263,-0.0259,0.8658,-6.53,7.91,-0.15,28.6
15155,0.327,-0.0287,0.8591,-6.66,7.86,-0.06,28.58
15165,0.33,-0.0264,0.8623,-6.66,7.94,-0.03,28.58
15175,0.3284,-0.0251,0.8649,-6.55,7.89,-0.06,28.59
15185,0.3276,-0.0232,0.863,-6.49,7.98,-0.09,28.59
15195,0.3275,-0.0242,0.8646,-6.58,7.95,-0.09,28.57
15205,0.3274,-0.0223,0.863,-6.53,7.97,-0.08,28.61
15215,0.3275,-0.0254,0.8639,-6.63,7.97,-0.06,28.58
15225,0.3298,-0.0262,0.8624,-6.63,7.94,0.0,28.59
15235,0.3292,-0.0226,0.8673,-6.61,7.97,0.03,28.59
15245,0.3257,-0.0256,0.8662,-6.56,7.92,-0.02,28.6
15255,0.3291,-0.0281,0.8564,-6.61,7.89,0.0,28.59
15265,0.3279,-0.0254,0.8627,-6.56,7.95,-0.05,28.59
15275,0.3276,-0.0254,0.8656,-6.61,8.05,0.0,28.6
15285,0.3282,-0.0237,0.8611,-6.64,7.97,-0.03,28.57
15295,0.3271,-0.0302,0.8644,-6.6,7.91,-0.09,28.59
15305,0.3247,-0.0277,0.8619,-6.69,7.89,-0.06,28.59
15315,0.3271,-0.0286,0.8639,-6.67,7.98,-0.05,28.58
15325,0.327,-0.0267,0.8694,-6.63,7.94,-0.05,28.58
15335,0.3246,-0.0277,0.8617,-6.67,7.94,-0.05,28.59
15345,0.3281,-0.0295,0.8663,-6.66,7.94,-0.05,28.59
15355,0.3253,-0.0261,0.8601,-6.64,7.95,-0.09,28.57
15365,0.3254,-0.0249,0.8593,-6.7,7.94,0.0,28.6
15375,0.3256,-0.0248,0.8599,-6.61,7.95,0.03,28.61
15385,0.33,-0.0261,0.8621,-6.64,7.95,-0.08,28.61
15395,0.3296,-0.0227,0.8632,-6.66,7.97,-0.02,28.58
15405,0.3269,-0.0236,0.8684,-6.64,7.86,-0.05,28.6
15415,0.327,-0.0275,0.868,-6.66,7.89,-0.06,28.56
15425,0.3281,-0.0265,0.8622,-6.63,7.92,0.05,28.57
15435,0.3297,-0.0266,0.8651,-6.55,7.97,-0.03,28.6
15445,0.3279,-0.0249,0.861,-6.64,7.95,-0.09,28.59
15455,0.3285,-0.0259,0.8665,-6.64,8.0,-0.03,28.6
15465,0.3306,-0.0248,0.865,-6.64,7.98,0.0,28.58
15475,0.3262,-0.0244,0.8682,-6.66,7.97,-0.06,28.59
15485,0.3274,-0.0265,0.8674,-6.58,8.06,-0.08,28.58
15495,0.3263,-0.0284,0.865,-6.56,7.98,-0.12,28.59
15505,0.3287,-0.0273,0.8583,-6.52,7.88,-0.08,28.57
15515,0.3314,-0.0281,0.864,-6.56,7.92,0.03,28.6
15525,0.3264,-0.024,0.869,-6.64,7.94,-0.03,28.58
15535,0.3268,-0.0281,0.8638,-6.64,7.92,0.02,28.61
15545,0.3273,-0.0222,0.8622,-6.61,7.97,-0.03,28.57
15555,0.3287,-0.021,0.8691,-6.56,7.89,0.0,28.58
15565,0.3295,-0.0221,0.8649,-6.58,7.92,0.02,28.6
15575,0.3287,-0.0221,0.8636,-6.63,7.92,-0.09,28.6
15585,0.326,-0.0234,0.865,-6.56,7.92,-0.05,28.59
15595,0.328,-0.0255,0.8636,-6.63,7.98,0.02,28.59
15605,0.3257,-0.028,0.8571,-6.7,7.95,0.0,28.58
15615,0.3258,-0.0289,0.8571,-6.67,7.94,-0.09,28.58
15625,0.3284,-0.032,0.8613,-6.56,7.94,-0.09,28.58
15635,0.3263,-0.0305,0.8616,-6.61,7.89,-0.03,28.61
15645,0.3252,-0.0288,0.8625,-6.6,7.97,-0.02,28.59
15655,0.3274,-0.0255,0.8645,-6.53,7.94,0.0,28.58
15665,0.3291,-0.025,0.8698,-6.67,8.0,-0.09,28.58
15675,0.3304,-0.0258,0.8661,-6.56,7.97,-0.18,28.6
15685,0.328,-0.0226,0.8654,-6.7,7.98,-0.12,28.6
15695,0.3296,-0.0254,0.8627,-6.66,7.95,-0.09,28.6
15705,0.3264,-0.0251,0.8639,-6.66,7.92,-0.08,28.6
15715,0.329,-0.0265,0.8624,-6.73,7.92,-0.09,28.59
15725,0.3304,-0.0273,0.8599,-6.69,7.94,-0.08,28.62
15735,0.3274,-0.025,0.864,-6.7,7.94,-0.11,28.61
15745,0.3297,-0.0276,0.8627,-6.61,7.88,-0.08,28.59
15755,0.3254,-0.0259,0.8665,-6.61,7.92,-0.17,28.59
15765,0.327,-0.0228,0.864,-6.64,7.91,-0.09,28.59
15775,0.3297,-0.0219,0.8654,-6.66,7.91,-0.09,28.6
15785,0.328,-0.0265,0.8658,-6.6,7.94,-0.03,28.59
15795,0.3289,-0.0272,0.8632,-6.7,7.94,-0.09,28.6
15805,0.3286,-0.0237,0.8629,-6.56,8.05,-0.08,28.62
15815,0.3314,-0.0283,0.8528,-6.61,8.05,-0.15,28.59
15825,0.3235,-0.0304,0.864,-6.61,7.94,-0.06,28.59
15835,0.338,-0.0237,0.8468,-6.69,7.48,-0.08,28.61
15845,0.3252,-0.0282,0.8738,-6.75,8.05,-0.05,28.6
15855,0.3307,-0.0294,0.8628,-6.52,7.83,-0.03,28.58
15865,0.3303,-0.0181,0.864,-6.64,8.23,-0.06,28.6
15875,0.3282,-0.0187,0.8649,-6.61,7.97,-0.05,28.6
15885,0.3259,-0.0212,0.8628,-6.67,7.82,-0.09,28.62
15895,0.3278,-0.0205,0.8721,-6.61,7.94,-0.11,28.6
15905,0.326,-0.0261,0.8621,-6.69,7.94,0.02,28.6
15915,0.3274,-0.0281,0.8572,-6.63,7.92,-0.12,28.61
15925,0.329,-0.0298,0.8636,-6.53,7.91,-0.05,28.62
15935,0.3286,-0.0259,0.8696,-6.66,8.06,0.06,28.6
15945,0.3242,-0.0315,0.856,-6.56,8.18,-0.08,28.6
15955,0.3229,-0.0262,0.87,-6.69,7.76,-0.05,28.6
15965,0.3296,-0.0234,0.8698,-6.67,7.86,0.03,28.58
15975,0.3256,-0.0217,0.8655,-6.7,8.11,-0.08,28.61
15985,0.3295,-0.0234,0.8585,-6.63,8.02,-0.08,28.62
15995,0.3286,-0.0273,0.8612,-6.55,7.82,-0.02,28.61
16005,0.3285,-0.0306,0.8647,-6.55,7.91,-0.05,28.61
16015,0.3286,-0.0315,0.8702,-6.6,8.06,-0.02,28.57
16025,0.3306,-0.0291,0.8687,-6.56,7.97,0.0,28.61
16035,0.3317,-0.0269,0.8673,-6.61,7.92,-0.03,28.61
16045,0.3248,-0.0212,0.8645,-6.66,7.94,-0.06,28.6
16055,0.3271,-0.021,0.8665,-6.72,8.03,-0.03,28.61
16065,0.327,-0.0212,0.865,-6.66,8.02,-0.12,28.59
16075,0.324,-0.0197,0.863,-6.72,7.98,-0.02,28.59
16085,0.3253,-0.0177,0.8645,-6.52,7.95,-0.09,28.59
16095,0.3308,-0.022,0.8605,-6.63,7.98,-0.06,28.61
16105,0.3302,-0.0262,0.8656,-6.76,7.89,-0.02,28.61
16115,0.3276,-0.027,0.8613,-6.7,7.88,-0.08,28.61
16125,0.3297,-0.0293,0.8694,-6.56,7.89,-0.11,28.62
16135,0.3309,-0.0311,0.8671,-6.61,8.03,-0.08,28.62
16145,0.3276,-0.0304,0.8635,-6.66,7.97,-0.02,28.61
16155,0.329,-0.0247,0.8621,-6.61,7.92,0.0,28.63
16165,0.3273,-0.0214,0.8621,-6.7,7.83,-0.05,28.63
16175,0.3257,-0.0211,0.8707,-6.61,7.94,-0.03,28.62
16185,0.3257,-0.0204,0.8606,-6.64,7.98,-0.08,28.63
16195,0.3246,-0.0253,0.8608,-6.53,7.97,0.0,28.62
16205,0.327,-0.0297,0.8616,-6.67,7.88,-0.09,28.59
16215,0.3269,-0.0299,0.8651,-6.67,7.88,-0.15,28.61
16225,0.3273,-0.0306,0.8665,-6.69,7.94,-0.09,28.63
16236,0.3268,-0.0286,0.8644,-6.66,7.89,-0.05,28.6
16246,0.3293,-0.0294,0.8649,-6.66,7.94,-0.11,28.6
16256,0.3306,-0.0276,0.8621,-6.7,7.94,-0.05,28.6
16266,0.3286,-0.0278,0.8622,-6.5,7.95,-0.12,28.61
16276,0.3276,-0.0183,0.8604,-6.61,7.98,-0.06,28.62
16286,0.327,-0.0168,0.863,-6.61,7.95,-0.05,28.61
16297,0.3281,-0.0204,0.8651,-6.63,8.0,-0.06,28.61
16307,0.3274,-0.0256,0.8596,-6.66,8.03,-0.09,28.62
16317,0.3285,-0.027,0.8639,-6.64,7.97,-0.11,28.63
16328,0.3298,-0.0293,0.8625,-6.67,7.92,-0.03,28.57
16338,0.3308,-0.0305,0.8654,-6.73,7.94,0.02,28.62
16348,0.3311,-0.0309,0.869,-6.63,7.92,-0.03,28.61
16358,0.3303,-0.0275,0.864,-6.63,8.03,-0.05,28.61
16368,0.3292,-0.0267,0.8621,-6.61,7.92,0.0,28.61
16378,0.3281,-0.0248,0.8612,-6.58,7.94,-0.02,28.61
16388,0.3259,-0.024,0.8624,-6.6,7.98,0.0,28.6
16398,0.3232,-0.0239,0.8563,-6.66,7.79,0.02,28.59
16408,0.3258,-0.0222,0.8644,-6.53,7.95,0.08,28.61
16418,0.3285,-0.0247,0.8695,-6.64,7.94,-0.03,28.61
16428,0.3275,-0.0249,0.8658,-6.67,7.94,0.03,28.62
16439,0.3317,-0.0253,0.864,-6.64,7.79,-0.05,28.62
16449,0.3269,-0.0275,0.8695,-6.67,8.02,0.08,28.61
16459,0.3279,-0.0286,0.8678,-6.69,7.92,-0.05,28.63
16469,0.325,-0.0287,0.8623,-6.67,7.97,-0.02,28.6
16479,0.3247,-0.0295,0.8571,-6.64,7.98,-0.05,28.63
16489,0.3232,-0.0248,0.8618,-6.56,8.0,-0.05,28.59
16499,0.3279,-0.0225,0.8557,-6.55,7.97,-0.06,28.6
16509,0.3247,-0.0248,0.863,-6.69,7.86,-0.08,28.6
16519,0.3267,-0.0234,0.8658,-6.63,7.95,-0.03,28.63
16529,0.3286,-0.0255,0.8729,-6.72,7.94,-0.08,28.6
16539,0.3339,-0.0255,0.8689,-6.7,7.92,-0.03,28.61
16549,0.3306,-0.0287,0.8669,-6.56,8.0,-0.12,28.63
16559,0.3275,-0.0283,0.8677,-6.61,7.97,-0.11,28.63
16569,0.3264,-0.0291,0.8636,-6.66,7.97,0.03,28.61
16579,0.3263,-0.0254,0.8638,-6.67,8.03,-0.09,28.62
16589,0.3241,-0.0278,0.8608,-6.6,7.92,-0.06,28.63
16599,0.3254,-0.021,0.8652,-6.6,7.82,-0.02,28.59
16609,0.3267,-0.0255,0.8644,-6.61,7.91,-0.14,28.59
16619,0.328,-0.022,0.8613,-6.66,7.95,-0.08,28.59
16629,0.326,-0.0228,0.8674,-6.69,7.86,-0.03,28.61
16639,0.3264,-0.0226,0.8667,-6.52,7.83,-0.14,28.6
16649,0.3291,-0.0261,0.8673,-6.61,7.92,-0.12,28.6
16659,0.3286,-0.0256,0.8691,-6.64,8.0,-0.08,28.61
16669,0.3253,-0.025,0.8634,-6.78,7.88,-0.09,28.61
16679,0.3264,-0.0258,0.8589,-6.6,7.98,-0.12,28.6
16689,0.3234,-0.0298,0.8611,-6.66,7.89,-0.08,28.59
16699,0.3246,-0.0287,0.8531,-6.66,8.0,-0.08,28.62
16709,0.3232,-0.0259,0.8588,-6.58,7.91,-0.02,28.58
16719,0.3257,-0.0229,0.8627,-6.63,7.88,-0.15,28.59
16729,0.3279,-0.0225,0.8656,-6.69,7.98,-0.06,28.62
16739,0.3278,-0.0242,0.8711,-6.67,7.91,-0.09,28.62
16749,0.3302,-0.0248,0.8606,-6.63,7.98,-0.11,28.6
16759,0.3301,-0.0277,0.8682,-6.69,7.94,-0.11,28.6
16769,0.3318,-0.0282,0.8693,-6.75,8.02,-0.12,28.61
16779,0.3278,-0.0328,0.8573,-6.72,7.97,-0.12,28.61
16789,0.3268,-0.0299,0.8582,-6.73,7.98,-0.14,28.6
16799,0.3306,-0.0228,0.8577,-6.58,7.94,-0.09,28.61
16809,0.3291,-0.0232,0.8561,-6.72,7.98,-0.06,28.61
16819,0.3275,-0.0232,0.8588,-6.63,7.94,-0.09,28.61
16829,0.3326,-0.0239,0.8585,-6.79,7.82,-0.08,28.58
16839,0.3273,-0.0261,0.8599,-6.64,7.95,-0.15,28.61
16849,0.3311,-0.024,0.8649,-6.6,7.98,-0.09,28.63
16859,0.3341,-0.0277,0.8727,-6.66,7.94,-0.12,28.63
16869,0.3328,-0.0261,0.8649,-6.7,8.05,-0.12,28.63
16879,0.3293,-0.0306,0.8606,-6.63,7.97,-0.15,28.62
16889,0.3314,-0.0338,0.8644,-6.56,7.86,-0.06,28.62
16899,0.3315,-0.0272,0.8623,-6.63,7.88,-0.05,28.62
16909,0.3306,-0.0267,0.863,-6.64,7.97,-0.06,28.63
16919,0.328,-0.0256,0.856,-6.56,7.92,-0.06,28.61
16929,0.3286,-0.0222,0.8608,-6.64,7.89,-0.05,28.6
16940,0.3289,-0.02,0.8662,-6.69,7.94,0.02,28.6
16950,0.3269,-0.0234,0.8673,-6.66,7.94,-0.03,28.64
16960,0.3293,-0.0249,0.8643,-6.69,7.95,-0.09,28.59
16970,0.3286,-0.0247,0.8634,-6.69,8.03,-0.05,28.62
16980,0.3269,-0.0316,0.8607,-6.63,7.91,-0.06,28.61
16990,0.326,-0.0292,0.8634,-6.67,7.94,-0.03,28.62
17000,0.3275,-0.0309,0.8619,-6.69,7.94,-0.11,28.62
17010,0.3237,-0.0342,0.8662,-6.46,8.0,-0.11,28.6
17020,0.324,-0.0287,0.8647,-6.55,7.89,-0.09,28.62
17030,0.3265,-0.0242,0.8684,-6.6,7.92,-0.06,28.63
17040,0.3311,-0.0258,0.8634,-6.67,7.92,-0.05,28.63
17050,0.329,-0.0266,0.8627,-6.63,7.88,-0.08,28.64
17060,0.328,-0.0276,0.8625,-6.64,7.88,-0.05,28.63
17070,0.3284,-0.0256,0.8678,-6.69,7.94,-0.03,28.58
17080,0.329,-0.0265,0.8611,-6.58,7.94,0.0,28.63
17090,0.3297,-0.0288,0.861,-6.58,7.94,-0.08,28.66
17100,0.3267,-0.025,0.8622,-6.55,7.91,0.05,28.61
17110,0.3298,-0.0266,0.8638,-6.67,7.89,0.05,28.62
17120,0.3254,-0.0223,0.8638,-6.61,7.92,-0.05,28.62
17130,0.3274,-0.0253,0.8649,-6.63,7.91,0.02,28.62
17140,0.3306,-0.0228,0.8652,-6.56,7.95,0.02,28.63
17150,0.3296,-0.0259,0.8633,-6.63,7.95,-0.06,28.6
17161,0.3271,-0.0261,0.8628,-6.72,7.95,-0.08,28.62
17171,0.3284,-0.0265,0.8658,-6.64,8.0,-0.05,28.6
17181,0.3281,-0.0303,0.8638,-6.61,7.94,-0.02,28.62
17191,0.3309,-0.0291,0.8545,-6.64,7.82,0.03,28.61
17201,0.3262,-0.0282,0.8596,-6.6,7.89,-0.05,28.61
17211,0.3284,-0.0288,0.8635,-6.67,7.89,0.0,28.63
17221,0.3295,-0.0249,0.8641,-6.66,7.89,-0.05,28.61
17231,0.3282,-0.0248,0.8625,-6.75,7.91,-0.02,28.6
17241,0.3301,-0.0248,0.8639,-6.66,7.89,-0.03,28.6
17251,0.328,-0.0211,0.8672,-6.7,7.98,-0.06,28.63
17261,0.3307,-0.0251,0.8643,-6.6,8.0,-0.08,28.64
17271,0.3269,-0.0248,0.8638,-6.66,7.92,-0.05,28.62
17281,0.3289,-0.025,0.8639,-6.56,7.89,0.0,28.61
17291,0.3254,-0.0297,0.8605,-6.66,8.03,-0.09,28.61
17303,0.325,-0.0298,0.8654,-6.64,7.94,0.02,28.64
17313,0.33,-0.0282,0.8613,-6.61,7.95,-0.03,28.63
17323,0.3286,-0.0272,0.8643,-6.67,7.95,0.03,28.62
17333,0.3257,-0.0256,0.868,-6.66,8.02,-0.02,28.61
17343,0.3303,-0.0282,0.8657,-6.6,7.92,-0.02,28.62
17353,0.3298,-0.0209,0.8715,-6.63,7.92,-0.08,28.63
17363,0.3289,-0.0192,0.8655,-6.61,8.03,-0.05,28.64
17373,0.328,-0.0238,0.8617,-6.6,8.02,-0.08,28.62
17383,0.3324,-0.0314,0.8575,-6.67,7.89,-0.08,28.62
17393,0.3284,-0.0297,0.8593,-6.61,7.91,-0.11,28.64
17403,0.3292,-0.0281,0.8674,-6.64,7.92,-0.09,28.63
17413,0.329,-0.0255,0.8613,-6.58,8.0,0.0,28.61
17423,0.3291,-0.0272,0.8595,-6.7,7.89,-0.03,28.61
17433,0.3274,-0.0258,0.8629,-6.72,7.88,-0.05,28.62
17443,0.329,-0.0258,0.8666,-6.6,7.85,-0.11,28.63
17453,0.3298,-0.0255,0.869,-6.6,7.98,-0.03,28.63
17463,0.3291,-0.0251,0.8674,-6.61,7.97,0.0,28.64
17473,0.3291,-0.0267,0.8683,-6.52,7.94,0.0,28.62
17483,0.329,-0.0262,0.8636,-6.53,7.92,-0.05,28.63
17493,0.3275,-0.0248,0.8594,-6.63,7.91,-0.02,28.63
17503,0.3285,-0.0243,0.8644,-6.63,7.97,-0.03,28.63
17513,0.3276,-0.0249,0.8545,-6.66,7.92,-0.05,28.63
17523,0.3256,-0.027,0.8596,-6.66,7.95,0.0,28.62
17533,0.3269,-0.0234,0.8647,-6.58,7.92,-0.08,28.63
17543,0.3293,-0.0261,0.8677,-6.66,7.97,-0.09,28.62
17553,0.3279,-0.0233,0.8655,-6.58,7.94,0.02,28.62
17563,0.3298,-0.0267,0.8727,-6.6,7.91,-0.02,28.61
17573,0.3282,-0.0239,0.8663,-6.7,7.97,0.0,28.62
17583,0.3292,-0.0254,0.8654,-6.67,8.0,-0.08,28.65
17593,0.3306,-0.0247,0.8617,-6.58,7.88,-0.06,28.64
17603,0.329,-0.0276,0.8602,-6.63,8.03,-0.08,28.62
17613,0.3259,-0.024,0.8617,-6.72,7.91,0.0,28.63
17623,0.3271,-0.025,0.8622,-6.67,7.97,-0.11,28.64
17633,0.327,-0.0273,0.863,-6.63,8.05,-0.02,28.63
17643,0.3285,-0.0275,0.8628,-6.61,8.0,-0.02,28.66
17653,0.3291,-0.0255,0.8644,-6.61,7.94,-0.05,28.62
17663,0.3325,-0.0267,0.8685,-6.61,7.95,-0.08,28.63
17673,0.3293,-0.0244,0.8668,-6.58,7.94,0.03,28.64
17683,0.3278,-0.0244,0.8672,-6.66,7.94,-0.02,28.61
17693,0.326,-0.0244,0.8643,-6.63,7.91,-0.08,28.62
17703,0.3285,-0.0248,0.8683,-6.66,7.88,-0.02,28.62
17713,0.3286,-0.0276,0.8651,-6.61,7.92,-0.09,28.63
17723,0.3286,-0.0253,0.8627,-6.58,7.94,-0.11,28.62
17733,0.3279,-0.0232,0.866,-6.7,8.0,-0.05,28.63
17743,0.3264,-0.0251,0.8639,-6.55,7.98,0.02,28.62
17753,0.3286,-0.026,0.8616,-6.66,7.98,-0.02,28.62
17763,0.3303,-0.0292,0.8627,-6.53,7.95,-0.06,28.62
17773,0.3281,-0.0277,0.8647,-6.67,7.91,-0.05,28.64
17783,0.3287,-0.0253,0.8646,-6.56,7.88,0.03,28.61
17793,0.3284,-0.0256,0.8658,-6.67,7.95,0.03,28.61
17803,0.325,-0.0269,0.8636,-6.63,7.98,-0.03,28.64
17813,0.3241,-0.0272,0.8613,-6.64,7.98,-0.09,28.62
17823,0.3276,-0.0255,0.8656,-6.6,7.83,-0.05,28.62
17833,0.3289,-0.0258,0.866,-6.61,7.92,0.0,28.65
17843,0.3271,-0.0273,0.8625,-6.61,7.94,0.05,28.61
17853,0.3263,-0.0272,0.8621,-6.63,8.0,-0.02,28.63
17863,0.3297,-0.0272,0.8666,-6.63,7.97,-0.12,28.63
17873,0.3291,-0.0272,0.8701,-6.56,7.95,-0.08,28.63
17883,0.3303,-0.0254,0.8615,-6.64,7.97,-0.09,28.63
17893,0.327,-0.0244,0.8639,-6.66,7.98,0.02,28.61
17903,0.3309,-0.0284,0.8635,-6.66,7.91,0.02,28.64
17913,0.3267,-0.024,0.8636,-6.64,7.92,-0.06,28.64
17923,0.325,-0.0266,0.8647,-6.7,7.94,-0.03,28.65
17933,0.3286,-0.0272,0.8597,-6.64,7.97,-0.05,28.62
17943,0.3293,-0.0233,0.8601,-6.67,7.98,-0.03,28.61
17953,0.3286,-0.026,0.8674,-6.6,7.94,0.05,28.68
17963,0.3271,-0.0231,0.8676,-6.64,7.92,-0.06,28.64
17973,0.3311,-0.0221,0.8619,-6.63,7.92,-0.03,28.63
17983,0.3326,-0.0255,0.8641,-6.64,7.95,-0.06,28.63
17993,0.3315,-0.0269,0.8636,-6.67,7.88,-0.09,28.62
18003,0.3302,-0.0255,0.864,-6.63,7.92,-0.09,28.64
18013,0.3275,-0.0277,0.8611,-6.58,7.98,-0.08,28.61
18023,0.3273,-0.0243,0.8604,-6.61,7.97,-0.02,28.63
18033,0.3256,-0.0234,0.8628,-6.56,7.86,0.02,28.64
18043,0.3276,-0.0237,0.8645,-6.58,7.94,-0.03,28.62
18053,0.326,-0.0266,0.8629,-6.69,7.94,0.0,28.63
18063,0.328,-0.026,0.8647,-6.64,7.95,-0.03,28.64
18073,0.3276,-0.0258,0.8595,-6.6,7.98,-0.05,28.65
18083,0.3309,-0.0283,0.8656,-6.66,7.91,-0.02,28.64
18093,0.3257,-0.0273,0.8606,-6.63,7.92,-0.05,28.64
18103,0.3285,-0.0283,0.8624,-6.66,8.02,-0.08,28.65
18113,0.3315,-0.0265,0.8605,-6.55,7.86,-0.09,28.63
18123,0.3285,-0.0239,0.8693,-6.58,7.88,-0.02,28.64
18133,0.3314,-0.0238,0.8682,-6.64,7.86,-0.08,28.62
18143,0.3262,-0.024,0.8627,-6.63,7.95,-0.05,28.65
18153,0.3269,-0.0247,0.8569,-6.55,7.83,-0.06,28.63
18163,0.3278,-0.0259,0.8635,-6.58,7.95,-0.06,28.65
18173,0.3303,-0.027,0.8639,-6.63,7.98,-0.14,28.64
18183,0.33,-0.0292,0.8606,-6.64,8.0,-0.12,28.63
18193,0.3287,-0.0303,0.8621,-6.63,7.89,-0.03,28.64
18203,0.3293,-0.0311,0.8668,-6.63,7.98,-0.06,28.63
18213,0.3281,-0.0278,0.8667,-6.66,7.91,0.02,28.66
18223,0.3265,-0.0214,0.8645,-6.6,7.97,-0.02,28.63
18233,0.325,-0.0227,0.8627,-6.6,7.98,-0.05,28.64
18243,0.3285,-0.0243,0.8638,-6.67,7.98,-0.08,28.63
18253,0.3262,-0.0197,0.8617,-6.64,7.91,-0.03,28.64
18263,0.3234,-0.0245,0.8629,-6.72,7.94,-0.09,28.66
18273,0.3303,-0.0281,0.8616,-6.64,7.89,-0.11,28.66
18283,0.3297,-0.027,0.8635,-6.64,7.92,-0.03,28.65
18293,0.3301,-0.0297,0.8655,-6.66,7.95,-0.11,28.64
18303,0.3286,-0.0297,0.8625,-6.55,7.94,-0.09,28.64
18313,0.3291,-0.028,0.8635,-6.63,7.98,-0.05,28.63
18323,0.3281,-0.0245,0.8649,-6.58,7.95,-0.03,28.64
18333,0.3289,-0.0244,0.8619,-6.56,7.95,-0.05,28.65
18343,0.3301,-0.024,0.8629,-6.61,7.95,-0.02,28.65
18353,0.3259,-0.0242,0.8596,-6.69,7.98,-0.08,28.64
18363,0.3262,-0.0212,0.8632,-6.64,7.97,-0.09,28.64
18373,0.3262,-0.0264,0.8627,-6.66,8.0,-0.02,28.62
18383,0.3296,-0.0288,0.8633,-6.73,7.98,-0.03,28.61
18393,0.3263,-0.0284,0.8673,-6.64,7.85,-0.06,28.64
18403,0.3318,-0.0266,0.8612,-6.63,7.97,-0.05,28.66
18413,0.3282,-0.0271,0.8655,-6.53,7.94,-0.05,28.63
18423,0.3284,-0.0303,0.8624,-6.64,7.82,-0.06,28.63
18433,0.3286,-0.0272,0.8613,-6.7,7.95,-0.06,28.66
18443,0.3293,-0.0249,0.8658,-6.64,8.0,-0.06,28.64
18453,0.3263,-0.0243,0.8629,-6.69,8.05,-0.08,28.63
18463,0.328,-0.0244,0.8661,-6.64,8.0,-0.09,28.64
18473,0.3318,-0.0229,0.8633,-6.66,7.85,-0.02,28.64
18483,0.328,-0.0186,0.8682,-6.64,7.94,-0.03,28.64
18493,0.328,-0.0219,0.8607,-6.63,8.02,-0.05,28.66
18503,0.328,-0.0277,0.8655,-6.64,7.97,-0.06,28.64
18513,0.3281,-0.0269,0.8636,-6.67,7.89,-0.09,28.64
18523,0.3267,-0.0298,0.8679,-6.66,7.97,-0.05,28.65
18533,0.3278,-0.0309,0.8622,-6.67,7.95,-0.05,28.64
18543,0.3269,-0.0277,0.8661,-6.64,8.02,0.02,28.67
18553,0.33,-0.0283,0.8638,-6.67,7.91,-0.05,28.65
18563,0.3296,-0.0238,0.8622,-6.61,7.86,-0.08,28.64
18573,0.3292,-0.0256,0.8652,-6.63,7.94,-0.03,28.64
18583,0.3269,-0.0238,0.8599,-6.55,7.89,-0.08,28.64
18593,0.3282,-0.0228,0.8605,-6.56,7.91,-0.12,28.63
18603,0.326,-0.0247,0.8605,-6.56,7.94,-0.11,28.64
18613,0.3298,-0.0249,0.8613,-6.63,7.94,0.06,28.66
18623,0.3265,-0.0292,0.8621,-6.63,7.95,-0.11,28.65
18633,0.3314,-0.0298,0.866,-6.61,7.88,-0.03,28.63
18643,0.3284,-0.0272,0.8682,-6.61,7.89,-0.03,28.61
18653,0.329,-0.0292,0.8665,-6.61,7.86,-0.03,28.63
18663,0.3295,-0.027,0.8652,-6.6,7.98,0.03,28.63
18673,0.3304,-0.0238,0.8639,-6.72,7.88,-0.11,28.64
18684,0.3279,-0.0261,0.8635,-6.63,7.98,-0.02,28.63
18694,0.3269,-0.0245,0.8597,-6.63,7.83,-0.03,28.64
18704,0.3246,-0.0225,0.856,-6.61,7.94,0.02,28.66
18714,0.3269,-0.024,0.8641,-6.63,7.94,-0.05,28.64
18724,0.3292,-0.0282,0.8651,-6.63,7.92,-0.02,28.63
18734,0.3282,-0.0287,0.8627,-6.67,7.92,-0.08,28.66
18744,0.3326,-0.0287,0.8639,-6.67,7.85,-0.05,28.64
18754,0.3325,-0.0277,0.8628,-6.58,7.89,0.0,28.65
18764,0.3326,-0.0266,0.8639,-6.61,7.89,-0.06,28.66
18774,0.3296,-0.0259,0.8667,-6.61,7.89,-0.09,28.66
18784,0.3291,-0.0238,0.8618,-6.7,7.95,-0.11,28.64
18794,0.326,-0.0256,0.8644,-6.56,7.98,-0.08,28.66
18804,0.3289,-0.0253,0.8628,-6.52,7.85,-0.06,28.65
18814,0.3286,-0.0205,0.8608,-6.5,7.94,-0.06,28.66
18824,0.33,-0.0262,0.8597,-6.66,7.88,-0.02,28.66
18834,0.3276,-0.0261,0.8634,-6.63,7.86,-0.05,28.66
18844,0.3301,-0.0282,0.8641,-6.61,7.92,-0.14,28.64
18854,0.3303,-0.0277,0.8641,-6.64,7.97,-0.06,28.67
18864,0.329,-0.0258,0.8688,-6.67,7.95,0.0,28.66
18874,0.3295,-0.0292,0.8643,-6.56,7.97,-0.12,28.65
18884,0.33,-0.0228,0.8646,-6.63,7.97,-0.06,28.67
18894,0.3262,-0.0232,0.8657,-6.73,7.97,0.02,28.65
18904,0.3284,-0.0258,0.8617,-6.7,7.97,-0.05,28.64
18914,0.3287,-0.0259,0.8628,-6.67,7.91,-0.14,28.65
18924,0.3289,-0.0259,0.8656,-6.66,7.92,-0.08,28.67
18934,0.3254,-0.0297,0.8645,-6.63,8.0,-0.03,28.65
18944,0.3301,-0.0326,0.8647,-6.66,7.94,0.02,28.66
18954,0.3292,-0.0314,0.8638,-6.61,7.95,-0.02,28.64
18964,0.3328,-0.0277,0.8557,-6.64,7.86,-0.11,28.65
18974,0.3302,-0.0247,0.8649,-6.67,7.89,-0.05,28.67
18985,0.326,-0.026,0.8641,-6.67,7.94,-0.09,28.66
18995,0.3289,-0.0231,0.8607,-6.64,7.97,-0.09,28.64
19005,0.3286,-0.0239,0.8579,-6.67,7.98,-0.08,28.65
19015,0.3265,-0.0253,0.8611,-6.6,7.94,-0.06,28.67
19025,0.3285,-0.025,0.8601,-6.64,7.97,-0.14,28.64
19035,0.325,-0.0231,0.8633,-6.55,7.92,-0.11,28.63
19045,0.3273,-0.0293,0.8712,-6.63,8.15,-0.08,28.64
19055,0.3281,-0.0282,0.8661,-6.67,8.05,-0.08,28.66
19065,0.323,-0.0295,0.8712,-6.46,8.23,-0.08,28.63
19075,0.3273,-0.0289,0.8604,-6.76,7.79,0.03,28.64
19085,0.3329,-0.0302,0.8654,-6.66,7.8,-0.06,28.65
19095,0.3271,-0.0247,0.8674,-6.6,7.92,-0.02,28.67
19105,0.3286,-0.0243,0.8625,-6.64,8.02,-0.08,28.67
19115,0.329,-0.0232,0.8612,-6.63,7.86,-0.03,28.65
19125,0.3258,-0.0251,0.8606,-6.7,7.89,-0.05,28.65
19135,0.3281,-0.0267,0.8649,-6.67,7.88,0.0,28.65
19145,0.3285,-0.0245,0.8667,-6.66,7.91,-0.09,28.68
19155,0.3287,-0.0265,0.866,-6.72,7.94,-0.06,28.65
19165,0.3301,-0.0282,0.8633,-6.6,7.88,-0.08,28.64
19175,0.3318,-0.0291,0.8655,-6.66,7.86,-0.09,28.65
19185,0.3297,-0.0219,0.8655,-6.73,7.83,-0.11,28.65
19195,0.332,-0.0212,0.8629,-6.6,7.91,-0.08,28.63
19205,0.3279,-0.0272,0.8604,-6.64,7.97,-0.06,28.65
19215,0.3297,-0.0222,0.8619,-6.58,7.91,-0.09,28.65
19225,0.3297,-0.0269,0.864,-6.75,7.91,0.02,28.65
19235,0.3257,-0.0293,0.8684,-6.66,7.95,-0.11,28.63
19245,0.3275,-0.0291,0.8618,-6.67,7.97,0.0,28.64
19255,0.3307,-0.0264,0.8623,-6.6,7.91,-0.08,28.62
19265,0.3315,-0.0262,0.8639,-6.64,8.0,-0.05,28.65
19275,0.3281,-0.0273,0.8677,-6.66,7.94,-0.11,28.67
19285,0.3251,-0.024,0.8623,-6.56,7.91,-0.08,28.66
19296,0.3274,-0.022,0.864,-6.66,7.95,-0.03,28.67
19310,0.3253,-0.0266,0.86,-6.6,7.94,-0.06,28.65
19320,0.3242,-0.025,0.8578,-6.66,7.97,-0.05,28.65
19330,0.3271,-0.0314,0.8622,-6.58,7.86,-0.06,28.68
19340,0.3286,-0.0289,0.8661,-6.64,7.83,-0.11,28.65
19350,0.333,-0.0328,0.8673,-6.6,7.95,-0.02,28.65
19360,0.3337,-0.0238,0.8678,-6.69,7.97,-0.02,28.66
19370,0.3333,-0.0242,0.8652,-6.64,7.92,-0.05,28.64
19380,0.3271,-0.0233,0.8584,-6.7,7.97,0.0,28.65
19390,0.3252,-0.0219,0.861,-6.7,8.0,-0.06,28.66
19400,0.3257,-0.0227,0.8577,-6.6,7.95,-0.05,28.64
19410,0.3215,-0.0243,0.8577,-6.69,7.92,-0.06,28.66
19420,0.3245,-0.0276,0.8573,-6.63,7.85,-0.02,28.65
19430,0.3263,-0.0259,0.8593,-6.69,7.88,-0.08,28.65
19440,0.3264,-0.0294,0.8655,-6.72,7.86,-0.03,28.67
19450,0.3286,-0.0295,0.8665,-6.63,7.88,0.02,28.66
19460,0.3306,-0.0312,0.8693,-6.64,7.95,-0.05,28.66
19470,0.3287,-0.0277,0.8698,-6.64,7.95,-0.09,28.68
19480,0.3278,-0.0264,0.8691,-6.58,7.85,0.0,28.67
19490,0.3245,-0.0243,0.8622,-6.64,7.91,-0.06,28.66
19500,0.3229,-0.0222,0.8629,-6.66,8.0,-0.05,28.65
19510,0.3275,-0.0223,0.8627,-6.73,7.97,-0.05,28.65
19520,0.3278,-0.0238,0.8645,-6.76,7.89,-0.06,28.66
19530,0.3318,-0.0264,0.8651,-6.69,7.94,-0.02,28.67
19540,0.3295,-0.0287,0.8604,-6.61,7.86,-0.03,28.65
19550,0.3301,-0.0254,0.8674,-6.64,7.95,0.0,28.66
19560,0.3268,-0.0269,0.8615,-6.67,8.0,-0.02,28.64
19570,0.3284,-0.0292,0.8646,-6.69,7.89,-0.03,28.66
19580,0.3263,-0.0295,0.8597,-6.72,7.98,-0.02,28.64
19590,0.3248,-0.0266,0.8674,-6.58,7.94,-0.03,28.65
19600,0.3293,-0.0226,0.8662,-6.6,7.83,-0.03,28.65
19610,0.3287,-0.0242,0.8705,-6.67,8.0,-0.08,28.65
19620,0.3322,-0.025,0.8733,-6.56,7.95,-0.08,28.68
19630,0.3282,-0.0216,0.8713,-6.67,7.97,-0.02,28.67
19640,0.3265,-0.0238,0.8683,-6.58,8.05,-0.12,28.66
19650,0.3241,-0.0262,0.8623,-6.6,8.09,-0.11,28.67
19660,0.3236,-0.0286,0.8568,-6.63,8.02,-0.14,28.68
19670,0.3263,-0.0327,0.8531,-6.63,7.89,-0.03,28.68
19680,0.3276,-0.0303,0.856,-6.58,7.91,-0.05,28.67
19690,0.3241,-0.0339,0.8534,-6.64,8.0,-0.03,28.69
19700,0.3151,-0.0347,0.8774,-6.58,8.55,-0.08,28.64
19710,0.3362,-0.03,0.8647,-6.55,7.62,0.0,28.66
19720,0.3356,-0.0211,0.8635,-6.69,7.82,0.0,28.7
19730,0.3362,-0.0173,0.8591,-6.58,7.68,0.02,28.65
19740,0.3276,-0.0154,0.8636,-6.78,7.98,-0.05,28.65
19750,0.3267,-0.0167,0.8594,-6.67,8.05,-0.05,28.65
19760,0.3324,-0.0166,0.8658,-6.61,7.91,-0.08,28.64
19771,0.3317,-0.0265,0.8724,-6.6,7.98,-0.12,28.65
19781,0.3271,-0.0294,0.8698,-6.76,8.03,0.03,28.66
19791,0.3281,-0.0439,0.8706,-6.7,8.02,-0.02,28.68
19801,0.3337,-0.0341,0.864,-6.66,7.92,-0.05,28.67
19811,0.3302,-0.0278,0.8746,-6.53,8.02,-0.08,28.67
19821,0.3274,-0.0349,0.8607,-6.56,8.06,-0.02,28.67
19831,0.3264,-0.0242,0.8599,-6.5,7.95,-0.08,28.64
19841,0.3265,-0.0179,0.8597,-6.67,7.95,-0.09,28.68
19851,0.328,-0.0236,0.8605,-6.63,7.95,-0.05,28.69
19861,0.3242,-0.0271,0.8583,-6.66,8.05,-0.03,28.67
19871,0.327,-0.0198,0.8571,-6.55,7.92,-0.08,28.65
19881,0.3297,-0.0197,0.8676,-6.64,7.91,-0.09,28.66
19891,0.3307,-0.0282,0.8651,-6.66,7.94,0.0,28.69
19901,0.3313,-0.0321,0.8645,-6.61,7.97,-0.09,28.66
19911,0.3344,-0.0287,0.866,-6.64,7.89,0.0,28.68
19921,0.3298,-0.0304,0.8568,-6.55,7.94,-0.11,28.66
19931,0.3276,-0.0331,0.8601,-6.6,7.98,-0.03,28.65
19941,0.326,-0.0297,0.8638,-6.56,8.08,-0.05,28.66
19951,0.3274,-0.027,0.8585,-6.63,8.0,0.05,28.69
19961,0.3282,-0.0258,0.8602,-6.64,7.92,-0.02,28.67
19971,0.3307,-0.0273,0.8672,-6.61,7.91,-0.05,28.64
19981,0.327,-0.0217,0.8739,-6.61,7.95,0.06,28.68
19991,0.33,-0.0153,0.8655,-6.63,7.91,-0.05,28.69
20001,0.3284,-0.0179,0.8702,-6.66,7.92,0.03,28.67
20011,0.3254,-0.0228,0.8634,-6.66,7.92,-0.06,28.69
20021,0.3236,-0.0262,0.8604,-6.63,7.98,-0.14,28.68
20031,0.3276,-0.024,0.8586,-6.55,7.91,-0.05,28.66
20041,0.3374,-0.0281,0.8431,-6.53,7.68,0.02,28.65
20051,0.322,-0.0376,0.854,-6.67,7.79,0.03,28.68
20061,0.3274,-0.0354,0.8564,-6.72,7.8,-0.02,28.68
20071,0.3263,-0.0292,0.8678,-6.55,7.97,-0.06,28.69
20081,0.3319,-0.0282,0.8671,-6.58,7.88,-0.03,28.69
20091,0.3312,-0.0253,0.8699,-6.66,7.86,-0.03,28.69
20101,0.3287,-0.0192,0.869,-6.66,7.86,0.02,28.68
20111,0.3279,-0.0156,0.8696,-6.67,8.03,-0.06,28.65
20121,0.328,-0.0167,0.8651,-6.64,8.03,-0.09,28.68
20131,0.3253,-0.0225,0.8633,-6.55,8.02,-0.06,28.69
20141,0.3257,-0.0243,0.8585,-6.66,7.94,-0.02,28.68
20151,0.3264,-0.0271,0.8606,-6.56,7.94,-0.06,28.68
20161,0.3281,-0.0366,0.8593,-6.66,7.92,-0.03,28.69
20171,0.3301,-0.0327,0.8645,-6.64,7.97,-0.11,28.69
20181,0.3287,-0.0277,0.8661,-6.64,8.03,0.02,28.67
20191,0.3306,-0.0302,0.8677,-6.67,7.92,0.02,28.68
20201,0.3298,-0.026,0.8696,-6.63,7.97,0.05,28.66
20211,0.3282,-0.0217,0.8723,-6.56,8.0,0.03,28.69
20221,0.3284,-0.02,0.8676,-6.6,7.91,0.03,28.66
20231,0.326,-0.0189,0.863,-6.64,7.98,-0.03,28.65
20241,0.3293,-0.0262,0.8611,-6.6,7.95,-0.11,28.67
20251,0.3273,-0.0264,0.8582,-6.6,8.03,-0.11,28.67
20261,0.3267,-0.0275,0.8541,-6.66,7.98,-0.08,28.67
20271,0.3257,-0.0273,0.8585,-6.61,7.95,-0.09,28.66
20281,0.3293,-0.0305,0.8635,-6.66,7.92,0.03,28.71
20291,0.3295,-0.0293,0.8693,-6.75,7.89,-0.05,28.68
20301,0.3333,-0.0245,0.87,-6.64,7.97,0.02,28.67
20311,0.3306,-0.0277,0.8678,-6.66,7.92,-0.05,28.67
20321,0.3287,-0.0239,0.8644,-6.66,7.91,0.09,28.69
20331,0.328,-0.0214,0.8638,-6.63,7.94,0.0,28.65
20341,0.3258,-0.0216,0.8628,-6.63,7.95,0.0,28.67
20351,0.3246,-0.0237,0.8588,-6.67,7.94,0.03,28.66
20361,0.3274,-0.024,0.858,-6.66,7.95,0.0,28.66
20371,0.3282,-0.0269,0.8574,-6.47,7.92,0.02,28.69
20381,0.3298,-0.0294,0.8625,-6.56,7.89,-0.05,28.66
20391,0.3322,-0.0277,0.8678,-6.56,7.95,-0.02,28.69
20402,0.3311,-0.0269,0.8676,-6.63,8.0,0.0,28.66
20412,0.3334,-0.0275,0.8668,-6.58,7.89,0.0,28.66
20422,0.3322,-0.0275,0.8678,-6.61,7.92,0.03,28.66
20432,0.3259,-0.025,0.8618,-6.61,7.98,0.02,28.65
20443,0.3239,-0.0267,0.8649,-6.64,7.86,0.05,28.67
20453,0.3269,-0.0247,0.8625,-6.6,7.88,-0.02,28.67
20463,0.3269,-0.0254,0.8635,-6.63,7.95,0.03,28.69
20473,0.328,-0.0243,0.8619,-6.67,7.94,0.03,28.67
20483,0.3274,-0.0272,0.8682,-6.64,7.92,0.03,28.68
20493,0.3302,-0.0264,0.8629,-6.6,7.98,0.0,28.69
20503,0.3287,-0.0242,0.8666,-6.63,7.95,-0.09,28.68
20514,0.3271,-0.0222,0.8694,-6.63,7.91,-0.02,28.67
20524,0.3254,-0.0244,0.8606,-6.61,7.95,-0.02,28.69
20534,0.3237,-0.0255,0.8644,-6.63,7.91,0.03,28.68
20544,0.3269,-0.0265,0.8661,-6.61,7.92,-0.15,28.68
20554,0.3263,-0.0278,0.8649,-6.64,7.97,-0.09,28.68
20564,0.3275,-0.0267,0.8621,-6.69,7.97,-0.03,28.69
20574,0.3252,-0.0271,0.8641,-6.64,8.02,-0.08,28.68
20584,0.3298,-0.0282,0.8655,-6.66,8.05,-0.12,28.68
20594,0.3254,-0.0256,0.8674,-6.63,7.97,-0.03,28.7
20604,0.3253,-0.0254,0.8669,-6.64,7.98,-0.05,28.67
20614,0.3281,-0.0237,0.8625,-6.72,7.95,-0.05,28.66
20624,0.329,-0.0247,0.8588,-6.67,7.89,-0.06,28.67
20634,0.3259,-0.0229,0.861,-6.58,7.95,0.0,28.69
20644,0.3257,-0.0262,0.8619,-6.63,8.03,-0.05,28.68
20654,0.3298,-0.0293,0.8624,-6.67,7.94,-0.03,28.66
20664,0.3315,-0.0289,0.8656,-6.6,7.95,-0.03,28.7
20674,0.3284,-0.0261,0.8655,-6.69,7.92,-0.06,28.64
20684,0.3275,-0.0277,0.8632,-6.56,8.02,-0.03,28.69
20695,0.3253,-0.031,0.8639,-6.67,7.92,-0.05,28.68
20705,0.3252,-0.0258,0.8635,-6.63,7.94,-0.03,28.68
20715,0.3253,-0.0253,0.8608,-6.66,7.88,-0.03,28.7
20725,0.3224,-0.0258,0.8617,-6.69,7.89,-0.05,28.69
20735,0.3245,-0.0289,0.8683,-6.61,7.89,-0.08,28.68
20745,0.3267,-0.0259,0.8628,-6.67,7.95,-0.08,28.68
20755,0.3289,-0.0266,0.8674,-6.69,7.85,-0.03,28.69
20765,0.3317,-0.0267,0.8694,-6.69,7.89,0.02,28.71
20775,0.3284,-0.028,0.8658,-6.63,7.89,-0.11,28.67
20785,0.3284,-0.0261,0.8629,-6.72,7.94,-0.02,28.69
20795,0.3257,-0.0227,0.8667,-6.61,7.97,-0.03,28.69
20805,0.3256,-0.0215,0.8629,-6.64,7.97,-0.09,28.67
20815,0.3259,-0.0262,0.8596,-6.67,8.02,-0.09,28.69
20825,0.3263,-0.0259,0.8636,-6.73,7.98,-0.05,28.69
20835,0.33,-0.0253,0.8632,-6.7,7.97,-0.03,28.7
20845,0.3291,-0.0264,0.8599,-6.61,7.88,-0.08,28.69
20855,0.3274,-0.0292,0.866,-6.6,7.92,-0.09,28.7
20865,0.3278,-0.027,0.8628,-6.67,7.98,-0.11,28.69
20875,0.3293,-0.0283,0.8689,-6.64,7.92,0.05,28.67
20885,0.3264,-0.0266,0.8629,-6.6,7.94,-0.02,28.69
20895,0.3297,-0.0243,0.8595,-6.63,7.98,-0.02,28.69
20905,0.3264,-0.0251,0.8608,-6.69,7.94,-0.06,28.68
20915,0.3268,-0.027,0.8634,-6.6,7.95,0.03,28.69
20925,0.3279,-0.0258,0.8629,-6.61,7.89,-0.03,28.68
20935,0.3264,-0.0248,0.8634,-6.58,7.97,-0.08,28.69
20945,0.3259,-0.0253,0.8615,-6.7,7.94,-0.03,28.7
20955,0.3286,-0.0272,0.8646,-6.7,7.91,-0.08,28.68
20965,0.3269,-0.0291,0.8641,-6.67,7.95,-0.06,28.68
20975,0.3302,-0.0312,0.8693,-6.56,7.95,-0.05,28.69
20985,0.333,-0.0297,0.8674,-6.53,8.05,-0.11,28.66
20995,0.3317,-0.031,0.8651,-6.61,7.97,-0.03,28.69
21005,0.3247,-0.0288,0.8624,-6.72,8.0,-0.02,28.67
21015,0.3232,-0.0225,0.8593,-6.66,8.02,-0.08,28.67
21025,0.3253,-0.0227,0.864,-6.61,7.98,-0.03,28.7
21035,0.3241,-0.0253,0.866,-6.66,7.91,-0.08,28.69
21045,0.3225,-0.0212,0.8658,-6.67,7.89,-0.05,28.69
21055,0.3281,-0.022,0.8657,-6.7,8.02,-0.12,28.7
21065,0.3263,-0.0249,0.8643,-6.69,8.02,-0.11,28.7
21075,0.3248,-0.0316,0.8645,-6.63,7.92,-0.09,28.69
21085,0.327,-0.0321,0.8625,-6.69,8.02,-0.12,28.69
21095,0.3278,-0.0306,0.8635,-6.6,7.95,0.0,28.69
21105,0.3275,-0.0336,0.8661,-6.64,7.92,0.0,28.68
21115,0.3262,-0.0367,0.8661,-6.56,7.97,-0.06,28.71
21125,0.333,-0.0244,0.866,-6.55,7.95,-0.06,28.69
21135,0.3313,-0.02,0.858,-6.61,7.94,-0.08,28.69
21145,0.3253,-0.0197,0.8633,-6.58,7.98,-0.06,28.71
21155,0.3291,-0.0198,0.8654,-6.63,7.85,-0.05,28.71
21165,0.3263,-0.0182,0.8682,-6.67,7.95,-0.06,28.67
21175,0.3278,-0.0228,0.8624,-6.76,7.98,-0.17,28.66
21185,0.3292,-0.033,0.8607,-6.7,8.0,-0.09,28.68
21195,0.3285,-0.0283,0.8567,-6.66,7.86,-0.03,28.69
21205,0.3329,-0.0261,0.8607,-6.72,7.86,-0.08,28.67
21215,0.3315,-0.0334,0.8635,-6.67,7.86,-0.02,28.7
21225,0.3301,-0.0367,0.8702,-6.6,7.94,-0.03,28.72
21235,0.3298,-0.0255,0.8728,-6.61,7.95,0.0,28.7
21245,0.3273,-0.0151,0.8665,-6.55,7.97,0.03,28.69
21255,0.3246,-0.0199,0.865,-6.64,7.98,-0.05,28.69
21265,0.3286,-0.0221,0.8616,-6.67,7.95,-0.03,28.7
21275,0.333,-0.0221,0.8611,-6.63,7.85,-0.03,28.68
21285,0.3207,-0.0281,0.8533,-6.64,8.0,-0.06,28.7
21295,0.3269,-0.031,0.8679,-6.53,8.27,-0.06,28.72
21305,0.3308,-0.0341,0.8679,-6.73,8.06,-0.05,28.67
21315,0.3235,-0.0344,0.8713,-6.61,7.91,0.0,28.69
21325,0.3184,-0.0232,0.8774,-6.69,7.89,-0.11,28.69
21335,0.3253,-0.0157,0.8718,-6.5,8.06,-0.08,28.69
21345,0.3264,-0.0217,0.874,-6.55,8.12,-0.06,28.71
21355,0.3314,-0.0283,0.8568,-6.72,8.02,-0.09,28.67
21365,0.3256,-0.0365,0.8639,-6.56,8.0,-0.06,28.69
21375,0.3273,-0.0309,0.8585,-6.55,8.02,0.02,28.69
21385,0.3229,-0.0228,0.8579,-6.66,8.0,-0.02,28.69
21395,0.3208,-0.0294,0.8556,-6.69,7.94,0.03,28.68
21405,0.3232,-0.0229,0.8582,-6.6,7.94,0.03,28.7
21415,0.3282,-0.0193,0.8654,-6.63,7.97,0.05,28.68
21425,0.3293,-0.0243,0.8743,-6.58,7.92,-0.05,28.67
21435,0.3301,-0.0226,0.8746,-6.7,7.98,-0.11,28.69
21445,0.3258,-0.0273,0.8757,-6.66,7.92,-0.06,28.69
21455,0.3232,-0.0359,0.8634,-6.7,7.97,-0.14,28.69
21465,0.3252,-0.0383,0.8512,-6.6,7.98,-0.14,28.7
21475,0.3246,-0.0376,0.8502,-6.52,7.89,0.02,28.69
21485,0.3224,-0.0308,0.8551,-6.52,8.02,-0.03,28.69
21495,0.3259,-0.0178,0.8668,-6.56,8.0,0.02,28.71
21505,0.324,-0.0131,0.8715,-6.66,7.98,0.05,28.71
21515,0.3258,-0.0105,0.8712,-6.58,7.82,0.02,28.71
21525,0.3269,-0.0114,0.8729,-6.63,7.91,-0.08,28.7
21535,0.3285,-0.0233,0.8652,-6.6,7.98,-0.14,28.69
21545,0.3292,-0.0331,0.8625,-6.73,7.98,-0.15,28.68
21555,0.3319,-0.0399,0.8552,-6.66,7.95,-0.14,28.7
21565,0.3262,-0.0481,0.8547,-6.67,7.95,-0.03,28.72
21575,0.3284,-0.0482,0.8511,-6.61,7.89,0.0,28.68
21585,0.3312,-0.0374,0.8611,-6.53,7.65,0.02,28.71
21595,0.3325,-0.02,0.8669,-6.49,7.79,0.09,28.67
21605,0.3326,-0.0103,0.8744,-6.53,7.91,0.02,28.7
21615,0.3351,-0.0083,0.8763,-6.6,7.94,-0.02,28.67
21625,0.3306,-0.0071,0.875,-6.6,7.95,-0.05,28.69
21635,0.327,-0.0187,0.8676,-6.69,7.97,-0.18,28.69
21645,0.3242,-0.0302,0.8589,-6.7,7.98,-0.15,28.7
21655,0.326,-0.0419,0.8484,-6.66,7.89,-0.03,28.71
21665,0.3253,-0.0481,0.849,-6.6,7.91,-0.06,28.69
21675,0.3312,-0.0397,0.8567,-6.64,7.94,0.02,28.69
21685,0.3324,-0.0389,0.8615,-6.53,7.92,0.06,28.71
21695,0.3342,-0.027,0.873,-6.46,7.95,0.02,28.71
21705,0.3317,-0.0109,0.8763,-6.6,7.94,0.03,28.71
21715,0.3302,-0.0015,0.8777,-6.66,8.03,0.02,28.7
21725,0.3276,-0.0062,0.8727,-6.63,8.0,-0.03,28.69
21735,0.3246,-0.0118,0.8685,-6.7,8.14,-0.12,28.71
21745,0.3224,-0.0193,0.8619,-6.67,8.05,-0.09,28.7
21755,0.3217,-0.037,0.8536,-6.72,8.02,-0.11,28.67
21765,0.3265,-0.0403,0.8522,-6.7,7.92,-0.06,28.7
21775,0.3275,-0.0439,0.8605,-6.6,8.02,-0.09,28.7
21785,0.3276,-0.0405,0.8663,-6.56,8.03,-0.05,28.71
21795,0.3301,-0.0334,0.8684,-6.58,7.94,-0.02,28.69
21805,0.3268,-0.0247,0.8782,-6.58,8.15,0.08,28.69
21815,0.3259,-0.0171,0.8636,-6.55,7.94,0.03,28.69
21825,0.3246,-0.0094,0.8768,-6.66,7.98,-0.05,28.7
21835,0.3278,-0.0096,0.8696,-6.75,8.0,-0.06,28.69
21845,0.3247,-0.0162,0.8594,-6.69,8.05,-0.06,28.71
21855,0.3259,-0.0261,0.8533,-6.67,7.95,-0.12,28.69
21865,0.3267,-0.0337,0.8567,-6.63,7.92,-0.12,28.69
21875,0.3269,-0.0372,0.8568,-6.61,7.89,-0.06,28.7
21885,0.3271,-0.037,0.8639,-6.64,7.94,-0.09,28.7
21895,0.3309,-0.0377,0.8652,-6.63,7.89,-0.08,28.67
21905,0.3318,-0.0287,0.8711,-6.64,7.88,-0.06,28.69
21915,0.33,-0.0237,0.8706,-6.52,8.0,0.0,28.69
21925,0.3296,-0.0157,0.8699,-6.58,8.0,0.0,28.72
21935,0.3262,-0.0175,0.8645,-6.64,7.91,0.03,28.69
21945,0.3259,-0.0135,0.8656,-6.61,7.86,0.0,28.71
21955,0.3253,-0.0209,0.8574,-6.67,7.92,0.02,28.68
21965,0.3268,-0.0299,0.8577,-6.7,7.89,-0.11,28.69
21975,0.3281,-0.0298,0.8589,-6.6,7.89,-0.09,28.7
21985,0.3286,-0.0326,0.8647,-6.63,7.92,-0.03,28.72
21995,0.328,-0.0325,0.8679,-6.66,7.94,-0.05,28.71
22005,0.3291,-0.0298,0.8671,-6.6,7.92,-0.05,28.71
22015,0.3335,-0.0233,0.8696,-6.66,7.97,0.03,28.69
22025,0.3312,-0.0165,0.8667,-6.64,7.94,-0.06,28.7
22035,0.3268,-0.0162,0.8643,-6.72,8.0,-0.08,28.72
22045,0.3273,-0.0194,0.86,-6.76,8.0,-0.05,28.7
22055,0.324,-0.0226,0.8584,-6.64,7.91,-0.06,28.7
22065,0.324,-0.0278,0.8556,-6.69,7.89,-0.14,28.68
22075,0.33,-0.0316,0.8607,-6.69,7.94,-0.11,28.71
22085,0.3319,-0.0353,0.8605,-6.7,7.91,-0.12,28.71
22095,0.3345,-0.0356,0.8682,-6.52,7.91,-0.02,28.7
22105,0.3339,-0.0339,0.868,-6.55,7.83,-0.08,28.69
22115,0.3312,-0.0331,0.869,-6.7,7.91,0.03,28.71
22125,0.3307,-0.0275,0.8715,-6.6,7.94,-0.03,28.72
22135,0.3282,-0.0229,0.8624,-6.64,7.94,0.02,28.72
22145,0.3251,-0.0206,0.8623,-6.61,7.98,0.03,28.71
22155,0.3241,-0.0179,0.8617,-6.55,7.94,-0.03,28.69
22165,0.323,-0.0198,0.8585,-6.67,7.94,-0.02,28.71
22175,0.3231,-0.022,0.8604,-6.63,7.88,-0.08,28.71
22185,0.3276,-0.0236,0.8629,-6.66,7.95,-0.05,28.69
22195,0.3311,-0.0282,0.8635,-6.69,7.89,-0.05,28.7
22205,0.3307,-0.0333,0.8669,-6.63,7.91,-0.08,28.7
22215,0.3291,-0.032,0.8706,-6.67,7.95,0.0,28.71
22225,0.3286,-0.0315,0.8679,-6.67,7.94,-0.02,28.7
22235,0.3276,-0.0251,0.8651,-6.52,7.92,-0.09,28.7
22245,0.3282,-0.0227,0.8615,-6.6,7.97,-0.05,28.71
22255,0.3257,-0.0204,0.864,-6.56,7.94,-0.11,28.73
22265,0.3273,-0.0199,0.861,-6.6,7.95,-0.06,28.71
22275,0.3251,-0.0222,0.863,-6.63,7.95,-0.08,28.71
22285,0.3265,-0.0197,0.8625,-6.63,7.98,-0.05,28.72
22295,0.3289,-0.0248,0.8619,-6.67,7.92,-0.06,28.71
22305,0.329,-0.0292,0.8661,-6.67,7.92,-0.15,28.71
22315,0.3339,-0.0308,0.8635,-6.56,7.97,-0.08,28.69
22325,0.3297,-0.0311,0.8656,-6.63,7.95,-0.03,28.7
22335,0.327,-0.0306,0.8655,-6.61,7.92,-0.05,28.68
22345,0.3278,-0.0273,0.864,-6.55,7.95,0.03,28.69
22355,0.329,-0.0261,0.8594,-6.6,7.89,-0.05,28.69
22365,0.3273,-0.0256,0.8588,-6.58,7.95,-0.12,28.71
22375,0.3298,-0.0195,0.8634,-6.66,7.89,-0.02,28.7
22385,0.327,-0.0236,0.8628,-6.6,7.95,0.11,28.72
22395,0.329,-0.0216,0.8654,-6.58,7.92,-0.02,28.7
22405,0.3298,-0.0243,0.8693,-6.61,8.0,-0.02,28.71
22415,0.3252,-0.0262,0.8687,-6.63,7.94,-0.05,28.7
22425,0.3253,-0.0292,0.8684,-6.66,7.89,0.02,28.72
22435,0.3268,-0.0282,0.8665,-6.61,7.91,0.02,28.71
22445,0.3264,-0.032,0.8607,-6.64,7.98,-0.05,28.73
22455,0.3278,-0.0269,0.8638,-6.66,7.94,-0.02,28.71
22465,0.3242,-0.0248,0.8607,-6.7,7.89,0.0,28.71
22475,0.3252,-0.022,0.8644,-6.63,7.94,-0.06,28.72
22485,0.3278,-0.0238,0.8625,-6.75,8.03,-0.08,28.74
22495,0.3286,-0.0238,0.8646,-6.7,7.95,-0.12,28.71
22505,0.3307,-0.0222,0.8617,-6.6,7.92,-0.08,28.71
22515,0.3308,-0.0271,0.8651,-6.7,7.95,0.0,28.69
22525,0.3291,-0.0278,0.8641,-6.64,7.89,-0.06,28.69
22535,0.3309,-0.0258,0.8655,-6.61,7.85,-0.06,28.7
22545,0.3286,-0.0256,0.8602,-6.63,8.0,-0.11,28.69
22555,0.3253,-0.0275,0.8582,-6.56,7.91,-0.05,28.72
22565,0.3269,-0.0256,0.8607,-6.66,7.88,-0.06,28.7
22575,0.3275,-0.0248,0.864,-6.63,7.95,-0.09,28.72
22585,0.3281,-0.021,0.8615,-6.72,7.92,-0.03,28.72
22595,0.3257,-0.0234,0.8684,-6.67,7.97,-0.05,28.72
22605,0.3287,-0.0238,0.8641,-6.64,7.94,-0.02,28.72
22615,0.3297,-0.0269,0.8646,-6.73,7.94,-0.06,28.72
22625,0.326,-0.0292,0.8666,-6.58,8.0,-0.03,28.68
22635,0.3311,-0.026,0.8611,-6.58,7.97,-0.03,28.72
22645,0.326,-0.0287,0.8623,-6.58,7.95,-0.17,28.68
22655,0.3274,-0.027,0.866,-6.6,7.92,-0.05,28.7
22665,0.3289,-0.0232,0.8625,-6.67,7.95,0.06,28.72
22675,0.329,-0.0233,0.864,-6.66,7.88,-0.08,28.72
22685,0.3262,-0.0226,0.8623,-6.66,7.92,-0.05,28.7
22695,0.3267,-0.028,0.8633,-6.6,7.92,-0.02,28.72
22705,0.3267,-0.0248,0.8628,-6.64,7.95,-0.02,28.72
22715,0.327,-0.0265,0.8655,-6.73,7.98,-0.02,28.7
22725,0.3269,-0.0253,0.8683,-6.7,8.02,-0.05,28.71
22735,0.3291,-0.0284,0.8654,-6.63,7.92,-0.03,28.71
22745,0.3295,-0.0269,0.8618,-6.63,7.97,-0.02,28.73
22755,0.3281,-0.0254,0.8638,-6.56,7.98,-0.06,28.72
22765,0.3273,-0.027,0.8657,-6.69,8.05,-0.05,28.7
22775,0.3287,-0.0245,0.8638,-6.63,7.91,-0.05,28.72
22785,0.3267,-0.0234,0.863,-6.67,7.94,-0.03,28.74
22795,0.3307,-0.0262,0.8638,-6.66,7.86,-0.11,28.72
22805,0.3274,-0.0254,0.8651,-6.66,7.95,-0.09,28.73
22815,0.3292,-0.0243,0.8657,-6.61,7.97,-0.11,28.73
22825,0.3262,-0.0245,0.8623,-6.66,8.02,-0.09,28.72
22835,0.329,-0.0259,0.8661,-6.72,8.0,-0.11,28.73
22845,0.3302,-0.0258,0.8638,-6.63,7.95,0.0,28.72
22855,0.3267,-0.0251,0.865,-6.69,7.89,0.02,28.75
22865,0.3281,-0.0231,0.8673,-6.67,7.95,-0.03,28.73
22875,0.3279,-0.0253,0.8613,-6.58,8.0,0.0,28.7
22885,0.3287,-0.0221,0.8632,-6.72,7.95,0.0,28.71
22895,0.3274,-0.0261,0.8644,-6.66,7.97,-0.03,28.71
22905,0.3281,-0.0254,0.8669,-6.61,7.97,-0.11,28.68
22915,0.3282,-0.0292,0.865,-6.63,7.95,-0.09,28.72
22925,0.3298,-0.0348,0.8657,-6.56,7.94,-0.03,28.7
22935,0.3284,-0.0319,0.8624,-6.6,7.94,0.0,28.71
22945,0.328,-0.0286,0.8615,-6.66,7.94,-0.08,28.7
22956,0.3281,-0.0262,0.8618,-6.67,7.98,-0.02,28.7
22966,0.3285,-0.0256,0.8629,-6.55,7.98,-0.02,28.69
22976,0.3268,-0.0233,0.863,-6.64,8.03,-0.12,28.73
22987,0.3269,-0.0208,0.8632,-6.56,7.94,-0.08,28.72
22997,0.3269,-0.025,0.8601,-6.72,7.91,-0.09,28.72
23007,0.327,-0.0225,0.8647,-6.7,7.91,0.03,28.71
23017,0.3274,-0.0261,0.8654,-6.7,7.89,-0.06,28.7
23027,0.3328,-0.0269,0.8651,-6.63,7.95,-0.06,28.72
23037,0.3298,-0.0283,0.8649,-6.64,7.97,-0.11,28.71
23047,0.3298,-0.0287,0.8601,-6.56,7.88,-0.06,28.7
23058,0.3296,-0.027,0.8646,-6.66,7.98,-0.03,28.7
23068,0.3258,-0.0258,0.8643,-6.66,7.97,-0.11,28.71
23078,0.3262,-0.0228,0.8618,-6.66,7.98,-0.06,28.7
23088,0.3286,-0.0244,0.8607,-6.58,7.97,-0.08,28.7
23098,0.3251,-0.0258,0.8621,-6.7,7.95,-0.11,28.71
23108,0.3257,-0.0278,0.8644,-6.69,7.91,-0.02,28.69
23118,0.3247,-0.0265,0.8644,-6.63,7.92,0.03,28.71
23128,0.3285,-0.0264,0.8586,-6.69,7.95,0.02,28.72
23138,0.328,-0.0278,0.8651,-6.63,7.97,-0.06,28.7
23148,0.3273,-0.0276,0.8632,-6.61,7.92,-0.05,28.69
23158,0.33,-0.0288,0.863,-6.63,7.97,-0.02,28.73
23168,0.33,-0.025,0.8667,-6.67,7.94,-0.11,28.7
23178,0.3264,-0.024,0.8656,-6.66,7.85,-0.12,28.72
23188,0.3292,-0.026,0.8623,-6.61,7.92,-0.08,28.71
23198,0.3262,-0.025,0.8662,-6.64,7.88,-0.12,28.69
23208,0.3309,-0.0265,0.8611,-6.52,7.94,-0.06,28.73
23218,0.3259,-0.0259,0.8652,-6.63,7.89,-0.08,28.71
23228,0.3287,-0.0264,0.8647,-6.58,7.92,-0.06,28.72
23238,0.3273,-0.0277,0.8668,-6.63,7.92,-0.09,28.71
23248,0.3284,-0.0286,0.8657,-6.69,7.95,-0.05,28.7
23258,0.3267,-0.0291,0.8645,-6.61,7.89,-0.02,28.71
23268,0.3278,-0.027,0.8676,-6.61,7.95,0.02,28.73
23278,0.3248,-0.022,0.8619,-6.64,8.0,0.06,28.72
23288,0.3259,-0.0236,0.8627,-6.67,7.94,-0.03,28.71
23298,0.325,-0.0253,0.8605,-6.66,7.94,0.03,28.7
23308,0.3276,-0.0258,0.8636,-6.72,7.92,-0.06,28.7
23318,0.3271,-0.0264,0.866,-6.66,7.97,0.03,28.72
23328,0.3304,-0.0289,0.8655,-6.67,7.92,0.03,28.74
23338,0.3319,-0.0267,0.8646,-6.7,7.91,-0.09,28.74
23348,0.3323,-0.0298,0.8657,-6.67,7.88,-0.09,28.72
23358,0.3269,-0.0275,0.8658,-6.53,7.89,-0.06,28.7
23368,0.3289,-0.0265,0.8658,-6.63,7.95,-0.11,28.72
23378,0.3285,-0.024,0.8612,-6.66,8.0,-0.05,28.71
23388,0.3265,-0.0226,0.8671,-6.58,7.85,-0.02,28.73
23398,0.3269,-0.0258,0.8644,-6.67,8.02,-0.02,28.7
23408,0.3273,-0.0266,0.8628,-6.72,7.89,-0.03,28.73
23418,0.3267,-0.0249,0.8639,-6.69,7.92,-0.06,28.72
23428,0.329,-0.0264,0.865,-6.63,8.0,-0.08,28.72
23438,0.3276,-0.0272,0.8644,-6.67,7.95,-0.03,28.74
23448,0.3291,-0.0282,0.8687,-6.63,7.88,-0.02,28.71
23458,0.3287,-0.025,0.8662,-6.61,7.91,-0.02,28.73
23468,0.3273,-0.0264,0.8682,-6.5,8.02,-0.11,28.71
23478,0.3295,-0.0245,0.8625,-6.69,7.94,-0.06,28.73
23488,0.3279,-0.024,0.8643,-6.66,8.0,0.05,28.73
23498,0.327,-0.0243,0.8597,-6.55,7.94,-0.02,28.74
23508,0.3279,-0.0269,0.8617,-6.7,8.0,0.02,28.72
23518,0.329,-0.0255,0.8622,-6.6,7.91,-0.06,28.72
23528,0.3259,-0.0253,0.8655,-6.73,7.95,-0.09,28.74
23539,0.3314,-0.0233,0.8601,-6.75,7.91,-0.05,28.73
23549,0.3285,-0.024,0.8667,-6.69,7.98,-0.03,28.73
23559,0.3282,-0.0238,0.8619,-6.6,7.94,-0.02,28.71
23569,0.3292,-0.0269,0.868,-6.72,7.97,0.0,28.71
23579,0.3275,-0.0259,0.8612,-6.67,7.97,-0.03,28.72
23589,0.3269,-0.0256,0.8683,-6.61,8.09,-0.06,28.73
23599,0.3273,-0.0248,0.8615,-6.72,7.92,-0.06,28.72
23609,0.3311,-0.0261,0.8652,-6.64,7.88,-0.14,28.72
23619,0.3295,-0.0229,0.8657,-6.66,7.98,0.02,28.69
23629,0.3252,-0.0276,0.8629,-6.64,7.95,-0.08,28.72
23639,0.3265,-0.026,0.8604,-6.58,7.95,0.02,28.71
23649,0.3286,-0.0283,0.8645,-6.69,7.97,-0.06,28.73
23659,0.3291,-0.0244,0.8677,-6.58,7.94,-0.06,28.73
23669,0.3297,-0.0249,0.8652,-6.66,7.95,-0.05,28.73
23679,0.3271,-0.0273,0.8628,-6.69,7.89,0.02,28.72
23689,0.3264,-0.0251,0.8627,-6.66,7.98,-0.05,28.72
23699,0.3268,-0.0242,0.8611,-6.69,7.91,0.02,28.74
23709,0.328,-0.0253,0.8656,-6.56,7.98,-0.03,28.73
23719,0.3268,-0.0269,0.8666,-6.67,7.95,-0.09,28.74
23729,0.3286,-0.0259,0.8633,-6.64,7.91,-0.02,28.73
23739,0.3297,-0.0265,0.8654,-6.61,7.92,-0.05,28.72
23749,0.3268,-0.0271,0.8688,-6.69,7.88,-0.02,28.72
23759,0.3264,-0.0258,0.8671,-6.69,7.95,0.0,28.72
23769,0.3286,-0.0256,0.8621,-6.61,7.94,-0.02,28.74
23779,0.3311,-0.0267,0.864,-6.58,7.94,-0.02,28.72
23789,0.3278,-0.0291,0.8617,-6.64,7.88,-0.11,28.72
23799,0.3267,-0.0283,0.8658,-6.69,7.95,-0.05,28.74
23809,0.3282,-0.0259,0.8625,-6.58,7.91,-0.03,28.73
23819,0.3278,-0.0266,0.8618,-6.6,7.94,-0.02,28.71
23829,0.3276,-0.0264,0.8649,-6.6,7.89,-0.06,28.71
23839,0.328,-0.0261,0.861,-6.53,7.89,-0.05,28.74
23849,0.3301,-0.0266,0.8641,-6.63,7.98,-0.05,28.73
23859,0.3295,-0.0269,0.8645,-6.63,7.92,-0.06,28.73
23869,0.3285,-0.0255,0.8639,-6.67,7.92,-0.14,28.73
23879,0.3278,-0.0249,0.858,-6.69,7.94,-0.05,28.72
23889,0.3269,-0.024,0.8616,-6.61,7.91,-0.05,28.73
23899,0.3286,-0.0264,0.861,-6.64,7.91,0.02,28.71
23909,0.3279,-0.0247,0.8661,-6.58,7.97,-0.08,28.73
23919,0.33,-0.0277,0.8644,-6.73,7.91,-0.06,28.72
23929,0.3282,-0.0273,0.8657,-6.64,7.97,0.02,28.74
23939,0.3295,-0.028,0.8638,-6.63,7.91,-0.06,28.76
23949,0.3293,-0.0291,0.8672,-6.66,7.91,-0.03,28.74
23959,0.3297,-0.0251,0.8656,-6.66,7.95,0.0,28.73
23969,0.3284,-0.0253,0.8647,-6.63,7.89,-0.02,28.74
23979,0.326,-0.0238,0.866,-6.63,8.0,0.0,28.71
23989,0.3285,-0.0283,0.8623,-6.58,7.91,-0.02,28.71
23999,0.3267,-0.0259,0.863,-6.69,7.92,-0.06,28.74
24009,0.33,-0.0234,0.8676,-6.55,7.95,-0.02,28.74
24019,0.3279,-0.025,0.8636,-6.58,8.0,-0.06,28.72
24029,0.3268,-0.0269,0.8615,-6.56,8.02,0.02,28.74
24039,0.3243,-0.0271,0.8615,-6.64,7.89,-0.11,28.72
24049,0.3304,-0.0226,0.863,-6.56,7.98,-0.05,28.73
24059,0.3295,-0.0249,0.8638,-6.61,7.97,-0.03,28.73
24069,0.3295,-0.0243,0.8655,-6.61,7.95,-0.02,28.74
24079,0.3263,-0.026,0.8627,-6.69,8.0,-0.06,28.72
24089,0.326,-0.0259,0.8602,-6.7,7.95,-0.03,28.73
24099,0.3275,-0.0276,0.8617,-6.63,7.89,-0.03,28.72
24109,0.3279,-0.0223,0.8629,-6.63,7.94,-0.06,28.72
24119,0.3309,-0.0247,0.8665,-6.66,7.97,-0.06,28.75
24129,0.3291,-0.0282,0.8645,-6.66,7.94,-0.05,28.75
24139,0.3296,-0.0256,0.8654,-6.66,7.94,-0.14,28.75
24149,0.3293,-0.0271,0.8673,-6.66,7.92,-0.06,28.74
24159,0.329,-0.0259,0.8612,-6.56,7.92,-0.06,28.73
24169,0.3296,-0.0278,0.8583,-6.63,7.98,0.0,28.72
24179,0.3242,-0.0253,0.8613,-6.69,7.89,-0.03,28.74
24189,0.3273,-0.0276,0.8633,-6.76,7.98,-0.05,28.73
24199,0.3265,-0.0267,0.8646,-6.67,8.02,-0.02,28.74
24209,0.3287,-0.0253,0.8661,-6.63,7.94,-0.06,28.73
24219,0.328,-0.0253,0.8632,-6.64,7.91,-0.05,28.74
24229,0.3303,-0.0254,0.8613,-6.69,7.94,-0.06,28.73
24239,0.325,-0.0276,0.859,-6.66,7.97,0.03,28.73
24249,0.327,-0.0266,0.865,-6.58,7.88,-0.08,28.73
24259,0.3268,-0.0266,0.8652,-6.61,7.92,-0.11,28.72
24269,0.3275,-0.024,0.8632,-6.63,7.89,-0.06,28.74
24279,0.3276,-0.0237,0.8613,-6.64,7.94,-0.12,28.74
24289,0.3297,-0.0251,0.8623,-6.73,7.92,-0.11,28.71
24299,0.3287,-0.0243,0.8644,-6.64,7.98,-0.03,28.74
24309,0.329,-0.0265,0.8651,-6.61,8.0,0.0,28.74
24319,0.3267,-0.0267,0.8612,-6.66,7.94,-0.05,28.72
24329,0.3286,-0.0261,0.8619,-6.5,7.97,0.06,28.74
24339,0.327,-0.0275,0.8613,-6.6,7.98,-0.05,28.72
24349,0.3307,-0.0258,0.8606,-6.61,7.91,0.0,28.73
24359,0.3256,-0.0256,0.8625,-6.67,7.91,-0.09,28.74
24369,0.3268,-0.025,0.8624,-6.75,7.95,-0.06,28.72
24379,0.327,-0.0238,0.8693,-6.63,7.97,-0.03,28.74
24389,0.3289,-0.0267,0.8625,-6.7,7.98,-0.06,28.71
24399,0.3273,-0.0243,0.8629,-6.64,7.92,-0.09,28.73
24409,0.328,-0.0243,0.8654,-6.67,7.92,0.02,28.73
24419,0.3293,-0.0271,0.8634,-6.58,7.94,-0.09,28.74
24429,0.3311,-0.0248,0.8669,-6.63,7.88,-0.11,28.73
24439,0.329,-0.0275,0.8667,-6.61,8.0,0.0,28.74
24449,0.3282,-0.0262,0.8604,-6.7,7.97,0.0,28.75
24459,0.3276,-0.0248,0.8608,-6.56,7.95,-0.05,28.74
24469,0.3274,-0.0242,0.8641,-6.61,7.92,-0.09,28.74
24479,0.3291,-0.0258,0.861,-6.69,7.95,-0.06,28.75
24489,0.3262,-0.0265,0.8628,-6.69,7.94,-0.06,28.74
24499,0.3289,-0.024,0.8627,-6.67,7.95,-0.08,28.74
24509,0.328,-0.0244,0.8624,-6.55,8.0,-0.02,28.73
24519,0.328,-0.0236,0.8617,-6.56,7.88,-0.02,28.74
24529,0.3254,-0.0258,0.8621,-6.61,7.88,-0.09,28.76
24539,0.329,-0.0281,0.8623,-6.55,7.95,-0.15,28.76
24549,0.3298,-0.0261,0.864,-6.55,7.94,0.02,28.72
24559,0.329,-0.0294,0.864,-6.64,7.98,0.05,28.74
24569,0.329,-0.0232,0.8644,-6.6,7.95,-0.06,28.75
24579,0.328,-0.0253,0.8644,-6.61,7.97,-0.06,28.74
24589,0.3311,-0.0254,0.8677,-6.58,7.88,-0.03,28.74
24599,0.3265,-0.0249,0.8636,-6.63,7.88,-0.08,28.75
24609,0.3286,-0.0288,0.8634,-6.61,7.91,0.0,28.74
24619,0.3304,-0.0232,0.863,-6.61,7.95,-0.05,28.76
24629,0.3293,-0.0238,0.8644,-6.58,7.97,-0.05,28.75
24639,0.3281,-0.0259,0.8667,-6.63,7.86,-0.08,28.74
24649,0.3273,-0.0284,0.8649,-6.66,7.94,-0.03,28.74
24659,0.3263,-0.0259,0.8638,-6.61,8.0,0.02,28.72
24669,0.3263,-0.026,0.865,-6.61,7.92,-0.03,28.73
24679,0.3284,-0.0283,0.8624,-6.53,7.95,-0.05,28.75
24689,0.3274,-0.0258,0.8655,-6.64,7.97,-0.05,28.74
24699,0.3275,-0.0234,0.8649,-6.79,7.98,-0.09,28.74
24709,0.3287,-0.0277,0.8639,-6.69,7.95,-0.05,28.73
24719,0.3273,-0.0248,0.8621,-6.66,7.92,-0.02,28.75
24729,0.3246,-0.0267,0.8645,-6.63,7.95,-0.05,28.74
24739,0.3253,-0.0288,0.8622,-6.67,7.94,-0.05,28.74
24749,0.3252,-0.0228,0.8588,-6.64,7.98,-0.02,28.74
24759,0.3286,-0.0236,0.8608,-6.69,7.89,0.02,28.76
24769,0.328,-0.0238,0.8622,-6.6,7.95,0.02,28.76
24779,0.3293,-0.0273,0.868,-6.66,7.97,0.0,28.74
24790,0.3297,-0.025,0.865,-6.66,7.92,-0.08,28.72
24800,0.3291,-0.0264,0.8613,-6.55,7.89,-0.05,28.74
24810,0.327,-0.0262,0.8662,-6.58,7.89,-0.03,28.73
24820,0.3269,-0.0255,0.8628,-6.69,7.92,-0.05,28.74
24830,0.3268,-0.0232,0.8618,-6.7,7.98,0.0,28.75
24840,0.3278,-0.0239,0.865,-6.69,7.97,-0.05,28.73
24850,0.3271,-0.0234,0.8646,-6.61,7.88,-0.02,28.73
24860,0.3245,-0.0253,0.8643,-6.6,7.91,-0.05,28.76
24870,0.3258,-0.0234,0.865,-6.6,7.97,-0.02,28.74
24880,0.3297,-0.0271,0.8651,-6.69,7.94,-0.02,28.74
24890,0.3301,-0.0261,0.8613,-6.67,8.02,-0.08,28.74
24900,0.3302,-0.0269,0.8568,-6.55,7.97,-0.05,28.74
24910,0.3241,-0.0251,0.865,-6.58,7.91,-0.09,28.73
24920,0.3252,-0.0258,0.8646,-6.64,7.92,-0.03,28.74
24931,0.3267,-0.0291,0.8646,-6.56,7.91,0.09,28.73
24941,0.329,-0.0247,0.866,-6.64,7.92,-0.06,28.74
24951,0.3295,-0.024,0.8651,-6.63,7.92,-0.05,28.74
24961,0.3307,-0.0287,0.8636,-6.63,7.95,-0.08,28.73
24971,0.3273,-0.0233,0.8628,-6.66,7.92,-0.06,28.74
24981,0.3285,-0.0254,0.868,-6.61,8.0,0.0,28.73
24991,0.3292,-0.0253,0.8586,-6.66,7.86,-0.03,28.74
25001,0.325,-0.0264,0.865,-6.58,7.89,-0.11,28.73
25011,0.329,-0.0292,0.8633,-6.64,7.94,-0.08,28.74
25021,0.329,-0.0272,0.8624,-6.6,7.92,0.0,28.74
25031,0.3274,-0.025,0.8632,-6.66,7.95,-0.08,28.74
25041,0.327,-0.0258,0.8671,-6.7,7.97,-0.06,28.74
25051,0.3284,-0.0244,0.8619,-6.63,7.94,-0.08,28.75
25061,0.33,-0.0254,0.8621,-6.7,7.89,-0.06,28.74
25071,0.3252,-0.0298,0.8643,-6.64,7.97,-0.11,28.73
25081,0.3297,-0.027,0.8663,-6.63,7.92,-0.11,28.75
25092,0.329,-0.0232,0.8596,-6.73,7.95,-0.17,28.74
25102,0.3306,-0.0253,0.8651,-6.64,8.0,-0.08,28.75
25112,0.3269,-0.0255,0.8654,-6.69,7.98,0.02,28.75
25122,0.3267,-0.0253,0.8651,-6.63,7.89,-0.06,28.74
25132,0.3276,-0.0278,0.8624,-6.66,7.97,-0.03,28.76
25142,0.3307,-0.026,0.8623,-6.64,7.88,0.0,28.73
25152,0.326,-0.0251,0.8636,-6.6,7.92,-0.12,28.72
25162,0.3279,-0.0253,0.8629,-6.6,7.86,0.02,28.74
25172,0.3297,-0.027,0.8605,-6.66,7.91,-0.02,28.75
25182,0.325,-0.0258,0.8619,-6.63,7.95,-0.11,28.76
25192,0.3258,-0.0265,0.8644,-6.7,8.02,-0.06,28.74
25202,0.328,-0.0282,0.861,-6.72,7.89,-0.06,28.73
25212,0.3264,-0.0228,0.8668,-6.58,7.91,-0.11,28.74
25222,0.3257,-0.0272,0.8623,-6.67,7.97,-0.05,28.75
25232,0.3297,-0.027,0.8651,-6.64,7.94,-0.03,28.73
25242,0.3281,-0.0229,0.8613,-6.67,7.97,-0.03,28.75
25252,0.3279,-0.0267,0.864,-6.61,8.02,-0.03,28.71
25262,0.328,-0.0294,0.8662,-6.69,7.97,-0.06,28.74
25272,0.3289,-0.0255,0.8647,-6.66,7.95,0.0,28.74
25282,0.3289,-0.024,0.8645,-6.67,7.94,-0.09,28.75
25292,0.3289,-0.0271,0.8634,-6.61,7.86,0.0,28.72
25302,0.3264,-0.0277,0.8634,-6.53,7.94,-0.02,28.73
25312,0.3276,-0.0271,0.8628,-6.64,7.97,-0.02,28.72
25322,0.3256,-0.0265,0.8636,-6.56,8.0,0.0,28.73
25332,0.3274,-0.0265,0.8647,-6.6,7.97,-0.11,28.74
25342,0.3302,-0.0259,0.8638,-6.67,7.95,-0.05,28.74
25352,0.326,-0.0237,0.864,-6.66,7.94,-0.12,28.74
25362,0.3292,-0.0255,0.8615,-6.64,7.94,-0.08,28.76
25372,0.3291,-0.0292,0.8634,-6.67,7.94,-0.06,28.76
25382,0.328,-0.0254,0.8608,-6.61,7.95,-0.06,28.74
25392,0.3265,-0.0239,0.8685,-6.66,7.92,-0.03,28.74
25402,0.3307,-0.0242,0.86,-6.6,7.89,-0.02,28.74
25412,0.327,-0.0281,0.8627,-6.69,7.88,0.0,28.74
25422,0.3269,-0.0271,0.8657,-6.66,7.92,-0.05,28.75
25432,0.3269,-0.0286,0.8668,-6.63,7.97,-0.06,28.74
25442,0.3306,-0.0275,0.8658,-6.63,7.98,-0.02,28.74
25452,0.3309,-0.0271,0.8657,-6.63,8.02,-0.03,28.78
25462,0.3302,-0.0264,0.8663,-6.6,7.95,0.0,28.74
25472,0.3284,-0.0256,0.8654,-6.67,7.97,-0.09,28.74
25483,0.3297,-0.0255,0.8601,-6.69,7.97,-0.02,28.76
25493,0.327,-0.0275,0.8645,-6.6,7.98,-0.08,28.77
25503,0.3264,-0.0261,0.8633,-6.63,7.92,-0.03,28.76
25513,0.3258,-0.0243,0.8644,-6.63,7.95,-0.08,28.73
25523,0.3258,-0.026,0.8638,-6.66,7.95,-0.03,28.75
25533,0.3291,-0.0258,0.8595,-6.7,7.92,-0.05,28.74
25543,0.3304,-0.0262,0.8628,-6.66,7.95,-0.05,28.74
25553,0.3274,-0.0238,0.8656,-6.61,7.91,-0.14,28.75
25563,0.3263,-0.0242,0.8633,-6.64,7.89,0.02,28.74
25573,0.3289,-0.0255,0.8628,-6.64,7.94,-0.02,28.75
25583,0.3291,-0.0251,0.8657,-6.67,7.92,-0.05,28.75
25593,0.3284,-0.0258,0.8622,-6.66,7.89,0.0,28.74
25603,0.326,-0.0245,0.859,-6.63,7.95,-0.05,28.73
25613,0.3282,-0.0267,0.8616,-6.66,8.0,-0.05,28.76
25623,0.3275,-0.0247,0.8593,-6.67,7.92,0.02,28.73
25633,0.3302,-0.0253,0.8643,-6.63,7.91,-0.05,28.76
25643,0.326,-0.0261,0.8655,-6.7,7.94,-0.02,28.75
25653,0.329,-0.0261,0.863,-6.61,7.92,0.0,28.74
25663,0.3278,-0.0275,0.8623,-6.53,7.94,-0.06,28.74
25673,0.3287,-0.0247,0.8643,-6.7,7.97,-0.05,28.74
25683,0.3295,-0.0254,0.8652,-6.67,7.89,-0.02,28.77
25693,0.3265,-0.0259,0.8655,-6.66,7.95,0.02,28.74
25703,0.3245,-0.0247,0.8643,-6.63,7.92,0.02,28.74
25713,0.3259,-0.0245,0.8638,-6.58,7.91,-0.05,28.78
25723,0.33,-0.0261,0.8652,-6.6,7.97,-0.05,28.77
25733,0.3276,-0.0273,0.8652,-6.64,7.89,-0.05,28.76
25743,0.3292,-0.0281,0.8607,-6.6,7.92,-0.15,28.77
25753,0.3274,-0.0251,0.8643,-6.61,7.97,-0.03,28.75
25763,0.3267,-0.026,0.8617,-6.63,7.91,-0.05,28.77
25773,0.328,-0.0258,0.8628,-6.72,7.94,-0.06,28.73
25783,0.3285,-0.0261,0.8663,-6.7,7.95,-0.05,28.77
25793,0.3267,-0.0271,0.8629,-6.61,7.95,0.0,28.77
25803,0.3251,-0.0249,0.8641,-6.64,7.92,0.0,28.76
25813,0.3296,-0.026,0.865,-6.63,7.97,0.03,28.73
25823,0.3287,-0.0283,0.8641,-6.63,7.98,0.0,28.75
25833,0.328,-0.0244,0.8632,-6.64,7.89,-0.08,28.77
25843,0.3276,-0.0277,0.865,-6.7,7.94,-0.08,28.76
25853,0.3253,-0.0273,0.8657,-6.6,7.92,-0.08,28.76
25863,0.3295,-0.0244,0.8663,-6.63,7.97,-0.02,28.77
25873,0.3274,-0.0238,0.8606,-6.66,7.92,-0.09,28.76
25883,0.3252,-0.0253,0.8665,-6.67,7.91,-0.03,28.76
25893,0.3286,-0.0293,0.8611,-6.58,7.92,0.02,28.76
25903,0.3271,-0.0248,0.8624,-6.63,7.94,0.0,28.76
25913,0.326,-0.0262,0.8599,-6.6,7.88,-0.02,28.76
25923,0.3306,-0.0248,0.8616,-6.64,7.97,0.05,28.77
25933,0.3273,-0.0231,0.8604,-6.61,7.92,-0.09,28.78
25943,0.3274,-0.0262,0.8629,-6.6,7.92,0.0,28.78
25953,0.3258,-0.027,0.8627,-6.69,7.97,-0.11,28.77
25963,0.3271,-0.0243,0.8662,-6.61,7.97,-0.06,28.75
25973,0.3282,-0.0251,0.8635,-6.64,7.86,-0.09,28.76
25983,0.3278,-0.0262,0.8677,-6.61,8.02,-0.05,28.77
25993,0.3253,-0.0255,0.8652,-6.61,8.05,-0.02,28.75
26003,0.33,-0.026,0.8684,-6.64,7.95,-0.06,28.77
26013,0.326,-0.0264,0.8687,-6.63,7.91,-0.06,28.72
26023,0.3297,-0.0269,0.8666,-6.56,7.95,-0.06,28.75
26033,0.3282,-0.0262,0.8633,-6.7,7.98,-0.06,28.76
26043,0.3282,-0.0275,0.8634,-6.64,7.94,-0.02,28.76
26053,0.3285,-0.0266,0.8633,-6.61,7.94,-0.03,28.77
26063,0.3285,-0.026,0.864,-6.66,7.91,-0.11,28.75
26073,0.3273,-0.0253,0.8621,-6.61,7.92,-0.14,28.75
26083,0.328,-0.0278,0.8652,-6.69,7.92,-0.03,28.75
26093,0.3265,-0.0234,0.8636,-6.7,7.97,-0.08,28.75
26103,0.3279,-0.0267,0.8649,-6.7,7.97,-0.02,28.78
26113,0.3291,-0.0258,0.863,-6.64,7.95,0.0,28.75
26123,0.3297,-0.0255,0.8628,-6.66,7.97,-0.06,28.75
26133,0.3293,-0.0247,0.8623,-6.72,7.92,-0.03,28.77
26143,0.3285,-0.0272,0.8655,-6.67,7.94,-0.05,28.78
26153,0.3269,-0.0276,0.8652,-6.66,8.0,-0.08,28.77
26163,0.3273,-0.0259,0.8641,-6.64,7.91,-0.02,28.77
26173,0.329,-0.0271,0.8662,-6.67,7.91,0.0,28.78
26183,0.328,-0.025,0.8625,-6.66,7.88,0.0,28.78
26193,0.3281,-0.0264,0.8627,-6.72,7.89,-0.03,28.77
26203,0.3291,-0.0261,0.8634,-6.64,7.89,-0.06,28.76
26213,0.3314,-0.0275,0.8654,-6.61,7.92,-0.11,28.77
26223,0.33,-0.0254,0.8625,-6.6,7.92,-0.05,28.77
26233,0.3273,-0.0271,0.8621,-6.61,7.92,-0.11,28.76
26243,0.3267,-0.025,0.8639,-6.69,7.92,-0.08,28.77
26253,0.3278,-0.0255,0.864,-6.64,7.89,-0.02,28.75
26263,0.3279,-0.0261,0.8654,-6.63,7.95,-0.03,28.75
26273,0.3267,-0.0261,0.866,-6.66,7.98,-0.02,28.76
26283,0.3296,-0.0244,0.8633,-6.64,7.92,-0.03,28.75
26293,0.3278,-0.0261,0.8643,-6.61,7.98,-0.02,28.77
26303,0.3287,-0.0251,0.8623,-6.67,7.92,-0.05,28.79
26313,0.326,-0.0276,0.8645,-6.64,7.91,-0.09,28.76
26323,0.33,-0.0254,0.8644,-6.69,7.95,-0.05,28.78
26333,0.3278,-0.026,0.8641,-6.6,7.94,-0.11,28.79
26343,0.3307,-0.0256,0.8618,-6.67,8.0,-0.02,28.78
26353,0.3286,-0.0244,0.8613,-6.7,7.97,-0.02,28.77
26363,0.3291,-0.0249,0.8643,-6.69,7.94,-0.08,28.79
26373,0.3295,-0.0255,0.8613,-6.64,7.97,-0.05,28.76
26383,0.3295,-0.0262,0.8636,-6.7,7.92,-0.03,28.76
26393,0.3301,-0.0259,0.8665,-6.63,7.91,-0.03,28.78
26403,0.3292,-0.0239,0.8646,-6.67,7.95,-0.05,28.78
26413,0.3271,-0.026,0.8673,-6.64,7.97,-0.03,28.78
26423,0.3292,-0.0262,0.8646,-6.72,7.94,-0.09,28.78
26433,0.3293,-0.0276,0.8654,-6.73,7.88,-0.09,28.78
26443,0.3275,-0.0244,0.8666,-6.67,7.95,-0.03,28.77
26453,0.3265,-0.0242,0.8635,-6.69,7.94,-0.05,28.74
26463,0.3291,-0.026,0.8673,-6.6,7.97,-0.05,28.78
26473,0.3271,-0.0249,0.8608,-6.64,7.92,0.06,28.8
26483,0.3297,-0.0239,0.8673,-6.69,7.86,-0.06,28.77
26493,0.3286,-0.0277,0.8627,-6.7,7.97,0.02,28.75
26503,0.3295,-0.0261,0.8684,-6.75,8.02,-0.12,28.76
26513,0.3293,-0.0271,0.865,-6.69,7.95,-0.05,28.77
26523,0.3273,-0.0255,0.8638,-6.64,7.95,-0.03,28.76
26533,0.3286,-0.0254,0.8629,-6.61,7.85,-0.11,28.76
26543,0.3273,-0.0229,0.8668,-6.7,7.94,-0.02,28.78
26553,0.3295,-0.0245,0.8622,-6.61,7.94,-0.05,28.77
26563,0.3295,-0.0253,0.8627,-6.55,7.95,-0.09,28.77
26573,0.3287,-0.0269,0.8612,-6.66,7.88,-0.09,28.77
26583,0.328,-0.0291,0.8639,-6.63,7.95,-0.09,28.79
26593,0.327,-0.0223,0.8655,-6.66,7.97,-0.05,28.76
26603,0.3264,-0.0237,0.8673,-6.63,8.02,-0.08,28.76
26613,0.3284,-0.025,0.8652,-6.66,7.95,-0.12,28.77
26623,0.329,-0.0265,0.8643,-6.61,7.94,0.0,28.77
26633,0.3285,-0.0249,0.8671,-6.67,7.86,-0.05,28.76
26643,0.3273,-0.0238,0.8655,-6.63,7.94,-0.03,28.77
26653,0.3279,-0.0249,0.864,-6.72,7.97,-0.09,28.76
26663,0.3304,-0.0238,0.8628,-6.7,7.92,-0.03,28.78
26673,0.3242,-0.0277,0.8617,-6.58,8.02,-0.02,28.77
26683,0.3291,-0.0255,0.8638,-6.67,7.98,0.03,28.77
26693,0.3284,-0.0243,0.8644,-6.63,7.86,-0.09,28.78
26703,0.3263,-0.0254,0.866,-6.58,7.91,-0.09,28.77
26713,0.3281,-0.0258,0.8639,-6.64,7.98,-0.03,28.75
26723,0.3278,-0.0237,0.8641,-6.7,7.92,-0.05,28.79
26733,0.3297,-0.0253,0.8635,-6.61,7.92,-0.06,28.77
26743,0.3259,-0.0278,0.8632,-6.67,7.91,-0.09,28.79
26753,0.3281,-0.0255,0.8633,-6.6,7.89,-0.06,28.77
26763,0.3286,-0.027,0.8667,-6.66,7.91,-0.05,28.77
26773,0.3279,-0.0261,0.8621,-6.52,7.97,-0.05,28.77
26783,0.3281,-0.0251,0.865,-6.53,7.98,-0.03,28.8
26793,0.3228,-0.0281,0.8663,-6.66,7.97,-0.08,28.78
26803,0.3264,-0.0275,0.8634,-6.72,7.98,0.0,28.76
26813,0.3263,-0.027,0.8665,-6.53,7.95,0.02,28.79
26823,0.3282,-0.0223,0.866,-6.67,7.95,0.05,28.77
26833,0.3262,-0.0265,0.8649,-6.67,7.94,0.0,28.77
26843,0.3275,-0.0244,0.8655,-6.67,7.88,-0.03,28.78
26853,0.3284,-0.0264,0.8649,-6.75,7.94,-0.08,28.76
26863,0.3262,-0.0271,0.8641,-6.64,7.97,-0.11,28.77
26873,0.327,-0.026,0.8636,-6.69,7.88,-0.08,28.77
26883,0.3293,-0.0271,0.8643,-6.56,7.92,-0.02,28.79
26893,0.3284,-0.0238,0.8634,-6.75,7.89,-0.08,28.78
26903,0.3284,-0.0277,0.8656,-6.66,7.94,-0.08,28.76
26913,0.3252,-0.0253,0.8633,-6.66,7.98,-0.05,28.77
26923,0.3312,-0.0255,0.8635,-6.6,7.97,-0.08,28.78
26933,0.3291,-0.0248,0.8644,-6.69,7.98,-0.14,28.79
26943,0.3284,-0.0273,0.8634,-6.6,7.95,-0.17,28.78
26953,0.3276,-0.0238,0.8623,-6.61,7.94,-0.05,28.78
26963,0.327,-0.0249,0.8612,-6.67,8.0,-0.03,28.78
26973,0.3286,-0.0243,0.8636,-6.6,7.94,0.02,28.77
26983,0.3271,-0.022,0.8632,-6.66,7.91,-0.08,28.77
26993,0.3285,-0.0249,0.8636,-6.58,7.94,-0.03,28.77
27003,0.3263,-0.0255,0.8615,-6.64,7.98,-0.06,28.79
27013,0.3258,-0.0233,0.8638,-6.56,7.94,-0.05,28.79
27023,0.3297,-0.026,0.866,-6.69,7.98,-0.05,28.78
27033,0.3279,-0.0269,0.8646,-6.63,7.89,-0.06,28.78
27043,0.325,-0.0267,0.8652,-6.69,7.97,-0.05,28.8
27053,0.3269,-0.0293,0.8647,-6.64,7.94,-0.02,28.77
27063,0.3243,-0.0254,0.863,-6.67,7.83,0.0,28.77
27073,0.3287,-0.0259,0.8652,-6.69,7.92,-0.03,28.78
27083,0.3295,-0.0251,0.869,-6.6,7.89,-0.06,28.78
27093,0.3308,-0.0287,0.8628,-6.61,7.89,-0.09,28.77
27103,0.3275,-0.0253,0.87,-6.69,7.97,-0.03,28.77
27113,0.3301,-0.0226,0.8638,-6.56,7.98,-0.05,28.79
27123,0.3273,-0.0271,0.8628,-6.61,7.95,-0.08,28.77
27133,0.326,-0.0243,0.866,-6.64,7.88,-0.05,28.79
27143,0.3243,-0.0275,0.8658,-6.6,7.97,0.0,28.77
27153,0.3287,-0.0258,0.8656,-6.6,7.94,-0.05,28.77
27163,0.3264,-0.0267,0.8625,-6.72,7.95,-0.05,28.79
27173,0.3251,-0.0284,0.8644,-6.66,7.98,-0.06,28.77
27183,0.3312,-0.0237,0.8674,-6.66,8.0,-0.08,28.77
27193,0.3311,-0.0287,0.8649,-6.6,7.97,-0.08,28.76
27203,0.3282,-0.0269,0.8638,-6.67,8.0,-0.06,28.79
27213,0.329,-0.0254,0.8644,-6.64,7.95,0.0,28.8
27223,0.3292,-0.0229,0.8612,-6.64,8.02,0.05,28.77
27233,0.3262,-0.025,0.861,-6.6,7.91,-0.08,28.79
27243,0.3262,-0.0253,0.8635,-6.7,7.91,0.0,28.8
27253,0.329,-0.0298,0.8645,-6.7,7.92,-0.09,28.77
27263,0.328,-0.0247,0.8636,-6.64,7.92,-0.02,28.78
27273,0.3265,-0.025,0.8657,-6.63,7.94,-0.02,28.78
27283,0.3242,-0.0262,0.859,-6.61,7.91,-0.05,28.82
27293,0.3242,-0.0269,0.8652,-6.72,7.95,-0.09,28.79
27303,0.3282,-0.0258,0.8628,-6.63,7.91,0.0,28.79
27313,0.3263,-0.0243,0.8622,-6.64,7.97,-0.05,28.77
27323,0.3291,-0.0284,0.8595,-6.67,7.97,-0.08,28.79
27333,0.3279,-0.0265,0.8605,-6.69,7.92,0.02,28.79
27343,0.3282,-0.0249,0.8656,-6.6,7.92,-0.03,28.79
27353,0.33,-0.0299,0.8636,-6.67,7.91,-0.05,28.82
27363,0.3281,-0.0249,0.8645,-6.6,7.95,-0.03,28.79
27373,0.3291,-0.0222,0.8667,-6.6,7.94,-0.11,28.79
27383,0.3296,-0.0234,0.8634,-6.61,7.97,0.02,28.79
27393,0.329,-0.0262,0.8651,-6.6,7.88,-0.09,28.77
27403,0.3276,-0.0256,0.8615,-6.64,7.95,-0.06,28.78
27413,0.328,-0.0273,0.8633,-6.63,7.97,-0.06,28.76
