t_ms,accel_x_g,accel_y_g,accel_z_g,gyro_x_dps,gyro_y_dps,gyro_z_dps,imu_temp_c
3286,0.2274,-0.0052,0.8853,-6.49,7.94,-0.05,27.57
3296,0.2261,-0.0043,0.8881,-6.5,7.88,0.02,27.59
3306,0.2255,-0.0035,0.8828,-6.5,7.91,-0.02,27.58
3316,0.228,-0.0056,0.8845,-6.52,7.82,-0.02,27.58
3326,0.2263,-0.0043,0.886,-6.53,7.92,-0.02,27.54
3336,0.2261,-0.0056,0.8855,-6.49,7.95,-0.06,27.59
3346,0.2268,-0.0055,0.8853,-6.5,7.95,-0.06,27.57
3356,0.2302,-0.0062,0.8827,-6.56,7.94,-0.09,27.58
3366,0.2263,-0.0083,0.8806,-6.56,7.86,-0.06,27.58
3376,0.2262,-0.0085,0.884,-6.56,7.89,-0.14,27.59
3386,0.2252,-0.0072,0.8826,-6.58,7.86,-0.08,27.6
3396,0.2275,-0.0077,0.8783,-6.61,7.91,0.02,27.59
3406,0.2266,-0.0067,0.8844,-6.52,7.88,-0.06,27.57
3416,0.2268,-0.006,0.8881,-6.47,7.85,-0.09,27.6
3426,0.2271,-0.0071,0.8854,-6.52,7.86,-0.03,27.57
3436,0.2262,-0.0068,0.8844,-6.46,7.94,-0.06,27.58
3446,0.2267,-0.0048,0.8806,-6.56,7.92,-0.14,27.59
3456,0.2301,-0.0067,0.8839,-6.5,7.91,-0.02,27.58
3466,0.2283,-0.0083,0.8824,-6.53,7.95,-0.02,27.59
3476,0.2305,-0.0071,0.8846,-6.56,7.85,-0.02,27.61
3487,0.2242,-0.0063,0.8848,-6.53,7.89,-0.03,27.6
3497,0.2286,-0.0063,0.8844,-6.49,7.85,-0.06,27.6
3507,0.2271,-0.0049,0.8826,-6.53,7.85,-0.03,27.57
3517,0.2271,-0.0045,0.88,-6.66,7.94,-0.06,27.59
3527,0.2266,-0.0073,0.8815,-6.53,7.88,-0.06,27.59
3537,0.2264,-0.0062,0.8883,-6.58,7.88,0.0,27.59
3547,0.2273,-0.0099,0.8893,-6.55,7.88,0.0,27.61
3557,0.2279,-0.0099,0.8859,-6.58,7.86,-0.09,27.6
3567,0.2272,-0.0082,0.8801,-6.53,7.83,-0.09,27.61
3577,0.2297,-0.0054,0.886,-6.49,7.86,-0.05,27.59
3587,0.2295,-0.0057,0.8865,-6.61,7.86,-0.09,27.61
3597,0.23,-0.0078,0.8833,-6.6,7.89,-0.09,27.61
3607,0.2275,-0.0077,0.8849,-6.55,7.91,-0.06,27.58
3617,0.2306,-0.0083,0.88,-6.58,7.88,0.06,27.61
3627,0.2268,-0.0078,0.8875,-6.53,7.91,-0.03,27.63
3637,0.2275,-0.0035,0.89,-6.49,7.88,-0.03,27.61
3647,0.2261,-0.0059,0.8861,-6.53,7.91,-0.03,27.62
3657,0.2272,-0.0068,0.8827,-6.56,7.94,-0.06,27.6
3667,0.2275,-0.0068,0.8838,-6.6,7.91,-0.02,27.6
3677,0.2252,-0.0082,0.8818,-6.49,7.85,-0.03,27.62
3687,0.2247,-0.0083,0.8861,-6.58,7.92,-0.03,27.58
3697,0.2253,-0.0071,0.8815,-6.64,7.91,-0.05,27.59
3707,0.2264,-0.0081,0.8779,-6.56,7.92,-0.06,27.62
3717,0.2296,-0.005,0.8839,-6.55,7.89,-0.08,27.62
3727,0.2291,-0.0073,0.8853,-6.49,8.0,0.05,27.59
3737,0.2317,-0.0092,0.8835,-6.49,7.88,0.06,27.62
3747,0.2257,-0.0083,0.8831,-6.56,7.95,-0.03,27.59
3757,0.229,-0.0082,0.8833,-6.56,7.91,-0.06,27.62
3767,0.2249,-0.0092,0.8813,-6.61,7.95,-0.08,27.62
3777,0.2268,-0.009,0.8833,-6.55,7.86,-0.08,27.62
3787,0.2262,-0.0059,0.885,-6.6,7.94,-0.06,27.61
3797,0.2261,-0.0084,0.8845,-6.58,7.94,-0.02,27.63
3807,0.2235,-0.0054,0.8885,-6.66,7.94,-0.05,27.63
3817,0.2247,-0.0078,0.886,-6.56,7.92,-0.06,27.62
3827,0.2241,-0.0083,0.881,-6.61,7.88,-0.02,27.62
3837,0.2288,-0.0088,0.8859,-6.6,7.92,-0.02,27.62
3847,0.2246,-0.0072,0.8848,-6.52,7.91,-0.11,27.62
3857,0.2285,-0.0082,0.8839,-6.63,7.89,-0.08,27.63
3867,0.2273,-0.0089,0.8774,-6.56,7.88,-0.15,27.62
3877,0.2274,-0.006,0.8794,-6.53,8.03,-0.05,27.63
3887,0.2249,-0.0079,0.8828,-6.52,7.89,-0.06,27.63
3897,0.2262,-0.0049,0.8826,-6.6,7.89,-0.08,27.63
3907,0.2271,-0.0042,0.8844,-6.63,7.98,-0.05,27.62
3917,0.2262,-0.0059,0.8833,-6.6,7.91,-0.09,27.64
3927,0.226,-0.0051,0.8837,-6.52,7.92,-0.06,27.62
3937,0.2281,-0.0068,0.885,-6.53,7.89,-0.11,27.65
3947,0.2275,-0.0061,0.8834,-6.53,7.92,-0.06,27.61
3957,0.2274,-0.0063,0.8856,-6.6,7.95,-0.03,27.64
3967,0.2269,-0.0068,0.8844,-6.53,7.88,-0.05,27.67
3977,0.2267,-0.0089,0.8866,-6.53,8.02,-0.02,27.66
3987,0.2266,-0.0077,0.8844,-6.61,7.91,-0.02,27.66
3997,0.2246,-0.0051,0.887,-6.52,7.91,-0.02,27.64
4007,0.2261,-0.0076,0.8813,-6.61,7.92,-0.08,27.65
4017,0.2266,-0.0077,0.8832,-6.63,7.95,-0.06,27.64
4027,0.2302,-0.0066,0.8823,-6.5,7.85,0.0,27.63
4037,0.2286,-0.0062,0.8844,-6.56,7.92,-0.09,27.65
4047,0.231,-0.0067,0.8833,-6.6,7.86,0.03,27.69
4057,0.2268,-0.0084,0.8848,-6.58,7.92,-0.06,27.65
4067,0.2238,-0.0061,0.882,-6.6,7.88,-0.03,27.63
4077,0.2274,-0.0076,0.8817,-6.52,7.89,-0.06,27.64
4087,0.2252,-0.0076,0.8802,-6.53,7.89,0.08,27.63
4098,0.2267,-0.0039,0.8794,-6.56,7.91,0.03,27.64
4108,0.2255,-0.0065,0.8854,-6.55,7.91,0.03,27.63
4118,0.2256,-0.0081,0.887,-6.63,7.88,-0.06,27.62
4128,0.2269,-0.0063,0.8864,-6.63,7.89,-0.06,27.64
4138,0.2273,-0.0048,0.8842,-6.55,7.89,-0.02,27.64
4148,0.2273,-0.0067,0.8835,-6.53,7.91,0.0,27.64
4158,0.2283,-0.0077,0.8885,-6.55,7.79,-0.02,27.65
4168,0.2257,-0.0059,0.8849,-6.58,7.91,-0.05,27.64
4178,0.2258,-0.0061,0.8842,-6.6,7.91,0.0,27.64
4188,0.2277,-0.006,0.8855,-6.6,7.89,-0.05,27.65
4198,0.2239,-0.0065,0.8854,-6.55,7.94,-0.12,27.67
4208,0.2251,-0.0059,0.885,-6.58,7.91,0.0,27.64
4218,0.2267,-0.0071,0.882,-6.55,7.88,-0.02,27.64
4228,0.2272,-0.005,0.8873,-6.52,7.91,0.0,27.66
4238,0.228,-0.0043,0.8881,-6.55,7.95,0.02,27.65
4248,0.2273,-0.0059,0.8857,-6.56,7.94,-0.08,27.64
4258,0.2291,-0.01,0.8817,-6.61,7.91,-0.05,27.66
4268,0.2288,-0.0076,0.8851,-6.61,7.97,0.02,27.65
4278,0.2306,-0.0094,0.8884,-6.56,7.91,-0.05,27.65
4288,0.2305,-0.0078,0.8851,-6.55,7.82,-0.05,27.66
4298,0.2284,-0.0078,0.8809,-6.55,7.82,-0.05,27.67
4308,0.224,-0.0082,0.8873,-6.5,7.88,-0.02,27.64
4318,0.224,-0.0107,0.8828,-6.56,7.82,0.02,27.65
4328,0.2277,-0.0094,0.8849,-6.58,7.92,-0.02,27.66
4338,0.2266,-0.0101,0.88,-6.63,7.92,0.02,27.63
4348,0.2266,-0.0072,0.8873,-6.56,7.89,-0.02,27.66
4358,0.2262,-0.0098,0.8853,-6.63,7.88,-0.05,27.64
4368,0.2256,-0.0107,0.8828,-6.53,7.83,-0.08,27.67
4378,0.2251,-0.0072,0.8838,-6.5,7.89,-0.06,27.68
4388,0.225,-0.0068,0.884,-6.63,7.89,-0.06,27.66
4398,0.2296,-0.0057,0.881,-6.52,7.86,-0.02,27.68
4408,0.2256,-0.0061,0.8861,-6.56,7.92,0.02,27.67
4418,0.2283,-0.0078,0.8809,-6.53,7.91,0.0,27.67
4428,0.2235,-0.0027,0.8938,-6.53,7.97,-0.09,27.65
4438,0.2333,-0.0062,0.874,-6.53,7.54,0.05,27.64
4448,0.2184,-0.0043,0.8905,-6.64,8.12,-0.09,27.64
4458,0.2214,-0.0042,0.887,-6.58,8.09,-0.05,27.66
4468,0.2231,-0.0066,0.8928,-6.63,7.91,-0.08,27.67
4478,0.2252,-0.006,0.8878,-6.6,7.92,-0.05,27.68
4488,0.2274,-0.005,0.8833,-6.55,7.85,-0.02,27.68
4498,0.2274,-0.0072,0.8815,-6.53,7.91,-0.05,27.66
4508,0.2267,-0.0043,0.8865,-6.5,7.94,0.02,27.72
4518,0.2299,-0.0054,0.8823,-6.52,7.79,-0.06,27.69
4528,0.2292,-0.0066,0.8901,-6.46,7.92,0.03,27.67
4538,0.2279,-0.0067,0.8788,-6.6,7.86,-0.08,27.65
4548,0.2274,-0.0078,0.8821,-6.55,7.91,0.0,27.68
4558,0.2255,-0.0076,0.8844,-6.5,8.06,-0.29,27.68
4568,0.2306,-0.0062,0.8848,-6.47,7.91,-0.08,27.67
4578,0.229,-0.0077,0.8829,-6.58,7.92,-0.09,27.68
4588,0.224,-0.0043,0.8882,-6.61,7.94,-0.08,27.68
4598,0.2256,-0.0098,0.8812,-6.5,7.95,-0.11,27.68
4608,0.2246,-0.0071,0.8843,-6.52,7.89,-0.03,27.66
4618,0.2283,-0.0084,0.8834,-6.63,7.91,-0.09,27.68
4628,0.2272,-0.006,0.8828,-6.58,7.97,-0.06,27.67
4638,0.2249,-0.0095,0.8823,-6.56,7.95,-0.05,27.7
4648,0.224,-0.0072,0.8837,-6.49,7.95,0.0,27.7
4658,0.2256,-0.0061,0.8822,-6.55,7.85,0.0,27.69
4668,0.2238,-0.0078,0.8873,-6.66,8.0,-0.08,27.67
4678,0.2296,-0.0076,0.8831,-6.56,7.94,0.0,27.7
4688,0.2249,-0.0099,0.8851,-6.58,7.98,0.03,27.67
4698,0.2251,-0.009,0.886,-6.58,7.92,-0.05,27.68
4708,0.2241,-0.0066,0.885,-6.6,8.0,-0.06,27.67
4718,0.2274,-0.0066,0.8804,-6.53,7.86,0.03,27.7
4728,0.2255,-0.0045,0.8831,-6.53,7.91,-0.08,27.69
4738,0.2274,-0.0084,0.8815,-6.6,7.89,-0.03,27.68
4748,0.2279,-0.0072,0.8868,-6.49,7.85,-0.02,27.7
4758,0.2289,-0.007,0.8839,-6.61,7.97,-0.14,27.68
4768,0.2246,-0.0072,0.8834,-6.53,7.97,-0.05,27.69
4778,0.2266,-0.0048,0.8831,-6.49,7.88,-0.05,27.68
4788,0.2269,-0.0092,0.8828,-6.55,7.95,-0.02,27.69
4798,0.2258,-0.0059,0.8823,-6.49,7.89,-0.06,27.69
4808,0.2251,-0.0063,0.8818,-6.63,7.86,-0.03,27.69
4818,0.2244,-0.007,0.8817,-6.53,7.83,-0.03,27.67
4828,0.2286,-0.009,0.8843,-6.5,7.88,-0.06,27.68
4838,0.2268,-0.0073,0.8796,-6.55,7.8,0.02,27.69
4848,0.2274,-0.0048,0.8868,-6.47,7.89,-0.11,27.69
4858,0.2279,-0.0037,0.8815,-6.61,7.89,-0.02,27.71
4868,0.2266,-0.0054,0.8855,-6.61,7.94,-0.06,27.7
4878,0.2273,-0.0062,0.8793,-6.6,7.83,-0.14,27.69
4888,0.2281,-0.0068,0.8859,-6.52,8.0,-0.08,27.67
4898,0.2273,-0.0088,0.8866,-6.5,7.89,-0.06,27.68
4908,0.2233,-0.0062,0.8855,-6.58,7.94,-0.06,27.72
4918,0.2258,-0.0044,0.8875,-6.61,7.89,-0.03,27.71
4928,0.2245,-0.0076,0.8878,-6.61,7.95,-0.03,27.71
4938,0.224,-0.0088,0.8834,-6.63,7.97,-0.09,27.68
4948,0.2299,-0.0039,0.8817,-6.49,7.85,-0.08,27.67
4958,0.2311,-0.0077,0.8821,-6.52,7.92,-0.15,27.67
4968,0.2285,-0.0079,0.881,-6.46,7.79,-0.08,27.7
4978,0.2253,-0.0061,0.8818,-6.6,7.92,0.05,27.69
4988,0.2263,-0.0057,0.8809,-6.64,7.92,-0.06,27.69
4998,0.2289,-0.007,0.8872,-6.53,7.89,-0.02,27.7
5008,0.2275,-0.0057,0.8822,-6.6,7.91,-0.03,27.7
5018,0.2249,-0.0051,0.8853,-6.61,7.89,-0.09,27.71
5028,0.2266,-0.0051,0.8839,-6.61,7.92,-0.08,27.69
5038,0.2255,-0.0067,0.8857,-6.53,7.95,-0.09,27.71
5048,0.2295,-0.0061,0.8849,-6.56,7.83,-0.03,27.71
5058,0.2271,-0.0074,0.8865,-6.56,7.89,-0.08,27.7
5068,0.2252,-0.0073,0.8838,-6.5,7.92,-0.06,27.73
5078,0.2267,-0.0068,0.8826,-6.58,7.86,-0.03,27.72
5088,0.228,-0.0051,0.8849,-6.46,7.92,-0.02,27.69
5098,0.2289,-0.0076,0.8837,-6.52,7.68,-0.02,27.74
5108,0.2183,-0.0079,0.8918,-6.58,8.08,-0.02,27.7
5118,0.2234,-0.0042,0.8843,-6.5,7.98,-0.03,27.72
5128,0.2255,-0.0044,0.8835,-6.53,7.86,-0.02,27.71
5138,0.2279,-0.0066,0.8893,-6.56,7.91,0.02,27.72
5148,0.2284,-0.01,0.8807,-6.56,7.88,0.0,27.7
5158,0.2251,-0.0072,0.8817,-6.58,7.89,-0.08,27.71
5168,0.2253,-0.0028,0.88,-6.55,7.88,-0.02,27.72
5178,0.2281,-0.004,0.8835,-6.55,7.89,-0.03,27.68
5188,0.2272,-0.0056,0.8835,-6.6,7.86,-0.06,27.69
5198,0.222,-0.0067,0.8827,-6.58,7.86,-0.06,27.71
5208,0.2261,-0.007,0.8818,-6.61,7.83,-0.03,27.73
5218,0.229,-0.0082,0.8809,-6.61,7.89,-0.03,27.72
5228,0.2256,-0.0094,0.8844,-6.53,7.91,0.02,27.72
5238,0.2267,-0.0087,0.8849,-6.52,7.94,-0.06,27.72
5248,0.2291,-0.0063,0.8795,-6.5,7.95,-0.06,27.73
5258,0.2296,-0.0063,0.8865,-6.6,7.98,-0.06,27.7
5268,0.2273,-0.0095,0.8851,-6.58,7.88,-0.03,27.72
5278,0.2278,-0.0083,0.8816,-6.52,7.92,-0.11,27.73
5288,0.2286,-0.0085,0.8853,-6.58,8.0,-0.08,27.71
5298,0.2255,-0.0088,0.8843,-6.56,7.97,-0.02,27.71
5308,0.2272,-0.0073,0.8799,-6.6,7.91,-0.05,27.69
5318,0.228,-0.0052,0.8892,-6.58,7.85,-0.08,27.72
5328,0.2281,-0.0072,0.8832,-6.53,7.94,-0.11,27.75
5338,0.2285,-0.0079,0.8882,-6.61,7.98,-0.11,27.72
5348,0.2289,-0.0061,0.8796,-6.6,7.94,-0.08,27.74
5358,0.2273,-0.0094,0.8827,-6.55,7.97,-0.05,27.75
5368,0.2291,-0.0087,0.8818,-6.61,7.91,-0.06,27.75
5378,0.2278,-0.005,0.8834,-6.61,7.88,0.02,27.73
5388,0.2292,-0.0043,0.8845,-6.56,7.85,-0.03,27.74
5398,0.2283,-0.0065,0.8834,-6.58,7.98,-0.03,27.75
5408,0.2279,-0.0059,0.8844,-6.63,7.89,0.02,27.72
5418,0.2289,-0.0089,0.8846,-6.58,7.91,-0.03,27.73
5428,0.2281,-0.0067,0.8844,-6.55,7.89,-0.05,27.73
5438,0.2274,-0.007,0.8853,-6.55,7.92,-0.06,27.73
5448,0.2272,-0.0083,0.8822,-6.67,7.94,0.03,27.69
5458,0.2258,-0.0067,0.8816,-6.5,7.89,-0.02,27.7
5468,0.2278,-0.0045,0.8833,-6.56,7.85,-0.05,27.71
5478,0.2263,-0.0059,0.8843,-6.66,7.91,-0.02,27.74
5488,0.2273,-0.0073,0.8838,-6.52,7.92,0.0,27.72
5498,0.2263,-0.0105,0.8866,-6.61,7.85,-0.08,27.74
5508,0.2274,-0.0061,0.8815,-6.61,7.94,-0.03,27.73
5518,0.2242,-0.0066,0.8826,-6.6,7.86,-0.05,27.75
5528,0.2249,-0.0048,0.8889,-6.58,7.92,0.0,27.72
5538,0.226,-0.0073,0.8859,-6.55,7.94,-0.02,27.72
5548,0.2242,-0.0077,0.8835,-6.61,7.91,-0.11,27.72
5558,0.2233,-0.0062,0.8798,-6.46,7.86,-0.06,27.75
5568,0.2271,-0.0071,0.8821,-6.5,7.86,-0.08,27.74
5578,0.2312,-0.0045,0.8837,-6.56,7.83,0.0,27.75
5588,0.2258,-0.0023,0.8845,-6.58,7.92,-0.03,27.76
5598,0.2273,-0.0057,0.8833,-6.52,8.0,-0.05,27.77
5608,0.2295,-0.0052,0.8807,-6.58,7.94,-0.08,27.74
5618,0.2255,-0.0104,0.8868,-6.56,7.91,0.02,27.75
5628,0.2209,-0.0074,0.8928,-6.58,8.03,0.0,27.75
5638,0.219,-0.0077,0.8857,-6.56,8.2,0.0,27.73
5648,0.225,-0.0098,0.8821,-6.61,8.0,-0.09,27.77
5658,0.222,-0.0068,0.8857,-6.55,7.91,-0.05,27.72
5668,0.2223,-0.0038,0.8878,-6.63,8.02,-0.11,27.74
5678,0.2234,-0.0084,0.8875,-6.6,7.98,-0.03,27.72
5688,0.2241,-0.0084,0.8844,-6.58,7.89,-0.08,27.72
5698,0.2253,-0.0084,0.8824,-6.58,7.95,-0.05,27.75
5708,0.2246,-0.0084,0.8824,-6.61,8.0,-0.12,27.75
5718,0.2286,-0.004,0.8828,-6.58,7.88,-0.06,27.73
5728,0.229,-0.0085,0.8843,-6.6,7.97,-0.11,27.75
5738,0.2272,-0.0117,0.8837,-6.67,7.91,-0.03,27.75
5748,0.2272,-0.0078,0.8859,-6.58,7.94,-0.02,27.73
5758,0.2261,-0.012,0.8843,-6.58,7.85,-0.08,27.74
5768,0.2251,-0.007,0.881,-6.6,7.88,-0.08,27.74
5778,0.2257,-0.0074,0.8851,-6.61,7.91,-0.06,27.76
5788,0.2257,-0.0087,0.8873,-6.58,7.82,-0.09,27.76
5798,0.2242,-0.0067,0.8831,-6.55,7.86,-0.03,27.74
5808,0.2245,-0.0068,0.8843,-6.56,7.92,-0.08,27.75
5818,0.226,-0.0082,0.8816,-6.52,7.97,-0.05,27.75
5828,0.2296,-0.0095,0.8839,-6.6,7.88,-0.06,27.77
5838,0.2279,-0.0043,0.8824,-6.63,7.89,-0.06,27.75
5848,0.2286,-0.0051,0.8834,-6.52,7.91,-0.12,27.75
5858,0.2269,-0.0056,0.884,-6.6,7.91,-0.08,27.77
5868,0.2251,-0.0033,0.881,-6.52,7.97,-0.05,27.76
5878,0.2275,-0.0066,0.8818,-6.6,7.94,-0.03,27.74
5888,0.2242,-0.0032,0.8846,-6.52,7.92,-0.03,27.72
5898,0.2266,-0.0048,0.8834,-6.55,7.94,-0.05,27.74
5908,0.226,-0.0066,0.8842,-6.56,7.89,-0.03,27.75
5918,0.2281,-0.0049,0.8796,-6.63,7.83,0.03,27.77
5928,0.2274,-0.0068,0.8822,-6.63,7.94,-0.03,27.75
5938,0.2256,-0.0082,0.8829,-6.66,7.94,-0.02,27.76
5948,0.2252,-0.005,0.8855,-6.58,7.86,-0.08,27.74
5958,0.2268,-0.0078,0.8823,-6.52,7.85,0.0,27.78
5968,0.2257,-0.0077,0.8849,-6.53,7.94,-0.06,27.76
5978,0.2255,-0.0065,0.8822,-6.53,7.8,-0.03,27.74
5988,0.2242,-0.0051,0.8822,-6.6,7.86,-0.03,27.76
5998,0.228,-0.0076,0.8816,-6.55,7.88,-0.06,27.77
6008,0.2273,-0.0107,0.8856,-6.58,7.86,0.02,27.76
6018,0.2289,-0.0082,0.8857,-6.52,7.91,-0.02,27.75
6028,0.2279,-0.007,0.8811,-6.55,7.91,-0.06,27.73
6038,0.2272,-0.0094,0.8823,-6.53,7.92,-0.03,27.74
6049,0.2273,-0.0095,0.8851,-6.52,7.89,0.0,27.74
6059,0.2308,-0.0096,0.8823,-6.6,7.77,0.03,27.74
6069,0.2271,-0.0077,0.8827,-6.58,7.8,0.0,27.74
6079,0.2269,-0.0082,0.88,-6.5,7.86,-0.02,27.78
6089,0.2094,-0.0084,0.9006,-6.53,8.32,-0.03,27.79
6099,0.2251,-0.0068,0.8856,-6.5,8.05,0.05,27.73
6109,0.2264,-0.0066,0.8822,-6.53,7.86,-0.05,27.75
6119,0.2292,-0.0071,0.8822,-6.6,7.92,0.0,27.77
6129,0.2242,-0.0066,0.8835,-6.5,8.0,0.02,27.77
6139,0.2239,-0.0093,0.8878,-6.55,7.94,0.05,27.76
6149,0.2231,-0.0046,0.8868,-6.52,8.09,-0.06,27.78
6159,0.223,-0.005,0.8857,-6.5,8.06,-0.02,27.74
6169,0.2231,-0.0061,0.8877,-6.52,8.0,0.02,27.75
6179,0.2223,0.0009,0.8867,-6.52,8.03,0.0,27.77
6189,0.2256,-0.0063,0.8873,-6.53,8.05,0.0,27.74
6199,0.2262,-0.0051,0.8878,-6.53,7.92,-0.05,27.75
6209,0.226,-0.0066,0.8823,-6.52,7.89,-0.02,27.75
6219,0.2264,-0.0057,0.8848,-6.58,7.95,0.02,27.74
6229,0.2268,-0.0068,0.8831,-6.5,7.86,-0.05,27.75
6239,0.2283,-0.0076,0.8831,-6.5,7.86,-0.06,27.75
6249,0.2251,-0.0098,0.8839,-6.55,7.91,0.0,27.76
6259,0.2294,-0.0094,0.8866,-6.56,7.86,-0.06,27.78
6269,0.2271,-0.0098,0.8851,-6.52,7.85,-0.08,27.77
6279,0.2268,-0.0101,0.8859,-6.56,7.97,-0.09,27.76
6289,0.2255,-0.0101,0.8876,-6.58,7.97,0.0,27.77
6299,0.2271,-0.0082,0.8802,-6.55,7.94,-0.02,27.74
6309,0.2256,-0.0074,0.8834,-6.69,7.89,-0.06,27.75
6319,0.2241,-0.0051,0.8844,-6.69,7.92,-0.09,27.77
6329,0.2251,-0.0082,0.8828,-6.66,7.88,-0.05,27.76
6339,0.2271,-0.0121,0.884,-6.6,7.88,-0.05,27.76
6349,0.2261,-0.0114,0.8882,-6.55,7.94,-0.08,27.76
6359,0.2297,-0.0087,0.8837,-6.5,7.88,-0.09,27.77
6369,0.2262,-0.0074,0.8805,-6.56,7.88,-0.05,27.76
6379,0.2314,-0.0074,0.8824,-6.56,7.91,-0.03,27.77
6390,0.2294,-0.0115,0.8788,-6.64,7.91,-0.12,27.77
6400,0.2275,-0.0098,0.8851,-6.63,7.88,-0.17,27.75
6410,0.2258,-0.0084,0.8856,-6.56,7.86,-0.11,27.77
6420,0.2228,-0.0059,0.8877,-6.69,7.95,-0.12,27.78
6430,0.2236,-0.0072,0.8855,-6.63,7.89,-0.14,27.79
6445,0.2257,-0.0066,0.8822,-6.43,7.92,0.72,27.78
6455,0.2235,-0.0068,0.8898,-6.63,8.05,0.0,27.79
6465,0.224,-0.0039,0.8859,-6.66,7.92,0.02,27.78
6475,0.228,-0.0078,0.877,-6.64,7.89,-0.05,27.76
6485,0.2242,-0.0017,0.884,-6.63,7.98,-0.14,27.78
6495,0.2256,-0.0039,0.8885,-6.6,7.92,-0.11,27.77
6507,0.2218,-0.0051,0.8868,-6.61,7.91,-0.14,27.76
6517,0.2224,-0.004,0.8853,-6.53,7.94,-0.17,27.79
6527,0.2256,-0.0098,0.8895,-6.58,8.06,-0.2,27.79
6537,0.2233,-0.0132,0.8878,-6.61,8.0,-0.2,27.76
6547,0.2257,-0.006,0.8824,-6.69,7.86,-0.18,27.75
6557,0.2242,-0.0089,0.8877,-6.56,8.05,-0.14,27.77
6567,0.2322,-0.011,0.8765,-6.6,7.92,-0.09,27.78
6577,0.2306,-0.005,0.8821,-6.63,7.97,-0.11,27.79
6587,0.2251,-0.0106,0.8827,-6.56,7.92,-0.12,27.77
6597,0.228,-0.0098,0.8843,-6.63,7.86,-0.18,27.75
6607,0.2289,-0.011,0.8776,-6.63,7.88,-0.21,27.77
6617,0.2374,-0.0135,0.8621,-6.53,7.56,-0.15,27.78
6627,0.2305,-0.007,0.8943,-6.58,7.71,-0.14,27.79
6637,0.2311,-0.0024,0.8832,-6.63,7.89,-0.11,27.79
6647,0.2234,-0.0133,0.8816,-6.53,7.79,-0.06,27.79
6657,0.2324,-0.0054,0.8802,-6.64,7.8,-0.05,27.79
6667,0.2291,-0.0106,0.8817,-6.64,7.86,-0.09,27.77
6677,0.2306,-0.0101,0.8794,-6.58,7.91,-0.12,27.76
6688,0.2281,-0.0044,0.8789,-6.67,7.86,-0.03,27.78
6698,0.2262,-0.0062,0.8829,-6.58,7.98,-0.17,27.78
6708,0.2281,-0.0039,0.886,-6.66,8.02,-0.11,27.77
6718,0.2256,-0.0016,0.8815,-6.56,8.03,-0.08,27.8
6728,0.223,-0.0043,0.8795,-6.56,7.92,-0.15,27.79
6738,0.2269,-0.0001,0.8845,-6.63,7.91,-0.06,27.78
6748,0.226,-0.0011,0.8854,-6.55,8.03,-0.11,27.78
6758,0.226,-0.0027,0.8828,-6.64,7.89,-0.06,27.77
6768,0.2266,-0.0004,0.8845,-6.53,7.95,-0.14,27.78
6778,0.2292,-0.0039,0.8853,-6.6,7.92,-0.06,27.79
6788,0.2278,-0.0057,0.8826,-6.56,7.95,-0.08,27.79
6798,0.2284,-0.0072,0.8799,-6.53,7.86,-0.08,27.81
6808,0.2277,-0.0054,0.8854,-6.52,7.88,-0.08,27.77
6818,0.2291,-0.0092,0.8834,-6.64,7.94,-0.03,27.79
6828,0.2236,-0.0076,0.8868,-6.6,7.89,-0.03,27.79
6838,0.2274,-0.01,0.8843,-6.61,7.86,-0.06,27.77
6848,0.2269,-0.0089,0.8854,-6.67,7.97,-0.11,27.82
6858,0.2269,-0.007,0.8801,-6.55,8.02,-0.02,27.79
6868,0.226,-0.0045,0.8827,-6.64,7.89,0.05,27.78
6878,0.2262,-0.0067,0.8827,-6.69,7.91,0.02,27.8
6888,0.2272,-0.0078,0.884,-6.64,7.94,0.03,27.8
6898,0.2249,-0.0104,0.8752,-6.6,7.86,-0.02,27.81
6908,0.23,-0.009,0.886,-6.56,7.86,0.05,27.79
6918,0.2266,-0.0077,0.8851,-6.6,7.92,0.05,27.78
6928,0.2277,-0.0094,0.8771,-6.58,7.89,-0.08,27.79
6938,0.2273,-0.0082,0.8768,-6.52,7.88,-0.06,27.79
6948,0.2303,-0.0065,0.8867,-6.52,7.86,0.0,27.8
6958,0.23,-0.0101,0.8785,-6.66,7.92,-0.06,27.79
6968,0.2267,-0.0076,0.8828,-6.53,7.94,0.03,27.78
6978,0.2255,-0.0067,0.8813,-6.58,7.97,0.05,27.78
6988,0.229,-0.0027,0.8864,-6.63,7.97,0.03,27.76
6998,0.2245,-0.0048,0.8811,-6.52,7.92,-0.11,27.82
7009,0.2233,-0.01,0.8872,-6.56,7.92,-0.11,27.77
7019,0.2239,-0.0046,0.8848,-6.55,7.83,-0.05,27.77
7029,0.2238,-0.0087,0.8865,-6.58,8.0,-0.09,27.81
7039,0.2263,-0.0057,0.8885,-6.64,7.97,-0.11,27.81
7049,0.2266,-0.0026,0.8816,-6.61,7.95,-0.08,27.79
7059,0.2247,-0.0073,0.8816,-6.69,7.88,-0.05,27.82
7069,0.2261,-0.01,0.8845,-6.61,7.97,-0.08,27.78
7079,0.2249,-0.0056,0.8846,-6.63,7.98,-0.12,27.81
7089,0.2273,-0.0081,0.8848,-6.55,7.94,-0.05,27.8
7099,0.2306,-0.0111,0.8829,-6.55,7.91,-0.02,27.79
7109,0.2295,-0.0051,0.8834,-6.56,8.0,-0.11,27.81
7119,0.2283,-0.0078,0.8804,-6.63,7.85,-0.11,27.79
7129,0.2273,-0.0121,0.8815,-6.63,7.8,-0.03,27.79
7139,0.2263,-0.0071,0.884,-6.6,7.92,-0.09,27.79
7149,0.2251,-0.0083,0.8843,-6.61,7.89,-0.14,27.79
7159,0.224,-0.0085,0.8828,-6.69,7.94,-0.08,27.79
7169,0.2257,-0.009,0.8815,-6.6,8.0,-0.09,27.8
7179,0.2244,-0.0094,0.8873,-6.63,7.86,-0.09,27.78
7189,0.2264,-0.0087,0.8805,-6.53,7.92,-0.06,27.83
7199,0.225,-0.0045,0.881,-6.67,7.97,-0.05,27.78
7209,0.2313,-0.0056,0.8832,-6.56,7.94,-0.12,27.81
7219,0.2291,-0.0056,0.8849,-6.56,7.88,-0.09,27.81
7229,0.225,-0.005,0.8864,-6.6,7.89,-0.08,27.78
7239,0.2245,0.0001,0.8848,-6.75,7.95,-0.09,27.79
7249,0.2285,-0.0061,0.8894,-6.6,8.0,-0.05,27.78
7259,0.2249,-0.0022,0.8883,-6.56,7.95,-0.09,27.81
7269,0.2292,-0.0168,0.8793,-6.46,7.83,-0.05,27.81
7279,0.2194,-0.0017,0.8894,-6.69,7.88,-0.05,27.8
7300,0.2268,-0.0156,0.8828,-6.75,7.73,-0.09,27.82
7310,0.2251,-0.0007,0.8905,-6.44,8.03,-0.08,27.8
7320,0.2225,-0.0096,0.8848,-6.61,7.97,-0.08,27.82
7330,0.2211,-0.0072,0.8857,-6.6,8.15,-0.05,27.8
7340,0.2224,-0.0074,0.8843,-6.56,8.06,-0.08,27.81
7350,0.2239,-0.0017,0.8879,-6.64,7.91,-0.02,27.79
7360,0.2261,-0.0087,0.8848,-6.6,7.97,-0.06,27.8
7370,0.2273,-0.0065,0.8817,-6.63,7.83,-0.02,27.79
7380,0.2277,-0.0114,0.8864,-6.67,7.82,-0.06,27.82
7390,0.228,-0.0096,0.8796,-6.66,7.8,0.0,27.79
7400,0.228,-0.0062,0.8831,-6.52,7.89,-0.05,27.8
7410,0.2258,-0.0098,0.8839,-6.61,8.0,-0.03,27.82
7420,0.2255,-0.0099,0.8835,-6.61,7.85,-0.05,27.8
7430,0.2284,-0.009,0.8822,-6.61,7.79,-0.09,27.83
7440,0.2222,-0.0048,0.8856,-6.61,7.92,0.0,27.82
7450,0.2258,-0.0048,0.882,-6.63,7.94,-0.06,27.79
7461,0.2266,-0.0057,0.8887,-6.6,7.88,-0.05,27.79
7471,0.2262,-0.0038,0.8868,-6.6,7.88,0.05,27.82
7481,0.2272,-0.0046,0.884,-6.58,7.97,0.02,27.81
7491,0.2269,-0.004,0.8815,-6.58,7.97,-0.08,27.79
7501,0.228,-0.005,0.8818,-6.61,7.86,-0.09,27.81
7511,0.2297,-0.0088,0.8806,-6.6,7.85,0.03,27.8
7521,0.2319,-0.0026,0.885,-6.55,7.92,0.09,27.81
7531,0.2286,-0.0085,0.8848,-6.6,7.94,0.02,27.82
7541,0.2278,-0.0062,0.8818,-6.6,7.92,0.0,27.83
7551,0.2289,-0.0087,0.885,-6.63,7.89,-0.11,27.83
7562,0.2284,-0.0071,0.8846,-6.64,7.95,-0.09,27.82
7572,0.2279,-0.0085,0.8846,-6.6,7.89,-0.06,27.82
7582,0.2263,-0.0081,0.8878,-6.55,7.95,-0.03,27.8
7592,0.2255,-0.0093,0.8853,-6.64,7.95,-0.03,27.81
7602,0.228,-0.0098,0.8831,-6.53,7.97,0.0,27.8
7612,0.2269,-0.0076,0.8816,-6.58,7.94,-0.05,27.8
7622,0.2239,-0.0093,0.8835,-6.58,7.98,-0.08,27.8
7632,0.2244,-0.0072,0.8829,-6.53,7.89,0.0,27.81
7642,0.2261,-0.0082,0.8811,-6.58,7.94,0.08,27.81
7652,0.2244,-0.0055,0.8835,-6.5,7.91,0.02,27.84
7662,0.2286,-0.0062,0.8839,-6.6,7.83,-0.02,27.8
7672,0.2263,-0.0015,0.8849,-6.55,7.91,0.06,27.84
7682,0.2233,-0.0004,0.8857,-6.6,7.83,0.05,27.8
7692,0.2275,-0.002,0.8806,-6.63,7.88,0.06,27.8
7702,0.2244,-0.0001,0.884,-6.6,7.98,0.0,27.83
7712,0.2289,-0.0043,0.8807,-6.6,7.88,0.02,27.81
7722,0.2269,-0.0052,0.8848,-6.55,7.98,-0.06,27.82
7732,0.2255,-0.0031,0.8839,-6.58,7.98,-0.05,27.79
7742,0.2277,-0.0076,0.8831,-6.63,7.92,-0.02,27.8
7752,0.2284,-0.0105,0.8837,-6.6,7.88,-0.02,27.79
7762,0.2268,-0.0126,0.8801,-6.58,7.85,-0.03,27.81
7772,0.2253,-0.0115,0.8806,-6.55,7.89,0.03,27.81
7782,0.2271,-0.0106,0.8864,-6.55,7.91,0.03,27.83
7792,0.2272,-0.0122,0.8901,-6.64,7.85,-0.03,27.82
7802,0.2272,-0.0085,0.8834,-6.52,7.94,0.09,27.82
7812,0.2239,-0.0056,0.8849,-6.55,8.02,0.05,27.83
7822,0.2242,-0.0028,0.8861,-6.63,8.03,0.0,27.82
7832,0.2264,-0.0067,0.8794,-6.61,7.89,-0.03,27.82
7842,0.2314,-0.0027,0.8811,-6.56,7.8,-0.02,27.82
7852,0.2305,-0.0026,0.8838,-6.53,7.92,-0.02,27.82
7862,0.229,-0.0056,0.8785,-6.5,7.89,0.03,27.83
7872,0.2267,-0.0049,0.8851,-6.56,7.89,0.02,27.82
7882,0.2251,-0.0078,0.8845,-6.56,7.88,0.05,27.82
7892,0.2242,-0.0061,0.8815,-6.63,7.8,-0.02,27.83
7902,0.2239,-0.0057,0.8805,-6.6,7.92,-0.02,27.82
7912,0.2267,-0.0078,0.8842,-6.6,7.92,-0.05,27.81
7922,0.2258,-0.0057,0.8875,-6.63,7.97,-0.08,27.83
7932,0.2271,-0.0082,0.8898,-6.6,8.05,-0.05,27.83
7942,0.2281,-0.0073,0.8809,-6.64,8.03,-0.09,27.83
7952,0.2299,-0.0139,0.8766,-6.6,7.94,0.02,27.82
7962,0.2303,-0.0137,0.8823,-6.61,7.85,-0.05,27.82
7972,0.2271,-0.011,0.8826,-6.66,7.92,-0.06,27.83
7982,0.2268,-0.012,0.8865,-6.67,7.88,-0.03,27.82
7992,0.2262,-0.0109,0.8867,-6.64,7.94,-0.05,27.84
8002,0.224,-0.0084,0.8882,-6.58,7.94,-0.06,27.83
8012,0.2277,-0.0093,0.886,-6.44,7.95,-0.03,27.84
8022,0.2247,-0.0071,0.8857,-6.47,8.0,-0.05,27.82
8032,0.225,-0.0066,0.8842,-6.58,7.95,-0.06,27.81
8042,0.2275,-0.0042,0.8835,-6.47,7.97,-0.09,27.84
8052,0.2256,-0.0094,0.8846,-6.66,7.82,-0.03,27.86
8062,0.2246,-0.0048,0.8823,-6.49,8.08,-0.06,27.84
8072,0.2289,-0.004,0.886,-6.69,7.97,-0.02,27.84
8082,0.2245,-0.0056,0.885,-6.49,8.05,-0.08,27.83
8092,0.2234,-0.005,0.8855,-6.55,8.03,-0.02,27.84
8102,0.2236,-0.0048,0.8914,-6.64,7.97,0.0,27.83
8112,0.2262,-0.002,0.8828,-6.58,7.94,-0.02,27.84
8122,0.2269,-0.0038,0.8875,-6.56,7.92,0.08,27.84
8132,0.2242,-0.001,0.8862,-6.52,7.88,0.05,27.84
8142,0.2264,0.0,0.8859,-6.63,7.91,0.03,27.82
8152,0.2294,-0.0052,0.8809,-6.58,7.95,-0.05,27.84
8162,0.2268,-0.0048,0.8811,-6.58,7.97,0.0,27.83
8172,0.2273,-0.0045,0.8837,-6.64,7.89,-0.08,27.84
8182,0.2285,-0.0072,0.8807,-6.63,7.85,-0.11,27.85
8192,0.2269,-0.0023,0.8864,-6.58,7.92,-0.08,27.84
8202,0.2285,-0.0084,0.8882,-6.61,7.95,-0.03,27.82
8212,0.2279,-0.0087,0.8876,-6.69,7.86,-0.05,27.84
8222,0.2244,-0.0106,0.8806,-6.53,7.85,-0.09,27.84
8232,0.2239,-0.0125,0.8827,-6.55,8.0,-0.08,27.83
8242,0.2322,-0.0128,0.8823,-6.5,7.95,-0.06,27.83
8252,0.2271,-0.0131,0.8849,-6.55,7.89,-0.03,27.84
8262,0.2286,-0.0116,0.8793,-6.58,7.89,0.0,27.83
8272,0.2268,-0.0103,0.8855,-6.64,7.91,0.06,27.84
8282,0.2247,-0.0054,0.8829,-6.56,7.95,-0.03,27.83
8292,0.2251,-0.009,0.8822,-6.6,7.94,-0.02,27.82
8302,0.2253,-0.0023,0.8877,-6.58,7.94,-0.02,27.84
8312,0.2271,-0.0062,0.8833,-6.66,7.94,-0.02,27.85
8322,0.2233,-0.0082,0.8845,-6.67,7.92,0.03,27.82
8332,0.2239,-0.0063,0.8887,-6.61,7.97,-0.08,27.85
8342,0.2285,-0.0071,0.8804,-6.55,8.0,-0.17,27.84
8352,0.2264,-0.0095,0.8829,-6.63,7.86,-0.11,27.83
8362,0.2294,-0.0082,0.881,-6.56,7.97,0.0,27.84
8372,0.2289,-0.0081,0.8822,-6.56,7.94,-0.06,27.85
8382,0.2288,-0.0089,0.8828,-6.6,7.91,-0.02,27.83
8392,0.2255,-0.0059,0.8882,-6.6,7.89,-0.05,27.88
8402,0.2247,-0.0046,0.8905,-6.64,7.94,-0.11,27.85
8412,0.2275,-0.0054,0.8842,-6.63,7.82,-0.05,27.81
8422,0.2269,-0.0061,0.8848,-6.6,7.91,0.02,27.84
8432,0.2268,-0.0076,0.8864,-6.63,7.92,-0.12,27.86
8442,0.2264,-0.007,0.8823,-6.55,7.86,-0.08,27.86
8452,0.2267,-0.0062,0.882,-6.58,7.89,-0.06,27.85
8462,0.2255,-0.0094,0.8824,-6.58,7.97,-0.14,27.87
8472,0.2273,-0.0084,0.8766,-6.66,7.98,-0.08,27.84
8482,0.2302,-0.0111,0.8763,-6.64,7.85,-0.03,27.84
8492,0.2245,-0.0081,0.8821,-6.69,7.86,-0.05,27.87
8502,0.2294,-0.0074,0.8838,-6.56,7.92,0.06,27.87
8512,0.2284,-0.0068,0.8828,-6.63,7.86,-0.08,27.86
8522,0.2281,-0.0004,0.882,-6.66,7.85,0.06,27.85
8532,0.2238,-0.0011,0.8831,-6.58,7.92,-0.06,27.84
8542,0.2269,-0.0011,0.8877,-6.6,7.98,-0.08,27.84
8552,0.2286,-0.0033,0.8838,-6.52,7.91,0.06,27.85
8562,0.2244,-0.0056,0.8824,-6.6,7.92,0.03,27.83
8572,0.2271,-0.0065,0.8842,-6.49,7.88,-0.02,27.87
8582,0.2305,-0.0059,0.8818,-6.63,7.88,0.0,27.84
8592,0.2272,-0.0037,0.8815,-6.63,7.83,0.0,27.86
8602,0.2275,-0.0056,0.8845,-6.63,7.85,0.05,27.85
8612,0.2271,-0.0066,0.8854,-6.64,7.97,0.03,27.86
8622,0.2288,-0.0071,0.8859,-6.58,7.98,-0.02,27.84
8632,0.2253,-0.0056,0.8853,-6.56,7.98,0.03,27.85
8642,0.2288,-0.0035,0.8826,-6.6,8.0,-0.05,27.87
8652,0.2239,-0.0072,0.886,-6.58,7.89,0.0,27.85
8662,0.2297,-0.012,0.879,-6.53,7.77,0.0,27.84
8672,0.2213,-0.0137,0.8883,-6.58,8.03,0.05,27.85
8682,0.2246,-0.0135,0.8893,-6.55,8.0,0.02,27.83
8692,0.2305,-0.0115,0.8824,-6.53,7.85,0.03,27.86
8702,0.2246,-0.0129,0.8827,-6.58,7.89,-0.08,27.84
8712,0.2227,-0.0072,0.8862,-6.66,8.03,-0.03,27.85
8722,0.2251,-0.0085,0.8873,-6.56,7.97,-0.05,27.84
8732,0.2255,-0.0107,0.8853,-6.58,7.98,-0.02,27.84
8742,0.2231,-0.0094,0.8839,-6.63,8.0,-0.05,27.84
8752,0.2239,-0.0098,0.8868,-6.61,7.91,-0.09,27.84
8762,0.224,-0.0071,0.8867,-6.6,7.98,0.02,27.84
8772,0.2267,-0.0093,0.8835,-6.5,7.85,-0.09,27.84
8782,0.2273,-0.0107,0.882,-6.66,7.8,-0.02,27.86
8792,0.2324,-0.011,0.8799,-6.58,7.89,-0.08,27.87
8802,0.2292,-0.0078,0.8806,-6.56,7.91,-0.06,27.87
8812,0.2261,-0.0065,0.8876,-6.66,7.89,-0.05,27.88
8822,0.2264,-0.0061,0.8816,-6.53,7.89,-0.05,27.87
8832,0.2256,-0.0048,0.8813,-6.61,7.86,-0.03,27.87
8842,0.2266,-0.0057,0.8877,-6.58,7.88,-0.11,27.87
8852,0.2256,0.0016,0.8815,-6.6,7.89,-0.09,27.87
8862,0.2285,-0.0029,0.8831,-6.64,7.95,-0.06,27.85
8872,0.2302,-0.0043,0.8845,-6.5,7.88,-0.06,27.88
8882,0.2292,-0.0048,0.8871,-6.53,7.95,-0.08,27.88
8892,0.2246,-0.0051,0.8872,-6.5,8.0,-0.12,27.87
8902,0.2258,-0.0063,0.882,-6.61,7.94,-0.06,27.87
8912,0.2271,-0.0074,0.8818,-6.58,7.89,-0.08,27.87
8922,0.2283,-0.0066,0.8833,-6.56,7.89,-0.02,27.86
8932,0.2252,-0.0051,0.8859,-6.61,7.89,-0.12,27.87
8942,0.2211,-0.0051,0.8827,-6.56,7.94,-0.02,27.87
8952,0.2266,-0.0067,0.8844,-6.53,7.92,-0.09,27.87
8962,0.2285,-0.0087,0.8804,-6.6,7.94,-0.06,27.87
8972,0.2242,-0.0056,0.8807,-6.44,7.94,0.03,27.85
8982,0.2235,-0.0037,0.8892,-6.61,8.02,-0.06,27.87
8992,0.2236,-0.0067,0.8805,-6.66,7.95,-0.12,27.85
9002,0.2321,-0.006,0.8832,-6.61,7.8,-0.09,27.85
9012,0.2258,-0.007,0.8876,-6.56,7.94,-0.09,27.85
9022,0.2281,-0.0085,0.8871,-6.56,7.98,-0.05,27.86
9032,0.2267,-0.0103,0.8857,-6.63,7.92,-0.06,27.86
9042,0.2272,-0.0054,0.8816,-6.55,7.88,-0.06,27.88
9052,0.2257,-0.0072,0.887,-6.6,7.97,-0.05,27.84
9062,0.2252,-0.0117,0.8892,-6.66,7.95,-0.05,27.88
9072,0.226,-0.0093,0.89,-6.67,7.89,-0.05,27.88
9082,0.222,-0.0079,0.884,-6.6,7.94,-0.09,27.88
9092,0.2235,-0.012,0.8822,-6.53,7.92,-0.06,27.87
9102,0.2235,-0.0131,0.8842,-6.46,7.97,0.0,27.85
9112,0.2288,-0.0101,0.8831,-6.64,7.92,-0.02,27.87
9122,0.2278,-0.0059,0.8831,-6.53,7.91,0.0,27.88
9132,0.2281,-0.0071,0.8798,-6.61,7.82,0.03,27.86
9142,0.2297,-0.0023,0.8883,-6.53,7.88,0.02,27.88
9152,0.2272,0.0013,0.8838,-6.55,7.97,-0.05,27.88
9162,0.2244,-0.0013,0.8849,-6.61,7.94,-0.05,27.86
9172,0.2267,-0.0071,0.8826,-6.53,7.82,-0.03,27.87
9182,0.2343,-0.0016,0.8782,-6.52,7.82,-0.02,27.87
9192,0.2283,-0.004,0.8873,-6.58,7.79,-0.05,27.87
9202,0.2225,-0.0029,0.8855,-6.53,8.06,-0.06,27.88
9212,0.2327,-0.001,0.8832,-6.67,7.92,-0.09,27.85
9222,0.235,-0.0037,0.8777,-6.61,7.74,0.0,27.88
9232,0.2286,-0.0042,0.8881,-6.66,8.02,-0.08,27.87
9242,0.2292,-0.0049,0.8867,-6.6,8.03,-0.08,27.85
9252,0.2286,-0.0066,0.8832,-6.56,7.82,-0.03,27.88
9262,0.2252,-0.0082,0.8831,-6.61,7.85,-0.02,27.87
9272,0.2284,-0.0079,0.8866,-6.52,7.95,-0.06,27.85
9282,0.2262,-0.0023,0.8857,-6.63,7.88,-0.02,27.86
9292,0.2256,-0.009,0.8873,-6.63,7.91,-0.03,27.87
9302,0.2253,-0.0079,0.8878,-6.64,7.89,0.0,27.87
9312,0.2235,-0.011,0.8824,-6.53,7.98,-0.03,27.86
9322,0.2275,-0.0098,0.8821,-6.58,7.92,-0.05,27.87
9332,0.2314,-0.0087,0.8745,-6.52,7.85,-0.05,27.85
9342,0.2168,-0.0068,0.8931,-6.63,8.26,-0.05,27.87
9352,0.2295,-0.0052,0.8813,-6.55,7.83,0.03,27.88
9362,0.2266,-0.007,0.8835,-6.55,7.8,-0.02,27.86
9372,0.2253,-0.0043,0.8844,-6.61,7.89,-0.08,27.87
9382,0.2272,-0.0082,0.8842,-6.58,7.92,-0.06,27.86
9392,0.2229,-0.0093,0.8875,-6.6,7.98,-0.09,27.89
9402,0.2272,-0.009,0.8809,-6.49,8.06,-0.08,27.87
9412,0.2295,-0.0084,0.8833,-6.64,7.94,-0.09,27.87
9422,0.2272,-0.0104,0.8815,-6.61,7.98,-0.05,27.87
9432,0.2272,-0.0101,0.8831,-6.61,7.94,-0.02,27.87
9442,0.2277,-0.0076,0.8802,-6.64,7.97,-0.06,27.85
9452,0.228,-0.0048,0.8835,-6.6,7.91,-0.05,27.87
9462,0.2233,-0.0068,0.8816,-6.63,7.92,-0.03,27.9
9472,0.2255,-0.0063,0.8867,-6.55,7.94,-0.06,27.88
9482,0.2277,-0.0027,0.8893,-6.67,8.0,0.0,27.89
9492,0.2246,-0.0021,0.8854,-6.63,8.05,-0.12,27.89
9502,0.2264,-0.0011,0.8842,-6.67,7.97,-0.12,27.89
9512,0.2109,-0.0026,0.9092,-6.56,8.2,-0.15,27.88
9522,0.2338,-0.0099,0.8665,-6.58,7.79,-0.09,27.87
9532,0.2258,-0.012,0.8868,-6.56,7.86,-0.09,27.88
9542,0.2274,-0.0072,0.8801,-6.66,7.82,-0.17,27.9
9552,0.2308,-0.0071,0.886,-6.61,7.97,-0.08,27.91
9562,0.224,-0.0065,0.884,-6.66,7.95,-0.11,27.88
9572,0.2325,-0.0103,0.8801,-6.61,7.95,-0.11,27.87
9582,0.2261,-0.0121,0.8907,-6.52,7.56,-0.06,27.88
9592,0.2478,-0.0085,0.8668,-6.53,7.48,-0.08,27.89
9602,0.2277,-0.0052,0.8834,-6.58,7.68,-0.03,27.87
9612,0.2366,0.0017,0.8757,-6.66,8.0,-0.03,27.89
9622,0.2361,0.0018,0.8875,-6.58,7.8,-0.03,27.89
9632,0.2258,-0.0022,0.8922,-6.72,8.14,-0.02,27.87
9642,0.2111,-0.0123,0.8947,-6.58,8.12,-0.09,27.89
9652,0.2236,-0.0117,0.8827,-6.67,7.83,-0.11,27.87
9662,0.2194,-0.0101,0.886,-6.49,8.03,-0.06,27.87
9672,0.2183,-0.0059,0.89,-6.58,8.06,-0.06,27.86
9682,0.2208,-0.0012,0.8873,-6.6,8.0,0.0,27.89
9692,0.2225,-0.0057,0.8876,-6.63,7.95,-0.02,27.87
9703,0.2296,-0.0056,0.8813,-6.61,8.02,0.09,27.89
9713,0.2278,-0.0095,0.8867,-6.55,7.91,-0.02,27.89
9723,0.2308,-0.0092,0.8865,-6.5,7.92,0.08,27.91
9733,0.2256,-0.004,0.885,-6.43,7.95,0.02,27.87
9743,0.2252,-0.0029,0.8807,-6.53,7.89,-0.05,27.85
9753,0.2263,0.0015,0.8795,-6.55,7.94,0.0,27.88
9763,0.2262,-0.0076,0.8861,-6.69,7.97,-0.02,27.89
9773,0.2249,-0.0045,0.8843,-6.66,8.02,0.11,27.89
9783,0.2239,-0.01,0.8842,-6.63,7.91,0.05,27.86
9793,0.2274,-0.0068,0.8809,-6.55,7.92,0.03,27.88
9803,0.2303,-0.0013,0.8794,-6.64,7.92,-0.03,27.86
9813,0.2224,0.0002,0.8857,-6.52,7.98,0.05,27.87
9823,0.2269,-0.0204,0.8909,-6.47,7.88,0.11,27.89
9833,0.2256,-0.016,0.8789,-6.49,7.82,-0.08,27.86
9843,0.223,0.0074,0.8805,-6.49,7.83,-0.06,27.87
9853,0.2192,0.0012,0.8881,-6.61,8.2,-0.06,27.88
9863,0.2264,-0.0181,0.897,-6.63,8.18,-0.03,27.88
9873,0.2273,-0.0219,0.8789,-6.7,7.94,-0.06,27.89
9883,0.2261,-0.0159,0.8759,-6.55,7.91,-0.05,27.89
9893,0.2367,-0.0142,0.8772,-6.5,7.85,-0.09,27.9
9903,0.2329,-0.0125,0.8888,-6.56,7.89,-0.09,27.88
9913,0.2328,-0.0077,0.886,-6.63,7.88,-0.08,27.88
9923,0.2239,-0.0049,0.8811,-6.69,7.94,0.02,27.89
9933,0.2263,-0.0103,0.8788,-6.64,7.94,0.0,27.89
9943,0.2269,-0.0082,0.8823,-6.56,7.98,-0.06,27.89
9953,0.2272,-0.0027,0.8805,-6.61,7.98,-0.14,27.89
9963,0.2285,-0.0007,0.8871,-6.56,7.95,-0.06,27.89
9973,0.2292,0.001,0.8794,-6.47,7.91,-0.11,27.88
9983,0.2283,-0.0023,0.8787,-6.53,7.82,-0.06,27.89
9993,0.2268,-0.0006,0.8876,-6.58,7.92,-0.08,27.88
10003,0.2316,-0.0031,0.8792,-6.69,7.83,-0.15,27.89
10013,0.2279,-0.0051,0.8854,-6.66,7.89,-0.06,27.89
10023,0.2245,-0.006,0.8813,-6.64,7.85,-0.11,27.87
10033,0.2251,-0.0063,0.8907,-6.61,7.92,-0.2,27.9
10043,0.2241,-0.0076,0.8878,-6.66,7.92,-0.09,27.89
10053,0.2283,-0.0056,0.8846,-6.64,7.89,-0.11,27.89
10063,0.2261,-0.0088,0.8889,-6.73,7.88,-0.03,27.88
10073,0.2228,-0.0106,0.8844,-6.66,8.06,-0.17,27.88
10083,0.2244,-0.0166,0.8815,-6.67,8.0,-0.15,27.89
10093,0.2295,-0.0149,0.8833,-6.64,7.91,-0.11,27.86
10103,0.2322,-0.015,0.8756,-6.58,7.79,-0.09,27.88
10113,0.2261,-0.0096,0.8857,-6.58,8.02,-0.05,27.9
10123,0.2267,-0.0115,0.8824,-6.52,8.03,0.0,27.88
10133,0.225,-0.0103,0.8867,-6.66,7.97,-0.06,27.88
10143,0.2235,-0.0076,0.8813,-6.55,7.91,-0.14,27.89
10153,0.2246,-0.0049,0.8866,-6.56,7.95,-0.06,27.9
10163,0.2251,-0.0011,0.8844,-6.55,7.85,-0.12,27.88
10173,0.2261,0.0004,0.8881,-6.58,7.98,-0.08,27.9
10183,0.2271,-0.0044,0.8817,-6.58,7.88,-0.06,27.89
10193,0.2263,-0.0026,0.8766,-6.58,7.89,-0.03,27.89
10203,0.2223,-0.0043,0.8837,-6.66,7.91,-0.05,27.88
10213,0.224,-0.0046,0.8861,-6.66,7.92,-0.03,27.89
10223,0.2277,-0.0015,0.8822,-6.52,7.94,-0.15,27.89
10233,0.2258,-0.0022,0.8875,-6.53,7.92,-0.12,27.9
10243,0.2258,0.0001,0.8849,-6.56,7.94,-0.12,27.9
10253,0.2267,-0.0034,0.8837,-6.6,7.95,-0.02,27.92
10263,0.2263,-0.0065,0.8846,-6.72,7.95,0.05,27.88
10273,0.2227,-0.0068,0.8866,-6.67,7.95,0.0,27.92
10283,0.2253,-0.0084,0.8862,-6.53,7.97,0.05,27.89
10293,0.2252,-0.0093,0.8822,-6.61,7.98,-0.05,27.88
10303,0.2261,-0.0101,0.8844,-6.66,7.95,0.03,27.9
10313,0.226,-0.0072,0.8833,-6.56,7.88,-0.03,27.92
10323,0.2256,-0.0099,0.8848,-6.5,7.86,0.05,27.9
10333,0.2258,-0.0073,0.884,-6.63,7.86,-0.03,27.89
10343,0.2246,-0.0079,0.8883,-6.55,7.98,0.03,27.89
10353,0.2235,-0.0066,0.887,-6.49,7.92,-0.12,27.92
10363,0.2251,-0.0049,0.882,-6.63,7.94,-0.08,27.91
10373,0.2225,-0.0098,0.8837,-6.53,7.88,-0.08,27.9
10383,0.2244,-0.0123,0.8877,-6.67,7.85,-0.11,27.89
10393,0.229,-0.0199,0.8876,-6.61,7.91,-0.09,27.92
10403,0.2262,-0.0176,0.8849,-6.66,7.86,-0.11,27.92
10413,0.225,-0.0161,0.8823,-6.55,7.91,-0.11,27.92
10423,0.2291,-0.0142,0.8799,-6.63,7.98,-0.09,27.9
10433,0.2306,-0.0067,0.8855,-6.61,7.85,-0.06,27.9
10443,0.2307,-0.0029,0.8845,-6.6,7.83,0.02,27.92
10453,0.2306,-0.0038,0.8879,-6.69,7.92,-0.09,27.89
10463,0.2286,-0.0073,0.8827,-6.66,7.88,-0.08,27.91
10473,0.2257,-0.0054,0.8859,-6.58,7.8,-0.06,27.91
10483,0.2258,-0.0022,0.8844,-6.55,7.88,-0.15,27.91
10493,0.2222,0.0009,0.8833,-6.55,7.91,-0.2,27.9
10503,0.2279,-0.0001,0.8882,-6.61,7.92,-0.11,27.9
10513,0.2257,-0.0022,0.8845,-6.53,7.92,-0.18,27.9
10523,0.2289,-0.0071,0.8789,-6.69,7.79,-0.06,27.89
10533,0.2275,-0.0149,0.8805,-6.55,7.91,-0.08,27.9
10543,0.2294,-0.0079,0.876,-6.55,7.89,-0.12,27.91
10553,0.2286,-0.0095,0.8779,-6.53,7.85,-0.08,27.91
10563,0.228,-0.0073,0.8802,-6.63,7.83,-0.02,27.9
10573,0.2269,-0.0078,0.8881,-6.58,7.89,0.02,27.9
10583,0.2306,-0.0088,0.8844,-6.58,7.89,0.06,27.93
10593,0.2261,-0.0077,0.8782,-6.52,7.92,0.11,27.92
10603,0.2279,-0.0023,0.8813,-6.58,7.85,0.11,27.95
10613,0.2244,-0.001,0.8866,-6.52,7.86,0.06,27.9
10623,0.2277,0.0044,0.8838,-6.55,7.88,0.11,27.9
10633,0.2266,0.0027,0.8868,-6.6,7.91,0.08,27.9
10643,0.2229,0.0001,0.8817,-6.49,7.91,0.02,27.91
10653,0.2277,0.0011,0.8846,-6.61,7.95,0.06,27.92
10663,0.2317,0.0032,0.8857,-6.6,7.94,0.09,27.89
10673,0.228,-0.0042,0.886,-6.6,7.98,-0.02,27.91
10683,0.2233,-0.0018,0.8824,-6.7,7.91,0.05,27.92
10693,0.2284,-0.0096,0.8832,-6.58,7.94,0.0,27.9
10703,0.2257,-0.0129,0.8914,-6.6,7.94,0.11,27.89
10713,0.2296,-0.0109,0.8851,-6.61,7.89,0.08,27.89
10723,0.2263,-0.0168,0.8796,-6.6,7.85,0.05,27.91
10733,0.2291,-0.0179,0.8799,-6.52,7.92,0.17,27.91
10743,0.2285,-0.0149,0.8822,-6.56,7.94,0.12,27.92
10753,0.231,-0.0153,0.8842,-6.53,8.03,0.14,27.92
10763,0.233,-0.0081,0.8806,-6.53,7.97,0.03,27.89
10773,0.2272,-0.005,0.8796,-6.53,7.88,0.03,27.93
10783,0.23,-0.0059,0.8779,-6.63,7.88,-0.05,27.92
10793,0.2332,-0.0066,0.8826,-6.72,7.86,-0.15,27.91
10803,0.2284,-0.0018,0.8861,-6.6,7.88,-0.15,27.9
10813,0.2223,-0.0107,0.8832,-6.5,8.02,-0.12,27.92
10823,0.2225,-0.0098,0.8851,-6.69,7.94,-0.23,27.9
10833,0.2258,-0.007,0.8894,-6.52,7.97,-0.23,27.91
10843,0.2263,-0.0073,0.8827,-6.58,7.92,-0.18,27.91
10853,0.2251,-0.0121,0.8845,-6.63,7.98,-0.15,27.9
10863,0.2208,-0.0125,0.8821,-6.76,7.97,-0.14,27.92
10873,0.2292,-0.0126,0.8831,-6.61,8.05,-0.09,27.91
10883,0.228,-0.0117,0.8783,-6.64,8.0,-0.08,27.92
10893,0.2294,-0.0081,0.8794,-6.66,7.94,-0.03,27.93
10903,0.2323,-0.0024,0.8824,-6.58,7.94,0.0,27.9
10913,0.2324,-0.0012,0.881,-6.66,7.88,-0.12,27.91
10923,0.2275,-0.0038,0.885,-6.69,7.97,-0.06,27.91
10933,0.2225,-0.0088,0.8851,-6.6,7.94,-0.02,27.92
10943,0.2258,-0.0094,0.8806,-6.55,8.0,-0.08,27.89
10953,0.2227,-0.0083,0.8827,-6.52,7.97,-0.08,27.92
10963,0.2228,-0.0028,0.8848,-6.53,7.92,-0.15,27.92
10973,0.2263,0.0006,0.8857,-6.58,7.98,-0.02,27.92
10983,0.2258,-0.0028,0.8887,-6.64,7.92,-0.03,27.91
10993,0.2246,-0.0039,0.886,-6.7,8.02,-0.02,27.92
11003,0.2241,-0.0106,0.8816,-6.69,7.91,0.14,27.95
11013,0.226,-0.0092,0.8842,-6.56,7.92,0.05,27.93
11023,0.2321,-0.0039,0.8844,-6.47,7.77,0.06,27.9
11033,0.2275,0.002,0.8838,-6.55,7.89,-0.03,27.91
11043,0.2286,-0.0044,0.884,-6.55,7.91,0.15,27.94
11053,0.2338,-0.0002,0.8844,-6.66,7.82,0.02,27.93
11063,0.2297,0.0032,0.8853,-6.6,7.77,0.06,27.92
11073,0.229,-0.0059,0.8866,-6.67,7.88,-0.02,27.92
11083,0.2224,-0.01,0.8818,-6.58,7.94,-0.02,27.93
11093,0.2273,-0.0061,0.8815,-6.66,7.88,-0.02,27.92
11103,0.2253,-0.0092,0.8796,-6.58,7.86,0.05,27.91
11113,0.2274,-0.0127,0.8842,-6.66,7.91,-0.05,27.9
11123,0.2262,-0.015,0.8855,-6.67,7.89,-0.08,27.92
11133,0.229,-0.0178,0.8831,-6.67,8.0,-0.15,27.91
11143,0.2284,-0.017,0.8867,-6.61,7.86,-0.02,27.91
11153,0.2286,-0.0181,0.8798,-6.6,7.88,-0.02,27.92
11163,0.2301,-0.014,0.8843,-6.58,7.86,-0.08,27.92
11173,0.2283,-0.0161,0.8789,-6.66,7.95,-0.05,27.92
11183,0.2356,-0.0212,0.8787,-6.55,7.77,-0.05,27.93
11193,0.234,-0.01,0.8864,-6.6,7.71,0.05,27.94
11203,0.2263,-0.0126,0.8792,-6.53,7.95,-0.02,27.94
11213,0.2257,-0.0063,0.8804,-6.56,7.92,-0.08,27.92
11223,0.2291,-0.0021,0.8795,-6.52,7.89,-0.11,27.94
11233,0.2284,-0.0013,0.8912,-6.44,7.86,-0.09,27.9
11243,0.2251,0.0022,0.8823,-6.5,7.97,-0.08,27.93
11253,0.2241,0.0017,0.8809,-6.58,7.83,-0.08,27.92
11263,0.2283,0.0007,0.88,-6.6,7.82,-0.11,27.91
11273,0.2273,0.0056,0.8896,-6.63,7.89,-0.15,27.93
11283,0.2278,0.0022,0.8827,-6.61,7.95,-0.32,27.94
11293,0.2229,-0.0004,0.8867,-6.6,7.92,-0.23,27.94
11303,0.2281,-0.0056,0.8815,-6.69,7.83,-0.17,27.92
11313,0.23,-0.0067,0.8806,-6.66,7.91,-0.17,27.92
11323,0.2285,-0.0122,0.8853,-6.61,7.85,-0.14,27.91
11333,0.2281,-0.0137,0.8822,-6.61,7.94,-0.06,27.93
11343,0.2275,-0.0112,0.8864,-6.56,7.91,-0.08,27.92
11353,0.2252,-0.0112,0.879,-6.58,7.92,-0.06,27.94
11363,0.2236,-0.0092,0.8838,-6.6,7.85,-0.02,27.93
11373,0.2251,-0.0062,0.8873,-6.6,7.83,0.03,27.92
11383,0.2223,-0.0071,0.8834,-6.61,7.94,-0.05,27.92
11393,0.2247,-0.006,0.8854,-6.55,7.88,0.02,27.9
11403,0.2258,-0.0052,0.8871,-6.56,7.91,-0.09,27.89
11413,0.2284,0.0009,0.8876,-6.58,7.97,-0.03,27.92
11423,0.2273,-0.0029,0.8887,-6.58,7.98,-0.11,27.97
11433,0.2277,-0.0031,0.8843,-6.66,7.91,-0.11,27.94
11443,0.2267,-0.0057,0.8821,-6.69,7.95,-0.15,27.93
11453,0.226,-0.0221,0.8818,-6.67,7.8,-0.23,27.92
11463,0.2007,-0.0635,0.8152,-6.27,7.27,-0.29,27.93
11473,0.2587,0.0348,0.9739,-6.21,8.15,-0.55,27.92
11483,0.2441,0.0885,0.9366,-6.72,7.69,0.11,27.92
11493,0.2137,-0.0457,0.7976,-7.07,6.81,0.14,27.93
11503,0.2147,-0.0413,0.88,-7.1,8.32,0.15,27.93
11513,0.2153,-0.0486,0.8684,-6.9,8.09,-0.29,27.95
11523,0.2068,-0.0502,0.9171,-5.89,8.5,-0.32,27.94
11533,0.2371,0.0038,0.9177,-6.41,7.54,-0.23,27.93
11543,0.2263,0.0311,0.8639,-6.43,7.88,-0.11,27.93
11553,0.2255,-0.0079,0.8972,-6.82,7.89,0.12,27.92
11563,0.2266,-0.0208,0.8831,-6.84,7.88,0.2,27.94
11573,0.2231,-0.0376,0.879,-6.72,8.05,0.02,27.92
11583,0.2341,-0.0083,0.8949,-6.49,7.91,-0.15,27.93
11593,0.2257,0.0062,0.8649,-6.37,7.89,-0.23,27.92
11603,0.2312,0.0161,0.9016,-6.55,8.02,-0.17,27.94
11613,0.2166,0.0085,0.879,-6.63,7.91,-0.26,27.93
11623,0.2128,-0.0062,0.8896,-6.69,8.12,-0.08,27.91
11633,0.2137,0.0095,0.8995,-6.76,7.48,-0.2,27.93
11643,0.2159,0.0001,0.9009,-6.5,8.31,-0.31,27.93
11653,0.2324,-0.0118,0.8684,-6.81,7.63,-0.29,27.94
11663,0.2166,-0.011,0.889,-6.41,7.88,-0.32,27.93
11673,0.249,-0.0105,0.8906,-6.72,7.62,-0.29,27.93
11683,0.23,-0.0161,0.8883,-6.44,7.95,-0.17,27.94
11693,0.2211,-0.0121,0.8646,-6.56,7.83,-0.17,27.94
11703,0.2334,-0.0052,0.8936,-6.6,7.88,-0.06,27.93
11713,0.2343,-0.0089,0.8922,-6.7,8.05,-0.12,27.94
11723,0.2249,-0.0005,0.8734,-6.66,8.14,0.14,27.91
11733,0.224,-0.0178,0.8794,-6.5,7.94,0.11,27.9
11743,0.2318,-0.0127,0.8862,-6.52,7.74,0.05,27.9
11753,0.2288,0.0078,0.8932,-6.4,7.95,-0.02,27.93
11763,0.2255,0.0035,0.8755,-6.64,7.95,-0.08,27.92
11773,0.2207,0.0051,0.8849,-6.6,7.95,0.0,27.95
11783,0.2278,0.0074,0.8914,-6.64,7.86,0.09,27.91
11793,0.2217,-0.0173,0.8866,-6.72,8.0,0.0,27.96
11803,0.2251,-0.0168,0.8785,-6.64,7.88,-0.09,27.96
11813,0.2212,-0.0031,0.8737,-6.5,7.77,-0.11,27.92
11823,0.2321,-0.0094,0.8966,-6.5,7.89,-0.17,27.93
11833,0.203,-0.0989,0.8519,-6.27,7.48,-0.14,27.95
11843,0.2488,0.1394,0.9193,-6.06,9.51,-0.84,27.95
11853,0.2545,0.031,1.0909,-6.55,7.04,0.23,27.92
11863,0.2013,0.0565,0.828,-7.18,8.23,0.53,27.93
11873,0.1837,-0.1052,0.7808,-7.77,8.0,0.21,27.93
11883,0.2448,-0.1132,0.8857,-6.78,7.69,0.0,27.93
11893,0.2156,-0.0415,0.8859,-5.82,7.92,-0.27,27.92
11903,0.2523,0.0055,0.9314,-6.02,7.45,-0.38,27.95
11913,0.2188,0.0413,0.8569,-6.08,7.48,-0.14,27.96
11923,0.2468,0.0405,0.8613,-6.87,7.83,0.34,27.92
11933,0.2448,-0.0312,0.9047,-7.28,8.26,0.44,27.96
11943,0.2028,-0.0664,0.8488,-6.69,8.41,0.06,27.94
11953,0.2128,-0.0377,0.9011,-6.58,7.54,-0.08,27.93
11963,0.2369,0.025,0.8965,-5.98,7.98,-0.11,27.94
11973,0.2114,-0.0007,0.8657,-6.37,8.56,-0.06,27.94
11983,0.2245,0.0386,0.891,-6.69,8.02,-0.03,27.96
11993,0.222,-0.0029,0.9064,-6.63,7.95,0.0,27.96
12003,0.2251,-0.0054,0.9088,-6.93,8.29,0.05,27.93
12013,0.2152,-0.0125,0.8669,-6.56,7.95,-0.03,27.94
12023,0.2159,-0.0131,0.8569,-6.6,7.76,-0.29,27.93
12033,0.2281,-0.0093,0.8972,-6.52,7.98,-0.14,27.94
12043,0.2253,0.0085,0.89,-6.69,7.89,-0.08,27.93
12054,0.228,-0.0157,0.8865,-6.63,7.92,-0.03,27.95
12066,0.2253,-0.009,0.8663,-6.58,7.77,-0.05,27.94
12076,0.2317,-0.01,0.8839,-6.53,7.86,0.06,27.93
12086,0.2325,-0.006,0.8964,-6.61,7.92,0.05,27.94
12096,0.2201,-0.017,0.8822,-6.55,7.91,0.0,27.95
12106,0.2278,-0.0118,0.884,-6.6,7.89,-0.02,27.95
12116,0.2247,-0.0074,0.8795,-6.64,7.94,0.02,27.93
12126,0.2262,-0.0104,0.879,-6.61,7.91,0.05,27.95
12136,0.2288,-0.0045,0.8934,-6.58,7.8,0.02,27.95
12146,0.2292,0.0045,0.8838,-6.58,7.94,0.06,27.94
12156,0.2264,-0.0045,0.8842,-6.67,7.98,0.06,27.97
12166,0.2245,-0.0142,0.8787,-6.67,8.0,0.09,27.95
12176,0.2252,-0.0145,0.8845,-6.61,7.89,0.02,27.96
12186,0.226,-0.0112,0.8855,-6.52,7.92,-0.05,27.99
12196,0.2296,-0.0079,0.8859,-6.55,7.97,-0.09,27.93
12206,0.2299,-0.0033,0.8817,-6.55,7.89,-0.03,27.94
12216,0.1926,-0.1232,0.8287,-6.15,7.05,-0.09,27.94
12226,0.2947,0.2147,0.9808,-6.17,10.09,-0.75,27.96
12236,0.2645,0.0077,1.1152,-6.69,6.69,0.35,27.93
12246,0.1652,0.0161,0.7404,-7.22,8.46,0.67,27.96
12256,0.2113,-0.0831,0.7908,-7.47,8.85,0.06,27.97
12266,0.2441,-0.1162,0.9308,-6.99,8.43,0.09,27.94
12276,0.1938,-0.0276,0.8751,-5.71,8.64,-0.26,27.94
12286,0.2273,0.0067,0.9419,-5.74,7.53,-0.46,27.96
12296,0.2194,0.0709,0.874,-6.15,7.3,-0.18,27.97
12311,0.2148,-0.0059,0.8887,-6.95,8.61,0.29,27.95
12321,0.225,-0.0309,0.8774,-7.16,7.68,0.2,27.97
12331,0.222,-0.0609,0.8713,-6.99,8.09,-0.08,27.95
12341,0.2351,-0.0243,0.8918,-6.4,7.76,-0.31,27.96
12351,0.2219,-0.0065,0.8656,-6.21,7.74,-0.17,27.96
12361,0.2285,0.0115,0.8943,-6.46,8.2,-0.24,27.95
12371,0.2299,0.0103,0.8907,-6.67,7.94,-0.05,27.96
12381,0.2288,-0.0002,0.8929,-6.78,7.97,0.03,27.96
12391,0.226,-0.0184,0.8955,-6.84,7.88,0.0,27.94
12401,0.2236,-0.031,0.8645,-6.58,7.89,-0.06,27.94
12411,0.2305,-0.0078,0.8657,-6.5,7.82,-0.11,27.95
12421,0.2329,-0.0127,0.8906,-6.4,7.76,-0.08,27.97
12431,0.24,-0.0121,0.8856,-6.53,7.86,-0.12,27.94
12441,0.2203,0.0038,0.8798,-6.6,7.83,-0.06,27.95
12451,0.2236,-0.0012,0.8838,-6.61,7.97,-0.05,27.96
12461,0.2295,-0.0032,0.8956,-6.69,8.18,-0.03,27.97
12471,0.228,-0.0114,0.8864,-6.7,8.0,-0.05,27.95
12481,0.2174,-0.0063,0.8788,-6.76,8.02,-0.14,27.96
12491,0.2217,-0.0137,0.8787,-6.64,7.73,-0.17,27.95
12501,0.2247,-0.0131,0.8811,-6.53,7.56,-0.09,27.94
12511,0.2217,0.0062,0.8948,-6.64,8.03,-0.21,27.96
12521,0.223,0.0027,0.8878,-6.47,8.09,-0.09,27.98
12531,0.2148,0.0006,0.8967,-6.84,8.27,-0.11,27.94
12541,0.239,-0.0092,0.8807,-6.73,7.92,-0.02,27.94
12551,0.2173,-0.0131,0.9026,-6.73,8.23,-0.14,27.95
12561,0.2284,-0.0203,0.8752,-6.61,7.95,0.03,27.96
12571,0.22,-0.0115,0.8756,-6.44,8.02,-0.14,27.95
12581,0.2333,-0.0018,0.8809,-6.55,7.68,-0.03,27.97
12591,0.2272,-0.0023,0.891,-6.52,7.89,-0.09,27.93
12601,0.2311,-0.0038,0.8843,-6.78,7.69,0.05,27.94
12611,0.2242,-0.0105,0.8837,-6.66,8.0,-0.02,27.96
12621,0.2208,-0.021,0.8751,-6.64,7.79,0.02,27.97
12631,0.2313,-0.0122,0.8839,-6.55,7.85,-0.06,27.96
12641,0.2289,-0.0051,0.8837,-6.63,7.95,-0.11,27.97
12651,0.2238,-0.0012,0.8817,-6.56,7.94,-0.11,27.95
12661,0.2292,-0.0035,0.8882,-6.6,7.82,0.03,27.97
12671,0.2321,-0.0085,0.8811,-6.72,7.91,-0.03,27.95
12681,0.2268,-0.0242,0.8782,-6.61,7.97,-0.06,27.96
12691,0.2332,-0.0116,0.8685,-6.67,7.69,-0.06,27.96
12701,0.2216,-0.019,0.8922,-6.32,7.94,-0.08,27.96
12711,0.2306,0.0005,0.8868,-6.69,7.82,-0.09,27.97
12721,0.2271,0.0011,0.8804,-6.47,7.94,-0.02,27.95
12731,0.228,-0.0018,0.8906,-6.72,7.71,-0.05,27.97
12741,0.226,-0.011,0.879,-6.64,7.97,-0.05,27.97
12751,0.2269,-0.0122,0.8879,-6.67,7.86,-0.03,27.96
12761,0.2299,-0.012,0.8763,-6.5,7.91,-0.03,27.97
12771,0.2297,-0.0071,0.889,-6.58,7.86,-0.02,27.97
12781,0.2311,-0.0033,0.8844,-6.66,7.91,0.05,27.97
12791,0.2271,-0.0026,0.8848,-6.63,7.98,-0.02,27.96
12801,0.2322,-0.0062,0.8885,-6.64,7.91,0.09,27.97
12811,0.2238,-0.0077,0.8845,-6.58,8.09,-0.03,27.95
12821,0.2311,-0.0071,0.8854,-6.61,8.0,0.03,27.95
12831,0.2262,-0.0088,0.8806,-6.56,7.98,-0.06,27.96
12841,0.226,-0.0072,0.8796,-6.63,7.88,-0.14,27.96
12851,0.2272,-0.0023,0.8866,-6.61,7.95,-0.02,27.97
12861,0.2278,-0.0043,0.8788,-6.66,7.86,-0.03,27.96
12871,0.2266,-0.0125,0.8859,-6.67,7.82,-0.02,27.94
12881,0.225,-0.01,0.8885,-6.56,7.97,-0.11,27.95
12891,0.2233,-0.0116,0.8789,-6.53,7.92,-0.08,27.94
12901,0.2257,-0.0117,0.8795,-6.49,7.86,-0.05,27.97
12911,0.2306,0.006,0.8889,-6.55,7.86,-0.05,27.97
12921,0.2323,-0.0009,0.889,-6.72,7.89,-0.09,27.97
12931,0.2251,-0.0114,0.8864,-6.67,7.98,-0.02,27.97
12941,0.2223,-0.0168,0.8752,-6.67,7.89,0.02,27.97
12951,0.2275,-0.0233,0.8843,-6.56,7.91,0.02,27.94
12961,0.2213,-0.0076,0.8855,-6.49,7.91,-0.03,27.95
12971,0.2231,0.0029,0.8885,-6.5,7.88,-0.03,27.96
12981,0.2239,0.0044,0.8859,-6.61,7.94,-0.02,27.96
12991,0.2224,0.0028,0.8834,-6.75,7.86,0.0,27.99
13001,0.223,-0.0045,0.8823,-6.67,7.89,-0.03,27.97
13011,0.2229,-0.0052,0.8872,-6.69,7.89,-0.08,27.95
13021,0.2262,-0.0072,0.8848,-6.55,7.88,-0.08,27.95
13031,0.2231,-0.0011,0.8845,-6.58,7.85,-0.09,27.99
13041,0.2283,0.0006,0.8839,-6.46,7.88,-0.08,27.97
13051,0.2279,-0.001,0.89,-6.61,7.95,-0.09,27.95
13061,0.2289,-0.0099,0.886,-6.55,7.88,-0.02,27.97
13071,0.2335,-0.014,0.8776,-6.69,7.74,-0.09,27.97
13081,0.2292,-0.0144,0.8776,-6.5,7.71,-0.08,27.95
13091,0.2288,-0.0112,0.8866,-6.44,7.73,-0.08,27.97
13101,0.2332,-0.0079,0.8855,-6.55,8.05,-0.02,27.97
13111,0.2322,-0.011,0.8763,-6.53,7.79,-0.09,27.99
13121,0.2351,-0.0098,0.8688,-6.66,7.59,0.03,28.01
13131,0.225,-0.0074,0.884,-6.58,7.91,-0.02,27.97
13141,0.2316,-0.0134,0.8759,-6.64,7.77,-0.06,27.99
13151,0.2236,0.0017,0.9036,-6.44,8.03,-0.05,27.98
13161,0.2295,-0.0026,0.8865,-6.64,7.89,0.0,27.96
13171,0.2242,-0.0073,0.8824,-6.55,8.06,0.02,27.98
13181,0.2239,-0.0055,0.8801,-6.64,7.95,0.05,27.96
13191,0.2224,-0.0081,0.8832,-6.63,7.98,-0.02,27.97
13201,0.2316,-0.011,0.8904,-6.6,7.91,0.02,27.99
13211,0.2223,-0.0156,0.8875,-6.55,8.08,-0.03,27.98
13221,0.2231,-0.0073,0.877,-6.64,7.85,-0.03,27.99
13231,0.2322,-0.0134,0.8829,-6.64,7.83,-0.03,27.99
13241,0.229,-0.0096,0.8793,-6.56,8.09,0.0,27.97
13251,0.2258,-0.0127,0.8795,-6.58,7.91,0.02,27.97
13261,0.2284,-0.022,0.8807,-6.63,7.95,0.05,27.98
13271,0.2284,-0.0156,0.8889,-6.6,7.98,0.06,27.99
13281,0.2271,-0.0048,0.8894,-6.47,7.98,-0.09,27.97
13291,0.2236,-0.01,0.8838,-6.56,7.88,0.0,27.98
13301,0.2302,0.0015,0.8824,-6.55,7.92,0.09,27.99
13311,0.2261,-0.0032,0.8861,-6.69,7.79,0.05,27.99
13321,0.2268,-0.0088,0.875,-6.63,7.83,0.08,27.95
13331,0.2241,-0.009,0.8824,-6.61,7.82,-0.06,27.97
13341,0.2227,-0.0052,0.8815,-6.55,7.95,-0.09,27.97
13351,0.2249,0.0087,0.8842,-6.56,7.94,-0.11,27.99
13361,0.2238,0.0111,0.8917,-6.55,7.95,-0.15,27.97
13371,0.23,0.0051,0.8842,-6.61,7.83,-0.12,27.97
13381,0.2281,0.0032,0.8817,-6.67,7.94,-0.12,27.95
13391,0.2297,-0.0056,0.8805,-6.58,8.0,-0.06,27.98
13401,0.2247,-0.012,0.8779,-6.61,7.89,-0.12,27.98
13411,0.226,-0.0055,0.8878,-6.58,7.92,-0.14,27.98
13421,0.225,-0.0031,0.8829,-6.64,7.88,-0.17,27.99
13431,0.2274,-0.004,0.8846,-6.69,7.89,-0.03,27.97
13441,0.2277,-0.0088,0.8901,-6.61,7.92,-0.05,27.97
13451,0.2262,-0.0092,0.8848,-6.6,7.95,-0.06,27.96
13461,0.2296,-0.0146,0.8792,-6.6,7.92,-0.12,27.99
13471,0.2317,-0.0107,0.8834,-6.52,7.85,-0.12,27.98
13481,0.2336,-0.0051,0.8824,-6.5,7.89,-0.03,27.95
13491,0.2297,-0.0052,0.8844,-6.58,7.94,0.02,27.98
13501,0.2291,-0.0077,0.8851,-6.66,7.92,0.0,27.98
13511,0.2244,-0.0081,0.8843,-6.64,7.95,0.05,27.96
13521,0.2213,-0.0151,0.8835,-6.67,7.95,-0.05,27.96
13531,0.2251,-0.0105,0.8802,-6.53,7.91,-0.06,27.99
13541,0.2241,-0.0054,0.8831,-6.5,7.91,-0.12,27.98
13551,0.2244,-0.0027,0.8861,-6.52,8.05,-0.09,27.99
13561,0.2279,-0.0016,0.8866,-6.64,7.94,-0.06,27.98
13571,0.2281,-0.005,0.8835,-6.53,7.86,-0.03,27.98
13581,0.2306,-0.0067,0.8795,-6.67,7.85,0.05,27.97
13591,0.2264,-0.0076,0.8829,-6.64,7.88,-0.06,27.97
13601,0.2258,-0.0039,0.8878,-6.55,7.92,0.03,27.99
13611,0.2277,-0.0027,0.8884,-6.55,8.03,0.02,27.97
13621,0.2257,-0.0044,0.8833,-6.58,7.94,-0.06,27.98
13631,0.2228,-0.0016,0.8849,-6.6,8.03,-0.12,27.99
13641,0.2242,-0.0071,0.8851,-6.56,7.98,-0.05,27.98
13651,0.2247,-0.0074,0.8864,-6.6,7.92,0.0,28.02
13661,0.2279,-0.0079,0.8896,-6.58,8.0,-0.05,27.99
13671,0.2297,-0.011,0.8833,-6.5,8.0,-0.08,27.99
13681,0.2281,-0.0104,0.8833,-6.58,7.92,-0.02,27.97
13691,0.2274,-0.0103,0.885,-6.58,7.86,-0.05,27.97
13701,0.2292,-0.0143,0.8809,-6.58,8.0,-0.06,27.99
13711,0.2302,-0.012,0.8875,-6.56,7.88,-0.08,27.99
13721,0.2284,-0.0121,0.884,-6.64,7.82,-0.02,27.97
13731,0.2268,-0.0117,0.8829,-6.55,7.92,-0.06,27.98
13741,0.2261,-0.0109,0.8807,-6.5,7.92,-0.05,27.99
13751,0.2267,-0.011,0.8801,-6.55,7.94,-0.05,27.97
13761,0.2297,-0.0131,0.8831,-6.55,7.94,0.05,27.97
13771,0.2275,-0.007,0.886,-6.6,7.88,0.02,28.0
13781,0.2255,-0.0098,0.8849,-6.56,7.88,0.03,27.99
13791,0.2262,-0.0037,0.8789,-6.63,7.97,0.0,27.97
13801,0.2295,-0.0051,0.8834,-6.63,7.86,0.02,27.99
13811,0.2262,-0.0057,0.8877,-6.56,7.89,0.03,27.98
13821,0.2256,-0.0066,0.8882,-6.69,7.97,0.03,27.99
13831,0.2244,-0.0059,0.8832,-6.66,8.02,-0.05,27.98
13841,0.2244,-0.0084,0.8806,-6.58,7.83,-0.08,27.99
13851,0.2262,-0.0057,0.8873,-6.63,7.89,-0.09,27.99
13861,0.2278,-0.0065,0.8838,-6.56,7.91,-0.06,27.97
13871,0.2256,-0.0067,0.8839,-6.63,7.89,-0.12,28.01
13881,0.2277,-0.0079,0.8879,-6.63,7.85,-0.14,27.97
13891,0.2301,-0.0094,0.8867,-6.66,7.94,-0.06,27.97
13901,0.2313,-0.0126,0.8833,-6.64,7.88,0.02,27.99
13911,0.2279,-0.0105,0.8821,-6.61,7.95,-0.06,27.97
13921,0.2286,-0.0134,0.8855,-6.63,8.08,-0.02,27.99
13931,0.2258,-0.0127,0.8842,-6.67,7.98,-0.05,27.97
13941,0.2272,-0.0065,0.8853,-6.63,7.98,0.02,27.97
13951,0.2231,-0.0057,0.8792,-6.53,7.97,-0.02,27.98
13961,0.2249,-0.0039,0.8833,-6.64,7.91,-0.02,27.97
13971,0.2272,-0.0045,0.8816,-6.52,7.89,-0.05,28.01
13981,0.2261,0.0002,0.8866,-6.64,7.88,0.0,28.01
13991,0.2245,-0.0034,0.8823,-6.67,7.89,-0.12,27.97
14001,0.2266,-0.0043,0.8887,-6.67,7.92,-0.14,28.01
14011,0.2231,-0.0046,0.8911,-6.63,8.0,-0.11,27.99
14021,0.2277,-0.0072,0.8793,-6.64,8.0,-0.14,27.99
14031,0.2303,-0.0134,0.8823,-6.63,7.86,-0.11,27.99
14041,0.2306,-0.0089,0.8873,-6.6,7.89,-0.05,27.98
14051,0.2261,-0.0088,0.8831,-6.53,7.77,-0.03,28.0
14061,0.2264,-0.0096,0.88,-6.61,7.91,-0.14,27.98
14071,0.2246,-0.0048,0.8807,-6.66,7.85,-0.05,27.99
14081,0.2286,-0.0065,0.8822,-6.58,7.95,0.02,27.99
14091,0.228,-0.0031,0.8828,-6.6,7.83,0.08,27.97
14101,0.2247,-0.0013,0.8884,-6.53,7.88,0.0,28.01
14111,0.2247,-0.0027,0.8878,-6.55,7.94,0.0,27.98
14121,0.229,0.0027,0.8884,-6.52,8.0,-0.08,27.99
14131,0.2269,-0.001,0.8862,-6.56,7.97,-0.08,28.0
14141,0.225,-0.0048,0.8844,-6.63,7.94,-0.05,28.0
14151,0.2263,-0.0024,0.884,-6.61,7.88,-0.12,27.99
14161,0.2267,-0.007,0.88,-6.56,8.0,-0.08,27.99
14171,0.2257,-0.0106,0.8838,-6.61,7.91,-0.08,28.01
14181,0.2235,-0.0106,0.8876,-6.6,7.92,-0.08,27.99
14191,0.229,-0.0104,0.8901,-6.61,7.91,-0.12,27.98
14201,0.2283,-0.0145,0.8846,-6.6,8.05,-0.06,28.03
14211,0.2308,-0.0162,0.88,-6.6,7.89,-0.02,28.01
14221,0.2269,-0.0125,0.886,-6.49,7.94,0.02,27.99
14231,0.2267,-0.0105,0.8865,-6.58,7.95,0.08,27.97
14241,0.223,-0.0096,0.8859,-6.55,7.98,0.03,27.99
14251,0.2279,-0.0106,0.8831,-6.6,7.98,0.02,27.99
14261,0.2297,-0.0098,0.8875,-6.63,7.91,-0.02,28.0
14271,0.2263,-0.0045,0.8904,-6.55,7.97,-0.02,27.99
14281,0.2263,-0.0063,0.8845,-6.6,7.86,0.0,27.99
14291,0.2253,-0.0045,0.8818,-6.55,7.86,-0.03,28.03
14301,0.2267,-0.0095,0.8815,-6.6,7.92,-0.03,28.0
14311,0.2313,0.0027,0.8807,-6.64,7.85,-0.02,27.99
14321,0.235,-0.0059,0.8839,-6.64,7.82,-0.02,28.01
14331,0.2273,-0.0055,0.896,-6.67,8.12,0.0,27.99
14341,0.224,-0.0023,0.876,-6.61,7.92,-0.09,27.99
14351,0.2296,-0.0057,0.8805,-6.64,7.66,-0.17,27.99
14361,0.2273,-0.0056,0.8927,-6.58,8.05,-0.14,28.0
14371,0.2354,-0.0104,0.8823,-6.6,7.92,-0.09,27.99
14381,0.2233,-0.0177,0.8778,-6.55,7.83,-0.08,28.02
14392,0.2217,-0.0138,0.875,-6.5,7.77,-0.06,28.0
14402,0.2264,-0.0128,0.8918,-6.56,8.09,-0.09,28.0
14412,0.2206,-0.0146,0.8871,-6.56,8.06,-0.02,28.01
14422,0.2191,-0.0068,0.89,-6.56,7.91,-0.03,27.98
14432,0.2227,-0.0135,0.8818,-6.66,7.86,0.05,28.01
14442,0.2281,-0.006,0.8885,-6.49,7.94,0.02,27.98
14452,0.2275,-0.0067,0.8868,-6.56,7.85,0.05,28.02
14462,0.2272,-0.0051,0.884,-6.44,7.8,-0.03,28.01
14472,0.2278,-0.0006,0.8855,-6.6,7.94,0.09,27.99
14482,0.2295,-0.0066,0.8767,-6.63,7.88,0.02,28.01
14492,0.2277,-0.0049,0.8899,-6.6,7.82,0.05,28.02
14502,0.2227,0.0004,0.8866,-6.55,7.83,-0.02,28.02
14512,0.225,-0.009,0.8868,-6.52,7.97,-0.02,28.0
14522,0.222,-0.0073,0.8812,-6.53,7.92,0.05,27.99
14533,0.2234,-0.0026,0.8848,-6.56,7.91,-0.06,28.02
14543,0.2297,-0.0028,0.8866,-6.61,7.91,-0.09,28.0
14553,0.226,-0.0072,0.8844,-6.58,7.79,0.0,28.01
14563,0.2258,-0.0105,0.8866,-6.53,7.95,-0.02,28.01
14573,0.2256,-0.0101,0.8824,-6.55,7.97,-0.11,28.0
14583,0.2274,-0.0095,0.8799,-6.61,7.88,-0.06,28.0
14593,0.2253,-0.0089,0.8815,-6.66,7.97,-0.12,28.02
14603,0.2241,-0.0088,0.8898,-6.64,7.92,-0.05,27.99
14613,0.2271,-0.0061,0.882,-6.63,7.88,-0.06,27.99
14623,0.2249,-0.0056,0.8881,-6.58,8.0,-0.08,28.02
14633,0.2213,-0.0104,0.8705,-6.64,7.91,-0.11,28.01
14643,0.2614,-0.0039,0.8903,-6.56,7.91,-0.06,28.0
14653,0.2601,-0.0045,0.8721,-6.6,7.73,-0.09,28.0
14663,0.2335,-0.0219,0.8547,-6.46,7.42,-0.11,27.99
14673,0.2375,-0.0071,0.8849,-6.67,7.44,-0.11,27.98
14683,0.2399,0.0018,0.8687,-6.56,7.73,-0.14,28.01
14693,0.2297,-0.0017,0.8954,-6.78,8.14,-0.03,27.99
14703,0.2277,-0.0242,0.8741,-6.58,7.97,-0.08,27.98
14713,0.2271,-0.0173,0.8916,-6.61,7.8,0.06,28.0
14723,0.2236,-0.0048,0.8751,-6.63,8.15,-0.09,28.02
14733,0.22,-0.0049,0.891,-6.46,8.2,-0.14,28.01
14743,0.2296,0.0055,0.8839,-6.6,7.88,-0.14,27.99
14753,0.2323,-0.0005,0.8988,-6.6,7.97,0.0,28.02
14763,0.2256,-0.0074,0.8772,-6.79,7.98,0.02,27.99
14773,0.2133,-0.0148,0.8752,-6.47,8.08,-0.11,28.01
14783,0.2247,-0.0168,0.8867,-6.67,7.8,-0.03,28.01
14793,0.2285,-0.0084,0.8904,-6.4,8.14,-0.12,28.01
14803,0.2234,-0.0051,0.8909,-6.61,7.85,-0.09,28.0
14813,0.2214,-0.0044,0.8864,-6.53,7.91,-0.03,28.02
14823,0.2273,-0.0063,0.882,-6.7,7.88,-0.05,28.02
14833,0.2239,-0.0103,0.8856,-6.7,8.14,-0.02,28.02
14843,0.2211,-0.0067,0.8823,-6.66,7.88,-0.12,28.01
14853,0.2267,-0.0045,0.8838,-6.55,7.85,-0.12,28.01
14863,0.222,-0.0002,0.8895,-6.56,8.06,-0.17,27.99
14873,0.2267,-0.0049,0.8832,-6.61,8.0,-0.05,28.03
14883,0.2268,0.0023,0.8845,-6.56,7.92,-0.08,27.99
14893,0.2278,-0.0026,0.8871,-6.63,7.91,-0.03,28.0
14903,0.2302,-0.0063,0.8853,-6.61,7.91,-0.06,28.03
14913,0.2246,-0.0093,0.8807,-6.56,7.92,-0.09,28.0
14923,0.2252,-0.0073,0.8842,-6.46,7.95,-0.06,28.04
14933,0.2334,-0.0031,0.8844,-6.56,7.92,-0.03,28.01
14943,0.2285,0.0024,0.8861,-6.53,7.95,0.03,28.03
14953,0.2241,0.0002,0.8823,-6.66,7.86,-0.02,28.0
14963,0.223,0.0045,0.8948,-6.6,8.0,-0.05,28.02
14973,0.2272,-0.0076,0.8862,-6.67,7.82,-0.06,27.98
14983,0.2174,0.0029,0.8843,-6.7,7.89,-0.08,28.01
14993,0.2289,-0.0054,0.8932,-6.61,8.12,-0.12,28.0
15003,0.2236,-0.007,0.8812,-6.63,7.85,-0.09,27.99
15013,0.2318,-0.0109,0.8838,-6.6,7.89,-0.09,28.02
15023,0.2246,-0.0111,0.8835,-6.6,7.71,-0.14,27.99
15033,0.2295,-0.0109,0.8827,-6.64,7.76,-0.2,28.02
15043,0.2269,-0.0162,0.8907,-6.49,8.0,-0.15,28.03
15053,0.2252,-0.0143,0.8794,-6.63,7.88,-0.15,28.01
15063,0.2314,-0.014,0.8794,-6.52,7.89,-0.17,28.01
15073,0.2274,-0.0106,0.8854,-6.64,7.85,-0.17,28.02
15083,0.2316,-0.0114,0.8761,-6.63,7.95,-0.09,28.03
15093,0.2288,-0.0132,0.8805,-6.6,7.91,-0.12,28.04
15103,0.2307,-0.014,0.8829,-6.64,7.82,-0.11,28.01
15113,0.2292,-0.0112,0.8804,-6.61,7.92,0.02,28.02
15123,0.2278,-0.0093,0.8824,-6.67,7.91,-0.09,28.01
15133,0.2284,-0.0042,0.8848,-6.58,7.97,-0.09,28.02
15143,0.2285,-0.0001,0.8866,-6.53,7.89,-0.06,28.03
15153,0.2272,-0.0049,0.8827,-6.6,7.92,0.05,28.02
15163,0.2286,-0.0028,0.8799,-6.56,8.08,0.03,28.0
15173,0.2278,-0.011,0.8894,-6.46,7.89,0.03,28.04
15183,0.2291,0.0018,0.8876,-6.46,7.92,0.0,28.01
15193,0.218,0.0033,0.8778,-6.43,8.02,0.0,27.99
15203,0.2222,0.0106,0.875,-6.55,7.97,0.06,28.01
15213,0.2317,0.0027,0.8885,-6.55,7.8,0.09,28.02
15223,0.225,0.0085,0.8951,-6.67,7.94,0.06,28.03
15233,0.2192,0.0018,0.8804,-6.58,7.91,0.0,28.03
15243,0.219,-0.0043,0.8835,-6.53,7.82,0.0,28.03
15253,0.2213,-0.0002,0.8853,-6.55,7.95,0.02,28.03
15263,0.2239,-0.0023,0.8944,-6.56,8.0,-0.08,28.03
15273,0.2275,-0.0151,0.8829,-6.6,7.92,-0.03,28.01
15283,0.2283,-0.0154,0.8853,-6.58,7.86,-0.12,28.03
15293,0.2283,-0.0176,0.8856,-6.63,7.89,-0.08,28.04
15303,0.2289,-0.0178,0.8796,-6.6,7.92,-0.08,28.04
15313,0.2316,-0.0211,0.8875,-6.63,7.88,-0.12,28.04
15323,0.2266,-0.0182,0.8864,-6.61,7.92,-0.12,28.02
15333,0.2262,-0.0209,0.882,-6.56,7.95,-0.14,28.02
15343,0.2279,-0.0216,0.8838,-6.64,7.95,-0.08,28.05
15353,0.2301,-0.0226,0.8895,-6.67,7.86,-0.12,28.02
15363,0.226,-0.0181,0.8895,-6.56,7.97,-0.14,28.02
15373,0.2225,-0.017,0.8892,-6.55,7.95,-0.15,28.02
15383,0.2238,-0.0178,0.8821,-6.64,7.86,-0.14,28.04
15393,0.2274,-0.0156,0.8889,-6.56,7.95,-0.09,28.06
15403,0.2273,-0.0074,0.885,-6.63,7.89,-0.17,28.03
15413,0.2263,-0.0112,0.8849,-6.6,7.91,-0.12,28.02
15423,0.2291,-0.0067,0.8767,-6.58,7.83,-0.09,28.0
15433,0.2246,-0.0015,0.887,-6.56,7.88,-0.12,28.01
15443,0.2286,-0.0017,0.8848,-6.56,7.91,-0.15,28.02
15453,0.2305,0.0057,0.8835,-6.61,7.86,-0.15,28.0
15463,0.2268,0.0082,0.8834,-6.63,7.95,-0.12,28.03
15473,0.2241,0.0088,0.8865,-6.64,7.88,0.0,28.03
15483,0.2223,0.0071,0.8901,-6.6,8.11,-0.2,28.02
15493,0.2256,0.0164,0.8954,-6.61,7.91,-0.14,28.01
15503,0.2278,0.0083,0.877,-6.56,7.57,-0.18,28.01
15513,0.2289,0.0056,0.88,-6.46,8.06,-0.14,28.03
15523,0.2339,0.0013,0.8865,-6.64,7.73,-0.15,28.01
15533,0.2183,0.0016,0.8888,-6.64,8.18,-0.18,28.02
15543,0.2283,-0.0009,0.8844,-6.73,7.92,-0.09,28.02
15553,0.2223,-0.0089,0.8831,-6.6,8.06,-0.11,28.01
15563,0.2297,-0.0088,0.891,-6.73,7.94,-0.09,28.02
15573,0.2289,-0.0171,0.8833,-6.61,8.0,-0.05,28.02
15583,0.2235,-0.0128,0.8885,-6.63,7.85,-0.05,28.04
15593,0.2231,-0.0155,0.8839,-6.6,8.0,0.02,28.02
15603,0.2227,-0.012,0.8849,-6.58,7.97,0.02,28.05
15613,0.2268,-0.0129,0.8801,-6.63,7.91,0.02,28.04
15623,0.2251,-0.0155,0.8783,-6.52,7.91,-0.06,28.02
15633,0.2269,-0.0126,0.8859,-6.6,7.86,0.03,28.04
15643,0.2202,-0.0106,0.8866,-6.49,7.89,0.05,28.05
15653,0.2274,-0.0117,0.887,-6.55,7.83,0.0,28.05
15663,0.2271,-0.0046,0.8843,-6.53,7.94,-0.06,28.04
15673,0.2277,-0.0055,0.8871,-6.55,7.95,-0.05,28.04
15683,0.2284,-0.0092,0.8834,-6.55,7.94,-0.12,28.03
15693,0.2255,-0.0052,0.8806,-6.66,7.88,-0.08,28.0
15703,0.228,-0.0066,0.8772,-6.58,7.94,-0.05,28.01
15713,0.2263,-0.0039,0.8823,-6.66,7.88,-0.03,28.03
15723,0.2257,0.001,0.8868,-6.66,8.0,0.0,28.04
15733,0.2211,-0.0031,0.886,-6.6,7.92,0.06,28.04
15743,0.2233,-0.0104,0.8846,-6.61,7.97,0.02,28.02
15753,0.2236,-0.0057,0.8823,-6.52,7.91,-0.05,28.03
15763,0.2263,-0.0021,0.8832,-6.61,7.88,0.03,28.03
15773,0.2258,0.0013,0.8861,-6.61,7.92,-0.08,28.01
15783,0.2272,-0.0034,0.889,-6.55,7.86,-0.08,28.03
15793,0.2247,-0.0046,0.8859,-6.6,7.98,-0.06,28.01
15803,0.2251,-0.0125,0.884,-6.66,8.02,-0.12,28.01
15813,0.2252,-0.0127,0.8846,-6.6,7.88,-0.17,28.04
15823,0.2258,-0.0082,0.8889,-6.6,7.92,-0.11,28.02
15833,0.2278,-0.0131,0.88,-6.66,8.0,-0.11,28.03
15843,0.2267,-0.0123,0.8802,-6.66,7.91,-0.12,28.03
15853,0.2246,-0.0114,0.8828,-6.58,7.89,-0.12,28.02
15863,0.228,-0.009,0.8815,-6.66,7.97,-0.12,28.03
15873,0.2233,-0.0092,0.8914,-6.64,8.05,-0.2,28.01
15883,0.2234,-0.014,0.8842,-6.58,8.0,-0.15,28.04
15893,0.2273,-0.0067,0.8854,-6.7,7.95,-0.15,28.02
15903,0.2289,-0.0099,0.8818,-6.64,7.89,-0.17,28.05
15913,0.2286,-0.011,0.8854,-6.63,7.95,-0.18,28.06
15923,0.2257,-0.0111,0.8817,-6.58,8.03,-0.2,28.04
15933,0.2288,-0.0085,0.8765,-6.67,7.85,-0.31,28.02
15943,0.2241,-0.0065,0.8829,-6.69,7.95,-0.2,28.03
15953,0.224,-0.0093,0.8828,-6.64,7.92,-0.08,28.02
15963,0.226,-0.0105,0.8893,-6.63,8.03,-0.15,28.04
15973,0.2268,-0.0038,0.8899,-6.64,7.91,-0.12,28.04
15983,0.2263,-0.0062,0.8761,-6.61,7.95,-0.12,28.03
15993,0.2227,-0.0071,0.885,-6.61,8.02,0.0,28.02
16003,0.2314,-0.0067,0.8829,-6.61,7.89,-0.09,28.04
16013,0.2327,-0.0062,0.8783,-6.56,7.85,-0.02,28.02
16023,0.2278,-0.0055,0.8846,-6.72,7.94,0.02,28.0
16033,0.2262,-0.0034,0.8822,-6.64,7.88,0.05,28.05
16043,0.2262,-0.0004,0.8855,-6.58,7.94,0.02,28.03
16053,0.2242,-0.0037,0.8815,-6.49,7.86,-0.02,28.04
16063,0.228,-0.0093,0.8812,-6.52,7.88,-0.08,28.06
16073,0.2289,-0.0118,0.8878,-6.6,7.79,-0.09,28.02
16083,0.2316,-0.0067,0.8838,-6.58,7.92,-0.05,28.05
16093,0.2272,-0.0131,0.885,-6.63,7.94,0.09,28.02
16103,0.2239,-0.0138,0.8816,-6.56,7.83,0.05,28.06
16113,0.2291,-0.0065,0.8871,-6.63,7.85,0.03,28.03
16123,0.2263,-0.0056,0.8827,-6.53,7.95,-0.05,28.03
16133,0.2278,-0.0031,0.8854,-6.47,7.76,-0.02,28.04
16143,0.2262,0.0027,0.8872,-6.52,7.95,-0.03,28.02
16153,0.2266,-0.0011,0.8829,-6.63,7.85,0.0,28.02
16163,0.2255,-0.0049,0.892,-6.64,8.0,-0.05,28.03
16173,0.2297,-0.0072,0.8784,-6.67,7.88,-0.09,28.02
16183,0.2275,-0.005,0.8806,-6.61,7.73,-0.05,28.02
16193,0.2234,-0.0055,0.8833,-6.6,7.94,-0.11,28.04
16203,0.225,-0.006,0.884,-6.61,7.89,-0.08,28.01
16213,0.226,-0.0068,0.8792,-6.52,7.97,-0.09,28.03
16223,0.2275,-0.0065,0.8849,-6.55,7.89,-0.03,28.03
16233,0.2246,-0.0128,0.88,-6.64,8.03,0.0,28.03
16243,0.2306,-0.009,0.8806,-6.64,7.83,-0.02,28.03
16253,0.229,-0.0089,0.8853,-6.53,7.91,0.0,28.04
16263,0.2242,-0.0077,0.8883,-6.64,7.94,0.05,28.01
16273,0.2281,-0.0017,0.8784,-6.58,7.77,0.0,28.04
16283,0.2235,-0.0004,0.8877,-6.44,8.08,-0.06,28.04
16293,0.2216,0.0017,0.884,-6.6,8.11,-0.02,28.04
16303,0.2228,-0.0037,0.8883,-6.6,7.98,-0.05,28.04
16313,0.2217,-0.0015,0.8843,-6.67,8.02,0.0,28.03
16323,0.2278,-0.0111,0.8828,-6.46,7.88,-0.03,28.05
16333,0.2275,-0.0051,0.8846,-6.73,7.68,-0.09,28.05
16343,0.2279,-0.0083,0.8895,-6.41,8.09,-0.09,28.02
16353,0.2267,-0.0105,0.8823,-6.64,7.86,-0.06,28.02
16363,0.2346,-0.0088,0.8799,-6.61,7.85,-0.05,28.04
16373,0.2286,-0.0068,0.8811,-6.79,7.74,-0.05,28.06
16383,0.2272,-0.0082,0.8811,-6.58,7.92,-0.11,28.02
16393,0.2246,-0.0088,0.8826,-6.66,7.85,-0.03,28.02
16403,0.2274,-0.0111,0.8827,-6.66,7.98,0.03,28.04
16413,0.2261,-0.0098,0.8823,-6.64,7.94,0.0,28.03
16423,0.2297,-0.0035,0.8862,-6.61,7.92,0.02,28.04
16433,0.2225,-0.0027,0.8909,-6.52,8.0,-0.03,28.03
16443,0.2266,-0.0071,0.886,-6.6,7.91,0.03,28.03
16453,0.229,-0.0059,0.8861,-6.58,7.94,0.0,28.05
16463,0.225,-0.0044,0.8845,-6.61,7.88,-0.09,28.04
16473,0.2274,-0.0073,0.8876,-6.52,8.02,-0.02,28.05
16483,0.231,-0.0082,0.8829,-6.58,7.89,-0.02,28.07
16493,0.2297,-0.0057,0.8893,-6.63,7.88,-0.09,28.04
16503,0.228,-0.0055,0.8856,-6.61,7.91,-0.08,28.05
16513,0.2225,-0.0078,0.885,-6.69,7.98,-0.14,28.04
16523,0.2253,-0.0106,0.8838,-6.64,7.97,-0.09,28.03
16533,0.2261,-0.0087,0.8817,-6.52,7.95,-0.05,28.05
16543,0.2289,-0.0088,0.8823,-6.72,7.83,-0.08,28.03
16553,0.2256,-0.0013,0.8861,-6.7,7.88,-0.09,28.03
16563,0.224,-0.0004,0.889,-6.6,8.03,-0.05,28.03
16573,0.2272,-0.0031,0.8804,-6.63,7.92,0.02,28.03
16583,0.229,-0.006,0.8837,-6.67,7.95,-0.02,28.04
16593,0.2299,-0.0098,0.8868,-6.73,7.97,-0.02,28.04
16603,0.2257,-0.009,0.8806,-6.67,7.94,0.02,28.02
16613,0.2219,-0.0006,0.8846,-6.6,7.94,-0.03,28.02
16623,0.2278,0.0001,0.8824,-6.6,7.89,-0.03,28.05
16633,0.2395,0.0,0.8766,-6.6,7.68,0.0,28.04
16644,0.238,0.0,0.8737,-6.53,7.54,-0.03,28.06
16654,0.2321,-0.0024,0.8846,-6.6,7.82,0.02,28.03
16666,0.2274,-0.0109,0.8787,-6.61,8.08,-0.05,28.04
16676,0.2245,-0.0094,0.8861,-6.69,7.97,-0.09,28.05
16686,0.2273,-0.0055,0.8838,-6.67,7.92,-0.09,28.03
16696,0.2181,-0.0039,0.891,-6.64,8.0,-0.11,28.04
16706,0.2223,-0.0109,0.8861,-6.67,8.06,-0.02,28.06
16716,0.2262,-0.0089,0.8878,-6.63,8.05,-0.08,28.07
16726,0.2261,-0.0105,0.8866,-6.66,7.82,-0.11,28.06
16736,0.231,-0.0129,0.8829,-6.63,7.98,0.11,28.04
16746,0.2288,-0.0144,0.8798,-6.5,7.85,0.05,28.04
16756,0.2319,-0.0131,0.8782,-6.64,7.88,0.0,28.04
16768,0.2249,-0.0085,0.8834,-6.55,8.02,0.05,28.04
16778,0.2235,-0.0055,0.8888,-6.52,7.95,-0.02,28.04
16788,0.2217,-0.0043,0.8894,-6.64,7.98,-0.06,28.03
16798,0.2297,-0.0057,0.8746,-6.6,7.89,0.0,28.03
16808,0.2269,-0.0143,0.8793,-6.63,7.89,0.05,28.04
16818,0.2229,-0.0114,0.8789,-6.63,7.82,0.05,28.03
16828,0.2253,-0.0121,0.8831,-6.72,7.88,-0.02,28.04
16838,0.2233,-0.0078,0.8873,-6.7,8.05,-0.12,28.04
16848,0.2264,-0.0116,0.8845,-6.67,8.02,-0.05,28.03
16858,0.2322,-0.0105,0.8832,-6.66,7.91,-0.05,28.05
16868,0.2323,-0.0067,0.8862,-6.61,7.86,-0.09,28.03
16878,0.2291,-0.007,0.8887,-6.67,7.91,-0.06,28.02
16888,0.2299,-0.0065,0.8818,-6.56,7.89,-0.11,28.04
16898,0.2299,-0.011,0.882,-6.61,7.77,-0.11,28.04
16908,0.2308,-0.007,0.88,-6.6,7.83,-0.06,28.02
16918,0.2267,-0.0104,0.8839,-6.67,7.83,-0.02,28.06
16928,0.2222,-0.0084,0.8837,-6.61,7.79,-0.06,28.05
16939,0.2178,-0.0027,0.8846,-6.6,8.0,-0.05,28.04
16949,0.2262,-0.0007,0.8745,-6.69,7.86,-0.08,28.04
16959,0.2252,0.0005,0.8953,-6.7,7.98,-0.08,28.04
16969,0.2262,-0.0087,0.889,-6.69,7.97,-0.09,28.04
16979,0.2272,-0.0104,0.8838,-6.69,7.92,-0.11,28.05
16989,0.2296,-0.011,0.8832,-6.61,7.85,-0.08,28.04
16999,0.2308,-0.0029,0.88,-6.55,7.86,-0.06,28.05
17009,0.2329,-0.0016,0.8774,-6.6,7.95,-0.09,28.03
17019,0.2285,0.0037,0.8936,-6.64,8.02,-0.06,28.04
17029,0.2303,-0.0061,0.8953,-6.67,7.89,-0.02,28.04
17039,0.2188,-0.0206,0.8872,-6.67,7.98,-0.02,28.05
17049,0.2224,-0.0215,0.8723,-6.73,7.86,0.0,28.08
17059,0.2214,-0.0094,0.8837,-6.5,8.0,-0.02,28.04
17069,0.2266,-0.011,0.885,-6.66,7.82,-0.05,28.03
17079,0.2239,-0.0105,0.8882,-6.6,7.91,0.05,28.06
17089,0.2257,-0.0061,0.8831,-6.67,7.89,0.05,28.03
17099,0.2275,-0.0125,0.8782,-6.61,8.0,0.03,28.05
17109,0.2289,-0.0126,0.8848,-6.6,7.92,0.03,28.06
17119,0.2295,-0.0043,0.8816,-6.55,7.94,0.02,28.05
17129,0.2355,-0.0026,0.8861,-6.49,7.83,-0.08,28.04
17139,0.2312,0.0015,0.8845,-6.6,7.77,-0.08,28.03
17149,0.2263,-0.0039,0.8811,-6.63,7.91,-0.05,28.06
17159,0.2256,-0.0081,0.8787,-6.72,7.83,-0.05,28.07
17169,0.2229,-0.0083,0.8857,-6.67,7.85,-0.06,28.05
17179,0.2223,-0.01,0.8884,-6.6,7.92,-0.09,28.05
17189,0.2241,-0.0057,0.879,-6.61,7.94,-0.09,28.06
17199,0.2207,-0.0039,0.8844,-6.61,8.06,-0.11,28.05
17209,0.2296,-0.0065,0.8807,-6.6,7.92,-0.08,28.07
17219,0.2263,-0.0054,0.8893,-6.67,8.0,-0.03,28.08
17229,0.2272,-0.0051,0.8896,-6.64,7.97,-0.06,28.04
17239,0.226,-0.0112,0.8843,-6.56,7.95,-0.03,28.06
17249,0.2267,-0.009,0.8788,-6.63,7.89,-0.12,28.04
17259,0.2275,-0.0048,0.8865,-6.52,7.92,-0.12,28.04
17269,0.2289,-0.0062,0.8828,-6.6,7.8,-0.06,28.06
17279,0.2255,0.0074,0.8932,-6.56,7.95,0.0,28.06
17291,0.2256,0.005,0.8876,-6.63,7.82,-0.03,28.03
17301,0.222,-0.0057,0.8821,-6.7,7.89,0.03,28.07
17311,0.2179,-0.0137,0.8838,-6.64,8.03,0.0,28.07
17321,0.2233,-0.0149,0.8778,-6.61,7.83,-0.11,28.07
17331,0.2229,-0.0038,0.8949,-6.47,7.94,-0.09,28.07
17341,0.2222,0.0023,0.8843,-6.47,8.02,-0.14,28.06
17351,0.2255,0.0002,0.8778,-6.7,8.02,-0.06,28.06
17361,0.2262,-0.0106,0.8821,-6.67,7.89,-0.08,28.06
17371,0.2286,-0.0216,0.8857,-6.64,7.83,-0.08,28.06
17381,0.2297,-0.0194,0.8833,-6.63,7.88,0.0,28.07
17391,0.2258,-0.0134,0.8756,-6.5,7.86,0.0,28.04
17401,0.2257,-0.0073,0.8861,-6.52,7.89,0.0,28.05
17411,0.2334,-0.0016,0.8823,-6.64,7.85,-0.05,28.06
17421,0.2242,0.0018,0.8895,-6.67,7.91,-0.03,28.07
17431,0.2266,-0.0045,0.882,-6.61,7.94,-0.05,28.07
17441,0.2253,-0.0044,0.886,-6.58,7.95,-0.02,28.05
17451,0.2208,-0.006,0.8845,-6.72,8.03,-0.14,28.03
17461,0.2262,-0.0044,0.8881,-6.43,7.92,-0.12,28.04
17471,0.2289,-0.0021,0.8887,-6.63,7.86,-0.12,28.05
17481,0.2266,-0.0024,0.8878,-6.58,7.95,-0.11,28.06
17491,0.2229,-0.0035,0.8795,-6.64,7.98,-0.11,28.07
17501,0.2242,-0.004,0.8809,-6.67,7.85,-0.06,28.08
17511,0.2255,-0.0078,0.8851,-6.67,8.06,-0.09,28.08
17521,0.2247,-0.0092,0.8866,-6.56,8.05,-0.05,28.07
17531,0.2333,-0.0104,0.8816,-6.66,7.88,-0.06,28.07
17541,0.2318,-0.0092,0.8868,-6.61,7.88,0.0,28.08
17552,0.2295,-0.014,0.884,-6.7,7.95,0.05,28.06
17562,0.2274,-0.0122,0.8807,-6.73,7.86,-0.02,28.05
17572,0.2279,-0.0106,0.8864,-6.58,7.89,0.09,28.08
17582,0.2228,-0.0084,0.8878,-6.63,7.97,-0.02,28.05
17592,0.2272,-0.0068,0.8824,-6.61,8.02,-0.06,28.06
17602,0.2161,-0.0056,0.8906,-6.56,8.12,-0.08,28.09
17612,0.2216,-0.0104,0.8926,-6.66,8.12,-0.08,28.07
17622,0.2288,-0.0063,0.8826,-6.64,7.83,0.03,28.05
17632,0.2269,-0.0054,0.8783,-6.67,7.71,-0.05,28.06
17642,0.23,-0.005,0.8904,-6.64,7.97,-0.08,28.07
17653,0.2251,-0.0032,0.885,-6.6,8.09,-0.03,28.05
17663,0.2269,-0.0057,0.8773,-6.61,8.02,-0.05,28.07
17673,0.2292,-0.0061,0.8802,-6.66,7.85,-0.06,28.05
17683,0.2319,-0.0063,0.8877,-6.67,7.82,-0.02,28.06
17693,0.2269,-0.0051,0.8896,-6.66,7.98,-0.06,28.08
17703,0.2274,-0.0077,0.881,-6.67,7.89,-0.02,28.07
17713,0.2271,-0.0083,0.8809,-6.61,7.82,0.0,28.07
17723,0.2288,-0.0031,0.8844,-6.69,7.91,0.02,28.08
17733,0.2247,0.0051,0.8844,-6.67,8.03,-0.03,28.07
17743,0.2239,-0.0026,0.8789,-6.58,7.98,0.03,28.06
17753,0.2266,-0.0027,0.8822,-6.67,7.92,0.03,28.08
17763,0.2225,-0.004,0.889,-6.69,8.0,0.08,28.07
17773,0.2224,-0.0017,0.8846,-6.7,7.97,0.02,28.04
17783,0.2234,-0.005,0.8848,-6.58,7.92,0.05,28.06
17793,0.2205,-0.0039,0.8879,-6.63,7.92,0.0,28.07
17803,0.2279,-0.0055,0.8815,-6.61,7.98,0.05,28.08
17813,0.2274,-0.0165,0.8861,-6.6,7.97,0.05,28.09
17823,0.2327,-0.0062,0.8804,-6.56,7.76,0.05,28.05
17833,0.2305,0.0018,0.8845,-6.56,7.76,0.06,28.07
17843,0.2267,-0.0012,0.8878,-6.53,7.95,0.09,28.06
17853,0.2285,-0.0096,0.8839,-6.63,7.97,0.06,28.07
17863,0.2336,-0.0116,0.8794,-6.56,7.86,0.09,28.09
17873,0.2328,-0.0126,0.8774,-6.55,7.88,-0.02,28.07
17883,0.2277,-0.012,0.881,-6.53,7.86,0.03,28.06
17893,0.2264,-0.009,0.8868,-6.53,7.95,0.03,28.06
17903,0.2251,-0.0021,0.8892,-6.5,7.94,0.06,28.06
17913,0.2196,-0.0033,0.8855,-6.53,8.06,0.06,28.07
17923,0.2233,-0.0111,0.8784,-6.63,7.95,0.14,28.07
17933,0.2228,-0.0112,0.8828,-6.6,7.82,0.11,28.05
17943,0.2211,-0.0109,0.8839,-6.55,7.89,0.05,28.05
17953,0.2253,-0.0049,0.8884,-6.63,7.91,0.09,28.08
17963,0.2274,-0.0046,0.8813,-6.55,7.92,-0.03,28.07
17973,0.2262,-0.0024,0.8899,-6.52,7.95,0.03,28.07
17983,0.2301,-0.0045,0.8798,-6.61,7.85,0.05,28.05
17993,0.2317,-0.004,0.8826,-6.6,7.85,-0.06,28.07
18003,0.229,-0.0068,0.8848,-6.61,7.95,-0.05,28.07
18013,0.2312,-0.0081,0.8785,-6.67,7.85,-0.08,28.09
18023,0.2273,-0.009,0.8792,-6.58,7.8,-0.09,28.08
18033,0.2277,-0.0153,0.8829,-6.63,7.82,-0.14,28.07
18043,0.2264,-0.007,0.8894,-6.72,7.77,-0.06,28.06
18053,0.2231,-0.0077,0.8916,-6.58,7.97,-0.06,28.06
18064,0.2263,-0.0139,0.8827,-6.6,7.94,0.0,28.08
18074,0.2225,-0.0101,0.8885,-6.53,7.95,0.05,28.09
18084,0.2269,-0.0096,0.8877,-6.53,7.98,0.03,28.09
18094,0.2299,-0.011,0.8732,-6.66,7.85,-0.03,28.07
18105,0.231,-0.0021,0.877,-6.55,8.02,-0.03,28.09
18115,0.2332,0.0012,0.8807,-6.63,7.82,0.02,28.08
18127,0.2295,-0.0051,0.887,-6.63,7.95,0.03,28.1
18137,0.2228,-0.0062,0.8867,-6.6,7.89,0.0,28.08
18147,0.2241,-0.0083,0.8809,-6.6,7.88,0.02,28.08
18157,0.2247,-0.0052,0.8846,-6.6,8.09,0.03,28.09
18168,0.2288,-0.0045,0.8844,-6.63,7.82,-0.02,28.08
18178,0.2244,-0.0074,0.8936,-6.69,7.95,-0.14,28.08
18188,0.2227,-0.0044,0.8887,-6.63,8.05,-0.11,28.07
18198,0.2212,-0.0117,0.8772,-6.63,7.92,-0.03,28.07
18208,0.2216,-0.0066,0.8845,-6.61,7.91,0.03,28.08
18218,0.228,-0.0078,0.881,-6.64,7.88,-0.03,28.08
18228,0.2295,-0.0087,0.8816,-6.66,7.77,-0.03,28.11
18238,0.2235,-0.0146,0.8853,-6.66,8.05,-0.03,28.08
18248,0.2327,-0.0142,0.8728,-6.69,7.74,0.03,28.08
18258,0.2295,-0.0106,0.884,-6.63,7.85,-0.03,28.08
18268,0.2312,-0.0078,0.8822,-6.64,7.76,-0.06,28.09
18278,0.2249,-0.0048,0.8872,-6.55,8.05,-0.09,28.09
18288,0.2273,-0.007,0.88,-6.6,7.88,-0.02,28.09
