t_ms,accel_x_g,accel_y_g,accel_z_g,gyro_x_dps,gyro_y_dps,gyro_z_dps,imu_temp_c
3295,0.3323,-0.0234,0.863,-6.49,7.92,0.0,26.98
3305,0.3323,-0.0225,0.8629,-6.5,7.79,-0.08,26.97
3315,0.3328,-0.0243,0.8647,-6.55,7.85,-0.05,26.98
3325,0.3324,-0.0209,0.8645,-6.47,7.94,-0.09,26.99
3335,0.3337,-0.0234,0.8636,-6.56,7.92,0.0,26.97
3345,0.334,-0.0227,0.8647,-6.52,7.94,0.03,26.98
3355,0.3339,-0.0215,0.866,-6.6,7.85,-0.06,26.99
3365,0.3326,-0.0242,0.8619,-6.55,7.86,-0.06,26.98
3375,0.3353,-0.0242,0.8625,-6.53,7.88,-0.06,26.97
3386,0.3341,-0.0238,0.8663,-6.56,7.98,-0.02,26.97
3396,0.3335,-0.0245,0.8644,-6.47,7.82,-0.08,26.97
3406,0.3333,-0.0267,0.8652,-6.49,7.85,-0.09,26.98
3416,0.3323,-0.0245,0.8633,-6.53,7.85,-0.11,26.99
3426,0.3372,-0.0234,0.8634,-6.6,7.86,0.05,26.98
3436,0.3331,-0.0234,0.8644,-6.47,7.85,-0.09,27.0
3446,0.3368,-0.0217,0.8652,-6.46,7.86,-0.06,26.97
3456,0.3354,-0.0222,0.8647,-6.53,7.83,-0.09,26.97
3466,0.335,-0.0211,0.8643,-6.49,7.82,-0.03,26.99
3476,0.3341,-0.0212,0.8647,-6.49,7.79,0.0,27.01
3486,0.3342,-0.0248,0.8624,-6.56,7.94,-0.17,26.98
3496,0.3317,-0.0229,0.8652,-6.53,7.91,-0.06,26.99
3506,0.3334,-0.0253,0.8662,-6.46,7.94,-0.06,26.99
3516,0.3313,-0.026,0.8617,-6.52,7.91,-0.05,26.99
3526,0.3334,-0.0206,0.8669,-6.52,7.83,-0.03,26.98
3536,0.3364,-0.021,0.8657,-6.5,7.83,-0.03,27.01
3546,0.3334,-0.0247,0.8628,-6.53,7.8,-0.08,26.97
3556,0.3346,-0.0245,0.866,-6.5,7.85,-0.03,26.99
3566,0.3342,-0.0226,0.8644,-6.52,7.91,-0.03,27.0
3576,0.3317,-0.0231,0.8644,-6.44,7.92,-0.05,27.0
3586,0.3336,-0.0247,0.8622,-6.43,7.91,-0.02,26.99
3596,0.3353,-0.0225,0.8652,-6.58,7.88,-0.06,27.0
3606,0.332,-0.0229,0.8666,-6.52,7.89,-0.09,27.01
3616,0.3309,-0.0275,0.8634,-6.53,7.92,0.02,26.99
3626,0.3359,-0.0237,0.8669,-6.47,7.88,-0.02,26.99
3636,0.3319,-0.0214,0.8656,-6.44,7.92,-0.02,27.0
3646,0.3345,-0.0237,0.8645,-6.55,7.82,-0.08,26.99
3656,0.3331,-0.0258,0.8676,-6.47,7.85,-0.06,27.02
3666,0.3324,-0.0194,0.8668,-6.52,7.88,-0.03,27.0
3676,0.335,-0.0225,0.8635,-6.5,7.85,-0.05,27.0
3686,0.3348,-0.0222,0.8656,-6.5,7.86,0.02,27.02
3696,0.3317,-0.0242,0.8663,-6.47,7.88,-0.03,27.0
3706,0.332,-0.0221,0.865,-6.47,7.89,-0.03,27.0
3716,0.3368,-0.0219,0.863,-6.56,7.91,-0.03,27.01
3726,0.3353,-0.025,0.8656,-6.41,7.86,-0.05,27.02
3736,0.333,-0.0228,0.8667,-6.49,7.92,-0.06,27.01
3746,0.3324,-0.0205,0.8634,-6.4,7.88,-0.05,27.01
3756,0.3318,-0.0214,0.8627,-6.46,7.89,-0.03,27.0
3766,0.3307,-0.025,0.8654,-6.55,7.86,-0.03,26.99
3776,0.3323,-0.0242,0.8654,-6.43,7.88,-0.09,26.97
3786,0.332,-0.0212,0.8643,-6.55,7.86,-0.06,26.98
3796,0.3326,-0.0228,0.8623,-6.55,7.86,0.02,26.99
3806,0.3334,-0.0239,0.8628,-6.52,7.83,-0.11,27.01
3816,0.3331,-0.0227,0.8625,-6.41,7.83,-0.02,27.01
3826,0.3311,-0.0215,0.8618,-6.44,7.83,-0.08,27.03
3836,0.3306,-0.0231,0.8643,-6.55,7.85,-0.09,27.01
3846,0.3308,-0.0227,0.8673,-6.53,7.86,-0.03,26.99
3856,0.3335,-0.0216,0.8644,-6.53,7.83,-0.06,27.0
3866,0.3336,-0.0253,0.8627,-6.52,7.88,-0.05,27.03
3876,0.3353,-0.0223,0.8651,-6.56,7.88,0.0,27.02
3886,0.3328,-0.0249,0.8666,-6.55,7.88,-0.09,26.99
3896,0.3344,-0.0259,0.8643,-6.53,7.89,-0.09,26.99
3906,0.3354,-0.0247,0.8633,-6.58,7.86,-0.09,27.0
3916,0.334,-0.0229,0.8672,-6.56,7.82,-0.08,26.99
3926,0.332,-0.0233,0.8665,-6.55,7.92,-0.11,27.01
3936,0.3329,-0.0215,0.8655,-6.53,7.91,-0.03,27.01
3946,0.3336,-0.0216,0.8678,-6.5,7.98,-0.11,27.01
3956,0.3334,-0.0229,0.8683,-6.55,7.89,0.0,27.02
3966,0.3356,-0.0242,0.8613,-6.6,7.91,-0.12,26.99
3976,0.3329,-0.0233,0.8671,-6.47,7.88,-0.06,26.99
3986,0.3364,-0.0243,0.865,-6.56,7.88,0.0,27.02
3996,0.3331,-0.0243,0.8641,-6.56,7.85,0.0,27.01
4006,0.3328,-0.0248,0.8636,-6.56,7.89,-0.05,27.02
4016,0.3341,-0.0249,0.8643,-6.55,7.91,0.03,26.99
4026,0.332,-0.0233,0.8644,-6.52,7.82,-0.02,27.02
4036,0.3337,-0.024,0.8662,-6.53,7.89,-0.05,27.02
4046,0.3345,-0.0223,0.8663,-6.56,7.89,-0.06,26.99
4056,0.3346,-0.0244,0.8627,-6.47,7.82,-0.06,26.99
4066,0.3344,-0.0243,0.8651,-6.63,7.89,-0.02,27.0
4076,0.3331,-0.0247,0.8669,-6.56,7.91,-0.05,27.0
4086,0.334,-0.0203,0.8644,-6.52,7.83,0.0,27.03
4096,0.3311,-0.0244,0.8666,-6.53,7.89,-0.12,27.02
4106,0.3337,-0.0238,0.8656,-6.55,7.88,-0.03,27.01
4116,0.3358,-0.0221,0.8643,-6.56,7.89,-0.03,27.0
4126,0.3333,-0.0211,0.8622,-6.56,7.89,-0.05,27.01
4136,0.3322,-0.0229,0.8608,-6.56,7.86,-0.03,26.99
4146,0.3335,-0.0231,0.8616,-6.52,7.85,-0.06,27.02
4156,0.3324,-0.0231,0.8651,-6.49,7.76,0.37,27.02
4166,0.3353,-0.0188,0.8645,-6.44,7.95,-0.02,27.02
4176,0.3334,-0.0238,0.8623,-6.55,7.83,-0.02,27.03
4186,0.3342,-0.0233,0.8665,-6.52,7.89,-0.09,27.03
4196,0.3362,-0.0219,0.8616,-6.44,7.82,0.0,27.03
4206,0.3335,-0.0201,0.865,-6.56,7.83,-0.02,27.0
4216,0.3323,-0.0209,0.8685,-6.5,7.89,0.0,27.02
4226,0.3311,-0.0251,0.868,-6.46,7.88,0.03,27.02
4236,0.3354,-0.0254,0.8635,-6.47,7.83,0.03,27.0
4246,0.3326,-0.0227,0.8651,-6.5,7.89,0.03,27.01
4256,0.3341,-0.0229,0.8651,-6.53,7.94,-0.12,27.01
4266,0.3329,-0.0221,0.865,-6.53,7.89,-0.05,27.01
4276,0.3347,-0.0238,0.8617,-6.53,7.83,-0.05,27.04
4286,0.3336,-0.0209,0.863,-6.6,7.91,-0.05,27.03
4297,0.3337,-0.021,0.8629,-6.55,7.83,-0.06,27.04
4307,0.3328,-0.0223,0.8666,-6.56,7.86,-0.02,27.03
4317,0.3362,-0.0234,0.8643,-6.52,7.85,-0.03,27.02
4327,0.3358,-0.0228,0.8646,-6.61,7.89,-0.05,27.04
4337,0.3354,-0.0243,0.8638,-6.53,7.86,-0.08,27.01
4347,0.3339,-0.0244,0.8639,-6.56,7.92,-0.05,27.06
4357,0.3339,-0.0237,0.8618,-6.52,7.89,-0.05,27.04
4367,0.3347,-0.021,0.8636,-6.53,7.95,-0.05,27.04
4377,0.3325,-0.0223,0.8625,-6.53,7.85,-0.05,27.0
4387,0.3322,-0.0244,0.8616,-6.47,7.94,-0.03,27.02
4397,0.3334,-0.024,0.8622,-6.44,7.88,-0.06,27.05
4407,0.3317,-0.0225,0.8647,-6.5,7.97,-0.02,27.04
4417,0.3318,-0.0232,0.8638,-6.56,7.83,-0.03,27.06
4427,0.3341,-0.0227,0.8668,-6.5,7.86,-0.09,27.04
4437,0.3313,-0.0232,0.8622,-6.49,7.86,-0.08,27.04
4447,0.3331,-0.0222,0.86,-6.49,7.86,-0.06,27.02
4457,0.3325,-0.0244,0.8643,-6.6,7.91,-0.08,27.04
4467,0.3325,-0.0253,0.866,-6.55,7.85,-0.05,27.06
4477,0.3322,-0.0199,0.8658,-6.55,7.92,0.03,27.05
4487,0.3353,-0.0236,0.8619,-6.56,7.85,-0.06,27.06
4497,0.3329,-0.0222,0.8638,-6.53,7.88,-0.03,27.05
4507,0.3346,-0.022,0.864,-6.56,7.89,-0.08,27.03
4517,0.3341,-0.0215,0.8632,-6.5,7.88,-0.08,27.02
4527,0.3344,-0.0232,0.8611,-6.49,7.85,-0.06,27.05
4537,0.3344,-0.0232,0.8618,-6.55,7.88,-0.08,27.06
4547,0.3337,-0.0243,0.8612,-6.6,7.91,-0.06,27.06
4557,0.3333,-0.0243,0.8651,-6.53,7.88,-0.09,27.04
4567,0.3357,-0.0192,0.8655,-6.52,7.86,-0.06,27.05
4577,0.3369,-0.0232,0.8629,-6.47,7.86,0.02,27.07
4587,0.3325,-0.0243,0.8629,-6.41,7.85,0.0,27.08
4597,0.3324,-0.0243,0.8606,-6.47,7.85,-0.02,27.05
4607,0.3352,-0.0222,0.865,-6.47,7.88,-0.02,27.06
4617,0.3341,-0.024,0.8674,-6.47,7.86,-0.03,27.05
4627,0.3326,-0.0236,0.8644,-6.55,7.91,-0.09,27.05
4637,0.3333,-0.0228,0.8644,-6.53,7.86,0.0,27.06
4647,0.3314,-0.0228,0.8612,-6.49,7.83,-0.08,27.06
4657,0.3346,-0.0212,0.8639,-6.56,7.83,-0.08,27.05
4667,0.3359,-0.0226,0.864,-6.53,7.91,0.02,27.04
4677,0.3358,-0.0212,0.8652,-6.41,7.89,-0.03,27.08
4687,0.334,-0.0237,0.8667,-6.5,7.89,0.02,27.05
4697,0.333,-0.0229,0.8656,-6.6,7.91,-0.03,27.05
4707,0.3336,-0.0214,0.868,-6.49,7.91,-0.06,27.02
4717,0.3324,-0.0215,0.8608,-6.47,7.8,-0.06,27.04
4727,0.3331,-0.0247,0.8641,-6.47,7.79,-0.06,27.06
4737,0.3339,-0.0226,0.8676,-6.56,7.88,-0.03,27.04
4747,0.3354,-0.0229,0.8693,-6.61,7.85,-0.15,27.07
4757,0.3376,-0.025,0.865,-6.5,7.91,-0.06,27.07
4767,0.3357,-0.0211,0.8666,-6.55,7.85,-0.06,27.08
4777,0.3346,-0.0215,0.8644,-6.49,7.85,-0.03,27.08
4787,0.3354,-0.0248,0.8663,-6.55,7.92,0.0,27.04
4797,0.3356,-0.0225,0.8636,-6.53,7.91,0.05,27.06
4807,0.3318,-0.0216,0.8647,-6.47,7.88,-0.08,27.07
4817,0.3361,-0.0227,0.8665,-6.41,7.86,-0.12,27.08
4827,0.3329,-0.0238,0.8644,-6.5,7.82,-0.05,27.07
4837,0.3335,-0.019,0.8644,-6.5,7.86,-0.06,27.06
4847,0.3336,-0.0233,0.8622,-6.61,7.95,-0.09,27.06
4857,0.3334,-0.0254,0.863,-6.63,7.89,-0.08,27.07
4867,0.3351,-0.0236,0.8696,-6.6,7.94,0.0,27.07
4877,0.3345,-0.024,0.866,-6.49,7.92,-0.03,27.06
4887,0.335,-0.0226,0.8629,-6.5,7.86,-0.12,27.06
4897,0.3335,-0.0247,0.8638,-6.46,7.89,-0.05,27.06
4907,0.3345,-0.0223,0.868,-6.52,7.79,-0.06,27.06
4917,0.3315,-0.024,0.8652,-6.43,7.89,-0.05,27.07
4927,0.3331,-0.0262,0.8663,-6.56,7.92,-0.05,27.08
4937,0.3362,-0.0239,0.8651,-6.5,7.85,-0.08,27.07
4947,0.3341,-0.022,0.8625,-6.5,7.92,-0.08,27.07
4957,0.3341,-0.0214,0.8629,-6.61,7.85,-0.05,27.07
4967,0.3324,-0.0248,0.8618,-6.55,7.91,-0.06,27.05
4977,0.3345,-0.0238,0.8627,-6.55,7.85,0.0,27.07
4987,0.3306,-0.0226,0.8627,-6.58,7.85,-0.05,27.04
4997,0.3325,-0.0243,0.8673,-6.6,7.91,0.09,27.07
5007,0.3353,-0.0248,0.8666,-6.55,7.92,-0.09,27.07
5017,0.334,-0.026,0.866,-6.56,7.91,0.05,27.05
5027,0.3333,-0.0236,0.8636,-6.64,7.83,-0.09,27.08
5037,0.333,-0.022,0.8673,-6.55,7.85,-0.05,27.07
5047,0.3346,-0.0243,0.866,-6.52,7.85,-0.09,27.05
5057,0.3356,-0.0225,0.8678,-6.53,7.86,-0.06,27.07
5067,0.3336,-0.0221,0.8647,-6.53,7.92,-0.03,27.06
5077,0.3336,-0.0204,0.8636,-6.52,7.88,-0.08,27.04
5087,0.3329,-0.0211,0.8663,-6.5,7.92,-0.05,27.06
5097,0.333,-0.0233,0.8685,-6.52,7.86,-0.02,27.06
5107,0.3311,-0.0238,0.8655,-6.5,7.89,-0.03,27.07
5117,0.3341,-0.022,0.8638,-6.53,7.83,-0.03,27.08
5127,0.333,-0.0226,0.8636,-6.47,7.92,-0.02,27.07
5137,0.3341,-0.0248,0.8677,-6.56,7.94,-0.06,27.06
5147,0.335,-0.0236,0.86,-6.52,7.92,-0.08,27.07
5157,0.3352,-0.0221,0.8673,-6.46,7.86,0.08,27.05
5167,0.333,-0.024,0.8621,-6.5,7.86,-0.06,27.07
5177,0.3323,-0.0229,0.8651,-6.5,7.88,-0.05,27.07
5187,0.3319,-0.0232,0.8665,-6.55,7.86,-0.08,27.06
5197,0.3347,-0.0259,0.8606,-6.5,7.86,-0.05,27.06
5207,0.3347,-0.0242,0.8613,-6.46,7.88,-0.03,27.06
5217,0.3351,-0.0215,0.8658,-6.61,7.83,-0.11,27.06
5227,0.3353,-0.0236,0.8636,-6.46,7.91,0.0,27.07
5237,0.3363,-0.0222,0.8616,-6.5,7.86,-0.02,27.08
5247,0.3319,-0.0249,0.8619,-6.55,7.83,-0.09,27.07
5257,0.3326,-0.0231,0.8628,-6.53,7.88,0.0,27.08
5267,0.3337,-0.0236,0.8643,-6.47,7.85,0.05,27.05
5277,0.3354,-0.0237,0.8625,-6.49,7.92,0.02,27.06
5287,0.3337,-0.0271,0.8646,-6.55,7.88,-0.06,27.04
5297,0.334,-0.0222,0.8612,-6.55,7.97,-0.09,27.05
5307,0.3329,-0.0228,0.8652,-6.55,7.92,-0.12,27.07
5317,0.3346,-0.0242,0.8656,-6.63,7.89,-0.05,27.06
5327,0.3303,-0.0232,0.8672,-6.53,7.88,-0.08,27.07
5337,0.3329,-0.0225,0.8663,-6.46,7.86,0.02,27.09
5347,0.3337,-0.022,0.8667,-6.52,7.89,-0.05,27.07
5357,0.3328,-0.0219,0.8616,-6.58,7.79,0.02,27.07
5367,0.3324,-0.0239,0.866,-6.55,7.89,0.02,27.05
5377,0.3326,-0.024,0.8605,-6.52,7.88,0.02,27.1
5387,0.334,-0.0238,0.8688,-6.46,7.83,-0.09,27.08
5397,0.3323,-0.0215,0.8646,-6.47,7.86,-0.06,27.08
5407,0.3331,-0.0228,0.8668,-6.56,7.83,-0.03,27.08
5417,0.3339,-0.0226,0.8617,-6.56,7.89,0.05,27.09
5427,0.3313,-0.0237,0.8643,-6.55,7.86,-0.02,27.05
5437,0.3317,-0.0243,0.868,-6.47,7.86,-0.15,27.1
5448,0.3364,-0.025,0.8663,-6.5,7.82,-0.03,27.08
5458,0.335,-0.0228,0.8636,-6.52,7.77,-0.02,27.09
5468,0.335,-0.0206,0.8636,-6.5,7.89,-0.03,27.09
5478,0.3362,-0.0233,0.8602,-6.56,7.85,-0.06,27.09
5488,0.3326,-0.0249,0.8661,-6.55,7.91,-0.05,27.12
5498,0.334,-0.0237,0.8683,-6.53,7.8,0.0,27.08
5508,0.3361,-0.025,0.8613,-6.52,7.89,-0.02,27.07
5518,0.3369,-0.0247,0.8638,-6.52,7.89,-0.11,27.08
5528,0.3353,-0.0255,0.8617,-6.56,7.86,-0.02,27.1
5538,0.3326,-0.0227,0.8617,-6.52,7.88,-0.08,27.08
5548,0.3308,-0.0232,0.8623,-6.53,7.86,-0.06,27.09
5558,0.3322,-0.0229,0.8635,-6.46,7.89,0.0,27.08
5568,0.3313,-0.0253,0.863,-6.49,7.85,-0.03,27.1
5578,0.3336,-0.0219,0.8649,-6.56,7.89,-0.08,27.07
5588,0.3324,-0.0216,0.8636,-6.56,7.95,-0.06,27.08
5598,0.3326,-0.0204,0.8647,-6.56,7.91,-0.05,27.09
5608,0.3325,-0.0239,0.8665,-6.56,7.86,0.06,27.09
5618,0.3331,-0.0205,0.8625,-6.53,7.89,-0.02,27.08
5628,0.3334,-0.0243,0.865,-6.58,7.79,-0.03,27.08
5638,0.3333,-0.0248,0.8668,-6.53,7.8,-0.05,27.09
5648,0.3342,-0.025,0.8656,-6.6,7.77,0.0,27.07
5658,0.334,-0.0221,0.8658,-6.53,7.88,-0.14,27.06
5668,0.3364,-0.0244,0.8627,-6.53,7.91,-0.08,27.09
5678,0.333,-0.0243,0.8605,-6.56,7.92,0.02,27.1
5688,0.3337,-0.0237,0.8656,-6.6,7.82,-0.05,27.11
5698,0.3311,-0.0214,0.8624,-6.52,7.85,0.02,27.09
5708,0.3319,-0.02,0.8658,-6.58,7.94,-0.05,27.1
5718,0.3331,-0.0211,0.8661,-6.53,7.85,-0.08,27.08
5728,0.3331,-0.0211,0.8655,-6.47,7.83,-0.05,27.11
5738,0.3333,-0.0232,0.8658,-6.44,7.95,-0.03,27.09
5748,0.3339,-0.0237,0.8649,-6.5,7.8,0.02,27.12
5758,0.3328,-0.0226,0.8661,-6.53,7.86,-0.05,27.09
5768,0.3339,-0.0242,0.8645,-6.58,7.85,-0.09,27.11
5778,0.3313,-0.021,0.8645,-6.56,7.83,-0.03,27.13
5788,0.3317,-0.0197,0.8605,-6.58,7.85,0.02,27.1
5798,0.3356,-0.0261,0.8654,-6.56,7.82,-0.02,27.09
5808,0.3354,-0.0237,0.8652,-6.47,7.88,-0.02,27.09
5818,0.3347,-0.0251,0.8616,-6.5,7.89,-0.09,27.1
5828,0.3365,-0.0219,0.8669,-6.52,7.89,-0.08,27.09
5838,0.3324,-0.0248,0.8639,-6.55,7.92,0.0,27.1
5848,0.333,-0.0237,0.866,-6.49,7.89,-0.08,27.1
5858,0.3351,-0.0242,0.8672,-6.58,7.88,-0.06,27.09
5868,0.3337,-0.0228,0.8617,-6.49,7.88,-0.12,27.09
5878,0.3324,-0.0236,0.8625,-6.49,7.88,-0.09,27.08
5888,0.3339,-0.025,0.8619,-6.53,7.88,0.0,27.12
5898,0.3315,-0.0216,0.8606,-6.63,7.86,-0.09,27.1
5908,0.3357,-0.0222,0.8673,-6.6,7.83,0.0,27.11
5918,0.3331,-0.0234,0.8677,-6.52,7.86,-0.09,27.09
5928,0.3322,-0.0219,0.8663,-6.52,7.88,-0.02,27.1
5938,0.3373,-0.0227,0.8647,-6.55,7.91,-0.03,27.1
5948,0.334,-0.0212,0.8638,-6.58,7.89,-0.06,27.11
5958,0.3342,-0.0242,0.8649,-6.6,7.89,-0.02,27.08
5968,0.3312,-0.0249,0.8671,-6.5,7.91,-0.06,27.12
5978,0.3333,-0.0219,0.8635,-6.55,7.85,-0.06,27.1
5988,0.3342,-0.0236,0.8643,-6.52,7.89,-0.05,27.1
5998,0.335,-0.0205,0.8647,-6.52,7.83,0.05,27.11
6008,0.3354,-0.0229,0.8623,-6.53,7.85,-0.08,27.1
6018,0.3311,-0.0232,0.8623,-6.47,7.92,-0.08,27.1
6028,0.3324,-0.0212,0.8621,-6.56,7.85,-0.09,27.11
6038,0.3331,-0.0232,0.8656,-6.49,7.92,-0.03,27.13
6048,0.3347,-0.0266,0.8618,-6.52,7.88,-0.05,27.12
6058,0.3368,-0.0222,0.8657,-6.55,7.86,0.0,27.1
6068,0.3345,-0.0189,0.8639,-6.56,7.89,-0.05,27.09
6078,0.3363,-0.024,0.8617,-6.56,7.89,-0.03,27.11
6088,0.3297,-0.0204,0.868,-6.55,7.91,0.0,27.11
6098,0.3348,-0.0273,0.8635,-6.55,7.92,-0.06,27.12
6108,0.3339,-0.0262,0.8628,-6.58,7.89,-0.06,27.11
6118,0.3318,-0.0247,0.8654,-6.43,7.83,-0.06,27.11
6128,0.3334,-0.0204,0.8644,-6.46,7.82,-0.05,27.09
6138,0.3312,-0.0227,0.8668,-6.55,7.91,-0.12,27.1
6148,0.3337,-0.0214,0.8688,-6.52,7.83,-0.02,27.09
6158,0.3373,-0.0197,0.8649,-6.5,7.83,-0.09,27.12
6168,0.338,-0.0238,0.8683,-6.66,7.88,-0.05,27.13
6178,0.3446,-0.0209,0.8712,-6.6,7.79,-0.05,27.09
6188,0.3444,-0.0247,0.8615,-6.61,7.66,0.05,27.1
6198,0.3431,-0.0204,0.8546,-6.53,7.69,0.03,27.1
6208,0.3289,-0.0287,0.8597,-6.47,7.98,0.03,27.12
6218,0.3257,-0.0308,0.8672,-6.37,8.02,-0.09,27.09
6228,0.327,-0.0221,0.8679,-6.49,7.89,-0.02,27.1
6238,0.333,-0.0168,0.8621,-6.63,7.89,0.0,27.11
6248,0.3315,-0.0214,0.861,-6.61,7.82,-0.03,27.09
6258,0.3341,-0.0221,0.8649,-6.52,7.88,-0.17,27.09
6268,0.3326,-0.0146,0.8708,-6.6,7.89,-0.08,27.1
6278,0.3369,-0.019,0.8639,-6.63,7.92,-0.06,27.1
6288,0.3331,-0.0286,0.8619,-6.49,7.85,-0.11,27.12
6298,0.337,-0.0237,0.8667,-6.47,7.82,0.0,27.1
6308,0.3408,-0.0199,0.868,-6.5,7.94,-0.03,27.11
6318,0.3361,-0.028,0.8607,-6.55,7.94,0.02,27.13
6328,0.3307,-0.0304,0.8643,-6.52,7.83,-0.03,27.1
6338,0.3346,-0.0209,0.8649,-6.56,7.85,-0.03,27.1
6348,0.3331,-0.0181,0.8693,-6.56,7.92,0.02,27.11
6358,0.3317,-0.0222,0.8687,-6.6,7.83,0.05,27.12
6368,0.3307,-0.0231,0.8654,-6.52,7.91,-0.05,27.1
6378,0.3329,-0.0219,0.8673,-6.61,7.85,-0.03,27.08
6388,0.3328,-0.0232,0.8684,-6.63,7.91,-0.06,27.11
6398,0.3307,-0.0309,0.8628,-6.55,7.83,-0.11,27.1
6408,0.335,-0.0291,0.86,-6.47,7.86,-0.02,27.11
6418,0.3376,-0.0223,0.8616,-6.56,7.86,-0.02,27.11
6428,0.3342,-0.0212,0.8668,-6.52,7.94,-0.08,27.11
6438,0.3361,-0.0243,0.8622,-6.6,7.89,-0.03,27.12
6451,0.3317,-0.0178,0.8636,-6.46,8.06,0.0,27.11
6461,0.3379,-0.0211,0.8662,-6.56,7.97,-0.11,27.11
6471,0.3367,-0.0181,0.8649,-6.55,7.85,-0.05,27.11
6481,0.3295,-0.0194,0.8639,-6.61,8.0,-0.06,27.11
6491,0.3296,-0.0258,0.8693,-6.49,8.03,-0.06,27.12
6501,0.3291,-0.0264,0.8628,-6.49,7.91,-0.05,27.11
6511,0.333,-0.0242,0.8678,-6.53,7.83,-0.08,27.1
6521,0.3307,-0.0259,0.8639,-6.56,7.77,-0.09,27.11
6531,0.3306,-0.0227,0.8682,-6.56,7.91,-0.12,27.14
6541,0.3302,-0.0216,0.8668,-6.52,7.85,-0.06,27.1
6551,0.3344,-0.0208,0.8657,-6.58,7.94,0.02,27.11
6561,0.3344,-0.0197,0.8644,-6.66,7.92,-0.09,27.11
6571,0.3325,-0.0238,0.8618,-6.55,7.77,-0.21,27.12
6581,0.3259,-0.0239,0.8716,-6.52,8.03,-0.08,27.12
6591,0.3278,-0.0233,0.87,-6.56,8.03,-0.03,27.14
6601,0.3357,-0.0238,0.8582,-6.49,7.77,0.0,27.12
6611,0.3368,-0.0216,0.861,-6.52,7.74,-0.05,27.1
6621,0.3328,-0.0243,0.8621,-6.61,7.8,-0.09,27.09
6631,0.3364,-0.024,0.8683,-6.58,7.91,0.02,27.13
6641,0.3361,-0.0244,0.8546,-6.47,7.79,0.0,27.12
6651,0.3322,-0.0231,0.8683,-6.46,7.95,-0.05,27.13
6661,0.3306,-0.0199,0.8647,-6.53,8.02,-0.09,27.12
6671,0.3315,-0.0248,0.8701,-6.55,8.02,-0.05,27.13
6681,0.3364,-0.027,0.8613,-6.44,7.86,-0.05,27.11
6691,0.3369,-0.025,0.8605,-6.55,7.88,-0.09,27.11
6701,0.3347,-0.0199,0.8634,-6.53,7.94,-0.02,27.12
6711,0.3348,-0.0237,0.868,-6.6,7.88,-0.03,27.13
6721,0.3318,-0.0232,0.8656,-6.56,7.83,0.0,27.11
6731,0.3337,-0.0259,0.8666,-6.53,7.88,-0.05,27.1
6741,0.3322,-0.0232,0.8654,-6.56,7.94,-0.03,27.12
6751,0.3331,-0.0232,0.865,-6.49,7.83,0.0,27.13
6761,0.3333,-0.0251,0.8625,-6.55,7.89,-0.03,27.12
6771,0.3351,-0.0203,0.8671,-6.49,7.82,-0.02,27.14
6781,0.3329,-0.0264,0.8644,-6.53,7.88,-0.09,27.15
6791,0.334,-0.0228,0.8649,-6.5,7.89,-0.09,27.11
6801,0.3358,-0.0204,0.8646,-6.49,7.91,-0.14,27.12
6811,0.3329,-0.0221,0.8706,-6.49,7.89,-0.03,27.13
6821,0.3333,-0.0227,0.8644,-6.52,7.91,-0.08,27.14
6831,0.335,-0.0217,0.8663,-6.55,7.92,0.0,27.13
6841,0.3341,-0.022,0.8636,-6.55,7.89,-0.03,27.1
6851,0.3361,-0.0256,0.8651,-6.56,7.95,-0.11,27.12
6861,0.3336,-0.0214,0.8627,-6.55,7.91,-0.05,27.13
6871,0.3339,-0.0255,0.8652,-6.61,7.95,-0.03,27.11
6881,0.3326,-0.025,0.868,-6.52,7.95,-0.08,27.12
6891,0.3328,-0.0237,0.863,-6.47,7.91,-0.05,27.12
6901,0.3336,-0.0219,0.8611,-6.49,7.85,-0.05,27.12
6911,0.3345,-0.0219,0.868,-6.56,7.86,-0.02,27.12
6921,0.3328,-0.0256,0.8667,-6.49,7.88,-0.06,27.11
6931,0.33,-0.0219,0.8646,-6.52,7.88,-0.02,27.08
6941,0.3356,-0.0214,0.8658,-6.41,7.86,0.02,27.1
6951,0.3353,-0.0219,0.864,-6.53,7.88,-0.08,27.11
6961,0.3359,-0.0233,0.8635,-6.58,7.89,-0.05,27.09
6971,0.3315,-0.0247,0.8677,-6.47,7.77,0.03,27.11
6981,0.3323,-0.0231,0.8655,-6.5,7.91,0.0,27.11
6991,0.3333,-0.0215,0.8627,-6.58,7.91,-0.12,27.12
7001,0.3334,-0.0211,0.8633,-6.5,7.91,0.05,27.12
7011,0.3331,-0.0242,0.8633,-6.55,7.89,-0.09,27.13
7021,0.334,-0.0243,0.8661,-6.52,7.86,-0.06,27.13
7031,0.3328,-0.0216,0.8658,-6.52,7.88,-0.06,27.11
7041,0.3319,-0.0208,0.8627,-6.53,7.88,-0.03,27.11
7051,0.3345,-0.0209,0.8644,-6.6,7.88,-0.02,27.11
7061,0.3337,-0.0216,0.8636,-6.5,7.91,-0.06,27.14
7071,0.3334,-0.0221,0.8657,-6.56,7.88,-0.05,27.12
7081,0.3344,-0.0248,0.8661,-6.55,7.98,-0.02,27.12
7091,0.3318,-0.0215,0.8632,-6.5,7.88,0.06,27.12
7101,0.3331,-0.0245,0.8621,-6.63,7.8,-0.08,27.11
7111,0.3326,-0.0253,0.8622,-6.53,7.82,0.0,27.12
7121,0.3331,-0.0247,0.8655,-6.52,7.91,-0.06,27.1
7131,0.3335,-0.0228,0.8627,-6.6,7.92,-0.03,27.12
7141,0.3335,-0.0217,0.864,-6.5,7.92,-0.03,27.1
7151,0.3337,-0.0242,0.8643,-6.6,7.92,-0.05,27.13
7161,0.3353,-0.0227,0.8654,-6.52,7.89,-0.05,27.12
7171,0.3344,-0.0243,0.8654,-6.55,7.89,-0.08,27.12
7181,0.3336,-0.0233,0.8655,-6.66,7.85,-0.02,27.11
7191,0.3353,-0.0217,0.8657,-6.56,7.85,-0.05,27.1
7201,0.332,-0.0226,0.8644,-6.55,7.86,-0.09,27.11
7211,0.3329,-0.0201,0.8634,-6.55,7.79,-0.11,27.12
7221,0.3337,-0.022,0.8602,-6.58,7.86,-0.11,27.11
7231,0.335,-0.0239,0.8632,-6.6,7.8,-0.09,27.12
7241,0.3331,-0.0249,0.8663,-6.55,7.88,-0.09,27.14
7251,0.3335,-0.026,0.8647,-6.53,7.91,0.03,27.12
7261,0.334,-0.0261,0.8649,-6.53,7.91,-0.03,27.14
7271,0.3325,-0.0234,0.8636,-6.56,7.88,-0.03,27.13
7281,0.3347,-0.024,0.8627,-6.6,7.92,-0.05,27.11
7291,0.3306,-0.0238,0.8671,-6.49,7.94,-0.06,27.11
7301,0.3353,-0.0229,0.8657,-6.58,7.91,-0.06,27.11
7311,0.335,-0.0198,0.8632,-6.55,7.8,-0.02,27.14
7321,0.3325,-0.0199,0.8658,-6.53,7.88,-0.14,27.1
7331,0.3302,-0.0194,0.8627,-6.6,7.94,-0.11,27.1
7341,0.3324,-0.0234,0.8627,-6.49,7.91,-0.12,27.14
7351,0.3323,-0.0266,0.866,-6.56,7.88,0.0,27.12
7361,0.3339,-0.0222,0.8657,-6.58,7.89,-0.05,27.13
7371,0.3334,-0.0228,0.8661,-6.55,7.89,-0.08,27.16
7381,0.3357,-0.0227,0.8608,-6.53,7.89,-0.05,27.15
7391,0.3345,-0.0231,0.8621,-6.6,7.85,-0.03,27.11
7401,0.3334,-0.024,0.8628,-6.52,7.83,-0.08,27.11
7411,0.3353,-0.0208,0.8615,-6.53,7.86,-0.06,27.11
7421,0.3308,-0.0223,0.8649,-6.58,7.85,-0.03,27.12
7431,0.3337,-0.0223,0.8651,-6.63,7.83,-0.05,27.12
7441,0.3323,-0.0225,0.8649,-6.58,7.92,-0.06,27.16
7451,0.3322,-0.0229,0.8622,-6.53,7.88,-0.15,27.14
7461,0.3322,-0.0227,0.8628,-6.55,7.89,-0.02,27.15
7471,0.3339,-0.0234,0.8612,-6.49,7.79,-0.09,27.15
7481,0.3345,-0.0244,0.8652,-6.52,7.91,0.03,27.12
7491,0.333,-0.0232,0.8646,-6.52,7.88,-0.11,27.1
7501,0.3362,-0.0238,0.8682,-6.52,7.91,-0.06,27.13
7511,0.3347,-0.0245,0.8652,-6.56,7.91,-0.05,27.13
7521,0.3335,-0.0233,0.8627,-6.5,7.88,-0.06,27.12
7531,0.335,-0.0225,0.8651,-6.49,7.92,0.0,27.12
7541,0.3352,-0.027,0.8672,-6.66,7.91,-0.02,27.12
7551,0.3322,-0.024,0.8612,-6.53,7.91,-0.14,27.14
7561,0.3347,-0.0236,0.8629,-6.52,7.85,-0.08,27.15
7571,0.3359,-0.0208,0.861,-6.55,7.85,-0.06,27.13
7581,0.3334,-0.0255,0.8655,-6.56,7.83,-0.05,27.15
7591,0.3357,-0.0205,0.8658,-6.56,7.88,-0.08,27.14
7601,0.3347,-0.0247,0.8644,-6.63,7.92,-0.05,27.13
7611,0.3346,-0.0243,0.863,-6.55,7.82,0.05,27.12
7621,0.3342,-0.0233,0.8662,-6.49,7.82,-0.05,27.14
7631,0.3351,-0.0236,0.8646,-6.52,7.82,-0.09,27.15
7641,0.3335,-0.0245,0.8633,-6.56,7.88,-0.02,27.12
7651,0.3333,-0.0236,0.8639,-6.56,7.83,-0.05,27.14
7661,0.3336,-0.0244,0.8649,-6.53,7.8,-0.09,27.14
7671,0.3369,-0.0228,0.8625,-6.46,7.83,-0.03,27.14
7681,0.3348,-0.0219,0.8657,-6.61,7.85,0.0,27.13
7691,0.3298,-0.0216,0.8636,-6.6,7.91,-0.02,27.13
7701,0.3345,-0.0236,0.8646,-6.56,7.89,-0.05,27.14
7711,0.3334,-0.0233,0.8619,-6.53,7.88,-0.08,27.15
7721,0.3354,-0.0237,0.8716,-6.5,7.83,-0.06,27.14
7731,0.3352,-0.0228,0.8663,-6.49,7.89,-0.03,27.12
7741,0.3353,-0.0221,0.8632,-6.53,7.85,-0.06,27.13
7751,0.3325,-0.0233,0.8627,-6.58,7.92,-0.05,27.14
7761,0.3326,-0.0233,0.864,-6.55,7.85,0.0,27.12
7771,0.3342,-0.0237,0.8634,-6.5,7.88,0.03,27.15
7781,0.3334,-0.0225,0.8633,-6.52,7.82,-0.02,27.12
7791,0.3323,-0.0231,0.8661,-6.56,7.89,0.02,27.13
7801,0.3347,-0.0229,0.8619,-6.55,7.86,-0.02,27.13
7811,0.3322,-0.0223,0.8608,-6.53,7.85,-0.09,27.17
7821,0.3354,-0.0217,0.8658,-6.56,7.86,-0.06,27.14
7831,0.3351,-0.0233,0.8667,-6.47,7.86,0.06,27.15
7841,0.3314,-0.0243,0.8639,-6.46,7.83,-0.02,27.15
7851,0.3328,-0.0226,0.8683,-6.58,7.85,0.02,27.17
7861,0.3308,-0.0244,0.8678,-6.5,7.92,-0.03,27.15
7871,0.3334,-0.0242,0.864,-6.56,7.86,-0.03,27.13
7881,0.3347,-0.0245,0.8641,-6.55,7.91,-0.03,27.17
7891,0.3328,-0.0244,0.8683,-6.56,7.86,0.02,27.17
7901,0.3353,-0.0219,0.8663,-6.6,7.89,0.02,27.13
7911,0.334,-0.0228,0.8646,-6.53,7.86,-0.03,27.14
7921,0.3329,-0.024,0.8646,-6.53,7.83,-0.09,27.15
7931,0.3331,-0.0234,0.8643,-6.61,7.85,-0.08,27.15
7941,0.333,-0.0236,0.8645,-6.56,7.83,0.05,27.15
7951,0.3339,-0.0223,0.8641,-6.47,7.86,-0.06,27.15
7961,0.3322,-0.0248,0.863,-6.55,7.88,0.02,27.15
7971,0.3342,-0.0225,0.8682,-6.56,7.85,-0.06,27.16
7981,0.3348,-0.0234,0.8639,-6.58,7.88,-0.09,27.14
7991,0.3348,-0.0237,0.864,-6.55,7.91,-0.06,27.17
8001,0.3318,-0.024,0.8663,-6.56,7.89,-0.06,27.17
8011,0.3309,-0.0233,0.8665,-6.49,7.88,-0.11,27.15
8021,0.3331,-0.0211,0.8649,-6.55,7.8,0.03,27.15
8031,0.3331,-0.0214,0.8645,-6.55,7.91,-0.12,27.15
8041,0.3352,-0.0244,0.8652,-6.64,7.92,-0.05,27.15
8051,0.3285,-0.0233,0.8649,-6.58,7.89,-0.02,27.14
8061,0.3331,-0.025,0.87,-6.6,7.86,-0.06,27.13
8071,0.3354,-0.0225,0.8655,-6.5,7.86,-0.02,27.14
8081,0.3335,-0.0226,0.8656,-6.58,7.85,-0.05,27.15
8091,0.3336,-0.0233,0.8672,-6.64,7.98,-0.02,27.15
8101,0.3352,-0.0231,0.8618,-6.55,7.88,-0.06,27.16
8111,0.3333,-0.0217,0.8647,-6.56,7.77,0.0,27.16
8121,0.3303,-0.0225,0.8661,-6.61,7.8,-0.06,27.14
8131,0.3354,-0.0255,0.8658,-6.5,7.83,-0.02,27.14
8141,0.3362,-0.025,0.8673,-6.53,7.91,0.02,27.15
8151,0.3311,-0.0206,0.8634,-6.6,7.89,-0.06,27.16
8161,0.3348,-0.0221,0.8643,-6.64,7.88,-0.06,27.16
8171,0.3344,-0.0233,0.8662,-6.58,7.88,-0.02,27.12
8181,0.3354,-0.0245,0.8646,-6.63,7.88,-0.09,27.13
8191,0.3369,-0.0238,0.8649,-6.55,7.83,-0.09,27.13
8201,0.3356,-0.0229,0.864,-6.56,7.85,-0.03,27.13
8211,0.3335,-0.0228,0.8627,-6.53,7.94,-0.02,27.12
8221,0.3333,-0.0236,0.8618,-6.58,7.88,-0.02,27.14
8231,0.3296,-0.0232,0.8622,-6.67,7.89,-0.06,27.17
8241,0.3303,-0.0233,0.8623,-6.58,7.88,0.03,27.13
8251,0.3314,-0.0244,0.8654,-6.63,7.89,-0.03,27.11
8261,0.3342,-0.0223,0.8638,-6.56,7.91,-0.09,27.14
8271,0.3336,-0.0228,0.8674,-6.56,7.86,-0.12,27.14
8281,0.3335,-0.0222,0.8629,-6.52,7.88,0.0,27.14
8291,0.3358,-0.0225,0.8645,-6.52,7.89,-0.02,27.14
8301,0.334,-0.0217,0.8666,-6.5,7.83,0.03,27.13
8311,0.3342,-0.0229,0.8677,-6.44,7.83,-0.03,27.13
8321,0.3365,-0.0227,0.8619,-6.55,7.92,-0.02,27.14
8331,0.3358,-0.0242,0.8621,-6.55,7.92,0.03,27.16
8341,0.3364,-0.0209,0.8633,-6.52,7.89,0.0,27.15
8351,0.3348,-0.0228,0.8669,-6.64,7.88,-0.03,27.14
8361,0.3333,-0.0233,0.8668,-6.6,7.91,-0.02,27.14
8371,0.3339,-0.0217,0.8662,-6.53,7.82,-0.06,27.17
8381,0.3328,-0.0229,0.8684,-6.53,7.88,-0.02,27.17
8391,0.3329,-0.0245,0.8651,-6.52,7.91,-0.03,27.16
8401,0.3353,-0.0237,0.8646,-6.53,7.83,-0.05,27.13
8411,0.3345,-0.0231,0.8656,-6.56,7.88,-0.08,27.17
8421,0.3328,-0.0254,0.8618,-6.52,7.77,-0.06,27.19
8431,0.3346,-0.0247,0.8647,-6.47,7.89,0.0,27.17
8441,0.3313,-0.021,0.8635,-6.5,7.82,-0.02,27.17
8451,0.3356,-0.0266,0.8594,-6.5,7.86,-0.05,27.16
8461,0.3304,-0.0217,0.8634,-6.52,7.85,-0.09,27.15
8471,0.3323,-0.0232,0.8644,-6.47,7.95,-0.03,27.17
8481,0.3319,-0.0228,0.8645,-6.53,7.86,-0.08,27.16
8491,0.3319,-0.0234,0.866,-6.61,7.83,-0.02,27.17
8501,0.3306,-0.024,0.8677,-6.58,7.79,-0.05,27.18
8511,0.335,-0.0232,0.8635,-6.56,7.89,0.0,27.18
8521,0.3344,-0.0228,0.8657,-6.6,7.74,0.0,27.15
8531,0.3354,-0.0243,0.8662,-6.53,7.94,-0.05,27.16
8541,0.3339,-0.024,0.8646,-6.56,7.86,-0.03,27.15
8551,0.3347,-0.0194,0.8615,-6.53,7.82,-0.05,27.18
8561,0.3336,-0.0209,0.8669,-6.56,7.86,0.06,27.17
8571,0.3334,-0.0216,0.8652,-6.61,7.82,-0.08,27.15
8581,0.335,-0.0237,0.8623,-6.69,7.86,-0.05,27.15
8591,0.3379,-0.0227,0.8613,-6.6,7.79,-0.05,27.15
8601,0.3357,-0.0226,0.8628,-6.55,7.82,0.02,27.15
8611,0.334,-0.0206,0.8662,-6.56,7.83,0.02,27.18
8621,0.335,-0.0237,0.8627,-6.5,7.89,0.05,27.14
8631,0.3324,-0.0229,0.8645,-6.52,7.86,0.0,27.16
8641,0.3302,-0.0233,0.8671,-6.61,7.89,-0.12,27.16
8651,0.332,-0.0255,0.8615,-6.53,7.89,-0.09,27.15
8661,0.3317,-0.0233,0.8662,-6.6,7.89,-0.11,27.18
8671,0.3329,-0.0214,0.8683,-6.55,7.86,-0.12,27.17
8681,0.3329,-0.0249,0.863,-6.49,7.85,-0.05,27.16
8691,0.3317,-0.0227,0.8641,-6.58,7.89,-0.15,27.16
8701,0.334,-0.024,0.864,-6.5,7.88,-0.06,27.15
8711,0.335,-0.021,0.8638,-6.58,7.89,-0.09,27.16
8721,0.3334,-0.0236,0.8687,-6.55,7.85,0.02,27.17
8731,0.3354,-0.0253,0.8662,-6.55,7.86,-0.06,27.15
8741,0.3341,-0.0237,0.8667,-6.52,7.88,-0.05,27.16
8751,0.3333,-0.0222,0.8676,-6.49,7.86,-0.12,27.17
8761,0.3315,-0.0216,0.8635,-6.56,7.85,0.0,27.17
8771,0.3314,-0.026,0.8656,-6.53,7.89,-0.09,27.16
8781,0.3345,-0.0211,0.8622,-6.63,7.85,-0.08,27.15
8791,0.3322,-0.0216,0.8625,-6.6,7.89,0.02,27.17
8801,0.3348,-0.0219,0.8652,-6.53,7.95,0.0,27.18
8811,0.3329,-0.0219,0.8666,-6.58,7.91,-0.05,27.16
8821,0.332,-0.0216,0.8661,-6.52,7.89,-0.06,27.16
8831,0.3345,-0.0187,0.8645,-6.49,7.89,-0.05,27.15
8841,0.3347,-0.0239,0.8656,-6.56,7.89,-0.03,27.18
8851,0.3351,-0.0223,0.8645,-6.6,7.82,-0.05,27.17
8861,0.3334,-0.0253,0.8685,-6.58,7.88,-0.05,27.19
8871,0.3362,-0.0206,0.8629,-6.53,7.91,-0.09,27.17
8881,0.3308,-0.0232,0.8627,-6.66,7.86,-0.05,27.15
8891,0.3337,-0.0239,0.8651,-6.53,7.82,-0.06,27.17
8901,0.3347,-0.0247,0.8632,-6.56,7.88,0.0,27.15
8911,0.3314,-0.0229,0.8646,-6.56,7.86,-0.03,27.15
8921,0.3328,-0.0229,0.8643,-6.5,7.94,-0.05,27.15
8931,0.332,-0.0232,0.8621,-6.5,7.86,0.02,27.18
8941,0.3348,-0.0227,0.8635,-6.55,7.89,-0.02,27.17
8951,0.3362,-0.0258,0.8624,-6.56,7.85,0.0,27.19
8961,0.3333,-0.0239,0.863,-6.6,7.85,-0.06,27.15
8971,0.3314,-0.0229,0.8636,-6.5,7.88,0.02,27.2
8981,0.3326,-0.0231,0.8628,-6.55,7.86,-0.06,27.16
8991,0.3354,-0.0221,0.8657,-6.56,7.92,0.0,27.16
9001,0.3325,-0.0231,0.8674,-6.58,7.88,0.03,27.17
9011,0.3326,-0.0248,0.8634,-6.41,7.86,-0.02,27.19
9021,0.3337,-0.0212,0.864,-6.58,7.86,-0.11,27.17
9031,0.3361,-0.0225,0.8663,-6.5,7.88,-0.08,27.16
9041,0.3372,-0.0243,0.8604,-6.6,7.86,-0.02,27.18
9051,0.3324,-0.0216,0.8662,-6.49,7.85,-0.09,27.16
9061,0.3303,-0.0222,0.866,-6.61,7.86,-0.03,27.17
9071,0.3324,-0.0208,0.8643,-6.63,7.86,0.02,27.17
9081,0.3326,-0.0222,0.864,-6.55,7.86,-0.06,27.17
9091,0.3333,-0.025,0.863,-6.56,7.8,-0.05,27.14
9101,0.3344,-0.0219,0.8651,-6.6,7.91,-0.02,27.19
9111,0.3342,-0.0232,0.8635,-6.6,7.85,-0.08,27.15
9121,0.335,-0.0211,0.8654,-6.58,7.86,-0.06,27.17
9131,0.3348,-0.0256,0.8665,-6.61,7.8,-0.02,27.15
9141,0.334,-0.0228,0.8638,-6.58,7.86,-0.02,27.18
9151,0.334,-0.0219,0.8638,-6.64,7.89,0.02,27.15
9161,0.3331,-0.0208,0.8629,-6.5,7.88,-0.06,27.17
9171,0.334,-0.0225,0.8633,-6.56,7.86,-0.06,27.16
9181,0.3339,-0.0245,0.8682,-6.56,7.98,-0.09,27.18
9192,0.3348,-0.0233,0.8663,-6.5,7.88,-0.06,27.18
9202,0.3347,-0.0264,0.8684,-6.49,7.85,-0.06,27.16
9212,0.3341,-0.0236,0.8636,-6.6,7.83,-0.03,27.17
9222,0.3356,-0.0236,0.8641,-6.56,7.91,-0.09,27.17
9232,0.3333,-0.026,0.8667,-6.52,7.86,-0.06,27.17
9242,0.3353,-0.0209,0.8685,-6.6,7.86,-0.06,27.16
9252,0.3341,-0.0222,0.8695,-6.58,7.86,-0.03,27.17
9262,0.3357,-0.0254,0.8662,-6.46,7.88,0.02,27.18
9272,0.3364,-0.0251,0.8621,-6.47,7.85,0.02,27.17
9282,0.3326,-0.0221,0.8622,-6.56,7.86,0.0,27.18
9292,0.3313,-0.0231,0.8641,-6.61,7.91,0.0,27.19
9340,0.3315,-0.024,0.8618,-6.61,7.83,-0.09,27.18
9350,0.3345,-0.0221,0.868,-6.47,7.88,-0.12,27.2
9360,0.3344,-0.0242,0.8639,-6.61,7.97,-0.06,27.2
9370,0.332,-0.0216,0.8667,-6.55,7.95,-0.02,27.2
9380,0.3337,-0.026,0.8671,-6.53,7.85,-0.03,27.21
9390,0.3351,-0.0255,0.8683,-6.5,7.85,-0.06,27.18
9400,0.3344,-0.0212,0.8663,-6.55,7.86,0.0,27.17
9410,0.3364,-0.0222,0.8646,-6.55,7.86,0.0,27.18
9420,0.3358,-0.024,0.8649,-6.44,7.88,0.0,27.16
9430,0.3293,-0.0231,0.8635,-6.6,7.91,-0.05,27.18
9440,0.3333,-0.0215,0.8605,-6.53,7.85,-0.03,27.17
9450,0.3359,-0.0237,0.8661,-6.5,7.94,-0.02,27.18
9460,0.3358,-0.022,0.8644,-6.67,7.85,-0.05,27.19
9470,0.334,-0.0249,0.8597,-6.52,7.91,-0.06,27.17
9480,0.3313,-0.0225,0.8687,-6.53,7.94,0.02,27.19
9490,0.3308,-0.0247,0.8657,-6.6,7.95,-0.06,27.17
9500,0.3365,-0.0261,0.8668,-6.61,7.89,-0.15,27.17
9510,0.332,-0.0227,0.8644,-6.58,7.91,-0.14,27.19
9520,0.3353,-0.0239,0.8672,-6.53,7.88,-0.08,27.18
9530,0.3312,-0.0253,0.8635,-6.47,7.91,-0.05,27.19
9540,0.3312,-0.0227,0.8622,-6.56,7.82,0.05,27.2
9550,0.3331,-0.0223,0.8641,-6.4,7.82,0.0,27.17
9560,0.3353,-0.0234,0.8628,-6.53,7.83,-0.12,27.17
9570,0.3329,-0.0209,0.8644,-6.61,7.85,-0.05,27.17
9580,0.3322,-0.0255,0.8619,-6.61,7.92,0.0,27.19
9590,0.335,-0.0243,0.8643,-6.56,7.85,-0.03,27.17
9600,0.3315,-0.024,0.8654,-6.56,7.86,0.0,27.17
9610,0.3348,-0.0211,0.8618,-6.56,7.86,-0.08,27.19
9620,0.3358,-0.0249,0.8604,-6.52,7.82,-0.12,27.19
9630,0.3345,-0.0211,0.8677,-6.56,7.91,-0.05,27.18
9640,0.3334,-0.024,0.8676,-6.53,7.85,-0.11,27.21
9650,0.3337,-0.0219,0.8632,-6.52,7.86,-0.05,27.19
9660,0.3368,-0.0209,0.866,-6.5,7.91,-0.05,27.19
9670,0.3337,-0.0221,0.8649,-6.52,7.86,-0.05,27.17
9680,0.3324,-0.0204,0.8634,-6.55,7.89,-0.02,27.19
9690,0.3334,-0.0199,0.8643,-6.5,7.91,-0.05,27.2
9700,0.3354,-0.0229,0.8668,-6.53,7.91,-0.08,27.16
9710,0.3324,-0.0249,0.8633,-6.58,7.89,-0.08,27.17
9720,0.3315,-0.0244,0.8638,-6.58,7.89,-0.05,27.19
9730,0.3345,-0.0221,0.866,-6.56,7.92,-0.06,27.17
9740,0.3339,-0.0199,0.8651,-6.56,7.86,-0.08,27.17
9750,0.3335,-0.0253,0.8655,-6.55,7.97,-0.02,27.16
9760,0.3345,-0.0244,0.8622,-6.52,7.88,-0.06,27.18
9770,0.3334,-0.0244,0.8622,-6.53,7.85,-0.02,27.19
9780,0.3359,-0.0225,0.8643,-6.69,7.91,-0.06,27.19
9790,0.333,-0.0225,0.8716,-6.49,7.83,-0.06,27.18
9800,0.3315,-0.0211,0.8652,-6.53,7.88,-0.11,27.17
9810,0.3339,-0.0219,0.8656,-6.58,7.88,-0.05,27.19
9820,0.3319,-0.0226,0.8645,-6.55,7.89,-0.06,27.19
9830,0.3337,-0.0234,0.8676,-6.56,7.91,0.02,27.19
9840,0.3351,-0.0227,0.866,-6.63,7.89,-0.03,27.18
9850,0.3359,-0.0236,0.8639,-6.6,7.95,0.0,27.18
9860,0.332,-0.0238,0.8647,-6.49,7.86,-0.05,27.17
9870,0.3369,-0.0229,0.8662,-6.53,7.86,-0.03,27.17
9880,0.3314,-0.0205,0.8663,-6.49,7.86,-0.02,27.18
9890,0.3341,-0.0245,0.8693,-6.58,7.92,-0.03,27.2
9900,0.3335,-0.0214,0.8672,-6.64,7.85,-0.08,27.19
9910,0.3362,-0.0214,0.8693,-6.56,7.89,-0.09,27.17
9920,0.334,-0.0226,0.8643,-6.52,7.8,-0.03,27.17
9930,0.3319,-0.0239,0.8623,-6.53,7.86,-0.08,27.19
9940,0.3322,-0.0258,0.8663,-6.64,7.88,0.0,27.19
9950,0.3325,-0.0231,0.8665,-6.63,7.94,-0.05,27.21
9960,0.3348,-0.0233,0.8617,-6.58,7.88,-0.08,27.18
9970,0.3322,-0.022,0.8641,-6.53,7.94,0.03,27.19
9980,0.3341,-0.0232,0.8651,-6.49,7.91,-0.05,27.19
9990,0.3345,-0.0232,0.8693,-6.52,7.86,-0.08,27.18
10000,0.3317,-0.0233,0.8688,-6.6,7.85,-0.08,27.19
10010,0.3324,-0.0228,0.8666,-6.6,7.97,-0.02,27.19
10020,0.3324,-0.0225,0.8654,-6.55,7.91,-0.02,27.19
10030,0.3342,-0.0232,0.8643,-6.46,7.88,-0.03,27.2
10040,0.3318,-0.0205,0.8627,-6.52,7.86,0.0,27.17
10050,0.332,-0.0265,0.8647,-6.53,7.91,-0.09,27.18
10060,0.3329,-0.0225,0.8645,-6.56,7.82,-0.03,27.19
10070,0.3326,-0.0206,0.8624,-6.49,7.85,-0.09,27.19
10080,0.3334,-0.0209,0.8639,-6.56,7.88,-0.08,27.19
10090,0.3353,-0.0205,0.8662,-6.6,7.91,-0.03,27.21
10100,0.3353,-0.0217,0.8632,-6.55,7.85,-0.05,27.18
10110,0.3336,-0.0222,0.8651,-6.58,7.83,-0.06,27.19
10120,0.3336,-0.0233,0.861,-6.58,7.82,-0.03,27.18
10130,0.3335,-0.022,0.8682,-6.53,7.83,0.02,27.19
10140,0.3328,-0.0229,0.8638,-6.58,7.83,-0.05,27.21
10150,0.3302,-0.0231,0.868,-6.6,7.83,-0.02,27.18
10160,0.3298,-0.0261,0.8617,-6.55,7.88,-0.05,27.19
10170,0.3351,-0.024,0.8663,-6.58,7.85,-0.05,27.22
10180,0.3331,-0.0233,0.8663,-6.64,7.89,-0.12,27.2
10190,0.3348,-0.0233,0.8661,-6.56,7.85,-0.08,27.2
10200,0.3352,-0.0233,0.8643,-6.49,7.83,-0.05,27.19
10210,0.334,-0.0232,0.8657,-6.63,7.86,-0.02,27.2
10220,0.3325,-0.0217,0.8673,-6.61,7.83,-0.05,27.19
10230,0.3324,-0.0253,0.8627,-6.47,7.92,-0.02,27.19
10240,0.3337,-0.0239,0.8632,-6.52,7.85,-0.05,27.18
10250,0.333,-0.021,0.8639,-6.49,7.89,-0.08,27.2
10260,0.3335,-0.024,0.8665,-6.5,7.88,-0.06,27.2
10270,0.334,-0.0239,0.8633,-6.58,7.82,-0.14,27.2
10280,0.3359,-0.0225,0.8625,-6.53,7.91,-0.09,27.19
10290,0.3344,-0.0221,0.8666,-6.6,7.91,-0.02,27.19
10301,0.334,-0.0237,0.86,-6.6,7.85,-0.02,27.2
10311,0.3347,-0.0206,0.8645,-6.56,7.86,-0.09,27.19
10321,0.3307,-0.0243,0.8667,-6.56,7.92,-0.06,27.18
10331,0.3334,-0.0237,0.8673,-6.5,7.88,-0.08,27.2
10341,0.3328,-0.0223,0.8666,-6.58,7.89,-0.08,27.21
10351,0.3341,-0.0226,0.8629,-6.5,7.88,-0.09,27.2
10361,0.334,-0.0227,0.8636,-6.53,7.91,-0.03,27.21
10371,0.3339,-0.0203,0.8636,-6.53,7.79,-0.02,27.19
10381,0.3331,-0.0247,0.8633,-6.58,7.88,-0.06,27.19
10391,0.3312,-0.0222,0.8662,-6.61,7.88,-0.09,27.2
10401,0.3329,-0.0212,0.8649,-6.56,7.88,0.0,27.21
10411,0.333,-0.0182,0.8633,-6.52,7.83,-0.06,27.2
10421,0.3347,-0.0217,0.8643,-6.58,7.89,0.0,27.22
10431,0.3319,-0.0248,0.8645,-6.5,7.89,0.0,27.19
10441,0.3378,-0.0221,0.8662,-6.52,7.89,0.0,27.19
10451,0.3344,-0.0239,0.8628,-6.53,7.83,-0.11,27.18
10461,0.3364,-0.0227,0.8667,-6.58,7.95,-0.05,27.19
10471,0.3328,-0.0255,0.8645,-6.52,7.91,0.03,27.19
10482,0.3333,-0.0225,0.8679,-6.61,7.89,-0.06,27.18
10492,0.3324,-0.0226,0.8667,-6.49,7.88,-0.05,27.18
10502,0.3311,-0.0209,0.8639,-6.63,7.86,0.0,27.18
10512,0.335,-0.0233,0.866,-6.55,7.85,-0.06,27.18
10522,0.3331,-0.0232,0.8655,-6.58,7.82,-0.08,27.18
10532,0.3336,-0.0217,0.8672,-6.56,7.89,-0.08,27.19
10542,0.3353,-0.025,0.8638,-6.58,7.92,-0.05,27.17
10552,0.3342,-0.0238,0.8658,-6.67,7.94,-0.03,27.2
10562,0.3317,-0.0243,0.865,-6.55,7.83,-0.05,27.17
10572,0.3351,-0.0222,0.8668,-6.53,7.85,-0.03,27.19
10582,0.3362,-0.0214,0.8618,-6.52,7.85,-0.05,27.21
10592,0.3324,-0.0223,0.8657,-6.5,7.8,-0.03,27.19
10602,0.3326,-0.022,0.8652,-6.47,7.91,0.02,27.2
10612,0.3342,-0.0243,0.8651,-6.5,7.86,0.0,27.21
10622,0.3361,-0.0248,0.8635,-6.56,7.88,-0.05,27.19
10632,0.3323,-0.0231,0.8623,-6.58,7.91,-0.06,27.19
10642,0.335,-0.0228,0.8666,-6.6,7.83,-0.08,27.2
10652,0.3357,-0.0225,0.8668,-6.56,7.83,-0.06,27.18
10662,0.3342,-0.0228,0.8673,-6.56,7.82,-0.02,27.2
10672,0.3335,-0.021,0.8672,-6.53,7.86,-0.06,27.19
10682,0.332,-0.0237,0.8683,-6.55,7.85,-0.02,27.21
10692,0.3348,-0.0237,0.8647,-6.5,7.94,-0.03,27.2
10702,0.3342,-0.0214,0.8622,-6.47,7.82,-0.03,27.22
10712,0.3335,-0.0238,0.8654,-6.49,7.91,-0.14,27.19
10722,0.335,-0.0242,0.8656,-6.44,7.94,-0.09,27.21
10732,0.3339,-0.0231,0.8628,-6.53,7.85,0.02,27.21
10742,0.3329,-0.0238,0.8652,-6.53,7.94,0.0,27.19
10752,0.3334,-0.0237,0.8676,-6.5,7.8,0.02,27.19
10762,0.3351,-0.0231,0.8673,-6.63,7.83,-0.02,27.18
10772,0.334,-0.0254,0.8683,-6.55,7.83,-0.05,27.19
10782,0.3313,-0.0214,0.8646,-6.56,7.82,-0.11,27.21
10792,0.3347,-0.0228,0.8663,-6.56,7.8,-0.03,27.2
10802,0.3363,-0.0245,0.8662,-6.44,7.82,-0.03,27.19
10812,0.335,-0.021,0.8623,-6.56,7.85,-0.02,27.2
10822,0.3335,-0.0227,0.8625,-6.55,7.83,-0.11,27.2
10832,0.3347,-0.0223,0.8654,-6.55,7.85,-0.02,27.2
10842,0.3333,-0.0219,0.8651,-6.6,7.88,-0.08,27.2
10852,0.3352,-0.0238,0.8629,-6.52,7.89,-0.08,27.19
10862,0.3347,-0.0265,0.8661,-6.6,7.85,0.02,27.18
10872,0.3319,-0.0229,0.8651,-6.49,7.89,-0.03,27.17
10882,0.3323,-0.0229,0.8643,-6.6,7.86,0.05,27.17
10892,0.3319,-0.0237,0.8655,-6.55,7.82,-0.05,27.19
10902,0.3317,-0.0226,0.8632,-6.49,7.88,-0.05,27.19
10912,0.3309,-0.0228,0.8674,-6.5,7.86,0.0,27.18
10922,0.3302,-0.022,0.8647,-6.5,7.86,0.02,27.21
10932,0.3335,-0.0214,0.8654,-6.56,7.88,0.0,27.19
10942,0.3326,-0.0222,0.8617,-6.53,7.97,0.03,27.19
10952,0.3333,-0.025,0.8618,-6.55,7.88,0.0,27.17
10962,0.3328,-0.0234,0.8612,-6.5,7.8,0.02,27.2
10972,0.3352,-0.0237,0.8661,-6.53,7.86,-0.12,27.19
10982,0.3325,-0.0243,0.864,-6.6,7.91,0.03,27.2
10992,0.3319,-0.0215,0.8622,-6.5,7.85,-0.05,27.19
11002,0.3347,-0.0209,0.8629,-6.5,7.88,-0.03,27.18
11012,0.3331,-0.0222,0.866,-6.58,7.82,-0.03,27.19
11022,0.3324,-0.0214,0.866,-6.61,7.77,-0.05,27.2
11032,0.334,-0.0236,0.8646,-6.49,7.85,0.02,27.19
11042,0.3358,-0.0247,0.8673,-6.61,7.88,0.08,27.18
11052,0.3329,-0.0232,0.8641,-6.55,7.86,-0.03,27.19
11062,0.3325,-0.0237,0.8668,-6.58,7.95,-0.03,27.19
11072,0.3336,-0.0206,0.8633,-6.6,7.88,-0.06,27.19
11082,0.3325,-0.022,0.8638,-6.55,7.82,0.02,27.18
11092,0.3329,-0.0228,0.8647,-6.52,7.83,-0.11,27.19
11102,0.3319,-0.0248,0.8651,-6.56,7.92,-0.08,27.21
11112,0.333,-0.0245,0.8651,-6.56,7.79,-0.05,27.2
11122,0.3341,-0.0245,0.8623,-6.58,7.86,-0.03,27.19
11132,0.3369,-0.0242,0.8666,-6.53,7.89,-0.05,27.18
11142,0.3352,-0.0229,0.8663,-6.58,7.83,-0.02,27.18
11152,0.334,-0.024,0.8645,-6.46,7.85,-0.06,27.19
11162,0.3339,-0.0233,0.8621,-6.61,7.88,-0.06,27.2
11172,0.3333,-0.0247,0.8658,-6.52,7.94,-0.05,27.2
11182,0.3368,-0.0226,0.8621,-6.58,7.83,-0.05,27.18
11192,0.3341,-0.0225,0.8618,-6.53,7.85,0.0,27.17
11202,0.334,-0.022,0.861,-6.58,7.86,0.02,27.2
11212,0.332,-0.0226,0.8656,-6.58,7.91,-0.06,27.18
11222,0.3361,-0.0264,0.8635,-6.55,7.86,0.0,27.18
11232,0.3348,-0.0219,0.8662,-6.6,7.91,-0.02,27.21
11242,0.3325,-0.0245,0.8663,-6.55,7.88,-0.09,27.21
11252,0.3328,-0.0239,0.8689,-6.52,7.86,-0.08,27.22
11262,0.3304,-0.0212,0.8611,-6.53,7.86,-0.05,27.21
11272,0.3341,-0.0201,0.8646,-6.58,7.83,0.02,27.22
11282,0.3325,-0.0221,0.8649,-6.58,7.89,-0.02,27.19
11292,0.3337,-0.0234,0.8676,-6.56,7.85,-0.09,27.2
11302,0.3353,-0.0243,0.8639,-6.52,7.83,-0.02,27.2
11312,0.3344,-0.0251,0.8679,-6.63,7.83,-0.09,27.19
11322,0.3339,-0.0237,0.8656,-6.5,7.85,0.03,27.22
11332,0.3362,-0.0211,0.8623,-6.53,7.86,-0.02,27.21
11342,0.3334,-0.024,0.8599,-6.52,7.85,-0.03,27.2
11352,0.3348,-0.0225,0.8602,-6.61,7.88,-0.02,27.23
11362,0.3319,-0.0231,0.8627,-6.58,7.86,-0.06,27.21
11372,0.3303,-0.0225,0.8615,-6.52,7.95,-0.02,27.22
11382,0.3314,-0.022,0.8602,-6.53,7.91,-0.03,27.2
11392,0.3341,-0.0234,0.8613,-6.66,7.85,-0.06,27.19
11402,0.3337,-0.0236,0.8627,-6.56,7.86,-0.05,27.19
11412,0.3334,-0.024,0.8604,-6.52,7.91,-0.05,27.22
11422,0.3335,-0.0232,0.8661,-6.58,7.85,-0.05,27.22
11432,0.3339,-0.0234,0.8669,-6.66,7.83,-0.08,27.19
11442,0.3345,-0.0248,0.865,-6.56,7.83,-0.12,27.21
11452,0.3325,-0.024,0.8683,-6.41,7.86,-0.05,27.22
11462,0.3326,-0.0226,0.8634,-6.58,7.86,-0.06,27.22
11472,0.3347,-0.0248,0.8619,-6.58,7.89,-0.05,27.21
11482,0.3308,-0.0256,0.8606,-6.47,7.92,-0.05,27.21
11492,0.3306,-0.0236,0.8695,-6.5,7.82,-0.03,27.19
11502,0.3351,-0.0228,0.8687,-6.5,7.89,-0.05,27.2
11512,0.334,-0.0208,0.864,-6.56,7.92,-0.06,27.22
11522,0.3353,-0.025,0.8623,-6.56,7.82,-0.06,27.21
11532,0.335,-0.0227,0.8668,-6.49,7.91,-0.02,27.19
11542,0.3325,-0.0222,0.8625,-6.5,7.86,-0.09,27.22
11552,0.3347,-0.0217,0.8635,-6.56,7.85,-0.03,27.24
11562,0.3331,-0.0267,0.8645,-6.56,7.88,-0.03,27.22
11572,0.3339,-0.0254,0.8629,-6.61,7.82,-0.08,27.21
11582,0.3362,-0.0223,0.8632,-6.53,7.86,-0.05,27.21
11592,0.3325,-0.0212,0.8622,-6.61,7.88,0.06,27.21
11602,0.3309,-0.0239,0.8613,-6.61,7.83,-0.03,27.24
11612,0.3348,-0.0242,0.8622,-6.6,7.86,-0.06,27.21
11622,0.3344,-0.0227,0.8623,-6.58,7.88,-0.02,27.21
11632,0.3363,-0.0234,0.8622,-6.52,7.85,-0.03,27.22
11642,0.3346,-0.0228,0.8636,-6.47,7.88,-0.02,27.2
11652,0.3352,-0.0232,0.8651,-6.56,7.88,0.05,27.2
11662,0.3345,-0.0269,0.8667,-6.55,7.83,0.0,27.2
11672,0.3314,-0.0276,0.863,-6.53,7.91,-0.06,27.23
11682,0.3362,-0.0273,0.8649,-6.56,7.88,-0.08,27.2
11692,0.3373,-0.0228,0.8629,-6.58,7.88,-0.03,27.21
11702,0.3336,-0.0231,0.8658,-6.52,7.91,-0.03,27.21
11712,0.3336,-0.0214,0.8633,-6.53,7.85,0.0,27.2
11722,0.3353,-0.021,0.8667,-6.58,7.89,-0.08,27.21
11732,0.3318,-0.0212,0.8655,-6.53,7.88,0.0,27.22
11742,0.3325,-0.0247,0.8662,-6.52,7.86,-0.09,27.2
11752,0.3324,-0.0211,0.8674,-6.55,7.89,-0.05,27.22
11762,0.3318,-0.0226,0.8643,-6.66,7.88,-0.08,27.21
11772,0.3318,-0.0236,0.8636,-6.5,7.89,-0.06,27.2
11782,0.3344,-0.0222,0.8622,-6.58,7.83,-0.02,27.22
11792,0.3336,-0.0236,0.8625,-6.58,7.88,-0.12,27.21
11802,0.3353,-0.0215,0.863,-6.5,7.89,-0.08,27.22
11812,0.3331,-0.0236,0.8667,-6.53,7.86,-0.03,27.22
11822,0.3325,-0.0243,0.8655,-6.61,7.89,0.0,27.21
11832,0.3309,-0.0254,0.8665,-6.49,7.94,-0.03,27.2
11842,0.335,-0.0233,0.8627,-6.58,7.91,-0.02,27.2
11852,0.3314,-0.0236,0.8622,-6.6,7.86,-0.02,27.21
11862,0.3335,-0.0231,0.8639,-6.56,7.86,-0.02,27.22
11872,0.3344,-0.0233,0.863,-6.5,7.86,-0.05,27.22
11882,0.3322,-0.0239,0.8607,-6.55,7.88,-0.08,27.21
11892,0.3331,-0.0228,0.8617,-6.47,7.89,-0.05,27.21
11902,0.3318,-0.0214,0.8655,-6.64,7.82,-0.08,27.22
11912,0.332,-0.0219,0.8647,-6.6,7.89,-0.08,27.22
11922,0.3341,-0.0234,0.8593,-6.64,7.89,-0.05,27.22
11932,0.3339,-0.0228,0.8621,-6.56,7.88,-0.11,27.21
11942,0.3292,-0.0232,0.8621,-6.58,7.86,0.0,27.22
11952,0.3368,-0.0244,0.8618,-6.63,7.85,-0.06,27.21
11962,0.3363,-0.0226,0.8641,-6.55,7.89,-0.09,27.25
11972,0.3328,-0.0236,0.8628,-6.55,7.88,-0.09,27.21
11982,0.3337,-0.0247,0.863,-6.55,7.83,-0.05,27.22
11992,0.334,-0.0208,0.8667,-6.56,7.76,-0.05,27.21
12002,0.333,-0.0217,0.8671,-6.53,7.86,-0.02,27.21
12012,0.3336,-0.0232,0.8634,-6.58,7.89,-0.05,27.25
12022,0.3337,-0.0232,0.8667,-6.55,7.85,0.0,27.22
12032,0.3324,-0.0225,0.8627,-6.55,7.88,-0.05,27.21
12042,0.3348,-0.0212,0.8656,-6.49,7.89,-0.02,27.19
12052,0.3339,-0.0223,0.8669,-6.58,7.88,-0.02,27.21
12062,0.3312,-0.0233,0.8668,-6.63,7.92,-0.05,27.21
12072,0.3356,-0.0249,0.8671,-6.64,7.86,-0.05,27.22
12082,0.3353,-0.0225,0.8658,-6.6,7.83,-0.11,27.23
12092,0.3325,-0.0225,0.8663,-6.61,7.86,0.0,27.22
12102,0.3313,-0.0226,0.8671,-6.6,7.88,-0.09,27.21
12112,0.3346,-0.024,0.8645,-6.56,7.88,-0.09,27.24
12122,0.3339,-0.0229,0.8634,-6.58,7.85,0.02,27.2
12132,0.3335,-0.0219,0.8684,-6.56,7.85,-0.05,27.23
12142,0.3328,-0.0234,0.8606,-6.56,7.85,-0.03,27.22
12152,0.3337,-0.0243,0.8658,-6.49,7.88,-0.03,27.2
12162,0.3335,-0.0225,0.8652,-6.55,7.91,-0.06,27.22
12172,0.3347,-0.0226,0.8679,-6.49,7.82,-0.06,27.22
12182,0.3352,-0.0264,0.8622,-6.61,7.86,-0.02,27.22
12192,0.333,-0.0205,0.8649,-6.58,7.86,-0.11,27.23
12202,0.335,-0.0226,0.8652,-6.5,7.89,-0.03,27.22
12212,0.335,-0.0217,0.8612,-6.5,7.83,-0.05,27.2
12222,0.3315,-0.0211,0.8674,-6.52,7.92,-0.03,27.23
12232,0.3322,-0.0226,0.8665,-6.58,7.88,-0.06,27.21
12242,0.3314,-0.0261,0.8629,-6.55,7.83,-0.02,27.24
12252,0.3325,-0.0243,0.8657,-6.55,7.86,-0.03,27.2
12262,0.3333,-0.0223,0.8651,-6.58,7.91,0.0,27.22
12272,0.3336,-0.0232,0.8617,-6.56,7.85,-0.12,27.21
12282,0.3364,-0.0225,0.8657,-6.58,7.89,-0.06,27.23
12292,0.3356,-0.0233,0.8662,-6.58,7.92,-0.06,27.24
12302,0.3329,-0.0227,0.8655,-6.52,7.82,-0.11,27.24
12312,0.3311,-0.0239,0.865,-6.5,7.8,-0.02,27.23
12322,0.3342,-0.0237,0.8633,-6.52,7.89,-0.06,27.21
12332,0.3328,-0.0217,0.8641,-6.53,7.88,0.0,27.24
12342,0.3309,-0.0223,0.8677,-6.58,7.89,0.02,27.23
12352,0.3347,-0.0237,0.8667,-6.46,7.91,-0.05,27.23
12362,0.333,-0.0217,0.8612,-6.5,7.86,0.06,27.22
12372,0.3357,-0.0243,0.8636,-6.53,7.91,-0.08,27.23
12382,0.3333,-0.0236,0.8636,-6.6,7.88,0.0,27.22
12392,0.3334,-0.0234,0.8641,-6.52,7.91,-0.02,27.2
12402,0.3319,-0.0217,0.8625,-6.58,7.92,-0.09,27.2
12412,0.3325,-0.025,0.8629,-6.56,7.88,-0.06,27.24
12422,0.3325,-0.022,0.8639,-6.5,7.91,-0.11,27.22
12432,0.3334,-0.0217,0.8647,-6.53,7.91,-0.05,27.25
12442,0.3336,-0.0239,0.8632,-6.58,7.91,-0.02,27.23
12452,0.3344,-0.0221,0.865,-6.5,7.85,-0.05,27.25
12462,0.3335,-0.0214,0.8645,-6.6,7.83,-0.02,27.23
12472,0.3315,-0.022,0.8644,-6.46,7.83,-0.05,27.22
12482,0.3341,-0.0217,0.8668,-6.47,7.83,-0.02,27.23
12492,0.3329,-0.0236,0.8625,-6.56,7.88,-0.08,27.23
12502,0.3326,-0.0237,0.8643,-6.56,7.89,-0.06,27.23
12512,0.3328,-0.0226,0.8638,-6.56,7.86,-0.03,27.21
12522,0.3333,-0.0242,0.8638,-6.6,7.86,-0.09,27.22
12532,0.3356,-0.022,0.8656,-6.47,7.88,-0.09,27.23
12542,0.3346,-0.0228,0.868,-6.53,7.85,-0.11,27.22
12552,0.3341,-0.0214,0.8651,-6.58,7.89,0.03,27.25
12562,0.3368,-0.0226,0.8594,-6.55,7.83,-0.02,27.22
12572,0.3342,-0.0244,0.8674,-6.56,7.92,0.0,27.25
12582,0.3335,-0.0254,0.8624,-6.56,7.94,-0.02,27.21
12592,0.3331,-0.022,0.8639,-6.58,7.88,-0.02,27.23
12602,0.3325,-0.0232,0.8646,-6.53,7.85,-0.08,27.24
12612,0.3319,-0.0232,0.8669,-6.47,7.88,-0.05,27.23
12622,0.3339,-0.0239,0.8713,-6.61,7.86,-0.05,27.22
12632,0.3347,-0.0209,0.8647,-6.56,7.8,-0.05,27.24
12642,0.3353,-0.024,0.8649,-6.61,7.83,-0.03,27.24
12652,0.3322,-0.0239,0.8683,-6.53,7.88,0.02,27.24
12662,0.3341,-0.0205,0.8646,-6.56,7.79,-0.03,27.22
12672,0.3323,-0.0195,0.864,-6.47,7.85,0.0,27.21
12682,0.334,-0.0237,0.8643,-6.5,7.82,-0.06,27.2
12692,0.3331,-0.0238,0.8589,-6.52,7.82,-0.15,27.24
12702,0.3341,-0.0212,0.866,-6.53,7.89,-0.03,27.22
12712,0.3318,-0.0197,0.8665,-6.56,7.88,-0.06,27.21
12722,0.3324,-0.0221,0.8651,-6.47,7.91,-0.05,27.25
12732,0.3341,-0.0244,0.8672,-6.53,7.86,-0.06,27.23
12742,0.3308,-0.022,0.8624,-6.52,7.85,0.02,27.24
12752,0.3317,-0.0227,0.8647,-6.53,7.88,0.05,27.24
12762,0.3325,-0.0223,0.8665,-6.56,7.89,-0.03,27.21
12772,0.3348,-0.0233,0.8636,-6.52,7.86,0.03,27.24
12782,0.3328,-0.0217,0.8636,-6.56,7.82,0.02,27.23
12792,0.3331,-0.0234,0.8663,-6.56,7.92,-0.02,27.2
12802,0.3315,-0.0247,0.865,-6.61,7.91,0.0,27.24
12812,0.3339,-0.0221,0.8613,-6.55,7.89,-0.02,27.22
12822,0.3301,-0.024,0.8678,-6.56,7.88,0.02,27.19
12832,0.3357,-0.0203,0.8628,-6.5,7.86,-0.02,27.22
12842,0.3341,-0.0226,0.8661,-6.53,7.91,-0.03,27.22
12852,0.332,-0.0254,0.8683,-6.53,7.92,-0.08,27.25
12862,0.3329,-0.0242,0.8678,-6.55,7.88,-0.09,27.23
12872,0.3315,-0.0227,0.8655,-6.55,7.86,-0.08,27.24
12882,0.3308,-0.0254,0.8623,-6.53,7.86,-0.05,27.22
12892,0.3344,-0.0225,0.8635,-6.58,7.88,-0.05,27.23
12902,0.3347,-0.0219,0.8639,-6.58,7.89,-0.05,27.21
12912,0.3348,-0.0253,0.8641,-6.6,7.88,-0.05,27.24
12922,0.3354,-0.0227,0.8663,-6.63,7.88,-0.03,27.24
12932,0.3326,-0.0222,0.8671,-6.5,7.8,0.0,27.25
12942,0.3333,-0.0243,0.8682,-6.52,7.86,-0.11,27.24
12952,0.3326,-0.02,0.863,-6.55,7.85,-0.06,27.22
12962,0.3335,-0.021,0.8636,-6.49,7.77,-0.05,27.23
12972,0.3342,-0.0223,0.8623,-6.56,7.86,0.02,27.25
12982,0.3315,-0.0244,0.8646,-6.52,7.88,-0.03,27.23
12992,0.3361,-0.0223,0.8623,-6.55,7.83,-0.06,27.24
13002,0.335,-0.0227,0.8639,-6.6,7.85,-0.02,27.22
13012,0.3322,-0.0248,0.8663,-6.56,7.8,-0.06,27.24
13022,0.3362,-0.0226,0.8608,-6.53,7.82,-0.03,27.25
13032,0.3326,-0.024,0.8627,-6.49,7.89,-0.05,27.24
13042,0.3335,-0.0225,0.8602,-6.52,7.76,0.03,27.23
13052,0.3376,-0.0231,0.8633,-6.55,7.85,0.02,27.22
13062,0.3345,-0.0237,0.8656,-6.52,7.88,-0.08,27.22
13072,0.3342,-0.0222,0.8662,-6.58,7.85,-0.09,27.22
13082,0.3358,-0.0247,0.8651,-6.55,7.88,-0.02,27.25
13092,0.3354,-0.0236,0.8684,-6.52,7.92,-0.06,27.24
13102,0.3336,-0.0204,0.8633,-6.56,7.82,-0.05,27.25
13112,0.3365,-0.022,0.8612,-6.64,7.82,-0.05,27.23
13122,0.3331,-0.0214,0.863,-6.6,7.82,-0.03,27.24
13132,0.3328,-0.0245,0.8618,-6.5,7.85,0.03,27.23
13142,0.3353,-0.022,0.868,-6.53,7.8,-0.06,27.23
13152,0.3356,-0.0219,0.8639,-6.5,7.89,-0.05,27.23
13162,0.3333,-0.0226,0.8646,-6.58,7.85,-0.06,27.25
13172,0.3318,-0.0199,0.8649,-6.58,7.91,0.02,27.25
13182,0.3292,-0.0219,0.865,-6.56,7.88,-0.05,27.23
13192,0.3311,-0.0242,0.8618,-6.56,7.92,0.03,27.22
13202,0.333,-0.024,0.8645,-6.5,7.92,-0.06,27.21
13212,0.3356,-0.0229,0.8649,-6.55,7.92,-0.06,27.24
13222,0.3326,-0.0232,0.8644,-6.5,7.88,-0.11,27.22
13232,0.3324,-0.0215,0.866,-6.56,7.89,0.0,27.24
13242,0.3334,-0.0208,0.8646,-6.55,7.85,-0.08,27.24
13252,0.3339,-0.0239,0.8613,-6.56,7.89,-0.02,27.23
13262,0.3363,-0.0204,0.8625,-6.6,7.89,-0.03,27.23
13272,0.3346,-0.0231,0.8623,-6.56,7.85,-0.06,27.23
13282,0.3319,-0.021,0.8678,-6.53,7.83,-0.12,27.24
13292,0.3329,-0.0208,0.8645,-6.61,7.83,0.0,27.24
13302,0.3352,-0.0264,0.8629,-6.55,7.86,-0.05,27.24
13312,0.3309,-0.0222,0.865,-6.56,7.91,0.0,27.23
13322,0.3346,-0.0227,0.8641,-6.55,7.85,-0.02,27.24
13332,0.3329,-0.0222,0.8669,-6.53,7.85,-0.06,27.22
13342,0.3333,-0.0208,0.8632,-6.55,7.85,-0.03,27.24
13352,0.3344,-0.0219,0.8655,-6.64,7.86,-0.03,27.25
13362,0.3318,-0.0239,0.8655,-6.56,7.83,-0.03,27.25
13372,0.3337,-0.0228,0.8679,-6.58,7.86,-0.09,27.22
13382,0.3326,-0.0203,0.8667,-6.49,7.89,0.03,27.24
13392,0.3317,-0.0236,0.863,-6.43,7.89,-0.11,27.22
13402,0.337,-0.0199,0.8643,-6.52,7.82,-0.05,27.24
13412,0.3311,-0.0238,0.8645,-6.44,7.91,0.0,27.23
13422,0.3317,-0.0238,0.8643,-6.53,7.86,-0.05,27.25
13432,0.3353,-0.024,0.8634,-6.6,7.88,0.0,27.25
13442,0.3333,-0.0248,0.866,-6.53,7.89,-0.05,27.24
13452,0.3344,-0.0214,0.861,-6.55,7.85,-0.03,27.24
13462,0.3358,-0.0227,0.8665,-6.55,7.89,-0.08,27.22
13472,0.3342,-0.0253,0.865,-6.52,7.85,0.0,27.21
13482,0.3333,-0.0237,0.8646,-6.49,7.86,0.09,27.25
13492,0.3329,-0.024,0.8641,-6.53,7.85,-0.05,27.23
13502,0.3328,-0.0243,0.863,-6.61,7.82,-0.05,27.24
13512,0.3334,-0.0232,0.863,-6.6,7.86,-0.03,27.22
13522,0.3364,-0.0239,0.8643,-6.58,7.83,-0.03,27.21
13532,0.3358,-0.0238,0.8674,-6.53,7.83,-0.06,27.23
13542,0.3346,-0.0234,0.8645,-6.53,7.85,-0.05,27.24
13552,0.3322,-0.0238,0.8662,-6.53,7.86,-0.06,27.22
13562,0.3325,-0.0237,0.8634,-6.56,7.88,-0.03,27.21
13572,0.3347,-0.0255,0.8695,-6.55,7.88,-0.03,27.24
13582,0.3339,-0.0221,0.8633,-6.52,7.88,-0.02,27.25
13592,0.3337,-0.0228,0.8641,-6.58,7.85,-0.09,27.24
13602,0.3347,-0.0228,0.8651,-6.55,7.88,0.0,27.23
13612,0.3328,-0.0248,0.8657,-6.56,7.82,-0.08,27.25
13622,0.3362,-0.0229,0.8666,-6.58,7.88,-0.12,27.24
13632,0.3341,-0.0228,0.8678,-6.53,7.88,-0.05,27.25
13642,0.3309,-0.0251,0.8652,-6.52,7.86,-0.09,27.25
13652,0.3311,-0.0214,0.8639,-6.58,7.88,-0.03,27.24
13662,0.332,-0.0215,0.8634,-6.49,7.88,-0.09,27.23
13672,0.3322,-0.0232,0.8657,-6.5,7.89,-0.08,27.23
13682,0.3345,-0.0203,0.8663,-6.6,7.91,-0.03,27.25
13692,0.3361,-0.0231,0.8593,-6.56,7.82,-0.09,27.24
13702,0.3333,-0.0228,0.8646,-6.53,7.91,-0.02,27.24
13712,0.3344,-0.0243,0.8643,-6.52,7.83,0.0,27.24
13722,0.3353,-0.0216,0.8617,-6.64,7.85,-0.02,27.24
13732,0.3348,-0.0232,0.8651,-6.5,7.83,-0.06,27.23
13742,0.3336,-0.022,0.8607,-6.55,7.85,-0.03,27.24
13752,0.3356,-0.0221,0.8667,-6.49,7.92,-0.03,27.23
13762,0.332,-0.0244,0.8649,-6.52,7.86,-0.11,27.23
13772,0.3328,-0.0211,0.865,-6.52,7.86,-0.06,27.23
13782,0.3317,-0.0221,0.8684,-6.52,7.89,-0.05,27.24
13792,0.3339,-0.0226,0.8617,-6.55,7.88,-0.14,27.24
13802,0.3336,-0.0237,0.8639,-6.53,7.88,0.03,27.23
13812,0.3336,-0.0249,0.8638,-6.53,7.89,-0.06,27.24
13822,0.3361,-0.0226,0.8658,-6.55,7.94,-0.06,27.23
13832,0.3346,-0.0223,0.8651,-6.56,7.83,-0.06,27.26
13842,0.3325,-0.0216,0.8616,-6.56,7.86,0.0,27.22
13852,0.3308,-0.0229,0.8656,-6.58,7.83,-0.06,27.23
13862,0.3356,-0.0242,0.8632,-6.52,7.77,0.03,27.24
13872,0.3339,-0.0219,0.8639,-6.49,7.88,0.0,27.24
13882,0.3314,-0.0236,0.8658,-6.52,7.85,-0.05,27.24
13892,0.3304,-0.0242,0.8656,-6.55,7.89,-0.14,27.24
13902,0.3344,-0.0255,0.8646,-6.49,7.86,-0.06,27.22
13912,0.332,-0.022,0.8665,-6.55,7.88,-0.02,27.23
13922,0.3323,-0.0222,0.866,-6.52,7.91,-0.05,27.24
13932,0.3323,-0.0212,0.8636,-6.56,7.86,-0.05,27.26
13942,0.3331,-0.0238,0.8649,-6.56,7.89,-0.05,27.24
13952,0.3329,-0.0243,0.8623,-6.49,7.83,-0.08,27.23
13962,0.3346,-0.0189,0.8654,-6.6,7.89,-0.03,27.22
13972,0.3337,-0.0206,0.864,-6.52,7.91,0.0,27.23
13982,0.3325,-0.0245,0.8619,-6.6,7.85,-0.09,27.24
13992,0.3342,-0.0259,0.8665,-6.53,7.83,-0.05,27.26
14002,0.3361,-0.0251,0.8649,-6.61,7.94,-0.08,27.23
14012,0.3337,-0.0214,0.8638,-6.53,7.86,-0.03,27.26
14022,0.3333,-0.0214,0.8655,-6.55,7.85,-0.06,27.24
14032,0.3336,-0.021,0.8698,-6.58,7.91,-0.12,27.22
14042,0.3358,-0.026,0.8677,-6.56,7.88,-0.06,27.23
14052,0.3348,-0.0247,0.8657,-6.55,7.89,-0.06,27.22
14062,0.335,-0.0238,0.8645,-6.53,7.92,0.0,27.24
14072,0.3323,-0.0232,0.8647,-6.56,7.92,0.03,27.2
14082,0.3337,-0.0243,0.866,-6.5,7.83,-0.05,27.24
14092,0.3361,-0.0234,0.866,-6.55,7.88,-0.05,27.24
14102,0.3353,-0.024,0.8634,-6.5,7.86,-0.06,27.26
14112,0.332,-0.0236,0.865,-6.52,7.79,0.03,27.26
14122,0.3353,-0.0248,0.8671,-6.58,7.89,-0.05,27.23
14132,0.3335,-0.0229,0.8651,-6.53,7.89,-0.03,27.24
14142,0.3357,-0.0232,0.8646,-6.5,7.88,-0.09,27.24
14152,0.3333,-0.0223,0.8656,-6.53,7.89,-0.06,27.25
14162,0.3344,-0.0217,0.8639,-6.52,7.83,-0.02,27.23
14172,0.3322,-0.0227,0.8682,-6.58,7.85,0.03,27.24
14182,0.3358,-0.0219,0.8643,-6.64,7.83,-0.02,27.26
14192,0.3342,-0.0232,0.8627,-6.5,7.83,0.06,27.23
14202,0.3336,-0.0205,0.865,-6.55,7.91,-0.06,27.24
14212,0.3342,-0.0228,0.8621,-6.5,7.85,-0.09,27.24
14222,0.3319,-0.0205,0.8622,-6.53,7.88,-0.05,27.22
14232,0.332,-0.0227,0.8656,-6.52,7.91,-0.09,27.23
14242,0.3352,-0.0255,0.8635,-6.58,7.91,-0.05,27.27
14252,0.3347,-0.0242,0.8672,-6.6,7.86,0.03,27.23
14262,0.3336,-0.0192,0.8652,-6.58,7.89,-0.05,27.24
14272,0.3351,-0.0231,0.8624,-6.63,7.86,0.03,27.22
14282,0.3333,-0.0234,0.8652,-6.6,7.89,-0.09,27.25
14292,0.3331,-0.0223,0.8654,-6.6,7.91,-0.06,27.22
14302,0.3345,-0.0221,0.8657,-6.58,7.94,-0.05,27.22
14312,0.335,-0.0247,0.8638,-6.64,7.88,-0.15,27.25
14322,0.3322,-0.0237,0.8611,-6.53,7.85,-0.03,27.23
14332,0.3365,-0.0212,0.8638,-6.58,7.89,-0.06,27.24
14342,0.3317,-0.0225,0.8644,-6.6,7.88,-0.08,27.23
14352,0.3347,-0.0226,0.8644,-6.52,7.86,-0.06,27.24
14362,0.3333,-0.0232,0.8652,-6.63,7.92,-0.08,27.24
14372,0.3328,-0.0226,0.8643,-6.56,7.89,-0.06,27.24
14382,0.3361,-0.0205,0.8674,-6.55,7.91,-0.06,27.24
14392,0.3319,-0.0251,0.8677,-6.49,7.83,-0.08,27.25
14402,0.3285,-0.0267,0.8688,-6.5,7.89,0.02,27.25
14412,0.3322,-0.0237,0.866,-6.61,7.89,0.02,27.23
14422,0.3363,-0.0253,0.8643,-6.55,7.86,-0.03,27.25
14432,0.3329,-0.0255,0.8663,-6.53,7.86,-0.06,27.23
14442,0.3356,-0.0232,0.8641,-6.52,7.88,-0.06,27.26
14452,0.3346,-0.0226,0.8669,-6.55,7.83,-0.05,27.26
14462,0.332,-0.0242,0.8647,-6.52,7.89,-0.05,27.26
14472,0.3346,-0.022,0.8661,-6.53,7.88,-0.09,27.24
14482,0.335,-0.0247,0.86,-6.52,7.85,-0.02,27.23
14492,0.3315,-0.024,0.8658,-6.52,7.82,0.02,27.24
14502,0.3315,-0.0244,0.8641,-6.58,7.89,-0.09,27.24
14512,0.3315,-0.0222,0.8613,-6.52,7.94,0.02,27.24
14522,0.3326,-0.0249,0.8623,-6.58,7.8,-0.08,27.25
14532,0.3326,-0.0227,0.8655,-6.63,7.88,-0.03,27.26
14542,0.3342,-0.021,0.8652,-6.55,7.82,0.0,27.24
14552,0.3342,-0.0204,0.8645,-6.43,7.91,-0.09,27.24
14562,0.3335,-0.0234,0.8666,-6.52,7.83,-0.08,27.23
14572,0.3331,-0.0232,0.8658,-6.52,7.92,-0.08,27.24
14582,0.335,-0.0222,0.864,-6.55,7.89,-0.06,27.22
14592,0.3346,-0.0237,0.8663,-6.58,7.83,-0.09,27.24
14602,0.3315,-0.0231,0.8656,-6.61,7.85,0.03,27.26
14612,0.3339,-0.0211,0.8638,-6.61,7.91,-0.11,27.22
14622,0.3348,-0.0258,0.8644,-6.5,7.85,0.03,27.27
14632,0.3336,-0.0247,0.8633,-6.6,7.8,-0.02,27.24
14642,0.3345,-0.0242,0.8623,-6.55,7.8,0.02,27.24
14652,0.3339,-0.0227,0.8594,-6.52,7.92,-0.03,27.26
14662,0.334,-0.0258,0.8645,-6.52,7.85,-0.08,27.25
14672,0.3333,-0.0242,0.8586,-6.49,7.86,-0.02,27.26
14682,0.3324,-0.0231,0.859,-6.56,7.77,-0.09,27.25
14692,0.333,-0.022,0.8661,-6.6,7.88,0.03,27.24
14702,0.3341,-0.0222,0.8621,-6.41,7.74,0.49,27.23
14712,0.3296,-0.0219,0.864,-6.55,7.97,-0.02,27.26
14722,0.3293,-0.0253,0.8644,-6.61,7.97,-0.14,27.25
14732,0.3386,-0.0275,0.856,-6.53,7.83,-0.02,27.25
14742,0.3381,-0.0216,0.858,-6.53,7.66,-0.06,27.24
14752,0.3325,-0.0195,0.865,-6.52,7.86,-0.03,27.24
14762,0.3325,-0.0214,0.8674,-6.53,7.91,-0.03,27.26
14772,0.3319,-0.0192,0.8677,-6.56,8.02,-0.09,27.26
14782,0.334,-0.0192,0.8695,-6.55,7.88,-0.06,27.25
14792,0.3358,-0.0226,0.8646,-6.52,7.92,-0.06,27.24
14802,0.3333,-0.0245,0.8647,-6.64,7.86,-0.05,27.25
14812,0.3333,-0.0258,0.8645,-6.55,7.95,-0.05,27.25
14822,0.333,-0.024,0.8604,-6.56,7.77,-0.09,27.26
14832,0.3335,-0.0226,0.864,-6.52,7.89,-0.02,27.25
14842,0.3345,-0.0227,0.8622,-6.63,7.83,-0.03,27.24
14852,0.3379,-0.0222,0.8656,-6.52,7.88,0.0,27.23
14862,0.3363,-0.02,0.8656,-6.56,7.89,-0.03,27.26
14872,0.3359,-0.0204,0.8624,-6.56,7.82,-0.03,27.27
14882,0.3351,-0.0219,0.8683,-6.58,7.88,-0.11,27.27
14892,0.3365,-0.0251,0.8666,-6.55,7.88,-0.02,27.27
14902,0.3374,-0.0247,0.8655,-6.52,7.86,-0.05,27.27
14912,0.337,-0.0197,0.8636,-6.56,7.91,-0.08,27.27
14922,0.3373,-0.0214,0.8629,-6.61,7.92,-0.03,27.22
14932,0.333,-0.0261,0.8665,-6.53,7.83,-0.05,27.24
14942,0.3322,-0.0278,0.8589,-6.52,7.94,-0.06,27.27
14952,0.3296,-0.0276,0.8633,-6.56,7.89,-0.06,27.28
14962,0.3314,-0.0277,0.8604,-6.58,7.83,0.0,27.27
14972,0.3314,-0.0237,0.8672,-6.56,7.86,-0.05,27.25
14982,0.3322,-0.021,0.8683,-6.52,7.89,-0.02,27.25
14992,0.3339,-0.02,0.8662,-6.58,7.83,-0.05,27.25
15002,0.3333,-0.0189,0.8662,-6.55,7.82,-0.03,27.24
15012,0.3356,-0.021,0.8623,-6.66,8.0,-0.09,27.25
15022,0.333,-0.0232,0.8647,-6.55,7.86,-0.08,27.24
15032,0.3353,-0.0219,0.8621,-6.56,7.91,-0.05,27.26
15042,0.3392,-0.0251,0.8622,-6.55,7.89,-0.05,27.25
15052,0.3359,-0.0267,0.8645,-6.61,7.89,-0.03,27.24
15062,0.3364,-0.0269,0.863,-6.61,7.8,-0.05,27.24
15072,0.3372,-0.0226,0.8662,-6.49,7.86,-0.02,27.26
15082,0.3369,-0.0223,0.868,-6.56,7.85,-0.03,27.24
15092,0.3306,-0.0204,0.8638,-6.49,7.88,-0.03,27.26
15102,0.3326,-0.021,0.87,-6.52,7.83,-0.08,27.24
15112,0.3308,-0.0217,0.8673,-6.55,7.86,-0.08,27.25
15122,0.3328,-0.0232,0.8585,-6.55,7.91,-0.11,27.27
15132,0.3313,-0.0244,0.8638,-6.58,7.83,-0.05,27.26
15142,0.3302,-0.0217,0.8649,-6.55,7.86,-0.09,27.24
15152,0.3378,-0.0269,0.8646,-6.49,7.85,-0.08,27.26
15162,0.3346,-0.0237,0.8695,-6.53,7.82,-0.09,27.26
15172,0.3358,-0.0244,0.8676,-6.53,7.85,0.03,27.24
15182,0.335,-0.0199,0.8632,-6.55,7.83,-0.02,27.25
15192,0.3358,-0.0214,0.8687,-6.61,7.91,0.0,27.27
15202,0.3378,-0.0197,0.864,-6.61,7.86,-0.05,27.22
15212,0.3365,-0.0219,0.8651,-6.53,7.86,-0.06,27.24
15222,0.3313,-0.0217,0.8629,-6.56,7.88,-0.08,27.26
15232,0.3331,-0.0243,0.863,-6.58,7.86,-0.03,27.26
15242,0.3307,-0.0278,0.8671,-6.6,7.91,0.05,27.26
15252,0.3302,-0.0248,0.8612,-6.56,7.85,-0.12,27.23
15262,0.3334,-0.0259,0.8655,-6.56,7.89,-0.09,27.27
15272,0.3329,-0.0216,0.8678,-6.53,7.86,0.0,27.25
15282,0.337,-0.022,0.865,-6.56,7.92,-0.09,27.24
15292,0.3364,-0.0204,0.8669,-6.58,7.89,-0.06,27.27
15302,0.3347,-0.0193,0.866,-6.61,7.83,-0.02,27.26
15312,0.3337,-0.0219,0.8643,-6.53,7.85,-0.06,27.27
15322,0.3342,-0.0256,0.8636,-6.56,7.88,-0.05,27.24
15332,0.3357,-0.0238,0.8661,-6.53,8.0,0.06,27.27
15342,0.3344,-0.0205,0.8641,-6.64,7.86,-0.03,27.25
15352,0.3354,-0.0256,0.8628,-6.56,7.86,-0.06,27.26
15362,0.3302,-0.0258,0.8679,-6.53,7.91,-0.03,27.24
15372,0.3312,-0.0251,0.8696,-6.58,7.83,0.0,27.24
15382,0.3306,-0.0205,0.8656,-6.56,7.85,-0.08,27.25
15392,0.3322,-0.0225,0.8655,-6.58,7.97,-0.05,27.24
15402,0.3337,-0.0226,0.8667,-6.58,7.88,-0.02,27.27
15412,0.3326,-0.0222,0.8677,-6.52,7.88,-0.03,27.25
15422,0.3352,-0.0233,0.8667,-6.58,7.88,-0.06,27.24
15432,0.3353,-0.0205,0.8633,-6.47,7.82,-0.08,27.26
15442,0.3348,-0.0247,0.8619,-6.58,7.94,0.0,27.25
15452,0.3352,-0.0229,0.868,-6.6,7.86,-0.08,27.25
15462,0.3346,-0.0225,0.8663,-6.56,7.83,-0.11,27.27
15472,0.3346,-0.0228,0.8624,-6.53,7.83,-0.06,27.24
15482,0.3314,-0.0234,0.8676,-6.6,7.88,0.0,27.26
15492,0.3328,-0.0226,0.868,-6.53,7.86,-0.06,27.25
15502,0.3344,-0.0236,0.8652,-6.52,7.91,-0.09,27.24
15512,0.3329,-0.0248,0.8618,-6.53,7.88,-0.09,27.23
15522,0.3334,-0.0237,0.8615,-6.64,7.85,-0.08,27.22
15532,0.3311,-0.0239,0.8665,-6.55,7.89,0.02,27.25
15542,0.335,-0.0212,0.8649,-6.5,7.85,-0.05,27.24
15552,0.3317,-0.0232,0.8674,-6.58,7.85,-0.08,27.24
15562,0.3346,-0.0206,0.8669,-6.5,7.76,-0.08,27.24
15572,0.3357,-0.0203,0.8671,-6.53,7.88,-0.09,27.26
15582,0.3369,-0.025,0.8662,-6.52,7.91,-0.02,27.24
15592,0.3354,-0.0226,0.865,-6.44,7.86,-0.08,27.25
15602,0.3325,-0.0243,0.8635,-6.52,7.82,0.0,27.26
15612,0.3329,-0.0227,0.8613,-6.58,7.92,-0.02,27.26
15622,0.3348,-0.0228,0.8671,-6.49,7.91,-0.05,27.23
15632,0.3318,-0.0211,0.8689,-6.52,7.89,-0.06,27.24
15642,0.3336,-0.025,0.8632,-6.53,7.88,-0.08,27.27
15652,0.3346,-0.0205,0.8639,-6.52,7.92,-0.02,27.26
15662,0.3351,-0.0234,0.8671,-6.56,7.94,0.02,27.24
15672,0.3329,-0.0205,0.8676,-6.61,7.89,-0.03,27.26
15682,0.3339,-0.0187,0.864,-6.56,7.85,0.0,27.27
15692,0.3325,-0.0208,0.8645,-6.61,7.85,-0.11,27.25
15702,0.335,-0.021,0.8674,-6.58,7.86,-0.06,27.25
15712,0.3336,-0.022,0.8638,-6.55,7.88,-0.03,27.25
15722,0.3311,-0.0256,0.8684,-6.53,7.94,0.0,27.24
15732,0.3353,-0.026,0.8608,-6.61,7.85,0.06,27.27
15742,0.3345,-0.0233,0.8657,-6.58,7.79,-0.05,27.24
15752,0.3319,-0.0221,0.8638,-6.64,7.86,-0.11,27.27
15762,0.3337,-0.024,0.8671,-6.6,7.92,-0.08,27.26
15772,0.3328,-0.0232,0.8657,-6.58,7.85,-0.08,27.26
15782,0.3354,-0.0249,0.8644,-6.58,7.95,0.05,27.27
15792,0.3345,-0.0228,0.8628,-6.56,7.88,-0.11,27.25
15802,0.3352,-0.0221,0.8658,-6.58,7.86,0.02,27.27
15812,0.3352,-0.0205,0.8651,-6.56,7.86,-0.09,27.25
15822,0.3357,-0.0219,0.8643,-6.56,7.89,-0.05,27.25
15832,0.334,-0.0239,0.8635,-6.47,7.79,-0.12,27.26
15842,0.3348,-0.0245,0.8663,-6.52,7.83,-0.09,27.27
15852,0.3318,-0.0243,0.8655,-6.49,7.85,-0.02,27.27
15862,0.3348,-0.0229,0.8632,-6.6,7.89,-0.05,27.25
15872,0.3337,-0.0228,0.8617,-6.52,7.86,-0.02,27.27
15882,0.3339,-0.0233,0.8652,-6.47,7.86,-0.09,27.27
15892,0.3351,-0.0229,0.8638,-6.5,7.85,-0.03,27.28
15902,0.3322,-0.0212,0.8655,-6.58,7.82,-0.05,27.24
15912,0.3325,-0.0221,0.8644,-6.56,7.89,-0.05,27.24
15922,0.3325,-0.0214,0.8696,-6.5,7.83,-0.08,27.27
15932,0.3334,-0.021,0.8661,-6.6,7.91,-0.09,27.25
15942,0.3335,-0.0231,0.8624,-6.56,7.95,-0.03,27.24
15952,0.3331,-0.0238,0.8652,-6.6,7.83,-0.08,27.26
15962,0.3345,-0.0236,0.8645,-6.6,7.86,-0.02,27.26
15972,0.335,-0.0238,0.8673,-6.5,7.92,-0.06,27.25
15982,0.3334,-0.0226,0.8668,-6.53,7.94,-0.09,27.25
15992,0.3303,-0.0219,0.8638,-6.53,7.83,0.03,27.26
16002,0.3362,-0.0233,0.8627,-6.56,7.88,-0.02,27.27
16012,0.3341,-0.0227,0.8647,-6.53,7.83,-0.03,27.25
16022,0.3346,-0.0237,0.8633,-6.5,7.91,-0.09,27.25
16032,0.3323,-0.0216,0.8668,-6.64,7.74,-0.09,27.27
16042,0.3335,-0.0254,0.8658,-6.56,7.94,-0.05,27.27
16052,0.3314,-0.0247,0.8649,-6.49,7.92,0.0,27.27
16062,0.3333,-0.0222,0.8684,-6.5,7.91,-0.06,27.26
16072,0.3333,-0.0232,0.864,-6.56,7.92,-0.06,27.26
16082,0.3339,-0.0228,0.8669,-6.5,7.91,-0.12,27.24
16092,0.3324,-0.0216,0.866,-6.56,7.89,-0.03,27.24
16102,0.332,-0.0204,0.8694,-6.5,7.92,-0.03,27.23
16112,0.3364,-0.0217,0.8721,-6.52,7.89,0.03,27.25
16122,0.3346,-0.0253,0.8629,-6.58,7.97,-0.02,27.26
16132,0.3324,-0.0236,0.8634,-6.56,7.85,-0.03,27.26
16142,0.3351,-0.0232,0.8666,-6.61,7.76,-0.08,27.24
16152,0.3317,-0.0256,0.8616,-6.55,7.85,0.02,27.28
16162,0.3339,-0.0232,0.8622,-6.49,7.92,-0.03,27.25
16172,0.3337,-0.022,0.8662,-6.5,7.83,-0.06,27.2
16182,0.3344,-0.0215,0.8654,-6.49,7.89,-0.14,27.24
16192,0.3336,-0.0259,0.8687,-6.53,7.83,0.0,27.26
16202,0.3348,-0.0231,0.8621,-6.58,7.94,-0.05,27.25
16212,0.3334,-0.0225,0.8683,-6.52,7.89,-0.03,27.24
16222,0.332,-0.0232,0.8632,-6.49,7.83,-0.11,27.27
16232,0.3342,-0.0233,0.8643,-6.63,7.86,-0.05,27.23
16242,0.3326,-0.0227,0.8654,-6.63,7.85,-0.09,27.25
16252,0.3351,-0.0216,0.8673,-6.61,7.83,-0.06,27.27
16262,0.332,-0.0244,0.8663,-6.55,7.89,-0.06,27.26
16272,0.3293,-0.0234,0.8655,-6.56,7.88,-0.06,27.28
16282,0.3319,-0.0232,0.8687,-6.66,7.86,-0.09,27.25
16292,0.3325,-0.0229,0.8632,-6.6,7.86,-0.08,27.27
16302,0.3367,-0.0242,0.8668,-6.53,7.95,-0.05,27.25
16312,0.3356,-0.0236,0.8674,-6.56,7.83,-0.02,27.27
16322,0.3314,-0.0225,0.865,-6.47,7.79,-0.02,27.27
16332,0.333,-0.0228,0.8641,-6.56,7.86,0.0,27.26
16342,0.3372,-0.021,0.8656,-6.55,7.88,-0.02,27.26
16352,0.3374,-0.0239,0.8647,-6.5,7.83,-0.03,27.25
16362,0.3348,-0.0233,0.8679,-6.56,7.82,-0.05,27.26
16372,0.3335,-0.0248,0.8657,-6.58,7.88,-0.08,27.25
16382,0.3333,-0.0239,0.8668,-6.53,7.92,-0.08,27.28
16392,0.3336,-0.0232,0.8668,-6.55,7.97,-0.05,27.26
16402,0.333,-0.0205,0.8656,-6.56,7.88,-0.02,27.28
16412,0.3322,-0.0245,0.8682,-6.44,7.83,-0.03,27.23
16422,0.3326,-0.0253,0.8632,-6.56,7.85,-0.02,27.25
16432,0.3352,-0.0232,0.8661,-6.58,7.86,-0.12,27.27
16442,0.3346,-0.0259,0.8657,-6.55,7.86,0.02,27.24
16452,0.3362,-0.0251,0.8627,-6.5,7.85,-0.08,27.25
16462,0.3329,-0.0242,0.8674,-6.55,7.85,-0.09,27.25
16472,0.333,-0.0205,0.8624,-6.47,7.82,-0.06,27.24
16482,0.333,-0.0223,0.8665,-6.56,7.88,-0.06,27.26
16492,0.3337,-0.0216,0.865,-6.49,7.91,-0.05,27.26
16502,0.335,-0.0247,0.8655,-6.61,7.89,-0.05,27.24
16512,0.3334,-0.0242,0.864,-6.6,7.89,0.05,27.25
16522,0.3356,-0.024,0.8651,-6.49,7.92,-0.08,27.27
16532,0.3337,-0.0215,0.8658,-6.61,7.92,-0.08,27.27
16542,0.3314,-0.0238,0.8639,-6.58,7.88,0.03,27.27
16552,0.3357,-0.0225,0.8644,-6.58,7.83,-0.06,27.24
16562,0.3319,-0.0232,0.8649,-6.53,7.82,-0.03,27.27
16572,0.3357,-0.025,0.8647,-6.5,7.86,-0.02,27.25
16582,0.3315,-0.0249,0.8655,-6.6,7.83,-0.08,27.26
16592,0.3336,-0.0249,0.8658,-6.61,7.91,-0.05,27.25
16602,0.3356,-0.0237,0.8645,-6.56,7.89,0.0,27.25
16612,0.3322,-0.0232,0.8665,-6.6,7.88,0.0,27.26
16622,0.3354,-0.0225,0.8658,-6.64,7.8,-0.06,27.27
16632,0.3333,-0.021,0.8658,-6.58,7.82,0.0,27.28
16642,0.3348,-0.0223,0.866,-6.58,7.79,-0.05,27.27
16652,0.3314,-0.0195,0.864,-6.52,7.89,0.02,27.26
16662,0.332,-0.0256,0.8669,-6.53,7.89,-0.02,27.28
16672,0.3318,-0.0272,0.8643,-6.53,7.83,-0.06,27.28
16682,0.3353,-0.0231,0.8633,-6.58,7.8,0.02,27.29
16692,0.3329,-0.0239,0.8641,-6.53,7.82,-0.09,27.29
16702,0.3353,-0.0243,0.8643,-6.5,7.85,-0.05,27.28
16712,0.3322,-0.024,0.8649,-6.56,7.88,-0.06,27.24
16722,0.3345,-0.0239,0.8683,-6.58,7.85,-0.06,27.23
16732,0.333,-0.0214,0.8651,-6.61,7.8,-0.08,27.24
16742,0.3325,-0.0221,0.8667,-6.61,7.88,-0.08,27.24
16752,0.3307,-0.0205,0.8673,-6.55,7.88,-0.12,27.26
16762,0.3302,-0.0222,0.8656,-6.61,7.89,-0.08,27.29
16772,0.3328,-0.0208,0.8643,-6.56,7.89,-0.08,27.29
16782,0.3331,-0.0208,0.8623,-6.63,7.86,-0.08,27.27
16792,0.334,-0.0206,0.866,-6.52,7.86,0.0,27.26
16802,0.3307,-0.0232,0.8641,-6.53,7.86,-0.09,27.26
16812,0.3312,-0.0239,0.8658,-6.6,7.89,-0.09,27.26
16822,0.3335,-0.025,0.8671,-6.55,7.91,-0.03,27.26
16832,0.3334,-0.0234,0.863,-6.6,7.92,-0.06,27.26
16842,0.3326,-0.0233,0.8629,-6.6,7.86,-0.09,27.27
16852,0.3319,-0.0226,0.8636,-6.52,7.85,-0.06,27.27
16862,0.332,-0.0233,0.865,-6.55,7.88,-0.06,27.25
16872,0.3314,-0.0205,0.8629,-6.52,7.79,-0.09,27.25
16882,0.3353,-0.0231,0.8669,-6.49,7.86,0.0,27.26
16892,0.3331,-0.0201,0.864,-6.5,7.83,0.03,27.27
16902,0.335,-0.0242,0.8636,-6.52,7.91,0.0,27.24
16912,0.3335,-0.0264,0.8644,-6.56,7.86,-0.03,27.26
16922,0.3293,-0.0236,0.8656,-6.52,7.83,-0.08,27.27
16932,0.332,-0.0262,0.864,-6.52,7.88,-0.02,27.26
16942,0.3361,-0.0222,0.8655,-6.53,7.8,-0.05,27.28
16952,0.3341,-0.0222,0.8611,-6.5,7.91,-0.09,27.27
16962,0.3352,-0.0234,0.8643,-6.52,7.82,-0.08,27.28
16972,0.3339,-0.0222,0.8662,-6.55,7.83,-0.08,27.28
16982,0.3323,-0.0233,0.8646,-6.49,7.94,-0.08,27.26
16992,0.3317,-0.0208,0.8632,-6.56,7.91,-0.08,27.25
17002,0.3337,-0.0225,0.8649,-6.58,7.86,-0.09,27.28
17012,0.3333,-0.0206,0.8684,-6.5,7.89,-0.05,27.26
17022,0.3319,-0.0227,0.8655,-6.58,7.83,-0.11,27.27
17032,0.3333,-0.0209,0.8665,-6.52,7.88,0.0,27.26
17042,0.3346,-0.0201,0.8654,-6.58,7.92,-0.03,27.26
17052,0.332,-0.0209,0.8652,-6.61,7.89,-0.09,27.27
17062,0.3345,-0.0232,0.8658,-6.52,7.83,-0.02,27.27
17072,0.3348,-0.0258,0.8671,-6.49,7.86,0.02,27.28
17082,0.3336,-0.0209,0.8621,-6.52,7.92,-0.03,27.29
17092,0.3351,-0.0208,0.863,-6.58,7.86,-0.12,27.26
17102,0.3334,-0.0242,0.8645,-6.56,7.82,-0.06,27.27
17112,0.337,-0.0228,0.8655,-6.55,7.83,-0.09,27.25
17122,0.3362,-0.0222,0.865,-6.6,7.88,-0.05,27.25
17132,0.3337,-0.0249,0.8638,-6.52,7.91,-0.05,27.25
17142,0.3357,-0.0223,0.8634,-6.6,7.92,0.02,27.26
17152,0.334,-0.0219,0.8646,-6.55,7.94,0.0,27.25
17162,0.3336,-0.0234,0.8656,-6.58,7.94,-0.02,27.29
17172,0.3323,-0.0222,0.8663,-6.6,7.79,-0.06,27.27
17182,0.3302,-0.0254,0.8667,-6.63,7.91,-0.11,27.27
17192,0.3335,-0.0212,0.8604,-6.5,7.89,-0.06,27.27
17202,0.3348,-0.0247,0.8615,-6.6,7.89,-0.15,27.27
17212,0.3351,-0.0228,0.8665,-6.63,7.88,-0.09,27.26
17222,0.3329,-0.0243,0.8638,-6.56,7.92,-0.11,27.27
17232,0.3293,-0.0233,0.8646,-6.64,7.91,-0.12,27.28
17242,0.3335,-0.0243,0.8669,-6.6,7.85,0.0,27.26
17252,0.3335,-0.024,0.8641,-6.6,7.83,0.03,27.26
17262,0.3335,-0.0208,0.8619,-6.52,7.85,-0.05,27.28
17272,0.3308,-0.0233,0.8663,-6.52,7.82,0.02,27.27
17282,0.3353,-0.0242,0.8699,-6.63,7.86,-0.02,27.28
17292,0.3341,-0.0269,0.8662,-6.52,7.88,-0.03,27.25
17302,0.3333,-0.0237,0.864,-6.58,7.85,0.02,27.24
17312,0.3347,-0.0237,0.8623,-6.58,7.85,-0.05,27.26
17322,0.3337,-0.0223,0.8658,-6.56,7.92,-0.05,27.29
17332,0.3345,-0.0209,0.8669,-6.49,7.86,-0.08,27.28
17342,0.3373,-0.0253,0.8706,-6.58,7.92,-0.05,27.29
17352,0.3336,-0.0233,0.8667,-6.56,7.86,-0.12,27.26
17362,0.3344,-0.02,0.863,-6.55,7.88,-0.02,27.29
17372,0.333,-0.0239,0.8605,-6.55,7.82,0.02,27.27
17382,0.3302,-0.0233,0.8629,-6.49,7.92,0.05,27.27
17392,0.333,-0.0245,0.8658,-6.49,7.89,-0.05,27.26
17402,0.3304,-0.0225,0.8651,-6.6,7.88,-0.09,27.28
17412,0.3364,-0.0193,0.8635,-6.64,7.91,-0.09,27.28
17422,0.3363,-0.0229,0.8679,-6.64,7.85,-0.06,27.26
17432,0.3336,-0.0236,0.8622,-6.58,7.82,0.0,27.27
17442,0.3361,-0.0236,0.8646,-6.55,7.8,-0.05,27.26
17452,0.3342,-0.0215,0.8655,-6.55,7.8,-0.11,27.26
17462,0.3362,-0.0205,0.8682,-6.61,7.91,-0.03,27.28
17472,0.3342,-0.0244,0.8607,-6.63,7.89,-0.03,27.29
17482,0.3333,-0.0245,0.8634,-6.58,7.91,-0.02,27.26
17492,0.3328,-0.0228,0.8647,-6.53,7.86,0.06,27.27
17502,0.3357,-0.0211,0.864,-6.52,7.85,-0.05,27.27
17512,0.3364,-0.0242,0.8628,-6.5,7.8,-0.05,27.25
17522,0.3329,-0.0216,0.8613,-6.56,7.83,-0.02,27.25
17532,0.3319,-0.0227,0.8638,-6.47,7.85,-0.03,27.26
17542,0.3314,-0.0245,0.8644,-6.58,7.86,-0.03,27.28
17552,0.3312,-0.0237,0.8638,-6.53,7.85,-0.02,27.28
17562,0.3324,-0.0243,0.8646,-6.6,7.79,0.03,27.27
17572,0.3313,-0.0244,0.8625,-6.55,7.85,-0.05,27.29
17582,0.3323,-0.0231,0.8644,-6.49,7.86,-0.14,27.27
17592,0.3335,-0.0248,0.8649,-6.47,7.88,-0.17,27.28
17602,0.3354,-0.022,0.8628,-6.53,7.92,-0.05,27.29
17612,0.3324,-0.0233,0.8684,-6.56,7.89,-0.11,27.28
17622,0.3333,-0.0253,0.866,-6.53,7.89,-0.03,27.27
17632,0.3319,-0.0219,0.8671,-6.53,7.79,-0.09,27.27
17642,0.3317,-0.0236,0.8644,-6.6,7.86,-0.09,27.29
17652,0.3333,-0.0195,0.8628,-6.52,7.83,-0.06,27.29
17662,0.3337,-0.0249,0.8606,-6.6,7.86,0.0,27.29
17672,0.3352,-0.0244,0.8629,-6.53,7.91,-0.15,27.3
17682,0.3348,-0.0262,0.8605,-6.61,7.85,-0.06,27.27
17692,0.3376,-0.0212,0.8654,-6.56,7.82,-0.11,27.29
17702,0.333,-0.0208,0.8635,-6.6,7.97,0.0,27.28
17712,0.3325,-0.0237,0.8638,-6.64,7.86,-0.02,27.27
17722,0.3367,-0.0233,0.8677,-6.55,7.86,-0.08,27.3
17732,0.3341,-0.0223,0.8634,-6.56,7.88,-0.05,27.28
17742,0.3307,-0.0229,0.8623,-6.47,7.88,-0.03,27.26
17752,0.333,-0.0216,0.8666,-6.56,7.85,0.03,27.27
17762,0.3319,-0.0223,0.8628,-6.53,7.88,-0.02,27.29
17772,0.3348,-0.0212,0.8623,-6.6,7.85,-0.05,27.28
17782,0.3344,-0.0236,0.8652,-6.49,7.83,-0.09,27.25
17792,0.3319,-0.0201,0.8583,-6.63,7.89,-0.06,27.25
17802,0.3342,-0.0216,0.8635,-6.56,7.92,-0.11,27.29
17812,0.3319,-0.0243,0.8635,-6.53,7.95,-0.08,27.29
17822,0.3325,-0.0238,0.8657,-6.56,7.92,-0.08,27.28
17832,0.3369,-0.0228,0.8677,-6.58,7.92,-0.12,27.29
17842,0.334,-0.024,0.8632,-6.58,7.94,-0.02,27.28
17852,0.3341,-0.0211,0.8657,-6.55,7.94,-0.08,27.28
17862,0.335,-0.0248,0.8656,-6.56,7.94,-0.06,27.28
17872,0.3323,-0.0242,0.8616,-6.55,7.82,-0.05,27.28
17882,0.3326,-0.0248,0.866,-6.58,7.8,0.02,27.27
17892,0.3362,-0.0217,0.8646,-6.61,7.85,-0.08,27.28
17902,0.3353,-0.0254,0.8625,-6.6,7.88,-0.03,27.29
17912,0.3357,-0.0236,0.8674,-6.55,7.92,-0.05,27.27
17922,0.3314,-0.0232,0.8679,-6.49,7.86,-0.02,27.3
17932,0.3326,-0.0228,0.8662,-6.53,7.8,-0.02,27.27
17942,0.3317,-0.0223,0.8682,-6.55,7.88,-0.08,27.29
17952,0.3354,-0.0225,0.8689,-6.5,7.88,-0.03,27.27
17962,0.3342,-0.0211,0.8651,-6.61,7.86,-0.11,27.3
17972,0.3339,-0.0216,0.8645,-6.56,7.8,0.11,27.27
17982,0.3354,-0.0232,0.8678,-6.64,7.86,-0.06,27.26
17992,0.3353,-0.0226,0.8636,-6.52,7.86,-0.06,27.27
18002,0.3335,-0.0266,0.8662,-6.56,7.89,-0.02,27.27
18012,0.3347,-0.0237,0.8632,-6.58,7.77,-0.08,27.27
18022,0.3361,-0.022,0.8628,-6.58,7.82,0.0,27.3
18032,0.3322,-0.0228,0.8672,-6.56,7.91,-0.08,27.3
18042,0.334,-0.0228,0.8678,-6.61,7.89,0.0,27.27
18052,0.3329,-0.0211,0.8705,-6.55,7.91,-0.02,27.29
18062,0.3346,-0.0221,0.8655,-6.52,7.88,0.03,27.29
18072,0.334,-0.0219,0.8602,-6.56,7.94,-0.11,27.25
18082,0.3344,-0.0251,0.8672,-6.5,7.88,0.02,27.24
18092,0.3344,-0.0228,0.8624,-6.58,7.91,-0.03,27.26
18102,0.3346,-0.0232,0.8651,-6.61,7.91,-0.05,27.27
18112,0.3354,-0.0228,0.8644,-6.63,7.88,-0.02,27.27
18122,0.3354,-0.0248,0.8622,-6.6,7.83,-0.08,27.27
18132,0.3385,-0.0262,0.8621,-6.56,7.86,-0.03,27.29
18142,0.3334,-0.0223,0.8654,-6.61,7.83,-0.02,27.27
18152,0.3323,-0.0212,0.8647,-6.49,7.89,-0.05,27.27
18162,0.334,-0.022,0.8645,-6.56,7.83,-0.02,27.28
18172,0.3335,-0.0242,0.8658,-6.6,7.88,0.0,27.29
18182,0.3333,-0.0255,0.8698,-6.5,7.91,-0.08,27.3
18192,0.3342,-0.0201,0.8662,-6.6,7.88,0.02,27.28
18202,0.3318,-0.0228,0.8674,-6.56,7.85,-0.08,27.31
18212,0.3331,-0.0216,0.866,-6.55,7.88,-0.08,27.28
18222,0.3346,-0.0264,0.8658,-6.56,7.85,0.03,27.28
18232,0.3309,-0.0211,0.8665,-6.58,7.83,-0.12,27.28
18242,0.3337,-0.0217,0.8627,-6.61,7.88,-0.09,27.29
18252,0.3354,-0.0231,0.8622,-6.55,7.88,-0.08,27.29
18262,0.3324,-0.0228,0.8678,-6.69,7.86,-0.05,27.27
18272,0.3351,-0.0256,0.8617,-6.58,7.86,-0.11,27.28
18282,0.3353,-0.0192,0.8641,-6.61,7.86,-0.03,27.3
18292,0.3322,-0.0255,0.8655,-6.52,7.85,0.02,27.3
18302,0.3342,-0.0216,0.8623,-6.52,7.88,-0.02,27.28
18312,0.3319,-0.0221,0.8645,-6.6,7.88,-0.11,27.29
18322,0.3313,-0.0221,0.8652,-6.55,7.85,-0.09,27.3
18332,0.3339,-0.0211,0.8589,-6.6,7.89,-0.09,27.29
18342,0.3318,-0.0264,0.8649,-6.5,7.89,-0.05,27.29
18352,0.3314,-0.0234,0.8645,-6.55,7.86,0.0,27.29
18362,0.3344,-0.0214,0.8649,-6.56,7.91,-0.05,27.3
18372,0.3336,-0.0245,0.8632,-6.56,7.82,-0.05,27.3
18382,0.3335,-0.0216,0.8616,-6.49,7.94,0.0,27.29
18392,0.3329,-0.0219,0.8639,-6.63,7.88,-0.02,27.3
18402,0.333,-0.0229,0.8625,-6.52,7.89,-0.02,27.31
18412,0.3302,-0.0228,0.8616,-6.47,7.85,0.0,27.28
18422,0.334,-0.0206,0.8643,-6.6,7.88,-0.05,27.29
18432,0.3337,-0.0217,0.8623,-6.47,7.88,-0.09,27.29
18442,0.3344,-0.0221,0.8669,-6.56,7.92,0.02,27.28
18452,0.3357,-0.0233,0.8661,-6.53,7.92,-0.02,27.29
18462,0.3311,-0.0216,0.8641,-6.53,7.94,-0.03,27.31
18472,0.3331,-0.0203,0.8683,-6.49,7.89,0.02,27.3
18482,0.3345,-0.0249,0.8667,-6.53,7.88,-0.05,27.3
18492,0.3356,-0.0251,0.8641,-6.63,7.86,0.0,27.29
18502,0.3324,-0.0225,0.8622,-6.55,7.83,-0.09,27.29
18512,0.3325,-0.0242,0.8651,-6.5,7.82,-0.02,27.28
18522,0.334,-0.0226,0.8654,-6.6,7.94,-0.06,27.28
18532,0.3346,-0.0211,0.8629,-6.66,7.91,-0.03,27.28
18542,0.3326,-0.0245,0.8621,-6.61,7.83,0.0,27.28
18552,0.3354,-0.0228,0.8671,-6.52,7.85,-0.05,27.27
18562,0.3333,-0.0236,0.8694,-6.53,7.89,-0.03,27.29
18572,0.3315,-0.0238,0.8627,-6.55,7.89,-0.03,27.29
18582,0.3336,-0.0247,0.8646,-6.63,7.83,-0.03,27.27
18592,0.3345,-0.0222,0.8646,-6.58,7.91,-0.12,27.29
18602,0.334,-0.0225,0.8627,-6.47,7.88,-0.06,27.29
18612,0.3342,-0.0228,0.8627,-6.5,7.85,0.03,27.3
18622,0.3354,-0.0243,0.8612,-6.58,7.88,-0.03,27.28
18632,0.3329,-0.0205,0.8661,-6.52,7.86,-0.08,27.28
18642,0.3342,-0.0242,0.8638,-6.53,7.83,-0.05,27.29
18652,0.3341,-0.0214,0.8627,-6.6,7.86,-0.09,27.29
18662,0.3334,-0.0215,0.8639,-6.56,7.86,-0.05,27.29
18672,0.3337,-0.0229,0.8621,-6.61,7.88,-0.09,27.27
18682,0.3326,-0.0236,0.8606,-6.61,7.82,-0.03,27.3
18692,0.3337,-0.0237,0.8601,-6.53,7.8,-0.06,27.27
18702,0.3336,-0.0216,0.8634,-6.55,7.85,-0.03,27.3
18712,0.3347,-0.0206,0.8613,-6.53,7.86,0.02,27.28
18722,0.3328,-0.0215,0.865,-6.53,7.94,-0.08,27.29
18732,0.3346,-0.0242,0.8654,-6.55,7.85,-0.02,27.27
18742,0.3356,-0.0227,0.8671,-6.47,7.86,-0.02,27.29
18752,0.334,-0.0211,0.8621,-6.55,7.82,-0.03,27.31
18762,0.3337,-0.0233,0.8643,-6.56,7.89,0.05,27.28
18772,0.3346,-0.0251,0.8636,-6.63,7.85,0.0,27.32
18782,0.3352,-0.0208,0.8677,-6.55,7.88,-0.03,27.29
18792,0.3324,-0.0247,0.8668,-6.52,7.85,-0.09,27.3
18802,0.3307,-0.0251,0.8629,-6.6,7.83,0.02,27.29
18812,0.3357,-0.0243,0.8628,-6.58,7.95,-0.09,27.29
18822,0.3354,-0.0223,0.8654,-6.56,7.86,-0.08,27.33
18832,0.333,-0.0209,0.8633,-6.61,7.89,-0.05,27.29
18842,0.3333,-0.0236,0.8655,-6.53,7.91,-0.06,27.28
18852,0.3336,-0.0219,0.8663,-6.56,7.91,-0.06,27.31
18862,0.3352,-0.0254,0.8627,-6.56,7.85,0.0,27.29
18872,0.3323,-0.022,0.8665,-6.55,7.85,-0.03,27.31
18882,0.3302,-0.0242,0.8644,-6.52,7.83,-0.08,27.32
18892,0.3331,-0.0234,0.8663,-6.49,7.91,-0.06,27.3
18902,0.333,-0.0225,0.866,-6.56,7.85,-0.08,27.3
18912,0.3335,-0.0238,0.8612,-6.61,7.92,0.0,27.29
18922,0.333,-0.0238,0.8647,-6.53,7.88,-0.02,27.31
18932,0.3311,-0.0216,0.8638,-6.56,7.83,-0.03,27.3
18942,0.3323,-0.0232,0.8624,-6.58,7.92,-0.06,27.29
18952,0.3315,-0.0226,0.8649,-6.64,7.88,-0.02,27.32
18962,0.332,-0.0234,0.8657,-6.55,7.86,-0.02,27.3
18972,0.334,-0.024,0.8665,-6.53,7.82,-0.02,27.31
18982,0.3331,-0.0238,0.8639,-6.6,7.85,-0.02,27.3
18992,0.3336,-0.0217,0.8644,-6.53,7.82,-0.05,27.3
19002,0.3337,-0.0229,0.8644,-6.5,7.85,0.03,27.31
19012,0.3346,-0.0225,0.8641,-6.55,7.83,-0.03,27.29
19022,0.3333,-0.0244,0.8661,-6.52,7.82,0.0,27.31
19032,0.3345,-0.0237,0.8674,-6.4,7.88,-0.03,27.29
19042,0.3348,-0.024,0.8625,-6.55,7.88,0.0,27.3
19052,0.3345,-0.0225,0.8662,-6.53,7.85,-0.03,27.3
19062,0.3345,-0.022,0.8667,-6.53,7.89,0.02,27.28
19072,0.3308,-0.0225,0.8661,-6.6,7.91,-0.09,27.3
19082,0.3328,-0.0228,0.8625,-6.56,7.92,-0.03,27.29
19092,0.3341,-0.0223,0.8683,-6.6,7.89,0.02,27.29
19102,0.3322,-0.0244,0.8641,-6.55,7.88,-0.08,27.3
19112,0.3344,-0.0262,0.8663,-6.63,7.82,-0.09,27.29
19122,0.3336,-0.024,0.8663,-6.55,7.8,-0.09,27.28
19132,0.3364,-0.0234,0.8662,-6.52,7.79,-0.08,27.29
19142,0.3359,-0.024,0.8613,-6.55,7.86,-0.03,27.31
19152,0.334,-0.0248,0.8644,-6.55,7.8,-0.02,27.3
19162,0.3368,-0.0198,0.8647,-6.53,7.88,-0.03,27.3
19172,0.3315,-0.0211,0.8604,-6.58,7.83,-0.05,27.29
19182,0.3329,-0.0205,0.86,-6.56,7.88,-0.03,27.3
19192,0.3328,-0.0231,0.8622,-6.61,7.92,-0.05,27.3
19202,0.333,-0.0248,0.8633,-6.58,7.86,-0.09,27.32
19212,0.3337,-0.0227,0.866,-6.58,7.77,0.0,27.3
19222,0.3323,-0.0237,0.8623,-6.58,7.86,-0.12,27.28
19232,0.3301,-0.0233,0.8644,-6.6,7.86,-0.14,27.29
19242,0.3324,-0.0237,0.8656,-6.52,7.89,-0.03,27.28
19252,0.3345,-0.0248,0.8661,-6.58,7.89,-0.11,27.31
19262,0.3347,-0.0208,0.8652,-6.63,7.8,-0.09,27.29
19272,0.333,-0.0221,0.8668,-6.58,7.88,-0.05,27.29
19282,0.332,-0.0221,0.8646,-6.6,7.85,-0.08,27.3
19292,0.3361,-0.0219,0.8613,-6.53,7.91,-0.03,27.3
19302,0.3314,-0.0217,0.8666,-6.56,7.86,-0.05,27.31
19312,0.3329,-0.0239,0.8629,-6.56,7.91,-0.14,27.29
19322,0.3319,-0.0192,0.8627,-6.58,7.89,-0.12,27.29
19332,0.3362,-0.0222,0.8618,-6.55,7.8,-0.08,27.29
19342,0.3351,-0.0243,0.8693,-6.52,7.83,-0.02,27.28
19352,0.3329,-0.0237,0.8628,-6.5,7.89,0.02,27.31
19362,0.3351,-0.0227,0.8602,-6.58,7.88,-0.06,27.29
19372,0.3337,-0.0206,0.8617,-6.5,7.92,-0.05,27.29
19382,0.3303,-0.0217,0.8652,-6.5,7.86,-0.09,27.29
19392,0.3312,-0.0214,0.8646,-6.52,7.91,0.0,27.28
19402,0.3345,-0.0201,0.8632,-6.53,7.94,-0.08,27.29
19412,0.3323,-0.0237,0.8645,-6.56,7.85,-0.02,27.29
19422,0.332,-0.0273,0.8635,-6.5,7.85,-0.08,27.31
19432,0.3308,-0.0182,0.8656,-6.6,7.85,-0.08,27.28
19442,0.3306,-0.0236,0.8613,-6.53,8.03,-0.06,27.29
19452,0.3289,-0.0264,0.8733,-6.53,7.86,0.02,27.3
19462,0.3396,-0.0228,0.8588,-6.64,7.77,-0.06,27.29
19472,0.3306,-0.0262,0.864,-6.58,7.89,-0.02,27.29
19482,0.3347,-0.025,0.8663,-6.5,7.85,-0.06,27.29
19492,0.3328,-0.0212,0.864,-6.52,7.85,-0.08,27.3
19502,0.3369,-0.0209,0.8617,-6.6,7.88,0.03,27.28
19512,0.3326,-0.0234,0.8699,-6.58,7.88,-0.06,27.32
19522,0.3333,-0.0187,0.8627,-6.66,7.83,-0.09,27.32
19532,0.3326,-0.0248,0.866,-6.55,7.85,-0.06,27.29
19542,0.3339,-0.0222,0.8636,-6.6,7.91,-0.08,27.29
19552,0.3309,-0.0221,0.8668,-6.55,7.89,-0.06,27.26
19562,0.3352,-0.0237,0.8655,-6.64,7.85,-0.08,27.29
19572,0.334,-0.0231,0.8667,-6.6,7.91,-0.03,27.29
19582,0.3342,-0.0254,0.866,-6.5,7.86,-0.03,27.31
19592,0.334,-0.0211,0.8654,-6.55,7.88,-0.09,27.28
19602,0.333,-0.0239,0.8649,-6.53,7.88,-0.03,27.3
19612,0.3334,-0.0233,0.8671,-6.6,7.85,-0.05,27.29
19622,0.334,-0.0243,0.8621,-6.55,7.88,-0.06,27.29
19632,0.3356,-0.0227,0.8667,-6.47,7.83,0.02,27.28
19642,0.3344,-0.0243,0.8655,-6.58,7.85,-0.06,27.31
19652,0.3361,-0.0248,0.8634,-6.5,7.88,-0.02,27.29
19662,0.334,-0.0212,0.8706,-6.47,7.88,-0.05,27.29
19672,0.3362,-0.0233,0.8663,-6.49,7.92,-0.06,27.3
19682,0.3317,-0.0232,0.8639,-6.5,7.91,-0.03,27.28
19692,0.3341,-0.0243,0.8655,-6.53,7.94,-0.02,27.32
19702,0.3328,-0.0221,0.865,-6.55,7.91,-0.08,27.3
19712,0.335,-0.0238,0.8672,-6.55,7.88,-0.02,27.3
19722,0.3324,-0.0225,0.8677,-6.58,7.92,-0.12,27.31
19732,0.3319,-0.0222,0.8625,-6.53,7.89,-0.06,27.29
19742,0.3308,-0.0225,0.8633,-6.56,7.92,-0.02,27.3
19752,0.335,-0.0227,0.8617,-6.55,7.91,0.02,27.28
19762,0.3356,-0.0225,0.8616,-6.58,7.94,-0.05,27.27
19772,0.3373,-0.0217,0.8673,-6.61,7.83,-0.06,27.31
19782,0.3345,-0.0236,0.865,-6.66,7.88,-0.03,27.3
19792,0.3339,-0.0226,0.8669,-6.5,7.83,-0.06,27.29
19802,0.333,-0.0233,0.8627,-6.52,7.95,-0.08,27.32
19812,0.3353,-0.0214,0.8656,-6.5,7.88,0.0,27.3
19822,0.3348,-0.0254,0.8661,-6.69,7.92,0.0,27.3
19832,0.3336,-0.0251,0.8613,-6.55,7.89,-0.03,27.29
19842,0.3308,-0.0258,0.8633,-6.5,7.85,0.0,27.29
19852,0.3335,-0.0228,0.8668,-6.47,7.86,0.0,27.32
19862,0.3364,-0.0239,0.8651,-6.56,7.86,0.02,27.31
19872,0.3323,-0.0222,0.8655,-6.49,7.8,-0.08,27.31
19882,0.3326,-0.027,0.8641,-6.58,7.85,-0.05,27.31
19892,0.3353,-0.0242,0.8676,-6.53,7.88,-0.14,27.29
19902,0.3309,-0.0226,0.8633,-6.5,7.82,-0.08,27.29
19912,0.3329,-0.0236,0.8616,-6.47,7.94,-0.09,27.27
19922,0.3319,-0.0247,0.8647,-6.58,7.88,0.0,27.29
19932,0.3336,-0.0258,0.8649,-6.6,7.89,0.02,27.28
19942,0.3331,-0.0236,0.8623,-6.55,7.94,-0.05,27.3
19952,0.3363,-0.0261,0.8635,-6.49,7.89,-0.05,27.31
19962,0.3339,-0.0258,0.8635,-6.63,7.91,-0.06,27.31
19972,0.3328,-0.022,0.8706,-6.63,7.94,-0.02,27.28
19982,0.3351,-0.0249,0.8668,-6.5,7.91,-0.08,27.31
19992,0.3346,-0.0256,0.8628,-6.55,7.88,-0.02,27.29
20002,0.3329,-0.0222,0.8654,-6.47,7.88,-0.08,27.28
20012,0.3334,-0.0236,0.8669,-6.56,7.85,-0.08,27.27
20022,0.3353,-0.0199,0.8665,-6.53,7.85,-0.06,27.29
20032,0.3307,-0.0223,0.8643,-6.6,7.85,-0.08,27.29
20042,0.3347,-0.0233,0.8617,-6.58,7.89,-0.03,27.29
20052,0.3319,-0.0245,0.868,-6.56,7.82,-0.09,27.3
20062,0.3335,-0.025,0.8645,-6.5,7.89,-0.03,27.28
20072,0.3328,-0.0239,0.8638,-6.56,7.86,-0.05,27.3
20082,0.3326,-0.0243,0.8643,-6.52,7.91,-0.06,27.34
20092,0.3311,-0.0233,0.8643,-6.58,7.91,-0.03,27.31
20102,0.3344,-0.0238,0.861,-6.46,7.89,-0.08,27.32
20112,0.3336,-0.0245,0.863,-6.56,7.91,-0.09,27.3
20122,0.3359,-0.0243,0.8611,-6.6,7.86,-0.05,27.31
20132,0.3345,-0.0208,0.8647,-6.6,7.91,-0.08,27.31
20142,0.3333,-0.0215,0.8655,-6.47,7.85,0.02,27.32
20152,0.3323,-0.0195,0.8615,-6.47,7.91,-0.02,27.33
20162,0.3322,-0.0225,0.8602,-6.55,7.92,-0.08,27.31
20172,0.3329,-0.0212,0.8633,-6.56,7.91,-0.02,27.28
20182,0.3347,-0.0223,0.8615,-6.6,7.89,-0.05,27.3
20192,0.3295,-0.0204,0.8682,-6.53,7.94,-0.03,27.29
20202,0.3342,-0.0209,0.8683,-6.63,7.83,-0.08,27.29
20212,0.3308,-0.0211,0.8665,-6.52,7.83,-0.08,27.31
20222,0.3329,-0.022,0.8652,-6.6,7.85,-0.06,27.3
20232,0.3296,-0.0215,0.8654,-6.55,7.91,-0.05,27.31
20242,0.3342,-0.0238,0.8662,-6.5,7.91,-0.02,27.32
20252,0.3352,-0.025,0.8667,-6.49,7.91,-0.06,27.3
20262,0.333,-0.0219,0.8639,-6.55,7.85,-0.05,27.32
20272,0.3342,-0.0271,0.864,-6.52,7.85,-0.09,27.29
20282,0.3318,-0.0212,0.8622,-6.52,7.88,0.02,27.3
20292,0.3337,-0.0247,0.8638,-6.49,7.8,-0.06,27.32
20302,0.3345,-0.0227,0.8623,-6.56,7.85,0.03,27.32
20312,0.3358,-0.0242,0.863,-6.56,7.95,-0.06,27.29
20322,0.334,-0.0271,0.8668,-6.6,7.92,0.02,27.29
20332,0.335,-0.0232,0.8701,-6.58,7.92,-0.08,27.31
20342,0.3336,-0.0204,0.8647,-6.56,7.94,0.02,27.31
20352,0.3353,-0.0247,0.8682,-6.55,7.88,-0.06,27.31
20362,0.3325,-0.022,0.8665,-6.5,7.79,-0.06,27.3
20372,0.3337,-0.0208,0.868,-6.53,7.82,-0.11,27.3
20382,0.3329,-0.026,0.8629,-6.53,7.85,-0.09,27.31
20392,0.332,-0.0239,0.8623,-6.49,7.8,-0.02,27.32
20402,0.3372,-0.0253,0.8655,-6.6,7.95,0.0,27.29
20412,0.3304,-0.0238,0.8693,-6.58,7.85,-0.03,27.31
20422,0.3345,-0.0226,0.8652,-6.6,7.83,0.0,27.3
20432,0.3342,-0.0217,0.8655,-6.5,7.92,-0.09,27.28
20442,0.3346,-0.0238,0.8596,-6.46,7.88,-0.03,27.3
20452,0.3313,-0.0227,0.8657,-6.52,7.89,-0.05,27.31
20462,0.334,-0.0227,0.8628,-6.6,7.86,-0.06,27.3
20472,0.3333,-0.0258,0.8645,-6.63,7.91,-0.08,27.32
20482,0.3326,-0.0245,0.864,-6.56,7.85,-0.03,27.29
20492,0.3326,-0.0203,0.8649,-6.53,7.88,0.0,27.3
20502,0.3341,-0.0221,0.8647,-6.5,7.92,-0.14,27.3
20512,0.3311,-0.0221,0.863,-6.63,7.8,0.0,27.33
20522,0.3345,-0.0231,0.8616,-6.49,7.88,-0.05,27.32
20532,0.3331,-0.0219,0.8633,-6.56,7.89,-0.05,27.29
20542,0.3336,-0.0223,0.8622,-6.47,7.85,-0.03,27.32
20552,0.3346,-0.0215,0.8658,-6.58,7.85,0.0,27.3
20562,0.3324,-0.0214,0.8649,-6.58,7.88,-0.05,27.3
20572,0.3335,-0.0228,0.8635,-6.55,7.89,-0.05,27.31
20582,0.3341,-0.0242,0.8639,-6.63,7.88,-0.03,27.3
20592,0.3341,-0.0222,0.8605,-6.52,7.89,-0.05,27.3
20602,0.334,-0.0248,0.866,-6.61,7.92,-0.09,27.29
20612,0.3341,-0.0239,0.866,-6.52,7.88,-0.05,27.29
20622,0.3351,-0.0222,0.8694,-6.49,7.88,-0.05,27.28
20632,0.3353,-0.0227,0.8651,-6.53,7.91,-0.03,27.32
20642,0.3358,-0.0211,0.8646,-6.47,7.88,-0.06,27.29
20652,0.335,-0.0223,0.8657,-6.52,7.85,-0.06,27.31
20662,0.3362,-0.0225,0.8646,-6.55,7.92,-0.05,27.29
20672,0.3342,-0.0259,0.8646,-6.5,7.94,0.02,27.29
20682,0.3334,-0.0236,0.8661,-6.66,7.91,-0.03,27.31
20692,0.3334,-0.0238,0.8657,-6.58,7.82,-0.02,27.32
20702,0.3323,-0.0245,0.8649,-6.63,7.83,-0.11,27.28
20712,0.3337,-0.0244,0.8646,-6.5,7.83,-0.02,27.31
20722,0.3333,-0.0219,0.8643,-6.5,7.91,-0.02,27.31
20732,0.3323,-0.0222,0.8604,-6.52,7.88,-0.09,27.3
20742,0.3348,-0.0233,0.8656,-6.61,7.89,-0.08,27.3
20752,0.3334,-0.0209,0.863,-6.52,7.83,-0.02,27.32
20762,0.3331,-0.0232,0.8655,-6.61,7.92,-0.03,27.32
20772,0.3324,-0.0243,0.865,-6.55,7.91,-0.08,27.31
20782,0.3348,-0.0242,0.8666,-6.52,7.86,-0.02,27.29
20792,0.3324,-0.0216,0.8639,-6.5,7.8,-0.06,27.3
20802,0.3335,-0.0214,0.8636,-6.47,7.85,0.02,27.3
20812,0.3331,-0.0259,0.8641,-6.46,7.88,-0.03,27.32
20822,0.3337,-0.0209,0.8649,-6.55,7.91,-0.02,27.3
20832,0.3311,-0.0234,0.8623,-6.58,7.91,0.0,27.3
20842,0.3318,-0.0205,0.8649,-6.53,7.89,-0.05,27.3
20852,0.3346,-0.0262,0.8601,-6.55,7.85,0.0,27.31
20862,0.3318,-0.0214,0.869,-6.55,7.83,-0.05,27.31
20872,0.3329,-0.0238,0.8676,-6.56,7.88,-0.11,27.32
20882,0.3346,-0.0233,0.8635,-6.58,7.88,-0.06,27.31
20892,0.3322,-0.0229,0.8652,-6.63,7.82,-0.02,27.32
20902,0.3351,-0.0239,0.8657,-6.61,7.89,-0.03,27.3
20912,0.3329,-0.0253,0.8641,-6.6,7.88,-0.02,27.31
20922,0.3335,-0.0237,0.8649,-6.56,7.85,0.0,27.32
20932,0.3324,-0.0256,0.8628,-6.61,7.83,0.03,27.31
20942,0.3329,-0.0248,0.8652,-6.61,7.95,-0.09,27.31
20952,0.335,-0.0232,0.868,-6.53,7.86,-0.05,27.32
20962,0.3337,-0.0219,0.8633,-6.66,7.83,-0.05,27.33
20972,0.3362,-0.0222,0.8613,-6.53,7.89,-0.05,27.3
20982,0.3344,-0.021,0.8656,-6.55,7.97,-0.08,27.31
20992,0.3312,-0.0226,0.8647,-6.56,7.88,-0.06,27.33
21002,0.3318,-0.0209,0.8662,-6.52,7.91,-0.02,27.29
21012,0.332,-0.0223,0.8671,-6.55,7.86,-0.03,27.29
21022,0.335,-0.0231,0.864,-6.53,7.73,-0.08,27.32
21032,0.3328,-0.0205,0.8639,-6.52,7.91,-0.11,27.3
21042,0.3328,-0.0244,0.864,-6.61,7.91,-0.06,27.29
21052,0.3331,-0.0219,0.8652,-6.47,7.88,-0.11,27.34
21062,0.3337,-0.0238,0.8618,-6.52,7.89,0.02,27.32
21072,0.3329,-0.024,0.8651,-6.46,7.88,-0.06,27.31
21082,0.3329,-0.0248,0.8644,-6.52,7.88,-0.09,27.3
21092,0.3353,-0.0228,0.8644,-6.56,7.82,-0.03,27.3
21102,0.335,-0.0249,0.8666,-6.49,7.91,-0.02,27.3
21112,0.3315,-0.0222,0.8665,-6.5,7.94,0.02,27.31
21122,0.3358,-0.0227,0.8654,-6.6,7.85,-0.02,27.29
21132,0.3323,-0.0206,0.8658,-6.61,7.86,-0.05,27.29
21142,0.3331,-0.0227,0.8612,-6.58,7.91,-0.11,27.31
21152,0.3337,-0.0231,0.8652,-6.56,7.86,-0.02,27.31
21162,0.3356,-0.0244,0.8622,-6.64,7.92,0.05,27.33
21172,0.3328,-0.0237,0.8627,-6.56,7.92,0.03,27.31
21182,0.3359,-0.0225,0.8676,-6.52,7.91,-0.02,27.31
21192,0.3333,-0.024,0.8656,-6.49,7.88,-0.03,27.29
21202,0.3359,-0.0236,0.8644,-6.53,7.83,-0.05,27.3
21212,0.3331,-0.0232,0.8612,-6.49,7.8,0.02,27.29
21222,0.3333,-0.0209,0.8673,-6.52,7.88,-0.06,27.29
21232,0.3341,-0.0197,0.865,-6.58,7.92,0.02,27.32
21242,0.3354,-0.0234,0.8649,-6.49,7.82,-0.12,27.3
21252,0.3331,-0.0211,0.8651,-6.53,7.89,-0.11,27.29
21262,0.3322,-0.0229,0.8616,-6.58,7.95,-0.02,27.31
21272,0.3347,-0.0229,0.8625,-6.52,7.89,0.05,27.31
21282,0.3347,-0.026,0.8621,-6.6,7.88,-0.05,27.32
21292,0.3342,-0.0243,0.8633,-6.63,7.89,0.05,27.31
21302,0.3352,-0.0227,0.8654,-6.6,7.89,0.0,27.29
21312,0.3333,-0.0219,0.8623,-6.53,7.86,-0.02,27.29
21322,0.3344,-0.0233,0.8618,-6.53,7.77,-0.12,27.3
21332,0.3328,-0.02,0.8627,-6.47,7.8,-0.03,27.32
21342,0.3295,-0.0231,0.8646,-6.47,7.91,-0.11,27.32
21352,0.3324,-0.0251,0.865,-6.5,7.83,-0.11,27.31
21362,0.334,-0.0229,0.8628,-6.56,7.85,-0.11,27.32
21372,0.3348,-0.0244,0.8639,-6.55,7.83,-0.03,27.32
21382,0.3329,-0.0208,0.8647,-6.55,7.91,-0.03,27.3
21392,0.3359,-0.0226,0.865,-6.53,7.85,-0.03,27.3
21402,0.334,-0.0234,0.8679,-6.5,7.91,-0.03,27.3
21412,0.3339,-0.0222,0.8651,-6.52,7.91,-0.05,27.31
21422,0.3348,-0.0222,0.8669,-6.61,7.89,-0.03,27.31
21432,0.3346,-0.0248,0.8657,-6.63,7.89,0.0,27.29
21442,0.3351,-0.0255,0.8591,-6.6,7.92,-0.08,27.3
21452,0.3358,-0.0225,0.8645,-6.55,7.91,-0.08,27.31
21462,0.3324,-0.0219,0.8649,-6.69,7.89,-0.11,27.31
21472,0.3337,-0.0228,0.8617,-6.5,7.91,-0.11,27.31
21482,0.3361,-0.0229,0.8617,-6.5,7.8,-0.09,27.31
21492,0.3335,-0.0245,0.8646,-6.58,7.82,-0.11,27.32
21502,0.333,-0.0238,0.8677,-6.61,7.89,0.0,27.31
21512,0.3335,-0.0253,0.8624,-6.52,7.89,-0.06,27.3
21522,0.3319,-0.0253,0.8657,-6.58,7.77,-0.09,27.29
21532,0.332,-0.021,0.8638,-6.5,7.86,-0.02,27.29
21542,0.3315,-0.0192,0.8684,-6.61,7.86,-0.08,27.32
21552,0.3326,-0.0203,0.8599,-6.61,7.95,-0.2,27.3
21562,0.3324,-0.0212,0.8643,-6.58,7.86,-0.11,27.3
21572,0.3367,-0.0215,0.8661,-6.53,7.91,-0.05,27.31
21582,0.3323,-0.0247,0.8661,-6.5,7.86,-0.05,27.28
21592,0.3334,-0.0212,0.8644,-6.5,7.83,-0.03,27.3
21602,0.3319,-0.0223,0.8663,-6.44,7.8,-0.05,27.3
21612,0.3323,-0.0242,0.8627,-6.55,7.86,-0.08,27.3
21622,0.3361,-0.0217,0.8669,-6.55,7.91,-0.08,27.31
21632,0.3334,-0.0227,0.8621,-6.6,7.86,-0.06,27.32
21642,0.3333,-0.0233,0.8655,-6.55,7.89,-0.08,27.34
21652,0.3315,-0.022,0.8662,-6.5,7.95,-0.06,27.3
21662,0.3329,-0.0226,0.8647,-6.53,7.86,-0.08,27.31
21672,0.3365,-0.0237,0.8633,-6.5,7.91,-0.06,27.32
21682,0.3333,-0.0249,0.8606,-6.55,7.82,-0.03,27.31
21692,0.3311,-0.0261,0.8646,-6.58,7.85,0.02,27.32
21702,0.3317,-0.0254,0.8687,-6.53,7.89,0.02,27.33
21712,0.3334,-0.0228,0.863,-6.58,7.88,-0.09,27.32
21722,0.3347,-0.0228,0.8599,-6.6,8.0,-0.02,27.32
21732,0.333,-0.0256,0.8656,-6.5,7.95,-0.05,27.33
21742,0.3356,-0.022,0.8693,-6.56,7.82,-0.03,27.32
21752,0.3342,-0.0217,0.865,-6.46,7.82,-0.05,27.31
21762,0.3333,-0.0219,0.8643,-6.56,7.83,-0.06,27.32
21772,0.3334,-0.0248,0.8601,-6.55,7.91,0.03,27.31
21782,0.3301,-0.025,0.8643,-6.6,7.88,0.0,27.29
21792,0.3336,-0.0222,0.8627,-6.58,7.86,-0.03,27.31
21802,0.335,-0.0212,0.8666,-6.6,7.86,-0.03,27.3
21812,0.333,-0.0254,0.8644,-6.53,7.86,-0.08,27.3
21822,0.3351,-0.0204,0.863,-6.52,7.83,-0.06,27.29
21832,0.3324,-0.0229,0.864,-6.47,7.89,-0.06,27.3
21842,0.3337,-0.0237,0.865,-6.58,7.97,-0.02,27.33
21852,0.3337,-0.0223,0.8617,-6.52,7.91,-0.08,27.32
21862,0.335,-0.0249,0.863,-6.49,7.85,-0.11,27.31
21872,0.3354,-0.0283,0.8643,-6.63,7.79,-0.03,27.32
21882,0.3359,-0.0227,0.863,-6.55,7.89,-0.02,27.33
21892,0.3345,-0.0227,0.8619,-6.55,7.89,-0.11,27.29
21902,0.3336,-0.0209,0.8634,-6.61,7.85,-0.09,27.32
21912,0.335,-0.0217,0.8628,-6.6,7.91,-0.09,27.33
21922,0.3361,-0.0232,0.8689,-6.66,7.89,0.02,27.31
21932,0.3301,-0.0236,0.8687,-6.64,7.88,-0.06,27.32
21942,0.3311,-0.0233,0.8654,-6.58,7.86,-0.02,27.33
21952,0.3331,-0.0248,0.8625,-6.49,7.89,0.02,27.32
21962,0.3309,-0.0197,0.8663,-6.56,7.83,0.02,27.34
21972,0.3344,-0.0229,0.8632,-6.52,7.86,-0.03,27.32
21982,0.3345,-0.022,0.8627,-6.52,7.85,-0.08,27.33
21992,0.3331,-0.0234,0.8633,-6.56,7.91,-0.09,27.32
22002,0.3347,-0.0209,0.8645,-6.53,7.86,0.0,27.33
22012,0.3352,-0.0217,0.8652,-6.63,7.86,-0.09,27.32
22022,0.3317,-0.0251,0.8638,-6.56,7.88,-0.11,27.31
22032,0.3351,-0.0208,0.8651,-6.66,7.85,-0.12,27.31
22042,0.3322,-0.0249,0.861,-6.49,7.82,-0.03,27.3
22052,0.3365,-0.0238,0.864,-6.52,7.89,-0.09,27.34
22062,0.3334,-0.0206,0.8654,-6.52,7.89,-0.05,27.33
22072,0.3328,-0.0238,0.8663,-6.53,7.91,-0.08,27.34
22082,0.3319,-0.0233,0.8644,-6.6,7.91,-0.05,27.33
22092,0.3331,-0.0251,0.8668,-6.58,7.85,0.03,27.32
22102,0.33,-0.0245,0.8615,-6.52,7.86,-0.05,27.34
22112,0.3336,-0.0222,0.8661,-6.63,7.8,-0.05,27.32
22122,0.3306,-0.0219,0.8684,-6.46,7.83,-0.05,27.33
22132,0.3318,-0.0217,0.8679,-6.53,7.91,-0.12,27.32
22142,0.3308,-0.0221,0.8618,-6.47,7.91,-0.06,27.34
22152,0.3356,-0.0229,0.863,-6.58,7.94,-0.08,27.32
22162,0.3331,-0.025,0.8652,-6.55,7.88,-0.06,27.3
22172,0.3329,-0.0223,0.864,-6.61,7.89,0.0,27.34
22182,0.3318,-0.0219,0.8634,-6.52,7.88,-0.06,27.33
22192,0.3354,-0.0217,0.8621,-6.66,7.89,-0.05,27.34
22202,0.3342,-0.0239,0.8673,-6.56,7.89,-0.03,27.32
22212,0.3345,-0.0253,0.866,-6.52,7.88,-0.06,27.33
22222,0.3339,-0.0222,0.8647,-6.6,7.86,-0.03,27.34
22232,0.3335,-0.0234,0.8616,-6.55,7.92,-0.03,27.31
22242,0.333,-0.0208,0.8682,-6.55,7.92,0.0,27.34
22252,0.3318,-0.0215,0.8685,-6.58,7.89,0.0,27.32
22262,0.3307,-0.0236,0.8643,-6.46,7.88,-0.08,27.33
22272,0.3314,-0.0238,0.8667,-6.6,7.92,-0.02,27.34
22282,0.3307,-0.0267,0.8665,-6.49,7.88,-0.11,27.35
22292,0.334,-0.0242,0.865,-6.49,7.92,-0.02,27.32
22302,0.3328,-0.0232,0.8671,-6.5,7.86,-0.06,27.34
22312,0.3311,-0.0226,0.863,-6.56,7.89,-0.12,27.31
22322,0.3323,-0.0219,0.8644,-6.52,7.88,-0.08,27.31
22332,0.3335,-0.0236,0.8704,-6.5,7.88,-0.03,27.32
22342,0.3374,-0.0236,0.8657,-6.53,7.89,-0.05,27.35
22352,0.3353,-0.0249,0.8667,-6.61,7.91,-0.08,27.33
22362,0.3348,-0.0221,0.8707,-6.56,7.82,-0.02,27.32
22372,0.3337,-0.0232,0.866,-6.56,7.83,-0.03,27.33
22382,0.3334,-0.0221,0.8658,-6.55,7.88,-0.03,27.33
22392,0.333,-0.025,0.8655,-6.55,7.85,-0.11,27.32
22402,0.3345,-0.0233,0.8654,-6.49,7.92,-0.12,27.32
22412,0.3329,-0.0228,0.8655,-6.6,7.89,-0.05,27.32
22422,0.3342,-0.0254,0.8624,-6.56,7.94,-0.03,27.32
22432,0.334,-0.0229,0.8634,-6.63,7.91,-0.05,27.32
22442,0.3344,-0.0239,0.8651,-6.6,7.86,-0.02,27.35
22452,0.3318,-0.0266,0.8688,-6.5,7.94,0.02,27.31
22462,0.3362,-0.0262,0.8635,-6.61,7.89,-0.05,27.32
22472,0.3362,-0.0248,0.8676,-6.49,7.91,-0.08,27.32
22482,0.3335,-0.0221,0.8656,-6.52,7.97,0.02,27.35
22492,0.334,-0.0234,0.8678,-6.56,7.88,-0.09,27.33
22502,0.3331,-0.0219,0.8632,-6.56,7.91,0.0,27.33
22512,0.3341,-0.0214,0.8645,-6.5,7.82,-0.06,27.32
22522,0.3345,-0.0201,0.8644,-6.6,7.83,-0.05,27.34
22532,0.3334,-0.0227,0.8589,-6.52,7.86,-0.06,27.34
22542,0.3336,-0.0228,0.8684,-6.52,7.79,-0.03,27.34
22552,0.3354,-0.0222,0.8658,-6.58,7.8,-0.12,27.35
22562,0.3328,-0.0206,0.8636,-6.52,7.8,-0.03,27.33
22572,0.333,-0.0232,0.865,-6.56,7.86,-0.02,27.32
22582,0.3347,-0.0201,0.8643,-6.47,7.85,-0.09,27.32
22592,0.3331,-0.0239,0.8643,-6.52,7.95,-0.06,27.31
22602,0.3335,-0.0238,0.863,-6.52,7.86,-0.08,27.34
22612,0.3337,-0.0234,0.8597,-6.58,7.83,-0.09,27.34
22622,0.3334,-0.0239,0.8619,-6.53,7.91,-0.09,27.32
22632,0.3347,-0.025,0.8649,-6.6,7.86,-0.03,27.33
22642,0.3334,-0.0228,0.8684,-6.55,7.88,-0.08,27.33
22652,0.3311,-0.0233,0.8672,-6.53,7.73,0.0,27.32
22662,0.3344,-0.0237,0.863,-6.55,7.83,-0.09,27.34
22672,0.3342,-0.0225,0.8638,-6.52,7.88,-0.03,27.31
22682,0.3364,-0.0228,0.8644,-6.6,7.89,-0.05,27.34
22692,0.3334,-0.0222,0.8625,-6.56,7.92,-0.12,27.32
22702,0.3314,-0.0242,0.8622,-6.63,7.86,-0.12,27.34
22712,0.3325,-0.0231,0.864,-6.55,7.85,0.02,27.33
22722,0.3334,-0.025,0.8652,-6.47,7.89,0.0,27.33
22732,0.3336,-0.0234,0.8633,-6.56,7.88,-0.08,27.32
22742,0.3367,-0.0232,0.8646,-6.5,7.91,-0.05,27.32
22752,0.3311,-0.0206,0.865,-6.56,7.82,0.0,27.33
22762,0.3344,-0.0234,0.8588,-6.6,7.85,-0.02,27.31
22772,0.3352,-0.0239,0.8645,-6.47,7.86,-0.02,27.31
22782,0.3323,-0.0209,0.8632,-6.56,7.97,-0.02,27.34
22792,0.3328,-0.0227,0.8638,-6.58,7.89,-0.06,27.32
22802,0.3315,-0.0231,0.8657,-6.61,7.83,-0.03,27.32
22812,0.3334,-0.0239,0.8628,-6.6,7.83,-0.06,27.33
22822,0.3336,-0.0236,0.865,-6.55,7.91,-0.06,27.32
22832,0.3345,-0.0231,0.8646,-6.56,7.83,-0.06,27.36
22842,0.3325,-0.0222,0.868,-6.53,7.8,-0.03,27.33
22852,0.3315,-0.0243,0.8658,-6.55,7.85,-0.05,27.34
22862,0.3354,-0.022,0.8683,-6.61,7.79,-0.06,27.35
22872,0.3348,-0.0231,0.8617,-6.6,7.86,-0.11,27.31
22882,0.3335,-0.0248,0.8657,-6.53,7.88,0.0,27.36
22892,0.3331,-0.0244,0.8694,-6.52,7.89,-0.11,27.36
22902,0.3362,-0.0233,0.8671,-6.56,7.94,-0.02,27.34
22912,0.3347,-0.0201,0.8673,-6.61,7.91,-0.03,27.33
22922,0.3345,-0.0249,0.8668,-6.53,7.91,-0.02,27.32
22932,0.3329,-0.0231,0.8655,-6.56,7.91,-0.05,27.33
22942,0.3335,-0.0221,0.8627,-6.52,7.82,-0.02,27.36
22952,0.3358,-0.0231,0.8649,-6.53,7.83,-0.12,27.32
22962,0.337,-0.025,0.8651,-6.47,7.85,-0.03,27.32
22972,0.3331,-0.0173,0.8658,-6.52,7.82,-0.06,27.33
22982,0.3328,-0.0221,0.8646,-6.56,7.89,-0.09,27.32
22992,0.3337,-0.0211,0.8668,-6.58,7.88,-0.08,27.32
23002,0.3331,-0.0209,0.8607,-6.56,7.88,-0.02,27.34
23012,0.3347,-0.0237,0.8672,-6.52,7.86,-0.05,27.33
23022,0.3325,-0.0222,0.8655,-6.56,7.86,-0.08,27.34
23032,0.3325,-0.022,0.8654,-6.5,7.86,-0.11,27.35
23042,0.3344,-0.0245,0.865,-6.61,7.86,-0.09,27.34
23052,0.3345,-0.0216,0.8661,-6.63,7.95,-0.02,27.34
23062,0.3341,-0.0216,0.8643,-6.6,7.92,0.0,27.34
23072,0.3337,-0.0228,0.8647,-6.56,7.89,-0.05,27.31
23082,0.3339,-0.0234,0.8661,-6.6,7.92,0.0,27.34
23092,0.3333,-0.0239,0.8649,-6.52,7.79,-0.05,27.33
23102,0.3345,-0.0254,0.8667,-6.55,7.94,-0.09,27.33
23112,0.3325,-0.0226,0.865,-6.64,7.95,-0.11,27.33
23122,0.3328,-0.0248,0.8647,-6.55,7.89,-0.12,27.33
23132,0.3351,-0.0225,0.8658,-6.58,7.85,-0.05,27.34
23142,0.3351,-0.0201,0.8665,-6.47,7.86,-0.06,27.35
23152,0.3348,-0.0243,0.8633,-6.61,7.91,-0.06,27.34
23162,0.3339,-0.0248,0.8684,-6.55,7.85,-0.03,27.35
23172,0.3303,-0.0217,0.8673,-6.61,7.92,-0.03,27.34
23182,0.333,-0.0217,0.8671,-6.61,7.95,-0.08,27.33
23192,0.3324,-0.0242,0.8655,-6.52,7.86,-0.05,27.34
23202,0.3333,-0.0232,0.8623,-6.53,7.89,-0.03,27.32
23212,0.3339,-0.022,0.8612,-6.53,7.86,-0.02,27.31
23222,0.3309,-0.0227,0.865,-6.55,7.86,-0.03,27.34
23232,0.3329,-0.0237,0.8613,-6.58,7.89,-0.05,27.35
23242,0.333,-0.0228,0.8639,-6.58,7.8,-0.02,27.34
23252,0.3308,-0.0216,0.8688,-6.6,7.88,0.03,27.34
23262,0.3346,-0.0222,0.8656,-6.64,7.88,-0.06,27.36
23272,0.3346,-0.0221,0.8633,-6.53,7.88,0.0,27.34
23282,0.3325,-0.0197,0.8643,-6.58,7.86,0.02,27.36
23292,0.3315,-0.0233,0.8663,-6.61,7.85,-0.03,27.32
23302,0.3319,-0.0227,0.8635,-6.52,7.86,-0.02,27.35
23312,0.3325,-0.0211,0.8629,-6.56,7.91,0.02,27.32
23322,0.3344,-0.0234,0.8654,-6.49,7.77,-0.11,27.33
23332,0.3322,-0.0225,0.8649,-6.56,7.85,-0.06,27.34
23342,0.337,-0.0228,0.8655,-6.5,7.89,-0.05,27.34
23352,0.3331,-0.0251,0.8635,-6.52,7.8,0.02,27.32
23362,0.3334,-0.0208,0.8627,-6.49,7.92,-0.02,27.34
23372,0.3333,-0.022,0.8649,-6.55,7.88,-0.02,27.32
23382,0.3352,-0.028,0.8612,-6.56,7.85,-0.05,27.33
23392,0.333,-0.0267,0.8679,-6.49,7.92,-0.03,27.35
23402,0.3344,-0.0216,0.8674,-6.53,7.88,-0.02,27.32
23412,0.3324,-0.0255,0.866,-6.6,7.83,-0.05,27.34
23422,0.3307,-0.0215,0.8639,-6.53,7.83,-0.03,27.33
23432,0.3333,-0.0247,0.8668,-6.53,7.82,-0.02,27.35
23442,0.3363,-0.0231,0.8651,-6.61,7.89,-0.11,27.31
23452,0.3356,-0.0214,0.8669,-6.56,7.86,-0.08,27.34
23462,0.3309,-0.0228,0.8644,-6.53,7.88,-0.03,27.35
23472,0.3298,-0.0258,0.8679,-6.52,7.89,-0.09,27.36
23482,0.3303,-0.0244,0.8666,-6.56,7.95,-0.03,27.33
23492,0.3336,-0.022,0.8661,-6.58,7.89,-0.05,27.34
23502,0.3333,-0.025,0.8661,-6.55,7.88,-0.08,27.34
23512,0.3373,-0.0253,0.8623,-6.56,7.76,-0.12,27.35
23522,0.3395,-0.0234,0.8605,-6.6,7.79,-0.05,27.34
23532,0.3359,-0.0245,0.8622,-6.58,7.8,-0.03,27.35
23542,0.3328,-0.022,0.8646,-6.5,7.94,-0.12,27.33
23552,0.3322,-0.0231,0.8657,-6.49,7.86,-0.02,27.35
23563,0.3353,-0.0227,0.8601,-6.55,7.85,-0.12,27.37
23573,0.3367,-0.0223,0.8627,-6.61,7.82,-0.06,27.36
23583,0.3351,-0.0226,0.8677,-6.56,7.91,-0.05,27.34
23593,0.3307,-0.0237,0.8687,-6.55,7.95,-0.09,27.33
23603,0.3328,-0.0232,0.8698,-6.56,7.89,-0.03,27.35
23613,0.3324,-0.0205,0.8673,-6.6,7.89,0.0,27.36
23623,0.3313,-0.02,0.866,-6.63,7.86,-0.05,27.34
23633,0.3334,-0.0223,0.8639,-6.53,7.82,-0.05,27.34
23643,0.3347,-0.0217,0.8638,-6.52,7.85,0.02,27.34
23653,0.3341,-0.0221,0.8662,-6.63,7.86,-0.09,27.33
23663,0.3325,-0.0204,0.8679,-6.61,7.86,-0.06,27.35
23673,0.3312,-0.0244,0.8662,-6.7,7.86,-0.06,27.34
23683,0.33,-0.0255,0.8662,-6.6,7.94,0.0,27.35
23693,0.3323,-0.0258,0.8629,-6.55,7.88,-0.03,27.36
23703,0.3318,-0.0247,0.8649,-6.56,7.86,-0.03,27.37
23713,0.3358,-0.0237,0.8652,-6.58,7.88,-0.05,27.34
23723,0.3347,-0.0245,0.8646,-6.56,7.88,-0.03,27.33
23733,0.3324,-0.0223,0.8658,-6.53,7.85,-0.03,27.34
23743,0.3339,-0.0227,0.868,-6.55,7.8,0.02,27.34
23753,0.3345,-0.0227,0.8678,-6.58,7.94,-0.03,27.36
23763,0.3339,-0.0234,0.8683,-6.53,7.92,-0.08,27.37
23773,0.3346,-0.0236,0.8654,-6.56,7.88,-0.02,27.35
23783,0.3323,-0.024,0.8634,-6.53,7.94,-0.08,27.33
23793,0.3346,-0.0219,0.8641,-6.6,7.88,-0.05,27.34
23803,0.3362,-0.0251,0.8649,-6.53,7.92,-0.05,27.32
23813,0.333,-0.0233,0.864,-6.61,7.86,-0.05,27.33
23823,0.3345,-0.0256,0.8649,-6.61,7.91,-0.11,27.34
23833,0.3323,-0.0223,0.8658,-6.5,7.97,-0.03,27.35
23843,0.3325,-0.0214,0.8668,-6.55,7.82,-0.12,27.34
23853,0.3342,-0.0234,0.8618,-6.53,7.86,-0.03,27.36
23863,0.3348,-0.0243,0.8652,-6.56,7.95,-0.06,27.35
23873,0.3352,-0.0232,0.8661,-6.52,7.92,-0.06,27.35
23883,0.3328,-0.0226,0.8644,-6.58,7.92,-0.08,27.33
23893,0.3313,-0.0269,0.8674,-6.55,7.88,-0.09,27.34
23903,0.3328,-0.0227,0.8621,-6.61,7.89,-0.12,27.33
23913,0.3341,-0.0233,0.8641,-6.52,7.86,-0.06,27.34
23923,0.3324,-0.0238,0.866,-6.58,7.88,0.0,27.34
23933,0.3367,-0.0256,0.8616,-6.56,7.89,0.02,27.34
23943,0.337,-0.024,0.8665,-6.55,7.89,-0.08,27.34
23953,0.3357,-0.0253,0.8643,-6.63,7.89,-0.03,27.32
23963,0.3334,-0.0236,0.8654,-6.47,7.94,0.02,27.32
23973,0.3364,-0.0238,0.8644,-6.55,7.88,-0.11,27.35
23983,0.3381,-0.0225,0.8656,-6.49,7.88,-0.08,27.35
23993,0.333,-0.0201,0.8666,-6.53,7.86,-0.05,27.33
24003,0.3341,-0.0234,0.8657,-6.55,7.8,-0.11,27.35
24013,0.3373,-0.0234,0.863,-6.64,7.92,0.02,27.36
24023,0.334,-0.0234,0.8638,-6.61,7.86,-0.11,27.32
24033,0.3339,-0.0221,0.8672,-6.55,7.86,-0.03,27.31
24043,0.3331,-0.0215,0.8634,-6.58,7.88,-0.08,27.32
24053,0.3326,-0.0234,0.8644,-6.53,7.83,-0.09,27.34
24063,0.3348,-0.0205,0.8646,-6.56,7.88,-0.02,27.31
24073,0.337,-0.0222,0.8646,-6.55,7.86,-0.09,27.33
24083,0.3341,-0.0219,0.865,-6.56,7.94,-0.05,27.34
24093,0.3362,-0.0273,0.8674,-6.5,7.89,-0.02,27.35
24103,0.3302,-0.0226,0.8634,-6.55,7.92,0.0,27.34
24113,0.334,-0.0236,0.8649,-6.55,7.89,-0.06,27.34
24123,0.333,-0.021,0.8623,-6.5,7.97,0.03,27.34
24133,0.3342,-0.0204,0.8623,-6.52,7.82,-0.05,27.34
24143,0.3307,-0.0226,0.8662,-6.61,7.89,-0.03,27.34
24153,0.3331,-0.0225,0.8627,-6.58,7.97,-0.02,27.32
24163,0.337,-0.0231,0.8618,-6.56,7.85,-0.06,27.36
24173,0.333,-0.0222,0.8619,-6.55,7.8,0.03,27.36
24183,0.3344,-0.0238,0.866,-6.66,7.92,0.03,27.32
24193,0.3326,-0.0214,0.8629,-6.53,7.91,0.03,27.32
24203,0.3341,-0.0221,0.8625,-6.63,7.97,0.0,27.32
24213,0.3322,-0.0208,0.8639,-6.63,7.86,-0.02,27.35
24223,0.3335,-0.0258,0.8673,-6.61,7.91,-0.09,27.33
24233,0.3352,-0.0236,0.8658,-6.49,7.89,0.03,27.35
24243,0.3314,-0.0227,0.87,-6.53,7.88,-0.02,27.35
24253,0.3334,-0.024,0.8647,-6.58,7.89,0.0,27.35
24263,0.3335,-0.0216,0.8655,-6.53,7.88,0.0,27.33
24273,0.3339,-0.0234,0.8632,-6.55,7.91,-0.09,27.32
24283,0.3326,-0.025,0.8645,-6.52,7.94,-0.09,27.33
24293,0.3325,-0.0223,0.8633,-6.56,7.82,-0.12,27.35
24343,0.334,-0.0211,0.8613,-6.47,7.97,-0.09,27.35
24353,0.335,-0.0226,0.8623,-6.53,7.86,-0.09,27.32
24363,0.3358,-0.0236,0.8629,-6.67,7.91,-0.06,27.33
24373,0.3339,-0.0232,0.8672,-6.58,7.85,-0.08,27.34
24383,0.3334,-0.0255,0.8656,-6.56,7.86,0.0,27.34
24393,0.3363,-0.0203,0.8632,-6.52,7.89,-0.05,27.34
24403,0.3352,-0.0233,0.8644,-6.52,7.82,0.0,27.34
24413,0.3358,-0.0221,0.8667,-6.63,7.88,-0.06,27.34
24423,0.3325,-0.0243,0.8618,-6.61,7.85,-0.08,27.36
24433,0.3346,-0.0258,0.8632,-6.56,7.83,0.0,27.34
24443,0.3341,-0.0237,0.8638,-6.58,7.94,0.0,27.34
24453,0.3333,-0.0242,0.8658,-6.58,7.89,-0.05,27.36
24463,0.335,-0.021,0.8643,-6.58,7.86,-0.08,27.36
24473,0.3322,-0.0233,0.8684,-6.5,7.88,0.02,27.35
24483,0.3335,-0.0226,0.8665,-6.56,7.85,0.09,27.33
24493,0.332,-0.0223,0.8625,-6.53,7.94,-0.06,27.36
24503,0.3356,-0.0243,0.8673,-6.56,7.86,-0.05,27.35
24513,0.3352,-0.0231,0.8693,-6.53,7.91,-0.02,27.33
24523,0.3333,-0.0253,0.8627,-6.49,7.91,0.0,27.34
24533,0.3334,-0.0247,0.8635,-6.47,7.94,-0.02,27.34
24543,0.3363,-0.0236,0.8651,-6.58,7.86,-0.03,27.34
24553,0.3367,-0.0233,0.8673,-6.52,7.89,-0.05,27.35
24563,0.3337,-0.0219,0.8632,-6.56,7.89,-0.08,27.33
24573,0.335,-0.0247,0.8638,-6.64,7.89,-0.06,27.34
24583,0.3336,-0.0197,0.8624,-6.56,7.89,0.03,27.35
24594,0.3333,-0.0243,0.8667,-6.46,7.88,-0.02,27.34
24604,0.3351,-0.022,0.8632,-6.49,7.89,-0.06,27.34
24614,0.3313,-0.0255,0.8628,-6.49,7.76,-0.09,27.34
24624,0.335,-0.0243,0.8671,-6.58,7.94,-0.03,27.34
24634,0.3337,-0.0243,0.8654,-6.53,7.83,-0.05,27.34
24644,0.3342,-0.0255,0.866,-6.5,7.91,-0.12,27.34
24654,0.3324,-0.0242,0.8672,-6.6,7.89,-0.05,27.37
24664,0.3334,-0.0205,0.8601,-6.6,7.88,-0.06,27.34
24674,0.3307,-0.0226,0.8641,-6.58,7.8,-0.08,27.33
24684,0.3313,-0.0206,0.8657,-6.52,7.83,-0.03,27.34
24694,0.3333,-0.0223,0.8657,-6.63,7.91,-0.05,27.34
24704,0.3358,-0.0237,0.8601,-6.6,7.82,-0.08,27.34
24714,0.3311,-0.0229,0.8643,-6.53,7.89,-0.03,27.33
24724,0.3314,-0.0225,0.8655,-6.61,7.89,-0.05,27.34
24734,0.3334,-0.0238,0.866,-6.6,7.89,-0.02,27.32
24744,0.3326,-0.0239,0.8652,-6.5,7.89,0.0,27.32
24754,0.3342,-0.0234,0.8638,-6.61,7.91,-0.02,27.35
24764,0.3345,-0.0238,0.8633,-6.52,7.82,-0.02,27.34
24774,0.3348,-0.0225,0.8665,-6.52,7.79,-0.06,27.33
24784,0.3296,-0.0238,0.8638,-6.46,7.91,-0.05,27.36
24794,0.3352,-0.0221,0.8662,-6.52,7.91,-0.12,27.34
24804,0.3333,-0.0206,0.8672,-6.55,7.85,-0.05,27.33
24814,0.3331,-0.0222,0.8638,-6.63,7.85,-0.06,27.35
24824,0.3336,-0.0228,0.8645,-6.56,7.86,-0.06,27.35
24834,0.3326,-0.0206,0.8679,-6.58,7.91,-0.05,27.34
24844,0.3361,-0.0215,0.8618,-6.52,7.8,-0.05,27.33
24854,0.3352,-0.0234,0.8585,-6.56,7.88,-0.11,27.34
24864,0.3376,-0.025,0.8668,-6.6,7.8,0.02,27.33
24874,0.3358,-0.0234,0.861,-6.6,7.92,0.0,27.36
24884,0.3335,-0.0242,0.8623,-6.56,7.83,-0.08,27.35
24894,0.3346,-0.0221,0.8641,-6.55,7.88,-0.05,27.35
24904,0.3342,-0.0233,0.8627,-6.52,7.91,0.05,27.35
24914,0.3298,-0.0226,0.8657,-6.58,7.88,-0.02,27.37
24924,0.3279,-0.0216,0.8635,-6.53,7.98,-0.06,27.33
24934,0.3324,-0.0225,0.8643,-6.52,7.88,-0.09,27.35
24944,0.3326,-0.0208,0.8633,-6.61,7.91,-0.06,27.33
24954,0.3318,-0.0262,0.8644,-6.52,7.83,-0.06,27.36
24964,0.334,-0.0233,0.8634,-6.61,7.83,-0.02,27.34
24974,0.3324,-0.025,0.8651,-6.58,7.92,-0.08,27.34
24984,0.333,-0.0236,0.8667,-6.52,7.89,-0.06,27.34
24994,0.3342,-0.0231,0.8623,-6.55,7.88,-0.02,27.34
25004,0.3297,-0.0237,0.8661,-6.53,7.97,-0.06,27.34
25014,0.3302,-0.0193,0.8654,-6.52,7.88,-0.03,27.34
25024,0.3307,-0.0208,0.8635,-6.55,7.83,-0.15,27.33
25034,0.3339,-0.0229,0.8663,-6.53,7.8,-0.09,27.35
25044,0.3339,-0.0242,0.8644,-6.58,7.86,-0.02,27.35
25054,0.3342,-0.0238,0.8676,-6.56,7.89,-0.05,27.32
25064,0.3346,-0.0266,0.8618,-6.5,7.83,-0.12,27.35
25074,0.3324,-0.0265,0.8636,-6.47,7.86,-0.05,27.33
25084,0.3324,-0.0238,0.8657,-6.55,7.92,-0.02,27.34
25094,0.3361,-0.0232,0.8661,-6.55,7.85,-0.08,27.35
25104,0.335,-0.021,0.8654,-6.58,7.86,0.03,27.36
25114,0.3317,-0.024,0.865,-6.55,7.92,-0.03,27.36
25124,0.3337,-0.0243,0.8661,-6.55,7.91,-0.06,27.35
25134,0.3344,-0.0248,0.8636,-6.5,7.86,-0.09,27.35
25144,0.3361,-0.0239,0.8624,-6.58,7.86,0.0,27.35
25154,0.3361,-0.0228,0.8635,-6.58,7.92,-0.02,27.34
25164,0.3317,-0.0234,0.8633,-6.52,7.86,0.03,27.36
25174,0.3324,-0.0234,0.8669,-6.61,7.8,0.0,27.36
25184,0.3326,-0.0253,0.8625,-6.56,7.85,-0.05,27.35
25194,0.3353,-0.0226,0.8639,-6.52,7.86,-0.06,27.36
25204,0.3346,-0.0222,0.8646,-6.55,7.85,-0.06,27.36
25214,0.3329,-0.0215,0.8657,-6.53,7.88,0.0,27.35
25224,0.3337,-0.0232,0.8641,-6.53,7.85,-0.06,27.35
25234,0.3345,-0.0225,0.8676,-6.56,7.82,-0.09,27.34
25244,0.3326,-0.024,0.8668,-6.53,7.82,-0.08,27.34
25254,0.3361,-0.0242,0.8625,-6.53,7.92,-0.06,27.34
25264,0.334,-0.024,0.8641,-6.61,7.92,-0.05,27.35
25274,0.3352,-0.0245,0.8608,-6.58,7.86,-0.09,27.34
25284,0.3339,-0.0214,0.8661,-6.5,7.82,-0.08,27.36
25294,0.3345,-0.0228,0.861,-6.55,7.92,-0.05,27.36
25304,0.3333,-0.0238,0.8647,-6.53,7.89,-0.08,27.34
25314,0.3335,-0.0192,0.8644,-6.5,7.92,-0.02,27.34
25324,0.3319,-0.0205,0.8669,-6.5,7.89,-0.11,27.35
25334,0.3329,-0.0229,0.8689,-6.52,7.86,0.03,27.35
25344,0.333,-0.0237,0.8629,-6.52,7.88,0.0,27.35
25354,0.3326,-0.0262,0.8658,-6.6,7.82,0.0,27.34
25364,0.3326,-0.0248,0.8632,-6.52,7.92,0.02,27.35
25374,0.3325,-0.0219,0.86,-6.63,7.83,-0.08,27.36
25384,0.3317,-0.0245,0.8671,-6.55,7.91,-0.03,27.35
25394,0.332,-0.0242,0.8677,-6.6,7.85,-0.06,27.35
25404,0.3346,-0.0245,0.8608,-6.58,7.89,-0.02,27.36
25414,0.3342,-0.0233,0.8656,-6.53,7.91,-0.03,27.37
25424,0.3324,-0.0233,0.8605,-6.56,7.88,-0.05,27.35
25434,0.3341,-0.0226,0.863,-6.53,7.85,-0.05,27.34
25444,0.3334,-0.0234,0.8611,-6.6,7.91,-0.08,27.36
25454,0.3337,-0.0243,0.8635,-6.63,7.88,-0.05,27.34
25464,0.3306,-0.0238,0.8608,-6.55,7.83,0.0,27.36
25474,0.3322,-0.0239,0.8691,-6.55,7.95,-0.06,27.35
25484,0.3328,-0.0253,0.863,-6.53,7.82,-0.02,27.37
25494,0.3325,-0.0226,0.86,-6.56,7.85,-0.09,27.36
25504,0.3318,-0.0237,0.8665,-6.49,7.95,-0.06,27.36
25514,0.3356,-0.0233,0.8649,-6.6,7.88,-0.08,27.36
25524,0.3342,-0.0233,0.8624,-6.58,7.83,-0.08,27.37
25534,0.334,-0.0216,0.8612,-6.5,7.91,0.0,27.36
25544,0.3348,-0.0222,0.8627,-6.6,7.97,-0.06,27.37
25554,0.3322,-0.0251,0.8665,-6.55,7.88,-0.09,27.36
25564,0.3318,-0.0219,0.8661,-6.58,7.85,0.03,27.36
25574,0.3329,-0.0253,0.8655,-6.52,7.88,-0.03,27.35
25584,0.3367,-0.0227,0.8657,-6.6,7.86,-0.06,27.34
25594,0.3339,-0.0221,0.8669,-6.53,7.89,-0.09,27.37
25604,0.3362,-0.0228,0.8627,-6.56,7.89,-0.03,27.37
25614,0.3313,-0.024,0.8677,-6.5,7.82,-0.02,27.36
25624,0.3314,-0.022,0.8619,-6.55,7.88,0.0,27.35
25634,0.3347,-0.0233,0.8636,-6.55,7.92,-0.05,27.35
25644,0.3315,-0.0208,0.8617,-6.55,7.88,-0.09,27.35
25654,0.3329,-0.0245,0.8667,-6.52,7.88,-0.09,27.33
25664,0.3372,-0.0226,0.863,-6.5,7.88,-0.02,27.34
25674,0.334,-0.0227,0.8625,-6.58,7.8,-0.08,27.36
25684,0.3346,-0.0215,0.8613,-6.6,7.85,-0.05,27.36
25694,0.3356,-0.0242,0.8633,-6.49,7.85,-0.06,27.35
25704,0.3357,-0.0245,0.8634,-6.6,7.92,-0.06,27.35
25714,0.3359,-0.0216,0.865,-6.55,7.82,-0.08,27.37
25724,0.3347,-0.0244,0.8619,-6.56,7.85,-0.05,27.36
25734,0.3307,-0.0228,0.8616,-6.53,7.88,-0.02,27.35
25744,0.3329,-0.0234,0.8646,-6.63,7.85,-0.05,27.37
25754,0.3336,-0.026,0.8656,-6.6,7.92,-0.05,27.36
25764,0.3341,-0.0219,0.8661,-6.58,7.95,-0.03,27.38
25774,0.333,-0.0249,0.8615,-6.53,7.85,-0.02,27.37
25784,0.3335,-0.021,0.8655,-6.52,7.85,-0.02,27.35
25794,0.3347,-0.0214,0.8647,-6.47,7.88,-0.08,27.36
25804,0.3351,-0.0225,0.8671,-6.58,7.86,-0.09,27.35
25814,0.3307,-0.0249,0.8647,-6.52,7.91,-0.06,27.35
25824,0.3312,-0.0225,0.8646,-6.58,7.92,-0.05,27.35
25834,0.3347,-0.0227,0.868,-6.53,7.95,0.0,27.37
25844,0.3336,-0.0209,0.8641,-6.49,7.89,-0.06,27.34
25854,0.3339,-0.0232,0.8654,-6.56,7.86,-0.05,27.36
25864,0.3344,-0.0251,0.8676,-6.6,7.91,-0.02,27.37
25874,0.3335,-0.0254,0.8636,-6.46,7.88,0.02,27.36
25884,0.334,-0.0195,0.8627,-6.58,7.91,-0.08,27.36
25894,0.3344,-0.0245,0.8647,-6.55,7.91,-0.06,27.37
25904,0.3336,-0.0193,0.8633,-6.5,7.89,-0.05,27.33
25914,0.3364,-0.0245,0.8646,-6.58,7.82,-0.09,27.36
25924,0.3346,-0.0212,0.8671,-6.49,7.89,0.0,27.35
25934,0.3329,-0.0239,0.8657,-6.49,7.86,-0.06,27.34
25944,0.3337,-0.0212,0.8678,-6.49,7.88,-0.05,27.34
25954,0.3335,-0.0215,0.8639,-6.63,7.92,-0.03,27.34
25964,0.3354,-0.022,0.8611,-6.58,7.89,0.0,27.37
25974,0.3324,-0.0216,0.8634,-6.46,7.88,-0.09,27.36
25984,0.3362,-0.0259,0.864,-6.53,7.83,-0.02,27.35
25994,0.3352,-0.0223,0.8615,-6.6,7.88,-0.08,27.37
26005,0.3337,-0.0234,0.8655,-6.53,7.86,-0.02,27.34
26015,0.3331,-0.0232,0.8647,-6.61,7.89,-0.05,27.35
26025,0.334,-0.0245,0.8615,-6.58,7.94,-0.03,27.37
26035,0.3278,-0.0228,0.8654,-6.63,7.86,-0.02,27.36
26045,0.3325,-0.0245,0.8646,-6.56,7.91,-0.05,27.35
26055,0.3335,-0.0221,0.8629,-6.52,7.89,-0.03,27.36
26065,0.3364,-0.0226,0.8665,-6.47,7.89,-0.05,27.35
26075,0.3333,-0.0233,0.868,-6.53,8.0,-0.11,27.35
26085,0.3331,-0.0234,0.863,-6.49,7.82,-0.03,27.34
26095,0.3312,-0.0205,0.8667,-6.5,7.85,-0.06,27.35
26105,0.3337,-0.0221,0.8633,-6.58,7.83,-0.02,27.37
26115,0.3329,-0.0216,0.8636,-6.66,7.88,-0.06,27.37
26125,0.3329,-0.0256,0.8655,-6.55,7.91,-0.03,27.36
26135,0.3325,-0.0239,0.8669,-6.56,7.89,-0.08,27.34
26145,0.3341,-0.0229,0.8638,-6.52,7.94,-0.03,27.36
26155,0.3315,-0.024,0.8625,-6.56,7.86,-0.02,27.34
26165,0.3317,-0.0236,0.864,-6.52,7.92,-0.08,27.37
26175,0.3323,-0.0216,0.8632,-6.53,7.86,0.0,27.34
26185,0.3339,-0.0244,0.863,-6.6,7.89,-0.05,27.35
26195,0.3337,-0.0228,0.8673,-6.56,7.88,-0.08,27.35
26205,0.3345,-0.024,0.8635,-6.53,7.85,-0.03,27.37
26215,0.3319,-0.0239,0.8641,-6.53,7.91,-0.06,27.35
26225,0.3333,-0.0247,0.8654,-6.47,7.92,-0.11,27.35
26235,0.3329,-0.0215,0.866,-6.61,7.89,-0.11,27.36
26245,0.3291,-0.0221,0.8625,-6.58,7.88,0.03,27.36
26255,0.3322,-0.0204,0.8688,-6.58,8.0,-0.06,27.38
26265,0.335,-0.0211,0.8641,-6.53,7.85,-0.08,27.35
26275,0.3356,-0.0209,0.8636,-6.58,7.89,-0.03,27.35
26285,0.3347,-0.0233,0.863,-6.66,7.85,-0.05,27.37
26295,0.3346,-0.0216,0.8644,-6.66,7.86,-0.03,27.35
26305,0.3336,-0.0225,0.863,-6.55,7.82,-0.05,27.34
26315,0.3312,-0.0245,0.8674,-6.6,7.86,-0.03,27.36
26325,0.3334,-0.0242,0.8646,-6.53,7.89,-0.08,27.34
26335,0.3381,-0.0254,0.8639,-6.58,7.89,-0.05,27.34
26345,0.3336,-0.0254,0.8669,-6.56,7.91,-0.02,27.35
26355,0.3326,-0.027,0.8627,-6.49,7.86,0.02,27.34
26365,0.3345,-0.0229,0.8645,-6.56,7.86,-0.09,27.35
26375,0.3334,-0.0254,0.8647,-6.52,7.97,-0.03,27.38
26385,0.3339,-0.0243,0.8634,-6.6,7.94,0.0,27.38
26395,0.3358,-0.0253,0.8658,-6.61,7.82,-0.05,27.36
26405,0.3345,-0.0217,0.8628,-6.52,7.85,-0.12,27.34
26415,0.333,-0.0233,0.8635,-6.53,7.89,-0.06,27.37
26425,0.3335,-0.0243,0.8613,-6.6,7.85,0.0,27.39
26435,0.3341,-0.0266,0.8652,-6.58,7.89,-0.03,27.37
26445,0.3346,-0.0231,0.8663,-6.53,7.92,0.05,27.34
26455,0.3347,-0.0222,0.8673,-6.6,7.88,-0.08,27.36
26465,0.3335,-0.0233,0.8651,-6.5,7.86,-0.06,27.37
26475,0.3329,-0.021,0.8655,-6.56,7.92,0.02,27.34
26485,0.3314,-0.0205,0.8618,-6.6,7.89,0.0,27.35
26495,0.3339,-0.0229,0.8657,-6.63,7.86,0.05,27.34
26505,0.3348,-0.0208,0.8634,-6.5,7.86,-0.05,27.35
26515,0.3318,-0.0245,0.8667,-6.52,7.82,-0.08,27.38
26525,0.3324,-0.0234,0.8643,-6.58,7.85,-0.03,27.35
26535,0.3341,-0.0238,0.8671,-6.56,7.82,-0.08,27.34
26545,0.3323,-0.0234,0.8607,-6.53,7.83,0.0,27.36
26555,0.3339,-0.0238,0.863,-6.55,7.88,-0.09,27.36
26565,0.3308,-0.0212,0.8628,-6.56,7.82,-0.03,27.37
26575,0.3342,-0.022,0.866,-6.64,7.89,-0.02,27.36
26585,0.335,-0.0229,0.8677,-6.63,7.89,-0.05,27.35
26595,0.3336,-0.0228,0.8628,-6.46,7.88,-0.06,27.37
26605,0.3337,-0.0243,0.8658,-6.53,7.88,-0.05,27.35
26615,0.3322,-0.0204,0.8632,-6.55,7.83,-0.06,27.37
26625,0.3341,-0.0203,0.8644,-6.55,7.88,0.0,27.36
26635,0.334,-0.0228,0.8657,-6.44,7.89,-0.05,27.36
26645,0.3326,-0.0233,0.865,-6.56,7.91,-0.08,27.35
26655,0.3345,-0.0204,0.8679,-6.5,7.91,-0.09,27.37
26665,0.3331,-0.02,0.8646,-6.5,7.86,-0.09,27.36
26675,0.3311,-0.0232,0.863,-6.53,7.88,-0.05,27.36
26685,0.3304,-0.0248,0.8646,-6.52,7.88,-0.05,27.37
26695,0.3339,-0.0214,0.8668,-6.56,7.91,0.08,27.35
26705,0.3351,-0.0225,0.8649,-6.69,7.92,-0.06,27.35
26716,0.3339,-0.0242,0.8663,-6.63,7.85,-0.08,27.37
26726,0.3337,-0.0216,0.8663,-6.56,7.89,-0.06,27.35
26736,0.3337,-0.0228,0.8645,-6.5,7.95,-0.08,27.35
26746,0.3319,-0.0236,0.8662,-6.5,7.91,-0.05,27.35
26756,0.3318,-0.0232,0.8685,-6.52,7.86,-0.03,27.34
26766,0.3344,-0.0219,0.8668,-6.53,7.85,0.03,27.39
26776,0.332,-0.0234,0.8632,-6.56,7.89,-0.03,27.35
26786,0.3318,-0.0233,0.8641,-6.52,7.85,0.0,27.37
26796,0.3324,-0.0242,0.8639,-6.55,7.82,-0.05,27.35
26806,0.3317,-0.0243,0.8644,-6.58,7.91,-0.08,27.39
26816,0.3335,-0.0223,0.8663,-6.53,7.91,-0.05,27.36
26826,0.3337,-0.0221,0.8678,-6.63,7.94,-0.06,27.35
26836,0.334,-0.0228,0.8666,-6.58,7.91,-0.03,27.36
26846,0.3333,-0.0223,0.865,-6.6,7.88,0.0,27.34
26856,0.3328,-0.0221,0.8689,-6.5,7.92,-0.09,27.34
26866,0.3318,-0.0217,0.8671,-6.56,7.86,-0.03,27.36
26876,0.3347,-0.021,0.863,-6.61,7.82,-0.03,27.38
26886,0.3348,-0.0205,0.861,-6.56,7.86,-0.02,27.35
26896,0.3352,-0.0216,0.8639,-6.53,7.89,0.0,27.36
26906,0.3323,-0.0227,0.8657,-6.61,7.88,-0.06,27.37
26916,0.3315,-0.0237,0.8645,-6.63,7.88,-0.02,27.37
26926,0.3347,-0.0237,0.8605,-6.6,7.89,0.02,27.37
26936,0.3344,-0.0269,0.8619,-6.61,7.85,-0.06,27.35
26946,0.3348,-0.0216,0.8679,-6.55,7.91,0.02,27.38
26956,0.3329,-0.0243,0.866,-6.53,7.95,0.0,27.39
26966,0.3334,-0.0243,0.8647,-6.49,7.88,-0.06,27.36
26976,0.3336,-0.0215,0.868,-6.53,7.94,-0.02,27.36
26986,0.333,-0.0255,0.8656,-6.58,7.85,-0.05,27.37
26996,0.335,-0.0222,0.8635,-6.63,7.92,0.0,27.35
27006,0.3341,-0.0197,0.8645,-6.55,7.89,-0.03,27.37
27016,0.3331,-0.0233,0.8652,-6.46,7.91,-0.12,27.38
27026,0.3339,-0.0237,0.8615,-6.5,7.89,0.0,27.37
27036,0.3337,-0.0214,0.8641,-6.53,7.88,-0.02,27.35
27046,0.3339,-0.0216,0.8638,-6.63,7.83,-0.12,27.36
27056,0.3336,-0.0234,0.8602,-6.56,7.85,-0.02,27.36
27066,0.3334,-0.0233,0.8666,-6.58,7.85,-0.03,27.36
27076,0.3331,-0.0244,0.8649,-6.53,7.85,-0.06,27.37
27086,0.3339,-0.0238,0.8696,-6.52,7.83,-0.06,27.35
27096,0.3358,-0.0204,0.8627,-6.56,7.77,-0.03,27.37
27106,0.337,-0.0258,0.8654,-6.56,7.88,-0.08,27.39
27116,0.3276,-0.0181,0.8721,-6.56,7.85,-0.08,27.38
27126,0.3362,-0.0234,0.86,-6.63,7.94,-0.06,27.37
27136,0.3313,-0.0288,0.8584,-6.47,7.89,-0.05,27.37
27146,0.3323,0.0061,0.8629,-6.85,7.68,-0.05,27.37
27156,0.3248,0.0004,0.8578,-6.76,7.65,0.18,27.38
27166,0.3213,-0.0254,0.866,-6.76,7.76,-0.09,27.39
27176,0.3422,-0.0231,0.8691,-6.37,7.89,-0.27,27.36
27186,0.3308,-0.0358,0.8842,-6.35,8.05,-0.17,27.35
27196,0.3428,-0.0519,0.8661,-6.73,7.76,0.12,27.37
27206,0.3445,-0.0525,0.8685,-6.6,7.86,0.06,27.38
27216,0.3353,-0.0435,0.869,-6.35,8.0,-0.02,27.37
27226,0.3262,-0.0164,0.8723,-6.43,7.8,0.02,27.37
27236,0.324,-0.0093,0.8651,-6.6,7.79,0.09,27.38
27246,0.3254,-0.0046,0.8569,-6.44,7.91,-0.11,27.36
27256,0.3259,0.0037,0.8563,-6.43,7.79,-0.12,27.39
27266,0.328,0.0,0.8607,-6.53,7.76,-0.11,27.36
27276,0.3353,-0.0166,0.8617,-6.75,7.82,-0.03,27.38
27286,0.3374,-0.0385,0.8573,-6.53,7.89,-0.05,27.37
27296,0.3376,-0.0385,0.87,-6.49,7.82,-0.11,27.35
27306,0.3462,-0.0323,0.8768,-6.55,7.86,-0.08,27.39
27316,0.342,-0.0386,0.8702,-6.66,7.91,0.09,27.38
27326,0.3414,-0.0364,0.866,-6.49,7.86,0.0,27.36
27336,0.3387,-0.0219,0.8623,-6.47,7.8,0.03,27.38
27346,0.3326,-0.0029,0.8618,-6.47,7.89,0.05,27.39
27356,0.3271,-0.0062,0.8622,-6.56,7.97,0.03,27.39
27366,0.3258,-0.0079,0.8594,-6.55,7.92,-0.02,27.35
27376,0.3289,-0.0178,0.8577,-6.58,7.83,-0.11,27.36
27386,0.3306,-0.0222,0.8655,-6.55,7.86,-0.12,27.35
27396,0.3354,-0.0337,0.8689,-6.56,7.85,-0.14,27.36
27406,0.3356,-0.0411,0.8693,-6.55,7.86,-0.08,27.35
27416,0.3385,-0.0339,0.869,-6.46,7.89,-0.06,27.37
