t_ms,accel_x_g,accel_y_g,accel_z_g,gyro_x_dps,gyro_y_dps,gyro_z_dps,imu_temp_c
3284,0.327,-0.0254,0.8667,-6.64,7.97,-0.09,29.6
3295,0.3262,-0.0258,0.871,-6.67,7.97,-0.14,29.63
3305,0.3291,-0.0249,0.8701,-6.63,7.97,-0.08,29.6
3315,0.3292,-0.0275,0.8669,-6.72,7.97,-0.08,29.62
3326,0.3309,-0.0265,0.8654,-6.72,7.91,-0.06,29.62
3336,0.3273,-0.0278,0.8706,-6.66,8.0,-0.08,29.63
3346,0.3247,-0.0238,0.8629,-6.79,7.98,-0.08,29.65
3356,0.3263,-0.0255,0.8656,-6.61,7.97,-0.06,29.64
3366,0.3268,-0.0255,0.8651,-6.64,7.91,-0.02,29.62
3376,0.3292,-0.0264,0.8663,-6.75,8.0,-0.02,29.64
3386,0.3267,-0.0256,0.8661,-6.81,7.95,0.02,29.66
3396,0.3253,-0.0242,0.8654,-6.72,7.91,-0.02,29.62
3406,0.3281,-0.0251,0.8665,-6.73,7.98,-0.06,29.63
3416,0.3276,-0.0251,0.8638,-6.7,7.98,-0.06,29.63
3426,0.3256,-0.0242,0.8608,-6.61,7.89,-0.06,29.64
3436,0.329,-0.0278,0.8621,-6.73,7.95,-0.05,29.63
3446,0.3303,-0.0249,0.8641,-6.66,7.95,0.06,29.63
3456,0.3297,-0.0284,0.8645,-6.7,8.0,-0.05,29.64
3466,0.3276,-0.025,0.8679,-6.67,8.05,-0.08,29.64
3476,0.3298,-0.027,0.8641,-6.67,8.03,0.0,29.64
3486,0.3298,-0.0264,0.865,-6.66,7.95,0.0,29.65
3496,0.3271,-0.0273,0.8621,-6.69,7.97,-0.03,29.66
3506,0.3271,-0.0242,0.8649,-6.75,8.05,-0.02,29.66
3516,0.3284,-0.0248,0.8632,-6.78,7.95,-0.02,29.64
3526,0.3263,-0.0267,0.8633,-6.64,7.95,-0.08,29.65
3536,0.3275,-0.027,0.8634,-6.63,7.95,-0.03,29.66
3546,0.3278,-0.0261,0.869,-6.72,7.98,-0.03,29.65
3556,0.3258,-0.0255,0.8657,-6.67,7.97,-0.03,29.64
3566,0.3239,-0.0264,0.8655,-6.73,8.02,-0.09,29.66
3576,0.3292,-0.0267,0.8638,-6.72,8.0,-0.08,29.65
3586,0.3282,-0.0267,0.8633,-6.75,7.91,-0.06,29.67
3596,0.328,-0.0259,0.8624,-6.67,7.92,-0.08,29.66
3606,0.3268,-0.0271,0.8657,-6.73,7.91,-0.05,29.65
3616,0.3292,-0.0247,0.8624,-6.72,7.97,0.02,29.63
3626,0.3301,-0.0281,0.8654,-6.76,7.98,-0.09,29.67
3636,0.3287,-0.0261,0.8643,-6.7,7.94,-0.05,29.65
3646,0.3275,-0.0269,0.8621,-6.7,7.97,-0.11,29.66
3656,0.3282,-0.0264,0.8662,-6.75,7.98,0.02,29.67
3666,0.3298,-0.0249,0.8641,-6.72,7.94,-0.08,29.66
3676,0.3275,-0.0261,0.8654,-6.69,8.08,-0.02,29.64
3686,0.3269,-0.0234,0.8671,-6.72,8.0,-0.05,29.68
3696,0.327,-0.0254,0.8612,-6.72,7.95,-0.02,29.67
3706,0.3297,-0.0253,0.8607,-6.67,7.97,-0.08,29.67
3716,0.3279,-0.0272,0.8607,-6.78,7.98,-0.05,29.64
3726,0.3245,-0.0266,0.8646,-6.63,7.98,-0.02,29.65
3736,0.3301,-0.024,0.8667,-6.69,7.98,-0.12,29.66
3746,0.3281,-0.025,0.864,-6.66,7.94,-0.02,29.67
3756,0.3278,-0.0266,0.8687,-6.78,7.92,-0.06,29.66
3766,0.3287,-0.0256,0.8691,-6.81,8.0,-0.08,29.65
3776,0.3291,-0.0248,0.8658,-6.72,7.97,-0.11,29.68
3786,0.3278,-0.0261,0.8652,-6.7,7.94,-0.03,29.66
3796,0.3274,-0.0277,0.8616,-6.67,7.89,-0.03,29.69
3806,0.3257,-0.0259,0.8635,-6.64,7.98,-0.02,29.65
3816,0.329,-0.0265,0.8617,-6.69,8.08,-0.02,29.67
3826,0.33,-0.0239,0.8641,-6.75,8.03,-0.06,29.67
3836,0.3285,-0.0248,0.8628,-6.63,8.03,0.02,29.67
3846,0.3284,-0.0254,0.8668,-6.61,7.97,-0.03,29.69
3856,0.3276,-0.0253,0.8657,-6.67,7.94,-0.02,29.66
3866,0.3291,-0.0237,0.8644,-6.7,7.88,0.02,29.68
3876,0.3268,-0.0247,0.8624,-6.67,7.94,-0.05,29.66
3886,0.3301,-0.0243,0.8595,-6.75,8.0,-0.03,29.67
3896,0.3314,-0.0242,0.8643,-6.78,7.95,-0.11,29.68
3906,0.3252,-0.0267,0.8652,-6.76,7.92,-0.06,29.68
3916,0.3282,-0.0244,0.8654,-6.76,7.98,-0.03,29.65
3926,0.3312,-0.0251,0.8638,-6.72,7.94,-0.05,29.67
3936,0.3287,-0.0262,0.8671,-6.72,7.91,-0.06,29.67
3946,0.3267,-0.0244,0.8661,-6.72,7.91,0.0,29.69
3956,0.3252,-0.0226,0.8652,-6.76,7.95,-0.02,29.67
3966,0.3264,-0.0278,0.8641,-6.7,7.92,0.0,29.67
3976,0.3297,-0.0245,0.8619,-6.75,7.94,-0.02,29.69
3986,0.3271,-0.0254,0.8677,-6.72,7.94,-0.09,29.68
3997,0.3245,-0.0247,0.8674,-6.73,7.98,-0.06,29.68
4008,0.3292,-0.0269,0.8661,-6.73,7.98,-0.08,29.69
4019,0.3276,-0.0259,0.8672,-6.78,7.95,-0.11,29.68
4029,0.3258,-0.0267,0.865,-6.66,7.97,-0.03,29.69
4039,0.3235,-0.0291,0.8668,-6.69,8.05,0.02,29.68
4049,0.3278,-0.0287,0.8658,-6.7,7.95,-0.03,29.68
4059,0.3287,-0.0261,0.8654,-6.75,7.98,-0.02,29.7
4069,0.3315,-0.0244,0.8657,-6.75,8.02,-0.08,29.69
4079,0.3276,-0.0234,0.863,-6.79,7.97,-0.03,29.69
4089,0.3293,-0.0244,0.864,-6.78,7.97,0.05,29.7
4099,0.3292,-0.0265,0.8634,-6.76,7.95,-0.05,29.71
4109,0.3285,-0.0223,0.8629,-6.69,7.86,-0.06,29.68
4119,0.3289,-0.0273,0.8623,-6.61,7.92,-0.06,29.71
4129,0.3285,-0.0272,0.8636,-6.67,7.97,-0.14,29.67
4139,0.3263,-0.0256,0.8645,-6.69,8.03,-0.03,29.68
4149,0.3304,-0.0264,0.8649,-6.67,7.97,0.05,29.69
4159,0.3317,-0.0259,0.8673,-6.66,7.94,-0.03,29.71
4169,0.3248,-0.0249,0.8635,-6.69,7.98,0.02,29.72
4179,0.3276,-0.0239,0.8635,-6.75,7.92,-0.05,29.68
4189,0.326,-0.0232,0.8608,-6.7,8.0,-0.08,29.69
4199,0.3276,-0.0259,0.868,-6.7,8.02,0.03,29.7
4209,0.3274,-0.0247,0.8638,-6.73,8.0,0.0,29.7
4219,0.326,-0.024,0.8628,-6.79,7.97,0.0,29.71
4229,0.3269,-0.0273,0.8645,-6.78,7.89,-0.02,29.7
4239,0.329,-0.0236,0.8638,-6.7,7.98,0.03,29.72
4249,0.3268,-0.0253,0.8645,-6.78,7.97,-0.05,29.72
4259,0.3301,-0.0282,0.8644,-6.73,8.03,-0.11,29.69
4269,0.3274,-0.0251,0.8635,-6.67,7.97,-0.06,29.71
4279,0.3293,-0.0293,0.8647,-6.7,8.0,-0.02,29.7
4289,0.328,-0.024,0.8638,-6.73,7.92,0.0,29.69
4299,0.3274,-0.0261,0.8636,-6.78,8.0,-0.02,29.69
4309,0.3276,-0.0242,0.8595,-6.7,7.98,-0.05,29.69
4319,0.3292,-0.0261,0.8617,-6.73,7.95,-0.02,29.69
4329,0.3278,-0.0259,0.8646,-6.73,7.94,-0.06,29.7
4339,0.3284,-0.026,0.8651,-6.72,8.03,-0.05,29.69
4349,0.3285,-0.0238,0.8669,-6.69,7.89,-0.06,29.69
4359,0.3317,-0.024,0.8615,-6.78,7.94,-0.18,29.69
4369,0.3319,-0.0248,0.8605,-6.78,7.88,-0.09,29.71
4379,0.3262,-0.0249,0.8671,-6.73,8.0,-0.05,29.7
4389,0.3242,-0.0231,0.8676,-6.72,8.03,-0.03,29.71
4399,0.3281,-0.0239,0.8652,-6.76,8.0,-0.08,29.7
4409,0.3296,-0.0236,0.8651,-6.63,7.92,-0.03,29.69
4420,0.3278,-0.0245,0.8597,-6.7,7.92,-0.08,29.69
4430,0.3274,-0.0255,0.863,-6.72,7.97,-0.03,29.73
4440,0.3298,-0.0264,0.8654,-6.67,8.03,0.0,29.7
4450,0.327,-0.0247,0.8645,-6.73,7.97,-0.03,29.69
4460,0.3295,-0.0256,0.8633,-6.7,8.0,-0.05,29.67
4470,0.3278,-0.0282,0.8645,-6.69,8.02,-0.05,29.71
4480,0.3322,-0.0254,0.866,-6.7,7.91,-0.08,29.74
4490,0.3295,-0.0254,0.8629,-6.75,8.0,0.02,29.72
4500,0.3285,-0.0227,0.8668,-6.78,7.98,0.0,29.69
4510,0.3276,-0.0256,0.865,-6.75,7.94,0.02,29.71
4520,0.3251,-0.0262,0.8617,-6.76,7.94,-0.03,29.72
4530,0.3271,-0.0254,0.8623,-6.81,7.94,0.0,29.69
4540,0.3284,-0.0239,0.8669,-6.76,7.94,0.02,29.71
4550,0.3292,-0.026,0.864,-6.7,7.95,0.02,29.7
4560,0.328,-0.0244,0.8674,-6.7,8.02,0.0,29.71
4570,0.329,-0.0262,0.8683,-6.67,7.91,-0.09,29.71
4580,0.3278,-0.0264,0.863,-6.69,7.95,-0.09,29.71
4590,0.3264,-0.0256,0.8638,-6.73,7.92,-0.05,29.7
4600,0.3273,-0.0275,0.8622,-6.73,7.97,-0.02,29.72
4610,0.3285,-0.0276,0.8655,-6.75,7.88,0.02,29.74
4620,0.3262,-0.0288,0.8657,-6.81,7.98,-0.03,29.7
4630,0.3263,-0.0267,0.8666,-6.7,7.91,-0.08,29.7
4640,0.3293,-0.0244,0.8655,-6.73,8.02,0.05,29.7
4650,0.3291,-0.0267,0.8629,-6.73,8.0,-0.03,29.72
4660,0.3258,-0.0262,0.8629,-6.75,7.91,-0.08,29.73
4670,0.3289,-0.0264,0.86,-6.73,8.0,-0.09,29.73
4680,0.3239,-0.0265,0.8651,-6.67,7.92,-0.05,29.7
4690,0.3264,-0.0238,0.8639,-6.79,7.97,-0.05,29.71
4700,0.3252,-0.0248,0.865,-6.69,7.97,-0.08,29.67
4712,0.3291,-0.0227,0.8668,-6.69,7.98,-0.08,29.71
4722,0.3295,-0.0259,0.8632,-6.76,7.94,-0.02,29.72
4732,0.3301,-0.0227,0.8635,-6.75,7.89,-0.06,29.71
4742,0.3268,-0.0259,0.8639,-6.81,7.95,-0.14,29.7
4752,0.3287,-0.0242,0.864,-6.72,7.95,-0.02,29.74
4762,0.3291,-0.0254,0.8661,-6.67,8.0,-0.17,29.71
4772,0.3301,-0.0227,0.8656,-6.75,7.92,-0.02,29.68
4782,0.33,-0.026,0.8635,-6.81,7.97,-0.03,29.72
4792,0.3247,-0.0236,0.8663,-6.72,7.97,0.0,29.72
4802,0.3267,-0.0243,0.8616,-6.75,7.92,-0.05,29.72
4812,0.3269,-0.0271,0.8644,-6.78,7.95,-0.02,29.73
4822,0.3254,-0.0238,0.8595,-6.67,7.95,-0.03,29.7
4832,0.3311,-0.0271,0.8665,-6.66,7.95,0.0,29.72
4842,0.3285,-0.0243,0.8639,-6.75,8.0,-0.14,29.74
4852,0.3262,-0.0292,0.8676,-6.66,7.91,0.02,29.73
4862,0.3276,-0.0269,0.8647,-6.79,8.03,-0.02,29.74
4872,0.3298,-0.0278,0.8652,-6.7,7.98,-0.05,29.75
4882,0.3278,-0.0247,0.8687,-6.67,7.95,0.0,29.73
4892,0.3258,-0.024,0.8646,-6.73,7.98,-0.05,29.71
4902,0.3292,-0.0265,0.8665,-6.78,7.94,-0.06,29.72
4912,0.3286,-0.0255,0.8646,-6.7,7.98,-0.02,29.71
4922,0.3251,-0.0254,0.8651,-6.66,7.92,-0.03,29.72
4932,0.3275,-0.0253,0.8629,-6.73,7.98,-0.08,29.73
4942,0.3291,-0.0239,0.8649,-6.67,7.94,0.03,29.72
4952,0.3258,-0.0266,0.8619,-6.75,8.0,-0.02,29.73
4962,0.3259,-0.0255,0.8647,-6.7,7.94,-0.03,29.71
4972,0.3278,-0.0233,0.8687,-6.72,7.95,-0.03,29.74
4982,0.3287,-0.0255,0.863,-6.76,8.02,-0.02,29.76
4992,0.329,-0.0267,0.8662,-6.69,7.97,-0.05,29.7
5002,0.327,-0.0231,0.8646,-6.78,8.02,0.0,29.73
5012,0.3275,-0.0231,0.8652,-6.7,7.95,-0.03,29.72
5022,0.3304,-0.0259,0.8712,-6.73,8.03,-0.02,29.74
5032,0.3276,-0.0264,0.8643,-6.7,7.94,0.02,29.72
5042,0.3279,-0.0249,0.8674,-6.7,7.92,-0.02,29.72
5052,0.328,-0.0267,0.8646,-6.73,7.88,-0.09,29.73
5062,0.3309,-0.0254,0.8629,-6.7,7.94,-0.05,29.72
5072,0.3274,-0.0243,0.8641,-6.78,7.98,0.0,29.74
5082,0.3271,-0.0244,0.8651,-6.72,8.02,-0.05,29.75
5092,0.327,-0.0231,0.8613,-6.72,7.98,0.03,29.72
5102,0.3285,-0.0247,0.8661,-6.73,8.0,-0.08,29.76
5112,0.3278,-0.0271,0.8644,-6.73,8.03,-0.02,29.74
5123,0.3297,-0.0276,0.8618,-6.78,8.02,-0.08,29.73
5133,0.3268,-0.0244,0.8629,-6.79,8.02,-0.05,29.73
5143,0.3295,-0.0261,0.8663,-6.72,7.94,-0.02,29.74
5153,0.3282,-0.0284,0.8607,-6.81,8.0,-0.09,29.72
5163,0.3257,-0.0249,0.8635,-6.79,7.92,0.0,29.72
5173,0.3287,-0.0245,0.8627,-6.78,7.98,0.05,29.73
5183,0.3273,-0.025,0.8616,-6.69,7.94,-0.02,29.72
5193,0.3271,-0.0245,0.863,-6.75,7.94,-0.05,29.73
5203,0.328,-0.0271,0.8687,-6.67,7.98,-0.12,29.75
5213,0.3275,-0.0256,0.861,-6.73,8.0,-0.05,29.72
5223,0.3262,-0.028,0.8643,-6.69,8.02,0.03,29.73
5233,0.3275,-0.0288,0.8657,-6.72,7.95,0.0,29.73
5243,0.3267,-0.0251,0.8679,-6.69,7.95,-0.02,29.72
5253,0.3252,-0.0239,0.8638,-6.7,7.91,-0.05,29.74
5263,0.329,-0.0272,0.8667,-6.72,7.95,-0.05,29.76
5273,0.328,-0.0261,0.8663,-6.64,8.02,-0.03,29.73
5283,0.3276,-0.0249,0.864,-6.72,7.98,-0.06,29.72
5293,0.3293,-0.0248,0.8667,-6.76,7.97,-0.14,29.74
5303,0.3303,-0.024,0.8667,-6.66,8.02,-0.06,29.72
5313,0.3263,-0.0256,0.8615,-6.64,7.92,-0.05,29.74
5323,0.3279,-0.0214,0.863,-6.78,7.89,0.0,29.75
5333,0.328,-0.0281,0.8639,-6.69,7.95,-0.11,29.75
5343,0.3259,-0.026,0.8654,-6.7,7.97,-0.08,29.73
5353,0.3265,-0.0236,0.8643,-6.76,8.02,0.02,29.74
5363,0.3312,-0.0265,0.8628,-6.69,8.05,-0.08,29.74
5373,0.3292,-0.0255,0.8632,-6.73,7.94,-0.06,29.74
5383,0.3271,-0.0267,0.8652,-6.81,7.89,-0.02,29.73
5393,0.3271,-0.0245,0.8663,-6.75,7.95,-0.14,29.75
5403,0.3293,-0.0271,0.865,-6.66,7.91,-0.03,29.73
5413,0.327,-0.025,0.8621,-6.66,7.92,-0.02,29.74
5423,0.3269,-0.0254,0.8655,-6.78,7.98,-0.03,29.75
5433,0.3311,-0.0249,0.8685,-6.76,7.94,-0.09,29.75
5443,0.3281,-0.0271,0.8658,-6.78,7.97,0.02,29.75
5453,0.3293,-0.0251,0.8645,-6.78,7.97,-0.05,29.75
5463,0.3276,-0.0243,0.8671,-6.75,7.95,-0.08,29.75
5473,0.3291,-0.0267,0.864,-6.79,7.91,-0.14,29.74
5483,0.3267,-0.0261,0.8676,-6.67,7.95,-0.09,29.74
5493,0.3286,-0.0258,0.8639,-6.7,7.95,-0.05,29.73
5503,0.3273,-0.0253,0.8672,-6.7,7.91,-0.06,29.76
5513,0.3276,-0.0233,0.8656,-6.72,7.94,-0.06,29.75
5523,0.3309,-0.0245,0.86,-6.72,7.98,0.03,29.76
5533,0.326,-0.025,0.8649,-6.78,8.02,-0.11,29.75
5543,0.3293,-0.0232,0.865,-6.73,7.98,-0.03,29.75
5553,0.327,-0.025,0.8641,-6.75,8.0,0.08,29.76
5563,0.3235,-0.0244,0.8649,-6.73,8.0,0.02,29.76
5573,0.3265,-0.0247,0.8657,-6.73,7.94,-0.08,29.76
5583,0.3242,-0.0239,0.86,-6.7,7.92,0.0,29.76
5593,0.328,-0.0251,0.8633,-6.81,7.95,-0.05,29.74
5603,0.3296,-0.0251,0.8613,-6.72,8.0,-0.06,29.72
5613,0.3282,-0.0245,0.8624,-6.75,7.97,-0.05,29.76
5623,0.3297,-0.0236,0.8632,-6.69,8.0,0.02,29.76
5633,0.3269,-0.0288,0.8636,-6.7,7.98,-0.02,29.77
5643,0.3271,-0.0232,0.861,-6.72,8.0,-0.11,29.75
5653,0.3257,-0.025,0.8663,-6.72,7.92,-0.03,29.77
5663,0.3289,-0.0239,0.8623,-6.76,8.02,-0.06,29.74
5673,0.3278,-0.0253,0.8633,-6.64,7.92,-0.06,29.76
5683,0.3301,-0.0225,0.8632,-6.73,7.91,-0.02,29.73
5693,0.3278,-0.0256,0.8649,-6.64,7.98,-0.06,29.75
5703,0.3276,-0.0247,0.8629,-6.67,7.94,-0.06,29.76
5713,0.3287,-0.0249,0.8667,-6.7,7.97,-0.05,29.78
5723,0.3254,-0.0243,0.8666,-6.79,7.98,0.0,29.78
5733,0.3285,-0.0249,0.8624,-6.73,7.97,-0.05,29.77
5743,0.3252,-0.0272,0.864,-6.76,8.03,-0.03,29.76
5753,0.3302,-0.0258,0.8668,-6.73,7.98,-0.02,29.78
5763,0.3308,-0.0242,0.8673,-6.73,7.92,-0.03,29.74
5773,0.3296,-0.0278,0.858,-6.69,8.03,-0.03,29.76
5783,0.3273,-0.0264,0.8629,-6.79,7.94,-0.08,29.77
5793,0.3251,-0.0253,0.8654,-6.72,7.95,-0.02,29.76
5803,0.3264,-0.0269,0.8665,-6.75,7.95,-0.03,29.77
5813,0.3284,-0.0232,0.8624,-6.69,7.92,-0.08,29.77
5823,0.3267,-0.0275,0.8661,-6.82,7.86,-0.08,29.77
5833,0.3275,-0.0264,0.8644,-6.73,7.95,-0.06,29.78
5843,0.3302,-0.0244,0.8645,-6.76,7.97,-0.06,29.76
5853,0.3287,-0.0261,0.8607,-6.73,8.06,-0.09,29.77
5863,0.3279,-0.0261,0.8633,-6.79,8.02,-0.11,29.77
5873,0.3297,-0.0249,0.864,-6.81,8.05,0.02,29.76
5883,0.3279,-0.0232,0.861,-6.69,7.95,-0.06,29.78
5893,0.3276,-0.0229,0.865,-6.79,7.95,-0.06,29.76
5903,0.3287,-0.0249,0.8685,-6.76,8.0,-0.06,29.77
5913,0.3282,-0.0245,0.8658,-6.72,7.95,0.0,29.78
5923,0.3286,-0.0239,0.8671,-6.73,7.94,-0.06,29.78
5933,0.3292,-0.0261,0.8638,-6.79,7.97,-0.05,29.77
5943,0.3291,-0.0256,0.8644,-6.7,8.0,-0.05,29.76
5953,0.3295,-0.0243,0.8661,-6.69,7.92,-0.06,29.79
5963,0.3285,-0.0262,0.8656,-6.76,7.95,-0.02,29.79
5973,0.3287,-0.0254,0.8657,-6.73,8.02,-0.11,29.76
5983,0.3278,-0.0247,0.8668,-6.7,8.02,-0.02,29.77
5993,0.3279,-0.0267,0.8643,-6.73,7.91,-0.06,29.77
6003,0.3286,-0.0271,0.8662,-6.75,7.95,-0.08,29.77
6013,0.3287,-0.0251,0.8682,-6.72,7.92,-0.03,29.79
6023,0.3286,-0.024,0.8641,-6.69,8.0,-0.03,29.77
6033,0.3265,-0.0248,0.86,-6.73,7.98,0.02,29.77
6043,0.327,-0.0243,0.8621,-6.76,8.0,-0.06,29.77
6053,0.3251,-0.0232,0.8674,-6.81,8.06,-0.02,29.76
6063,0.3221,-0.0258,0.8662,-6.67,7.98,-0.08,29.79
6073,0.3295,-0.0251,0.8646,-6.67,7.92,-0.06,29.77
6083,0.3281,-0.0265,0.8641,-6.72,8.0,-0.05,29.78
6093,0.3291,-0.0276,0.8644,-6.7,7.97,-0.02,29.77
6103,0.3281,-0.0233,0.8634,-6.73,8.0,0.0,29.76
6113,0.3298,-0.025,0.8654,-6.78,7.95,-0.08,29.77
6123,0.3267,-0.0271,0.863,-6.7,7.98,-0.08,29.8
6133,0.3267,-0.0261,0.8635,-6.78,7.98,-0.09,29.79
6143,0.3308,-0.0239,0.8629,-6.69,7.94,-0.09,29.78
6153,0.3304,-0.0264,0.8644,-6.78,7.94,-0.08,29.77
6163,0.3276,-0.0266,0.8649,-6.72,7.97,0.03,29.77
6173,0.3279,-0.0254,0.8643,-6.67,7.98,-0.03,29.79
6183,0.3257,-0.0239,0.868,-6.81,7.97,-0.05,29.79
6193,0.3291,-0.0262,0.8655,-6.73,7.94,-0.02,29.79
6203,0.3293,-0.0249,0.8645,-6.75,8.02,-0.03,29.79
6213,0.329,-0.027,0.8668,-6.7,7.98,-0.06,29.79
6223,0.3279,-0.0245,0.8622,-6.81,7.94,-0.11,29.78
6233,0.3292,-0.025,0.864,-6.75,7.91,-0.08,29.77
6243,0.3264,-0.0234,0.8646,-6.72,7.94,-0.05,29.76
6253,0.3295,-0.026,0.866,-6.79,7.89,0.03,29.78
6263,0.3275,-0.0251,0.8638,-6.73,7.94,-0.02,29.79
6273,0.3306,-0.0261,0.8651,-6.7,7.98,-0.08,29.78
6283,0.3284,-0.0265,0.8618,-6.7,7.92,-0.11,29.79
6293,0.3254,-0.0253,0.864,-6.69,7.94,-0.02,29.77
6303,0.328,-0.0223,0.8649,-6.76,8.0,-0.03,29.8
6313,0.329,-0.0248,0.8623,-6.72,8.02,-0.06,29.79
6323,0.3287,-0.0256,0.8633,-6.75,7.94,-0.06,29.8
6333,0.3279,-0.0267,0.8644,-6.7,7.97,-0.03,29.78
6343,0.327,-0.0244,0.8597,-6.75,7.97,-0.06,29.8
6353,0.3295,-0.0228,0.8641,-6.73,7.95,-0.05,29.79
6363,0.3279,-0.0229,0.8632,-6.76,7.98,-0.08,29.8
6373,0.3284,-0.0248,0.8586,-6.69,7.97,-0.05,29.79
6383,0.3273,-0.0277,0.8605,-6.76,7.94,-0.06,29.78
6393,0.326,-0.0244,0.8633,-6.78,8.03,-0.08,29.79
6403,0.33,-0.0242,0.8622,-6.76,7.95,0.02,29.77
6413,0.33,-0.0261,0.8628,-6.69,7.98,-0.08,29.81
6423,0.3282,-0.0225,0.8623,-6.79,7.91,-0.03,29.79
6433,0.3281,-0.0269,0.865,-6.81,7.94,-0.05,29.81
6450,0.3307,-0.0259,0.8639,-6.67,8.02,0.08,29.82
6460,0.3329,-0.0259,0.8624,-6.78,7.82,-0.03,29.81
6470,0.3295,-0.0233,0.8661,-6.72,8.03,-0.06,29.79
6480,0.329,-0.0267,0.8611,-6.69,8.02,-0.05,29.78
6490,0.3279,-0.0254,0.8632,-6.66,7.97,-0.05,29.78
6500,0.3262,-0.0256,0.8638,-6.69,7.98,0.02,29.83
6510,0.3278,-0.027,0.8668,-6.7,7.95,-0.02,29.82
6520,0.3274,-0.0233,0.8641,-6.75,7.95,-0.06,29.79
6530,0.3264,-0.0264,0.8665,-6.79,7.95,-0.11,29.81
6540,0.327,-0.0249,0.8629,-6.76,7.89,-0.05,29.78
6550,0.3289,-0.021,0.8674,-6.69,8.02,0.02,29.81
6560,0.3281,-0.0223,0.8638,-6.69,8.03,-0.02,29.8
6570,0.3298,-0.0238,0.8661,-6.7,7.95,-0.03,29.79
6580,0.3298,-0.0292,0.8611,-6.76,7.94,-0.08,29.79
6590,0.3281,-0.0255,0.8635,-6.7,7.95,-0.03,29.79
6600,0.3265,-0.0259,0.8669,-6.73,7.95,-0.02,29.79
6610,0.3282,-0.0262,0.8636,-6.76,7.89,0.0,29.81
6620,0.329,-0.0251,0.8634,-6.69,7.98,-0.03,29.82
6630,0.3293,-0.0232,0.8647,-6.69,8.0,-0.02,29.83
6640,0.3267,-0.0245,0.8682,-6.75,7.98,-0.06,29.79
6650,0.3254,-0.0258,0.866,-6.73,7.97,-0.03,29.81
6660,0.3259,-0.0247,0.8647,-6.66,8.0,0.0,29.79
6670,0.327,-0.0244,0.8663,-6.72,8.0,-0.08,29.8
6680,0.3274,-0.0251,0.8619,-6.72,7.95,-0.03,29.8
6690,0.3259,-0.0258,0.86,-6.67,7.98,-0.09,29.79
6700,0.3276,-0.024,0.8644,-6.81,7.94,-0.03,29.79
6710,0.3247,-0.0265,0.8665,-6.82,7.95,-0.03,29.78
6720,0.3292,-0.0258,0.8651,-6.69,7.95,0.03,29.8
6730,0.3291,-0.0262,0.8687,-6.81,7.88,-0.11,29.79
6740,0.3251,-0.0273,0.8696,-6.75,7.92,-0.03,29.79
6750,0.3287,-0.0258,0.8641,-6.72,7.94,-0.08,29.8
6760,0.3265,-0.025,0.8615,-6.76,7.94,-0.09,29.81
6770,0.3269,-0.0243,0.8619,-6.69,8.02,-0.06,29.81
6780,0.3264,-0.0269,0.8673,-6.75,7.98,-0.06,29.8
6790,0.3269,-0.026,0.8654,-6.66,7.98,-0.06,29.8
6800,0.3296,-0.0236,0.8656,-6.72,7.97,-0.02,29.81
6810,0.3282,-0.0236,0.8683,-6.7,8.06,-0.06,29.81
6820,0.3264,-0.0238,0.8672,-6.73,8.03,-0.03,29.79
6830,0.3278,-0.0264,0.8685,-6.76,7.98,-0.11,29.79
6841,0.3271,-0.0248,0.8658,-6.73,7.89,-0.05,29.83
6851,0.3295,-0.028,0.8645,-6.73,7.95,0.02,29.81
6861,0.3297,-0.0264,0.8667,-6.76,7.94,-0.03,29.8
6871,0.3293,-0.0277,0.8643,-6.72,8.0,0.0,29.82
6881,0.3262,-0.0238,0.8655,-6.7,7.95,0.06,29.8
6891,0.3264,-0.0284,0.8639,-6.7,7.95,-0.03,29.83
6901,0.3301,-0.027,0.8636,-6.81,7.97,-0.08,29.8
6911,0.3291,-0.0247,0.8632,-6.75,7.91,0.0,29.83
6921,0.3282,-0.0271,0.8661,-6.72,7.95,-0.06,29.82
6931,0.3291,-0.0249,0.8663,-6.73,7.92,-0.02,29.79
6941,0.3287,-0.0265,0.865,-6.72,7.91,-0.08,29.81
6951,0.3268,-0.0228,0.8625,-6.69,7.98,-0.02,29.81
6961,0.3285,-0.0255,0.8645,-6.76,7.95,-0.08,29.8
6971,0.3284,-0.0258,0.865,-6.72,7.89,-0.09,29.81
6981,0.3279,-0.0239,0.8656,-6.72,7.98,-0.03,29.81
6991,0.3263,-0.0245,0.8632,-6.73,7.97,0.0,29.82
7001,0.3267,-0.0261,0.865,-6.76,7.98,0.03,29.82
7011,0.3248,-0.0262,0.8644,-6.76,8.05,-0.06,29.82
7021,0.3265,-0.0266,0.864,-6.73,7.97,0.0,29.81
7031,0.3242,-0.0266,0.8636,-6.78,7.95,-0.09,29.83
7041,0.3281,-0.0232,0.8632,-6.7,7.95,-0.11,29.81
7051,0.3303,-0.0228,0.8647,-6.79,7.95,-0.08,29.84
7061,0.3278,-0.0225,0.8641,-6.75,7.97,-0.05,29.83
7071,0.3269,-0.0262,0.8638,-6.72,7.94,-0.06,29.82
7081,0.3282,-0.0287,0.8644,-6.7,7.91,-0.03,29.82
7091,0.3271,-0.027,0.8655,-6.79,7.94,-0.05,29.82
7101,0.3285,-0.0258,0.8655,-6.72,7.88,-0.05,29.82
7111,0.3315,-0.0244,0.8658,-6.69,7.94,-0.03,29.79
7121,0.3276,-0.0238,0.8625,-6.72,8.02,-0.11,29.8
7131,0.3284,-0.0284,0.865,-6.72,7.98,-0.08,29.81
7141,0.3285,-0.0259,0.8627,-6.73,7.97,-0.09,29.84
7151,0.3279,-0.0283,0.8657,-6.73,7.88,0.0,29.81
7162,0.3271,-0.0265,0.863,-6.72,7.92,-0.03,29.83
7172,0.3254,-0.0256,0.865,-6.67,8.05,0.02,29.82
7182,0.3297,-0.025,0.8651,-6.73,7.89,-0.02,29.82
7192,0.3282,-0.0265,0.8661,-6.69,7.95,-0.05,29.82
7202,0.3287,-0.0265,0.8622,-6.72,8.02,-0.05,29.81
7212,0.3259,-0.0282,0.8629,-6.75,8.03,-0.11,29.83
7222,0.3291,-0.0236,0.8667,-6.76,7.97,-0.05,29.82
7232,0.33,-0.0281,0.8651,-6.7,8.03,-0.06,29.83
7242,0.3295,-0.0238,0.8647,-6.73,7.91,-0.03,29.8
7252,0.3253,-0.028,0.8673,-6.75,7.92,-0.05,29.82
7262,0.3285,-0.026,0.8657,-6.69,7.98,0.0,29.83
7272,0.3264,-0.0253,0.8652,-6.73,7.98,0.03,29.84
7282,0.3269,-0.0262,0.8625,-6.67,7.98,-0.05,29.8
7292,0.3271,-0.0229,0.8655,-6.75,8.02,0.05,29.83
7302,0.3293,-0.0247,0.8654,-6.76,7.98,-0.06,29.83
7312,0.328,-0.0258,0.8623,-6.75,7.98,-0.06,29.82
7322,0.3268,-0.0255,0.8676,-6.75,7.94,-0.11,29.84
7332,0.3263,-0.0254,0.8644,-6.76,7.95,-0.09,29.85
7342,0.3278,-0.0269,0.8632,-6.72,7.98,-0.11,29.81
7352,0.3279,-0.0253,0.8636,-6.72,7.98,-0.05,29.82
7362,0.3263,-0.0254,0.8666,-6.75,7.95,0.0,29.82
7372,0.3276,-0.0248,0.8671,-6.7,8.02,-0.02,29.84
7382,0.3246,-0.0251,0.8655,-6.72,7.94,-0.05,29.82
7392,0.329,-0.0264,0.8619,-6.7,7.98,-0.09,29.81
7402,0.3268,-0.024,0.8661,-6.73,8.0,-0.08,29.82
7412,0.328,-0.0267,0.8662,-6.67,7.98,-0.02,29.83
7422,0.327,-0.0231,0.8634,-6.69,7.95,-0.03,29.82
7432,0.3279,-0.0244,0.8641,-6.7,7.98,-0.03,29.83
7442,0.3262,-0.025,0.8671,-6.67,8.03,-0.02,29.81
7452,0.3306,-0.0264,0.8643,-6.66,7.97,0.0,29.82
7462,0.3274,-0.0269,0.8687,-6.66,7.95,-0.09,29.82
7472,0.3243,-0.0259,0.8643,-6.7,8.0,-0.15,29.84
7482,0.3301,-0.0238,0.8632,-6.7,7.94,0.05,29.82
7492,0.3295,-0.0236,0.8616,-6.7,7.88,-0.08,29.82
7502,0.3284,-0.0266,0.8656,-6.75,7.98,-0.09,29.85
7512,0.3285,-0.0272,0.8622,-6.75,8.06,-0.05,29.83
7522,0.3275,-0.0254,0.8667,-6.76,8.0,-0.11,29.82
7532,0.3269,-0.0253,0.8601,-6.73,7.92,-0.05,29.84
7543,0.3271,-0.0238,0.8606,-6.7,7.94,-0.05,29.81
7553,0.3254,-0.0259,0.8646,-6.72,7.92,-0.05,29.83
7563,0.3273,-0.0253,0.8684,-6.72,7.94,-0.08,29.82
7573,0.3268,-0.0251,0.865,-6.64,7.91,-0.08,29.83
7583,0.3284,-0.0237,0.8638,-6.7,7.97,-0.09,29.83
7593,0.326,-0.0259,0.8656,-6.75,7.98,-0.09,29.82
7603,0.3274,-0.0264,0.8644,-6.75,8.0,-0.06,29.84
7613,0.3275,-0.0228,0.8652,-6.73,7.95,-0.09,29.83
7623,0.3262,-0.0256,0.8694,-6.81,7.92,-0.03,29.82
7633,0.329,-0.0284,0.8658,-6.75,7.95,-0.03,29.82
7643,0.3306,-0.0233,0.8619,-6.7,7.92,-0.06,29.83
7653,0.3267,-0.0239,0.8641,-6.7,7.98,-0.06,29.83
7663,0.3265,-0.0245,0.8628,-6.7,7.95,0.0,29.84
7674,0.3269,-0.0245,0.8647,-6.78,7.95,0.0,29.85
7684,0.3279,-0.0258,0.8665,-6.7,8.0,0.0,29.83
7694,0.3284,-0.0276,0.8611,-6.75,7.97,0.0,29.85
7704,0.3274,-0.0261,0.8635,-6.7,8.0,-0.06,29.82
7714,0.3286,-0.0259,0.8641,-6.73,7.98,-0.03,29.84
7724,0.3271,-0.0239,0.8666,-6.78,7.97,-0.09,29.83
7734,0.3291,-0.024,0.8674,-6.75,8.0,-0.06,29.83
7744,0.3251,-0.0242,0.8666,-6.73,7.94,-0.02,29.85
7754,0.3268,-0.0242,0.8661,-6.72,7.92,-0.02,29.84
7764,0.3282,-0.0281,0.8607,-6.79,7.95,-0.06,29.84
7774,0.3269,-0.0255,0.8619,-6.79,7.98,-0.03,29.83
7784,0.3268,-0.0236,0.8633,-6.75,7.94,-0.02,29.83
7795,0.3286,-0.0261,0.8623,-6.73,8.02,0.0,29.83
7805,0.3303,-0.0227,0.8651,-6.79,7.97,-0.08,29.83
7815,0.3296,-0.0258,0.8629,-6.76,8.03,-0.08,29.86
7825,0.3256,-0.0282,0.8616,-6.72,7.98,-0.11,29.83
7835,0.326,-0.026,0.8649,-6.75,7.97,0.03,29.83
7845,0.3271,-0.0245,0.8658,-6.73,7.92,-0.06,29.86
7855,0.3309,-0.0233,0.8647,-6.7,7.98,-0.02,29.84
7865,0.3293,-0.0266,0.8667,-6.72,8.02,-0.06,29.82
7875,0.3312,-0.0265,0.8665,-6.66,8.03,-0.08,29.83
7885,0.3231,-0.0242,0.8629,-6.73,8.02,-0.05,29.84
7895,0.3281,-0.026,0.8644,-6.69,7.97,-0.08,29.8
7905,0.3287,-0.0253,0.8651,-6.7,7.92,0.0,29.85
7915,0.3264,-0.0269,0.8643,-6.75,7.95,-0.05,29.84
7925,0.3307,-0.025,0.8628,-6.75,7.91,-0.11,29.84
7935,0.3293,-0.0243,0.8608,-6.76,8.0,-0.08,29.85
7945,0.3292,-0.0243,0.8636,-6.76,7.92,-0.05,29.84
7955,0.3278,-0.0286,0.864,-6.76,8.0,-0.08,29.84
7965,0.3297,-0.027,0.8689,-6.79,7.94,-0.11,29.84
7975,0.3296,-0.0231,0.8695,-6.76,7.89,-0.02,29.84
7985,0.3269,-0.0258,0.8652,-6.7,7.95,0.0,29.85
7995,0.3293,-0.0271,0.8667,-6.78,7.94,-0.03,29.86
8005,0.3297,-0.0249,0.8628,-6.78,7.91,0.03,29.86
8015,0.3285,-0.0262,0.8649,-6.75,7.98,0.0,29.86
8025,0.3274,-0.0273,0.8684,-6.76,7.97,-0.09,29.84
8035,0.3275,-0.0273,0.8613,-6.73,7.97,-0.06,29.85
8045,0.326,-0.0221,0.8678,-6.76,7.97,-0.08,29.86
8055,0.3271,-0.0239,0.8621,-6.75,7.98,-0.08,29.83
8065,0.327,-0.027,0.8656,-6.72,7.92,-0.05,29.85
8075,0.3262,-0.0258,0.8641,-6.84,8.02,-0.02,29.84
8085,0.3257,-0.0269,0.864,-6.79,8.0,-0.12,29.86
8095,0.3275,-0.0255,0.8666,-6.72,7.98,-0.12,29.86
8105,0.3285,-0.0265,0.8634,-6.7,8.06,-0.08,29.86
8115,0.3303,-0.0239,0.8665,-6.67,7.94,-0.03,29.84
8125,0.3276,-0.022,0.8635,-6.67,8.02,-0.09,29.86
8135,0.328,-0.0249,0.8621,-6.84,7.91,-0.03,29.84
8145,0.3291,-0.0267,0.8665,-6.72,7.88,-0.05,29.83
8155,0.3279,-0.0253,0.8672,-6.75,7.91,-0.06,29.84
8165,0.3267,-0.028,0.8636,-6.72,7.91,-0.05,29.84
8175,0.3273,-0.0271,0.863,-6.67,7.95,-0.11,29.85
8185,0.3269,-0.0247,0.8599,-6.76,7.92,-0.03,29.85
8195,0.326,-0.024,0.8639,-6.75,7.92,-0.02,29.87
8205,0.3298,-0.0254,0.8607,-6.72,7.97,0.03,29.88
8215,0.3298,-0.0275,0.8658,-6.7,8.0,-0.06,29.86
8225,0.3291,-0.0254,0.8658,-6.7,7.98,-0.06,29.84
8235,0.3304,-0.0238,0.8638,-6.69,8.0,-0.05,29.88
8245,0.3258,-0.0259,0.8622,-6.78,8.02,-0.06,29.86
8255,0.3293,-0.026,0.8636,-6.78,7.94,-0.09,29.87
8265,0.3292,-0.0261,0.8665,-6.73,8.02,-0.02,29.86
8275,0.3284,-0.0245,0.8602,-6.66,7.97,-0.02,29.85
8285,0.3282,-0.025,0.8662,-6.73,7.97,0.02,29.87
8295,0.3297,-0.0261,0.8685,-6.72,7.95,-0.03,29.85
8305,0.3285,-0.0283,0.8674,-6.76,8.0,-0.09,29.87
8315,0.3279,-0.0262,0.8623,-6.76,8.02,-0.03,29.86
8325,0.3271,-0.0258,0.8654,-6.81,8.0,0.0,29.86
8335,0.3252,-0.0282,0.8624,-6.76,7.94,-0.06,29.84
8345,0.3275,-0.0264,0.8669,-6.69,7.98,-0.08,29.86
8355,0.3293,-0.0258,0.8644,-6.72,7.98,0.0,29.84
8365,0.3268,-0.0258,0.8654,-6.72,8.0,-0.08,29.85
8376,0.327,-0.0237,0.8625,-6.73,7.98,-0.05,29.85
8386,0.3275,-0.028,0.8647,-6.63,7.92,-0.03,29.86
8396,0.3236,-0.0259,0.8662,-6.7,7.95,-0.03,29.85
8406,0.329,-0.0258,0.8641,-6.72,7.98,-0.03,29.84
8416,0.3268,-0.0277,0.8655,-6.76,7.95,-0.06,29.84
8426,0.3291,-0.0249,0.866,-6.72,7.97,0.02,29.88
8436,0.3259,-0.0256,0.8658,-6.69,7.89,-0.11,29.85
8446,0.3298,-0.0222,0.8672,-6.66,7.98,-0.09,29.84
8456,0.3323,-0.0262,0.8661,-6.73,7.91,-0.08,29.87
8466,0.329,-0.0254,0.8638,-6.67,7.98,-0.05,29.87
8476,0.328,-0.0237,0.8649,-6.76,8.0,-0.08,29.85
8486,0.3312,-0.026,0.8669,-6.75,7.98,-0.08,29.84
8496,0.3284,-0.0255,0.8625,-6.76,8.05,-0.08,29.87
8506,0.327,-0.0271,0.8641,-6.67,7.95,-0.06,29.85
8516,0.33,-0.0256,0.8654,-6.78,7.94,-0.05,29.86
8526,0.3243,-0.0283,0.8632,-6.87,7.94,-0.11,29.89
8536,0.3278,-0.0275,0.8623,-6.82,7.95,-0.06,29.89
8546,0.3281,-0.0276,0.8682,-6.69,7.97,-0.08,29.86
8556,0.3279,-0.0249,0.8643,-6.76,7.97,0.0,29.86
8566,0.3278,-0.0248,0.8647,-6.73,7.89,-0.02,29.86
8576,0.3291,-0.027,0.8639,-6.78,7.97,-0.05,29.87
8586,0.3318,-0.0234,0.8661,-6.66,7.97,-0.03,29.86
8596,0.3291,-0.027,0.8622,-6.73,8.0,-0.14,29.84
8606,0.3289,-0.0267,0.8658,-6.67,7.97,0.0,29.83
8616,0.3279,-0.0255,0.8662,-6.73,7.95,-0.02,29.86
8626,0.3267,-0.0255,0.8633,-6.76,7.97,-0.08,29.86
8636,0.3315,-0.0269,0.8624,-6.73,7.92,-0.06,29.85
8646,0.3285,-0.0276,0.8685,-6.78,7.94,-0.02,29.87
8656,0.3286,-0.0249,0.8672,-6.79,7.94,-0.06,29.87
8666,0.3286,-0.0255,0.8654,-6.75,7.97,-0.05,29.85
8676,0.326,-0.0253,0.8671,-6.79,7.98,-0.11,29.85
8686,0.329,-0.0269,0.8647,-6.81,7.97,0.02,29.85
8696,0.3273,-0.0262,0.8679,-6.7,7.95,-0.02,29.88
8706,0.3264,-0.0238,0.8663,-6.81,7.95,-0.08,29.86
8716,0.33,-0.0267,0.8633,-6.82,7.95,-0.06,29.86
8726,0.3279,-0.024,0.8634,-6.75,7.95,0.0,29.87
8736,0.327,-0.0286,0.8625,-6.75,8.0,-0.06,29.84
8746,0.3304,-0.0255,0.8635,-6.73,7.95,-0.02,29.83
8756,0.3271,-0.0272,0.8663,-6.78,7.89,-0.06,29.86
8766,0.3285,-0.0251,0.8641,-6.67,7.88,-0.02,29.88
8776,0.3264,-0.0239,0.8635,-6.72,7.98,-0.02,29.87
8786,0.3256,-0.026,0.8627,-6.76,7.89,-0.14,29.84
8796,0.3274,-0.0255,0.8634,-6.75,7.98,-0.05,29.85
8806,0.3274,-0.024,0.8641,-6.76,7.94,-0.09,29.88
8816,0.3298,-0.0282,0.8656,-6.73,8.0,0.0,29.87
8826,0.3313,-0.0266,0.8645,-6.73,7.92,-0.08,29.87
8836,0.3306,-0.0267,0.8619,-6.67,8.02,-0.05,29.88
8846,0.3297,-0.0286,0.8638,-6.7,7.97,-0.06,29.86
8856,0.3298,-0.0247,0.8666,-6.76,7.95,-0.02,29.87
8866,0.3296,-0.0244,0.8635,-6.79,7.98,0.0,29.86
8876,0.3273,-0.0262,0.8636,-6.7,7.91,-0.06,29.89
8887,0.3287,-0.0245,0.8683,-6.73,7.97,-0.03,29.89
8897,0.3278,-0.0287,0.8657,-6.76,7.97,-0.08,29.89
8907,0.3262,-0.0264,0.8683,-6.66,7.94,-0.08,29.88
8919,0.3275,-0.0259,0.8644,-6.76,8.0,-0.05,29.87
8929,0.3262,-0.0264,0.8632,-6.73,7.97,-0.08,29.86
8939,0.3263,-0.0237,0.8624,-6.67,8.02,-0.09,29.86
8949,0.3279,-0.0247,0.8652,-6.79,8.0,0.03,29.84
8959,0.3267,-0.0258,0.8646,-6.78,7.95,0.02,29.84
8969,0.3285,-0.0258,0.8632,-6.79,7.91,-0.03,29.85
8979,0.3296,-0.0227,0.8621,-6.76,7.91,-0.02,29.88
8989,0.3269,-0.0233,0.861,-6.76,7.94,0.05,29.84
8999,0.3275,-0.0238,0.8621,-6.73,7.97,-0.03,29.87
9009,0.3282,-0.0256,0.8656,-6.72,8.02,0.0,29.86
9020,0.3285,-0.0243,0.8654,-6.79,7.98,-0.03,29.89
9030,0.3276,-0.024,0.8667,-6.78,7.98,-0.06,29.87
9040,0.3289,-0.0247,0.8636,-6.69,7.97,0.02,29.87
9050,0.3271,-0.0256,0.8677,-6.73,8.02,-0.09,29.85
9060,0.3281,-0.0255,0.8649,-6.75,8.02,-0.09,29.86
9070,0.3262,-0.0283,0.8669,-6.81,7.97,-0.08,29.85
9080,0.3281,-0.0255,0.8618,-6.76,7.88,-0.09,29.89
9090,0.3309,-0.0249,0.8615,-6.78,7.95,-0.08,29.87
9100,0.3329,-0.0251,0.8635,-6.73,7.88,0.02,29.85
9110,0.3306,-0.0245,0.8633,-6.75,7.89,-0.06,29.85
9120,0.3281,-0.0264,0.861,-6.72,7.95,-0.06,29.84
9130,0.3278,-0.0267,0.8619,-6.67,7.97,-0.05,29.88
9140,0.328,-0.0266,0.866,-6.69,8.0,-0.06,29.85
9150,0.3258,-0.0258,0.8643,-6.75,7.98,0.02,29.87
9160,0.3251,-0.0248,0.8655,-6.79,7.98,-0.11,29.85
9170,0.3284,-0.0244,0.859,-6.76,7.94,-0.11,29.88
9180,0.3291,-0.0242,0.8668,-6.76,8.09,0.02,29.87
9190,0.3289,-0.0255,0.8657,-6.82,8.0,-0.05,29.87
9200,0.3258,-0.028,0.8655,-6.72,7.92,-0.03,29.88
9210,0.328,-0.0243,0.8641,-6.79,7.94,-0.03,29.86
9220,0.3293,-0.0234,0.8623,-6.7,7.95,-0.08,29.88
9230,0.3296,-0.0266,0.8669,-6.78,7.94,0.02,29.87
9240,0.3254,-0.0258,0.8635,-6.79,7.89,0.0,29.89
9250,0.3262,-0.0233,0.8633,-6.67,8.0,-0.06,29.87
9261,0.3274,-0.0234,0.8646,-6.66,7.91,-0.03,29.89
9271,0.3296,-0.0238,0.8671,-6.73,7.92,0.03,29.91
9281,0.329,-0.027,0.8635,-6.75,7.98,-0.09,29.88
9294,0.3297,-0.0275,0.8665,-6.73,7.94,-0.12,29.9
9304,0.3286,-0.0282,0.8605,-6.73,7.98,-0.02,29.87
9314,0.3271,-0.027,0.8611,-6.7,7.94,-0.08,29.87
9324,0.327,-0.0249,0.8643,-6.72,7.94,-0.06,29.88
9334,0.3282,-0.025,0.8666,-6.7,7.98,0.0,29.88
9344,0.3259,-0.0243,0.8661,-6.72,7.98,0.0,29.88
9354,0.3267,-0.0253,0.8665,-6.73,7.98,-0.03,29.87
9364,0.3241,-0.0254,0.8662,-6.63,7.97,0.05,29.87
9374,0.3252,-0.0254,0.8661,-6.73,7.94,-0.03,29.88
9384,0.3293,-0.0229,0.8671,-6.78,8.03,-0.03,29.86
9394,0.3284,-0.026,0.8685,-6.76,7.95,-0.08,29.87
9404,0.3278,-0.0259,0.8645,-6.69,7.92,-0.05,29.87
9415,0.3274,-0.0249,0.8641,-6.78,8.0,-0.02,29.86
9425,0.3254,-0.0245,0.8652,-6.78,8.06,-0.08,29.86
9435,0.3276,-0.0282,0.866,-6.76,7.97,0.0,29.87
9445,0.328,-0.0234,0.8655,-6.84,7.94,0.02,29.89
9455,0.3281,-0.0255,0.8633,-6.69,7.97,-0.09,29.89
9465,0.327,-0.0238,0.8632,-6.72,7.97,-0.12,29.88
9475,0.3303,-0.0256,0.8616,-6.7,8.0,-0.06,29.89
9485,0.3285,-0.0259,0.863,-6.73,7.92,-0.06,29.9
9495,0.3274,-0.0239,0.8633,-6.7,8.02,-0.03,29.88
9505,0.329,-0.0255,0.8635,-6.75,7.98,0.03,29.9
9515,0.3259,-0.0261,0.8643,-6.78,7.94,0.06,29.89
9525,0.3284,-0.0242,0.8669,-6.76,7.88,-0.02,29.88
9535,0.326,-0.025,0.8636,-6.72,7.94,0.0,29.9
9545,0.3269,-0.0265,0.8666,-6.72,7.89,-0.03,29.86
9555,0.3287,-0.0269,0.8656,-6.76,8.05,-0.09,29.88
9565,0.3262,-0.0233,0.8665,-6.72,7.94,-0.11,29.88
9575,0.3279,-0.0266,0.8684,-6.82,7.95,-0.05,29.89
9585,0.3301,-0.03,0.8649,-6.7,7.91,-0.05,29.87
9595,0.3289,-0.0283,0.8596,-6.69,7.91,-0.05,29.91
9606,0.3297,-0.0269,0.8672,-6.78,8.0,-0.08,29.88
9616,0.3289,-0.0259,0.8689,-6.7,8.05,-0.03,29.88
9626,0.3256,-0.0229,0.8663,-6.75,7.95,-0.03,29.89
9636,0.3281,-0.0245,0.8663,-6.76,8.0,-0.08,29.88
9646,0.3314,-0.0248,0.8645,-6.81,7.92,-0.06,29.9
9656,0.3275,-0.0244,0.866,-6.85,8.03,-0.06,29.87
9666,0.334,-0.0278,0.8656,-6.79,7.98,0.0,29.9
9676,0.328,-0.0251,0.8641,-6.72,7.97,-0.03,29.91
9686,0.3239,-0.0247,0.8607,-6.79,7.89,-0.03,29.92
9696,0.3264,-0.0262,0.8621,-6.76,8.0,-0.02,29.88
9706,0.3274,-0.0258,0.8623,-6.7,8.02,-0.06,29.88
9716,0.329,-0.0238,0.8635,-6.73,7.91,-0.06,29.88
9726,0.3251,-0.027,0.8656,-6.73,8.0,-0.03,29.86
9736,0.3262,-0.0233,0.864,-6.76,8.0,-0.03,29.89
9746,0.3284,-0.0264,0.8649,-6.69,7.95,-0.11,29.89
9756,0.3282,-0.0239,0.8625,-6.66,7.95,-0.05,29.88
9766,0.3286,-0.0258,0.8691,-6.7,7.92,-0.03,29.87
9776,0.3273,-0.0234,0.8687,-6.67,7.95,-0.06,29.88
9786,0.3295,-0.0239,0.8646,-6.78,7.97,-0.06,29.89
9796,0.3276,-0.0248,0.8651,-6.78,7.94,-0.09,29.89
9806,0.3262,-0.0238,0.8644,-6.66,7.94,-0.09,29.86
9816,0.3303,-0.0262,0.8663,-6.81,7.95,0.0,29.89
9826,0.3262,-0.0273,0.863,-6.76,7.98,-0.03,29.91
9836,0.3293,-0.0244,0.8634,-6.76,7.95,-0.02,29.88
9846,0.3284,-0.0259,0.8671,-6.85,7.95,-0.05,29.87
9856,0.3282,-0.026,0.8651,-6.76,8.03,-0.05,29.86
9866,0.3286,-0.0233,0.8658,-6.79,7.97,-0.09,29.87
9876,0.3289,-0.0271,0.8636,-6.75,7.95,-0.06,29.9
9886,0.3257,-0.0217,0.8672,-6.73,7.94,-0.03,29.89
9896,0.3291,-0.0242,0.8663,-6.7,8.02,0.03,29.89
9906,0.3271,-0.0256,0.8613,-6.78,7.97,-0.03,29.91
9916,0.3285,-0.0265,0.866,-6.73,7.94,0.03,29.9
9926,0.3286,-0.025,0.8644,-6.67,7.98,-0.03,29.89
9936,0.3275,-0.0242,0.8633,-6.75,8.0,-0.03,29.91
9946,0.3298,-0.0244,0.8641,-6.69,7.97,0.0,29.89
9956,0.3287,-0.0234,0.8634,-6.73,7.95,-0.03,29.89
9966,0.3269,-0.0265,0.8654,-6.61,7.97,-0.06,29.88
9976,0.3263,-0.0249,0.8621,-6.72,7.92,-0.08,29.89
9986,0.3274,-0.0267,0.8655,-6.76,7.92,0.0,29.91
9996,0.327,-0.0249,0.8618,-6.76,7.88,-0.05,29.92
10006,0.3279,-0.0249,0.8646,-6.76,8.0,-0.02,29.91
10016,0.3263,-0.0269,0.8662,-6.73,7.97,-0.03,29.87
10026,0.3306,-0.0245,0.8651,-6.67,7.98,-0.09,29.9
10036,0.3292,-0.0269,0.8674,-6.73,7.91,-0.09,29.89
10046,0.3268,-0.0281,0.8674,-6.73,8.0,-0.03,29.9
10056,0.3274,-0.0276,0.8657,-6.79,7.98,-0.05,29.88
10066,0.329,-0.0258,0.8683,-6.73,8.05,-0.03,29.9
10076,0.3264,-0.0271,0.8646,-6.7,7.98,-0.02,29.92
10086,0.3273,-0.0261,0.863,-6.73,8.05,0.0,29.92
10096,0.327,-0.0247,0.8622,-6.69,7.97,-0.02,29.91
10106,0.3284,-0.0212,0.8688,-6.7,7.95,-0.06,29.93
10116,0.3282,-0.0251,0.8635,-6.73,7.95,-0.08,29.93
10126,0.3282,-0.0286,0.8655,-6.69,7.97,-0.09,29.92
10136,0.3265,-0.0267,0.8658,-6.66,8.0,-0.09,29.92
10146,0.3281,-0.0236,0.8706,-6.72,7.92,-0.09,29.94
10156,0.3291,-0.0264,0.8646,-6.67,7.94,-0.06,29.89
10166,0.3297,-0.0245,0.8608,-6.72,7.89,-0.05,29.92
10176,0.3273,-0.0282,0.8635,-6.75,7.95,-0.11,29.89
10186,0.3289,-0.0261,0.8628,-6.85,7.95,-0.05,29.92
10196,0.3252,-0.0272,0.8649,-6.73,7.98,0.0,29.92
10206,0.3302,-0.0242,0.864,-6.78,8.0,-0.02,29.93
10216,0.3284,-0.0238,0.8672,-6.69,7.95,0.0,29.9
10226,0.3292,-0.0242,0.8655,-6.69,8.05,-0.05,29.91
10236,0.3298,-0.0249,0.8629,-6.7,8.0,-0.11,29.91
10246,0.3267,-0.0243,0.8618,-6.76,8.0,-0.03,29.9
10256,0.3269,-0.025,0.8607,-6.75,7.94,-0.03,29.91
10266,0.3286,-0.0259,0.8669,-6.72,7.98,0.02,29.91
10276,0.3246,-0.0269,0.8663,-6.72,7.95,0.02,29.9
10287,0.3275,-0.026,0.8662,-6.67,7.91,-0.11,29.9
10297,0.3263,-0.0259,0.8629,-6.79,7.91,-0.08,29.93
10307,0.328,-0.0265,0.865,-6.76,7.92,-0.02,29.94
10320,0.3297,-0.0259,0.8657,-6.75,8.02,0.02,29.94
10330,0.3251,-0.0251,0.8677,-6.7,7.91,-0.06,29.92
10340,0.3258,-0.0281,0.8647,-6.75,7.97,-0.12,29.91
10351,0.3291,-0.0259,0.8647,-6.73,7.97,-0.03,29.95
10361,0.3282,-0.0251,0.8689,-6.72,7.94,-0.02,29.93
10371,0.3278,-0.0275,0.8636,-6.69,7.98,-0.03,29.91
10381,0.3278,-0.0266,0.8647,-6.76,8.02,-0.08,29.92
10391,0.3282,-0.0275,0.8577,-6.72,7.97,-0.05,29.89
10402,0.3284,-0.0273,0.8633,-6.7,8.02,-0.03,29.92
10412,0.3282,-0.0231,0.8628,-6.73,7.97,-0.06,29.9
10422,0.3279,-0.025,0.8656,-6.79,7.94,0.02,29.91
10432,0.3234,-0.0243,0.8665,-6.73,7.97,-0.02,29.9
10442,0.3309,-0.0271,0.8684,-6.67,8.0,-0.09,29.92
10452,0.3259,-0.0245,0.8644,-6.78,7.97,-0.09,29.91
10462,0.3291,-0.0262,0.8657,-6.75,8.03,0.05,29.9
10472,0.3312,-0.0275,0.866,-6.67,7.92,0.0,29.92
10482,0.3308,-0.0249,0.8656,-6.85,7.95,-0.05,29.93
10492,0.329,-0.0266,0.8641,-6.75,8.02,-0.03,29.94
10502,0.3304,-0.0264,0.8678,-6.73,7.95,0.02,29.91
10512,0.3267,-0.0259,0.8646,-6.72,7.94,0.0,29.92
10522,0.329,-0.0255,0.8649,-6.79,7.98,0.05,29.93
10532,0.3298,-0.026,0.8656,-6.73,7.98,-0.02,29.9
10542,0.3311,-0.0242,0.8662,-6.79,7.97,-0.05,29.94
10552,0.3297,-0.0266,0.8689,-6.69,7.95,-0.08,29.93
10562,0.3252,-0.0225,0.8657,-6.76,7.98,-0.03,29.92
10572,0.3297,-0.0232,0.8668,-6.76,7.97,-0.09,29.93
10582,0.3295,-0.0258,0.8628,-6.72,7.97,-0.05,29.94
10592,0.3279,-0.025,0.8672,-6.75,8.0,-0.02,29.91
10602,0.3284,-0.0247,0.873,-6.76,8.02,-0.02,29.92
10612,0.3289,-0.0255,0.8662,-6.75,7.95,-0.11,29.92
10622,0.3296,-0.0247,0.8685,-6.79,8.05,-0.08,29.91
10632,0.3302,-0.0262,0.8639,-6.81,7.94,-0.09,29.93
10642,0.3289,-0.0264,0.8683,-6.72,8.12,-0.03,29.92
10652,0.3278,-0.0254,0.8671,-6.7,7.98,0.05,29.91
10662,0.3291,-0.026,0.8652,-6.78,7.91,-0.03,29.92
10672,0.3297,-0.0253,0.8644,-6.81,8.02,-0.08,29.93
10682,0.329,-0.024,0.8616,-6.76,8.03,-0.03,29.92
10692,0.328,-0.0262,0.8655,-6.73,8.08,-0.02,29.89
10702,0.3281,-0.0267,0.8651,-6.69,7.92,-0.12,29.94
10712,0.3278,-0.0258,0.8645,-6.7,7.91,-0.14,29.95
10722,0.3259,-0.0233,0.8624,-6.69,8.03,-0.08,29.92
10732,0.3304,-0.0233,0.8643,-6.72,7.94,0.02,29.94
10742,0.3281,-0.025,0.8643,-6.76,8.05,0.0,29.92
10752,0.3269,-0.0251,0.8676,-6.75,8.0,0.02,29.93
10762,0.3289,-0.0243,0.8604,-6.73,7.91,-0.02,29.91
10772,0.3275,-0.0273,0.8643,-6.64,7.97,-0.03,29.91
10782,0.3273,-0.0243,0.8622,-6.69,7.95,-0.06,29.94
10792,0.3285,-0.0259,0.8627,-6.67,7.97,0.05,29.92
10802,0.3282,-0.0264,0.8645,-6.7,7.95,0.02,29.92
10812,0.327,-0.0265,0.864,-6.76,7.95,-0.05,29.92
10822,0.3286,-0.0244,0.8673,-6.69,8.09,-0.08,29.93
10832,0.3279,-0.0238,0.8638,-6.76,7.95,-0.06,29.93
10842,0.3263,-0.0259,0.866,-6.78,7.97,0.0,29.92
10852,0.3292,-0.0237,0.8618,-6.81,7.97,-0.02,29.94
10862,0.3269,-0.0248,0.8646,-6.76,7.89,0.03,29.95
10872,0.329,-0.0258,0.864,-6.7,8.02,-0.11,29.93
10882,0.3276,-0.0267,0.8652,-6.7,7.92,-0.06,29.93
10892,0.3278,-0.0248,0.8671,-6.72,7.97,-0.09,29.94
10902,0.329,-0.0251,0.8661,-6.72,7.95,-0.08,29.92
10912,0.3284,-0.027,0.8635,-6.75,7.95,-0.06,29.91
10922,0.3252,-0.0258,0.8651,-6.78,8.03,-0.09,29.94
10932,0.3282,-0.0243,0.8617,-6.82,7.98,-0.08,29.91
10942,0.3287,-0.0238,0.8624,-6.79,7.98,-0.06,29.94
10952,0.3297,-0.0231,0.86,-6.75,7.97,-0.03,29.92
10962,0.3295,-0.026,0.8665,-6.75,8.02,-0.02,29.93
10972,0.3268,-0.0271,0.8663,-6.69,7.95,-0.06,29.91
10982,0.3278,-0.0244,0.8607,-6.81,8.02,-0.03,29.91
10992,0.3268,-0.0275,0.8654,-6.75,7.98,-0.05,29.92
11002,0.3275,-0.0276,0.8689,-6.67,8.0,-0.06,29.93
11012,0.3252,-0.028,0.8628,-6.72,7.94,-0.08,29.94
11023,0.3285,-0.0288,0.8628,-6.75,8.0,-0.06,29.92
11033,0.3284,-0.0243,0.8641,-6.73,7.98,-0.08,29.93
11043,0.3286,-0.0271,0.8602,-6.76,7.97,-0.02,29.92
11053,0.3226,-0.0295,0.8639,-6.73,7.98,-0.03,29.94
11063,0.3252,-0.0244,0.8683,-6.78,7.92,0.0,29.94
11073,0.3273,-0.0247,0.8656,-6.79,7.97,0.02,29.92
11083,0.327,-0.025,0.8639,-6.82,7.94,-0.06,29.92
11093,0.3275,-0.0272,0.8646,-6.82,7.97,-0.09,29.94
11103,0.3302,-0.022,0.8698,-6.73,7.94,-0.05,29.94
11113,0.3301,-0.0245,0.8646,-6.76,7.97,-0.11,29.94
11123,0.328,-0.024,0.8665,-6.69,8.03,-0.06,29.93
11133,0.3298,-0.0239,0.8646,-6.7,7.97,-0.08,29.94
11143,0.329,-0.0239,0.8658,-6.67,8.03,-0.06,29.92
11153,0.329,-0.0248,0.8635,-6.84,7.98,-0.09,29.94
11163,0.327,-0.0267,0.8639,-6.72,7.92,-0.08,29.92
11173,0.3289,-0.0244,0.8665,-6.73,7.95,-0.06,29.94
11183,0.3286,-0.026,0.8628,-6.82,7.95,-0.06,29.92
11193,0.3275,-0.025,0.8624,-6.87,7.97,-0.11,29.94
11203,0.3258,-0.0251,0.8629,-6.78,7.98,-0.02,29.93
11213,0.3271,-0.0254,0.8651,-6.73,7.95,-0.12,29.92
11223,0.3262,-0.0261,0.8646,-6.67,7.94,-0.03,29.91
11233,0.3301,-0.0261,0.8639,-6.76,8.0,-0.11,29.93
11243,0.3275,-0.0258,0.8673,-6.7,8.02,-0.05,29.94
11253,0.3279,-0.026,0.8679,-6.78,7.95,-0.05,29.94
11263,0.3284,-0.0231,0.8643,-6.78,7.95,-0.02,29.91
11273,0.3304,-0.0272,0.8671,-6.67,7.88,-0.11,29.95
11283,0.3285,-0.0256,0.8624,-6.73,7.92,-0.03,29.93
11293,0.3282,-0.0254,0.8646,-6.76,7.97,-0.02,29.96
11303,0.3276,-0.0269,0.8633,-6.78,7.95,-0.03,29.92
11313,0.3264,-0.0254,0.864,-6.73,8.0,-0.09,29.93
11323,0.33,-0.025,0.8622,-6.78,7.89,0.0,29.95
11333,0.3268,-0.0248,0.8695,-6.75,7.94,-0.05,29.92
11343,0.326,-0.0273,0.8643,-6.85,8.0,-0.03,29.93
11353,0.328,-0.0273,0.8654,-6.84,8.02,0.0,29.93
11363,0.3333,-0.0278,0.8665,-6.76,7.97,-0.05,29.95
11373,0.3313,-0.0272,0.8649,-6.72,7.97,-0.11,29.94
11383,0.3289,-0.0231,0.8635,-6.69,7.95,-0.06,29.92
11393,0.3287,-0.0255,0.8645,-6.73,7.95,-0.03,29.9
11403,0.3285,-0.0253,0.8645,-6.76,7.98,-0.03,29.93
11413,0.3296,-0.0266,0.8666,-6.75,7.95,-0.14,29.93
11423,0.3323,-0.0272,0.8668,-6.7,7.91,-0.09,29.93
11433,0.3275,-0.0267,0.8645,-6.75,7.94,-0.05,29.94
11443,0.328,-0.026,0.8662,-6.78,8.0,-0.11,29.93
11453,0.3262,-0.0242,0.8672,-6.82,8.0,0.0,29.94
11463,0.3259,-0.0229,0.866,-6.81,7.95,0.02,29.94
11473,0.3278,-0.0278,0.8641,-6.79,7.97,0.02,29.92
11483,0.3273,-0.0244,0.865,-6.81,7.98,-0.06,29.91
11493,0.327,-0.0299,0.8646,-6.7,8.02,-0.03,29.93
11503,0.327,-0.0258,0.8633,-6.76,7.94,-0.02,29.92
11513,0.3279,-0.028,0.8627,-6.75,7.97,-0.09,29.93
11523,0.329,-0.0283,0.8633,-6.78,7.95,-0.02,29.92
11533,0.3286,-0.028,0.8608,-6.73,7.94,0.0,29.92
11543,0.3292,-0.025,0.8627,-6.69,7.94,-0.05,29.92
11553,0.328,-0.0242,0.8629,-6.78,7.92,-0.06,29.94
11563,0.3313,-0.025,0.8601,-6.75,8.03,-0.11,29.94
11573,0.3279,-0.0262,0.8627,-6.79,8.0,-0.03,29.94
11583,0.3256,-0.0229,0.8624,-6.78,8.02,-0.02,29.92
11593,0.3281,-0.0258,0.864,-6.73,7.94,-0.08,29.92
11603,0.3269,-0.0264,0.8633,-6.69,7.98,0.05,29.95
11613,0.3279,-0.0254,0.861,-6.85,7.98,-0.05,29.94
11623,0.3279,-0.0258,0.8667,-6.75,8.02,-0.05,29.91
11633,0.3257,-0.0275,0.8628,-6.66,7.91,-0.12,29.94
11643,0.328,-0.0264,0.8651,-6.7,7.92,-0.05,29.95
11653,0.3302,-0.0243,0.8677,-6.73,8.03,-0.06,29.96
11663,0.3289,-0.0256,0.8645,-6.79,8.05,-0.08,29.96
11673,0.3301,-0.0248,0.8678,-6.67,8.02,0.02,29.94
11683,0.3281,-0.0248,0.8658,-6.76,7.95,0.0,29.93
11693,0.3296,-0.0236,0.8643,-6.72,7.89,-0.06,29.94
11703,0.3262,-0.026,0.8667,-6.79,8.0,-0.05,29.96
11713,0.3286,-0.0242,0.8661,-6.82,7.92,-0.05,29.93
11723,0.3293,-0.0264,0.8711,-6.76,8.02,0.0,29.93
11733,0.3301,-0.0239,0.8667,-6.75,8.05,0.02,29.94
11743,0.3268,-0.0258,0.8627,-6.7,8.02,-0.09,29.94
11753,0.3298,-0.0272,0.8676,-6.76,7.95,0.0,29.94
11763,0.3292,-0.0253,0.8639,-6.7,8.0,0.03,29.96
11773,0.328,-0.0243,0.8691,-6.72,7.91,0.0,29.93
11783,0.3292,-0.0278,0.8641,-6.75,7.95,-0.06,29.94
11793,0.3287,-0.0258,0.8596,-6.69,7.95,-0.03,29.96
11803,0.3264,-0.0269,0.8651,-6.79,7.95,0.0,29.96
11813,0.3274,-0.0255,0.865,-6.73,7.94,0.0,29.96
11823,0.3256,-0.0251,0.8652,-6.69,7.94,-0.02,29.93
11833,0.3289,-0.0234,0.8672,-6.72,7.95,-0.02,29.93
11843,0.3286,-0.0262,0.8647,-6.69,7.91,-0.02,29.92
11853,0.3279,-0.0258,0.8629,-6.69,8.02,-0.12,29.95
11863,0.328,-0.0282,0.8669,-6.73,8.0,-0.02,29.94
11873,0.3259,-0.0238,0.8639,-6.76,7.98,-0.05,29.94
11883,0.3302,-0.0259,0.8649,-6.66,7.94,-0.03,29.93
11893,0.3298,-0.0229,0.8654,-6.78,8.02,0.0,29.94
11903,0.3286,-0.0258,0.8639,-6.78,7.89,0.0,29.95
11913,0.3268,-0.0254,0.8666,-6.72,7.91,-0.05,29.93
11923,0.33,-0.0266,0.8661,-6.69,7.95,-0.15,29.94
11933,0.3273,-0.0238,0.8646,-6.7,7.95,-0.05,29.96
11943,0.3269,-0.0265,0.8693,-6.72,7.92,-0.06,29.94
11953,0.3285,-0.0262,0.8634,-6.78,7.95,-0.06,29.95
11963,0.3313,-0.0267,0.8613,-6.81,7.92,-0.14,29.96
11973,0.3274,-0.0284,0.8632,-6.78,7.98,-0.06,29.94
11983,0.33,-0.0247,0.863,-6.81,8.06,-0.06,29.94
11993,0.3293,-0.0272,0.8678,-6.7,7.91,-0.05,29.9
12003,0.329,-0.0295,0.8621,-6.78,8.0,-0.05,29.94
12013,0.3282,-0.0249,0.8654,-6.75,7.98,-0.03,29.97
12023,0.3285,-0.0271,0.8706,-6.66,8.02,-0.12,29.94
12033,0.3267,-0.028,0.8641,-6.66,8.0,-0.06,29.96
12043,0.327,-0.0231,0.8662,-6.76,7.94,-0.08,29.94
12053,0.327,-0.0277,0.8661,-6.81,7.98,-0.03,29.96
12063,0.3298,-0.0259,0.8647,-6.76,8.06,0.02,29.94
12073,0.3284,-0.0265,0.8633,-6.81,7.98,-0.05,29.95
12083,0.3284,-0.0283,0.8628,-6.75,8.0,-0.03,29.95
12093,0.3287,-0.0239,0.8623,-6.7,8.03,-0.03,29.94
12103,0.328,-0.0249,0.8649,-6.73,7.95,0.02,29.93
12113,0.3282,-0.0259,0.8687,-6.73,7.91,-0.08,29.94
12123,0.3291,-0.0256,0.8665,-6.73,8.02,-0.06,29.93
12133,0.3278,-0.0256,0.8661,-6.75,7.94,-0.09,29.94
12143,0.3286,-0.0243,0.8563,-6.79,7.98,-0.09,29.93
12153,0.3264,-0.0248,0.8667,-6.76,7.98,0.0,29.93
12163,0.3278,-0.0243,0.8657,-6.69,8.02,-0.08,29.94
12173,0.3263,-0.0288,0.8632,-6.76,7.95,-0.05,29.92
12183,0.3282,-0.0264,0.8617,-6.76,7.95,-0.12,29.92
12193,0.3275,-0.0275,0.8669,-6.73,7.97,-0.08,29.92
12203,0.3271,-0.0261,0.8639,-6.84,8.0,-0.02,29.94
12213,0.3286,-0.0258,0.8672,-6.81,7.92,-0.03,29.96
12223,0.3279,-0.0251,0.865,-6.78,8.0,-0.08,29.92
12233,0.3291,-0.0272,0.8671,-6.81,7.95,-0.05,29.93
12243,0.3278,-0.0234,0.8666,-6.78,7.98,-0.06,29.96
12253,0.3281,-0.0239,0.8629,-6.79,7.94,0.0,29.94
12263,0.3284,-0.0265,0.8667,-6.69,8.0,-0.02,29.94
12273,0.33,-0.0275,0.8643,-6.82,7.89,0.0,29.92
12283,0.3292,-0.025,0.8645,-6.72,8.05,0.02,29.94
12293,0.328,-0.0242,0.8632,-6.7,7.98,-0.02,29.93
12303,0.3263,-0.0258,0.8606,-6.84,7.97,0.02,29.95
12313,0.3269,-0.024,0.8654,-6.72,7.92,-0.03,29.95
12323,0.3247,-0.0277,0.8661,-6.79,7.94,0.02,29.95
12333,0.3271,-0.0261,0.8599,-6.78,7.94,0.02,29.94
12343,0.3297,-0.0265,0.865,-6.78,7.95,-0.03,29.93
12353,0.3274,-0.0243,0.8665,-6.75,8.03,-0.03,29.94
12363,0.329,-0.0233,0.8677,-6.79,7.98,-0.05,29.95
12373,0.3282,-0.0243,0.8636,-6.67,7.91,-0.06,29.94
12383,0.3296,-0.0291,0.8602,-6.75,7.98,0.0,29.95
12393,0.328,-0.0253,0.8615,-6.81,8.02,-0.08,29.95
12403,0.3287,-0.026,0.8657,-6.78,7.92,-0.08,29.93
12413,0.3285,-0.0259,0.8657,-6.81,7.88,-0.06,29.95
12423,0.3281,-0.0264,0.864,-6.75,8.0,-0.11,29.94
12433,0.3293,-0.0238,0.8628,-6.81,7.97,0.03,29.96
12443,0.3265,-0.0245,0.8641,-6.82,8.0,-0.05,29.93
12453,0.3307,-0.0258,0.8628,-6.81,7.98,-0.05,29.93
12463,0.3276,-0.0259,0.8628,-6.81,7.95,-0.05,29.94
12473,0.3278,-0.0262,0.8677,-6.78,7.94,-0.06,29.94
12483,0.3252,-0.0264,0.8657,-6.7,8.02,-0.06,29.94
12493,0.3274,-0.0238,0.8644,-6.72,7.92,-0.05,29.93
12503,0.3323,-0.0244,0.8656,-6.78,7.89,-0.06,29.93
12513,0.3303,-0.0249,0.8588,-6.78,8.0,-0.03,29.92
12523,0.327,-0.0267,0.8623,-6.81,8.02,-0.05,29.92
12533,0.3282,-0.0281,0.8685,-6.82,7.98,-0.12,29.95
12543,0.3279,-0.0271,0.8621,-6.75,8.02,-0.08,29.93
12553,0.3269,-0.0278,0.8618,-6.76,7.95,-0.11,29.95
12563,0.3317,-0.0267,0.8636,-6.76,7.97,0.02,29.93
12573,0.3312,-0.0229,0.8662,-6.73,7.91,-0.02,29.95
12583,0.3278,-0.0238,0.8617,-6.76,7.97,-0.03,29.95
12593,0.3268,-0.0266,0.8661,-6.75,8.02,0.05,29.93
12603,0.3281,-0.0245,0.8678,-6.82,7.98,0.03,29.94
12613,0.3284,-0.028,0.8658,-6.7,8.02,-0.03,29.93
12623,0.3282,-0.0258,0.8693,-6.76,7.94,-0.03,29.95
12633,0.3286,-0.0276,0.8663,-6.72,7.98,-0.03,29.95
12643,0.3292,-0.0278,0.8627,-6.81,8.02,0.0,29.97
12653,0.3281,-0.0267,0.8647,-6.76,8.06,-0.03,29.98
12663,0.3276,-0.0272,0.86,-6.81,7.98,-0.08,29.96
12673,0.3289,-0.0265,0.8646,-6.73,7.97,0.0,29.97
12683,0.3306,-0.0223,0.8612,-6.78,8.0,-0.03,29.96
12693,0.329,-0.0255,0.8639,-6.76,7.97,-0.12,29.96
12703,0.3271,-0.026,0.8639,-6.75,8.0,-0.12,29.97
12713,0.3269,-0.0233,0.8676,-6.73,7.98,0.02,29.97
12723,0.3265,-0.0212,0.868,-6.75,7.95,0.0,29.97
12733,0.3293,-0.026,0.8625,-6.72,7.95,0.05,29.98
12743,0.3304,-0.028,0.8656,-6.78,7.92,-0.08,29.96
12753,0.3274,-0.0287,0.8671,-6.7,7.89,-0.02,29.97
12763,0.3265,-0.0292,0.8644,-6.78,7.92,-0.03,29.98
12773,0.3265,-0.024,0.8671,-6.78,8.03,0.03,29.95
12783,0.3271,-0.0262,0.866,-6.85,7.94,-0.09,29.97
12793,0.3264,-0.0282,0.868,-6.78,7.98,-0.08,29.96
12803,0.3284,-0.0266,0.865,-6.75,7.97,-0.02,29.97
12813,0.3256,-0.0231,0.8704,-6.76,7.95,-0.08,29.95
12823,0.3264,-0.0244,0.8593,-6.76,8.0,-0.06,29.98
12833,0.3289,-0.0236,0.861,-6.76,7.95,-0.02,29.97
12843,0.3295,-0.0249,0.8632,-6.73,7.91,0.0,29.98
12853,0.3311,-0.0282,0.8666,-6.72,8.0,-0.03,29.97
12863,0.3291,-0.0258,0.8639,-6.79,7.98,-0.03,29.97
12873,0.325,-0.0276,0.8663,-6.81,7.98,-0.08,29.95
12883,0.3269,-0.0282,0.8667,-6.72,7.97,-0.06,29.99
12893,0.329,-0.026,0.8612,-6.73,7.98,-0.09,29.99
12903,0.3281,-0.0278,0.8676,-6.66,8.02,0.0,29.98
12913,0.3284,-0.0229,0.8679,-6.73,7.95,0.05,29.98
12923,0.3273,-0.0254,0.8621,-6.75,7.98,0.03,29.95
12933,0.3256,-0.0258,0.8655,-6.7,7.95,-0.08,29.96
12943,0.3267,-0.0292,0.8633,-6.79,7.91,-0.03,29.99
12953,0.3251,-0.0278,0.8623,-6.73,8.0,-0.12,29.96
12963,0.3329,-0.0259,0.8657,-6.76,7.98,-0.12,29.98
12973,0.3289,-0.025,0.864,-6.73,7.98,0.0,29.99
12983,0.3268,-0.0284,0.8655,-6.75,7.98,-0.08,29.95
12993,0.3275,-0.0239,0.8668,-6.81,7.97,-0.11,29.97
13003,0.3279,-0.0229,0.8633,-6.78,8.03,-0.11,29.98
13013,0.3274,-0.0227,0.8671,-6.75,8.0,-0.06,29.96
13023,0.3269,-0.0253,0.8643,-6.73,8.0,-0.08,29.95
13033,0.3274,-0.0272,0.868,-6.7,7.92,-0.03,29.96
13043,0.3256,-0.0243,0.8689,-6.78,7.98,-0.02,29.97
13053,0.3274,-0.0275,0.8647,-6.81,7.98,-0.08,29.97
13063,0.3289,-0.0266,0.8643,-6.75,7.95,-0.06,29.95
13073,0.3275,-0.0244,0.8662,-6.76,7.94,0.06,29.95
13083,0.3265,-0.0272,0.8669,-6.75,8.03,0.0,29.95
13093,0.3295,-0.0234,0.8682,-6.72,7.97,0.02,29.97
13103,0.3289,-0.026,0.8658,-6.7,7.92,-0.09,29.99
13113,0.3279,-0.0254,0.8583,-6.75,8.03,-0.05,29.99
13123,0.327,-0.0248,0.8666,-6.78,7.98,0.0,29.97
13133,0.3303,-0.0251,0.8619,-6.7,8.05,-0.09,29.99
13143,0.3289,-0.0249,0.8625,-6.81,7.97,-0.03,29.96
13153,0.3279,-0.0251,0.8638,-6.72,7.95,-0.05,29.97
13163,0.3287,-0.0275,0.864,-6.76,7.95,0.0,29.95
13173,0.3292,-0.0253,0.8632,-6.75,7.98,-0.08,29.99
13183,0.3286,-0.0271,0.8611,-6.78,8.06,-0.08,29.98
13193,0.3275,-0.0266,0.8611,-6.76,7.94,-0.05,29.97
13203,0.3275,-0.0253,0.8656,-6.67,7.95,0.0,29.97
13213,0.3273,-0.0248,0.8639,-6.76,8.0,-0.11,29.98
13223,0.3279,-0.0233,0.8651,-6.84,7.98,0.0,29.99
13233,0.3285,-0.0259,0.8605,-6.7,8.0,-0.03,29.97
13243,0.3276,-0.0253,0.8627,-6.76,8.0,-0.06,29.97
13253,0.3245,-0.0254,0.8632,-6.79,7.94,-0.09,29.98
13263,0.3258,-0.0291,0.8647,-6.79,7.95,0.06,29.97
13273,0.3265,-0.0254,0.8662,-6.82,7.97,0.03,29.96
13283,0.3273,-0.0249,0.8687,-6.81,7.97,0.05,29.97
13293,0.327,-0.0267,0.8661,-6.73,8.0,-0.12,29.94
13303,0.3285,-0.0248,0.8644,-6.76,7.94,-0.02,29.98
13313,0.3269,-0.0282,0.8662,-6.72,7.95,0.0,29.98
13323,0.3265,-0.0253,0.8662,-6.76,7.97,-0.02,29.97
13333,0.3265,-0.0267,0.8665,-6.79,7.98,-0.02,29.97
13343,0.3298,-0.0258,0.8685,-6.84,7.95,-0.11,29.96
13353,0.3298,-0.0243,0.8651,-6.72,7.94,-0.03,29.96
13363,0.3285,-0.0277,0.8644,-6.69,7.97,-0.03,29.98
13373,0.3297,-0.0258,0.8649,-6.73,8.06,0.03,29.98
13383,0.328,-0.0272,0.8658,-6.76,7.92,-0.02,29.98
13393,0.3303,-0.0247,0.8679,-6.73,7.89,-0.03,29.97
13403,0.3309,-0.0231,0.8628,-6.73,7.94,0.02,29.95
13413,0.3258,-0.026,0.8677,-6.82,7.98,-0.05,29.98
13423,0.3268,-0.0262,0.8696,-6.67,7.91,0.0,29.99
13433,0.326,-0.0226,0.8651,-6.76,8.0,-0.05,29.98
13443,0.3279,-0.0253,0.8672,-6.75,7.95,-0.06,29.96
13453,0.3303,-0.027,0.8646,-6.81,7.94,-0.02,29.97
13463,0.3267,-0.0254,0.8679,-6.79,8.05,-0.02,29.96
13473,0.3295,-0.0251,0.8683,-6.84,7.95,-0.03,29.95
13483,0.3265,-0.0255,0.8618,-6.7,7.98,0.0,29.96
13493,0.3221,-0.0232,0.8611,-6.76,7.98,-0.11,29.97
13503,0.3267,-0.025,0.8613,-6.79,7.95,-0.08,29.97
13513,0.3287,-0.026,0.8634,-6.78,7.97,0.0,29.96
13523,0.3269,-0.0286,0.8641,-6.72,7.98,0.0,29.98
13533,0.3295,-0.0248,0.8643,-6.73,7.94,-0.12,29.97
13543,0.3282,-0.0247,0.865,-6.7,7.94,-0.05,29.98
13553,0.3303,-0.0251,0.8669,-6.7,7.94,-0.03,29.97
13563,0.327,-0.0276,0.8689,-6.67,7.95,-0.03,29.99
13573,0.3264,-0.0262,0.8647,-6.78,7.95,-0.05,29.99
13583,0.3269,-0.0244,0.8658,-6.7,7.98,-0.06,29.97
13593,0.33,-0.0262,0.8689,-6.78,7.98,0.0,29.98
13603,0.3292,-0.0261,0.8667,-6.73,7.95,-0.09,29.96
13613,0.3296,-0.0256,0.8645,-6.78,7.92,-0.09,29.97
13623,0.3306,-0.0247,0.8656,-6.72,7.97,-0.03,29.97
13633,0.3254,-0.0272,0.8672,-6.73,8.03,0.0,29.98
13643,0.3263,-0.0266,0.8651,-6.72,7.92,0.0,29.97
13653,0.3284,-0.0261,0.8643,-6.76,7.97,-0.03,29.99
13663,0.3293,-0.0249,0.8666,-6.81,7.91,-0.03,30.01
13673,0.3274,-0.0237,0.8651,-6.76,8.03,-0.05,30.0
13683,0.3263,-0.0222,0.8643,-6.85,7.94,-0.08,29.98
13693,0.3301,-0.0256,0.8665,-6.79,8.0,-0.09,29.97
13703,0.33,-0.0262,0.8629,-6.67,7.98,-0.11,29.97
13713,0.3296,-0.025,0.8667,-6.7,7.95,-0.06,29.97
13723,0.3289,-0.0262,0.8654,-6.72,7.98,-0.09,29.98
13733,0.3271,-0.0267,0.8632,-6.75,7.94,-0.09,30.0
13743,0.3285,-0.0265,0.8619,-6.67,8.03,-0.03,29.97
13753,0.3282,-0.0247,0.8647,-6.81,7.94,-0.05,29.99
13763,0.3278,-0.0234,0.8639,-6.78,7.92,-0.02,29.99
13773,0.3271,-0.026,0.8627,-6.78,7.89,0.02,29.99
13783,0.3276,-0.0262,0.8644,-6.79,7.97,-0.05,30.01
13793,0.3301,-0.0256,0.8662,-6.75,7.97,-0.08,30.0
13803,0.3263,-0.0233,0.8667,-6.81,8.02,0.02,29.98
13813,0.3276,-0.0259,0.8633,-6.78,7.94,0.0,30.0
13823,0.3284,-0.026,0.8638,-6.78,8.03,-0.05,30.0
13833,0.3285,-0.0238,0.8636,-6.75,7.95,0.0,29.99
13843,0.3269,-0.0251,0.8662,-6.72,7.97,-0.05,29.97
13853,0.325,-0.0234,0.8641,-6.69,7.98,-0.02,29.98
13863,0.3265,-0.028,0.8671,-6.78,7.95,-0.06,29.99
13873,0.3298,-0.0261,0.8671,-6.75,8.02,-0.03,29.98
13883,0.328,-0.0255,0.8597,-6.72,7.92,-0.03,29.99
13893,0.3276,-0.0261,0.8624,-6.72,8.0,-0.02,29.99
13903,0.3286,-0.0247,0.8658,-6.72,7.98,-0.03,29.99
13913,0.3285,-0.0278,0.8676,-6.78,7.92,-0.05,29.99
13923,0.328,-0.0286,0.8635,-6.81,7.95,0.05,29.97
13933,0.3279,-0.0284,0.866,-6.82,7.89,-0.06,29.99
13943,0.3291,-0.0267,0.8646,-6.75,8.02,-0.02,29.98
13953,0.3304,-0.0265,0.8623,-6.7,8.0,0.09,29.99
13963,0.3267,-0.0244,0.8641,-6.76,8.0,-0.05,29.97
13973,0.3302,-0.0254,0.8634,-6.82,7.94,0.0,29.98
13983,0.3264,-0.0253,0.8663,-6.79,7.98,-0.02,29.99
13993,0.3301,-0.0256,0.8624,-6.7,7.97,-0.08,30.0
14003,0.3258,-0.0248,0.8633,-6.7,7.88,0.0,29.99
14013,0.3287,-0.0248,0.8651,-6.66,7.89,-0.06,29.97
14023,0.3298,-0.0248,0.866,-6.73,8.05,0.0,29.99
14033,0.3278,-0.0262,0.8643,-6.78,8.0,-0.05,29.99
14043,0.3268,-0.0253,0.8672,-6.81,7.94,-0.05,29.97
14053,0.3264,-0.0243,0.8644,-6.73,7.98,-0.08,29.97
14063,0.3269,-0.0266,0.865,-6.75,7.89,-0.11,29.99
14073,0.329,-0.0242,0.8639,-6.72,7.98,-0.05,29.98
14083,0.3284,-0.0295,0.8643,-6.85,7.92,-0.05,29.99
14093,0.3278,-0.0245,0.8663,-6.84,7.95,-0.05,29.99
14103,0.3271,-0.0259,0.868,-6.82,8.03,-0.11,29.98
14113,0.3223,-0.0259,0.8644,-6.72,8.0,-0.05,30.01
14123,0.3268,-0.0266,0.868,-6.76,7.94,-0.02,29.97
14133,0.3312,-0.0251,0.8632,-6.78,7.95,-0.02,29.99
14143,0.329,-0.0271,0.8644,-6.78,8.0,0.03,29.97
14153,0.328,-0.0273,0.8668,-6.69,7.92,-0.05,30.0
14163,0.3251,-0.0262,0.8646,-6.76,7.94,0.02,29.99
14173,0.327,-0.0215,0.8632,-6.75,7.97,-0.05,29.98
14183,0.3289,-0.028,0.865,-6.76,7.97,-0.09,30.0
14193,0.3275,-0.0253,0.8607,-6.72,7.91,-0.08,29.98
14203,0.3273,-0.0258,0.8625,-6.7,8.02,0.02,29.99
14213,0.328,-0.0255,0.8635,-6.73,7.97,0.02,29.98
14223,0.3281,-0.0259,0.8643,-6.78,8.03,-0.03,29.98
14233,0.3285,-0.026,0.8612,-6.76,8.0,-0.02,29.99
14243,0.3259,-0.0228,0.8636,-6.75,7.97,-0.02,29.97
14253,0.3267,-0.0247,0.8611,-6.72,8.02,-0.02,29.98
14263,0.3258,-0.027,0.8661,-6.76,7.98,-0.05,29.98
14273,0.3287,-0.027,0.8673,-6.72,8.02,-0.02,29.98
14283,0.328,-0.0245,0.8645,-6.81,7.97,-0.02,29.98
14293,0.3269,-0.025,0.8688,-6.73,8.0,-0.06,30.01
14303,0.3262,-0.0221,0.8616,-6.79,7.98,-0.09,29.99
14313,0.3292,-0.0236,0.8611,-6.76,8.06,-0.08,30.0
14323,0.3303,-0.0266,0.8658,-6.78,7.95,-0.09,29.99
14333,0.327,-0.0243,0.8667,-6.78,7.97,-0.05,29.99
14343,0.3307,-0.0276,0.8668,-6.81,7.95,-0.05,29.98
14353,0.3279,-0.0244,0.8672,-6.75,7.97,0.0,30.0
14363,0.3291,-0.0264,0.8619,-6.75,7.92,-0.02,30.0
14373,0.328,-0.0226,0.8611,-6.79,7.97,-0.03,30.02
14383,0.3269,-0.0271,0.8623,-6.82,7.97,-0.02,30.01
14393,0.3269,-0.0239,0.8684,-6.69,7.97,-0.05,29.98
14403,0.3271,-0.0245,0.8695,-6.72,8.0,0.05,29.99
14413,0.3269,-0.0261,0.8649,-6.76,8.02,-0.08,29.99
14423,0.3296,-0.0264,0.8628,-6.76,8.0,-0.11,30.0
14433,0.328,-0.0267,0.8617,-6.72,7.94,-0.05,30.0
14443,0.3271,-0.025,0.8645,-6.72,7.98,-0.03,29.97
14453,0.3281,-0.0275,0.8658,-6.69,8.0,-0.08,29.97
14463,0.3289,-0.0273,0.865,-6.75,8.02,0.0,30.01
14473,0.3315,-0.0271,0.8636,-6.78,7.92,0.02,29.99
14483,0.327,-0.0232,0.8606,-6.73,7.95,0.0,29.98
14493,0.3311,-0.0247,0.8673,-6.73,7.97,-0.06,29.99
14503,0.326,-0.0248,0.8646,-6.78,8.0,-0.02,29.98
14513,0.3292,-0.0254,0.8641,-6.78,7.97,-0.02,30.0
14523,0.3262,-0.0272,0.8638,-6.75,7.97,0.0,30.01
14533,0.327,-0.027,0.8632,-6.78,8.03,-0.06,29.99
14543,0.3262,-0.0228,0.8684,-6.76,8.03,-0.02,30.0
14553,0.3285,-0.0231,0.8718,-6.78,7.95,-0.08,30.0
14563,0.3307,-0.025,0.8652,-6.73,7.98,-0.05,29.99
14573,0.3282,-0.0227,0.8665,-6.67,7.92,-0.08,29.99
14583,0.3275,-0.0225,0.8622,-6.75,7.95,-0.03,29.99
14594,0.3259,-0.025,0.8656,-6.73,7.95,-0.05,29.99
14604,0.3271,-0.0248,0.8639,-6.73,7.97,-0.03,29.98
14614,0.3267,-0.0261,0.8674,-6.81,7.97,-0.02,29.99
14624,0.3295,-0.0239,0.8683,-6.75,7.91,-0.05,29.97
14634,0.3278,-0.0265,0.8621,-6.75,8.0,-0.06,30.01
14644,0.3292,-0.0239,0.865,-6.75,7.94,-0.09,30.03
14654,0.3269,-0.0267,0.8662,-6.73,7.98,-0.08,30.01
14664,0.3292,-0.0234,0.8662,-6.79,7.94,-0.06,29.97
14674,0.3285,-0.0244,0.8665,-6.81,7.95,-0.03,29.99
14684,0.328,-0.026,0.863,-6.7,7.95,-0.09,30.01
14694,0.3251,-0.0282,0.8622,-6.73,7.98,-0.06,29.99
14704,0.3256,-0.0273,0.866,-6.73,7.95,0.02,30.01
14714,0.3262,-0.0258,0.8649,-6.79,7.95,-0.06,29.99
14724,0.3285,-0.0251,0.866,-6.81,7.97,-0.06,29.98
14734,0.3298,-0.0259,0.8656,-6.75,7.94,0.0,29.97
14744,0.3285,-0.0236,0.8676,-6.7,7.98,-0.02,29.97
14754,0.3256,-0.0222,0.8639,-6.78,8.03,-0.02,30.02
14764,0.328,-0.0247,0.8644,-6.73,7.98,-0.02,29.99
14774,0.3308,-0.0286,0.8663,-6.79,8.0,-0.06,29.99
14784,0.3278,-0.0271,0.8605,-6.75,7.98,-0.02,30.0
14794,0.3287,-0.0287,0.8668,-6.76,7.91,-0.09,29.98
14804,0.325,-0.0275,0.8651,-6.72,7.98,-0.03,29.99
14814,0.3269,-0.0265,0.8657,-6.72,7.92,-0.06,29.99
14824,0.3265,-0.024,0.8641,-6.81,7.95,0.0,29.99
14834,0.3257,-0.027,0.8658,-6.81,7.95,-0.02,30.02
14844,0.3274,-0.024,0.8661,-6.78,7.97,-0.06,29.98
14854,0.3292,-0.0261,0.8654,-6.72,8.0,-0.09,29.99
14864,0.3314,-0.0215,0.8649,-6.79,8.0,-0.05,29.99
14874,0.3279,-0.0259,0.8657,-6.73,7.91,-0.05,30.02
14884,0.3278,-0.0261,0.8657,-6.9,8.0,-0.05,30.01
14894,0.3291,-0.0262,0.8661,-6.78,7.98,-0.05,30.01
14904,0.3279,-0.0221,0.8641,-6.81,7.92,0.0,29.99
14914,0.3265,-0.025,0.859,-6.76,7.97,-0.15,30.0
14924,0.3329,-0.0259,0.8644,-6.75,7.95,-0.14,30.0
14934,0.3287,-0.0254,0.8641,-6.73,8.0,-0.11,30.0
14944,0.3287,-0.0265,0.863,-6.72,8.0,-0.08,29.98
14954,0.3293,-0.0247,0.8629,-6.7,7.95,-0.09,29.99
14964,0.3279,-0.0247,0.864,-6.73,7.94,-0.02,29.98
14974,0.326,-0.0265,0.8649,-6.75,8.0,-0.06,29.99
14984,0.3273,-0.0261,0.8654,-6.76,7.92,-0.03,29.99
14994,0.3276,-0.0251,0.8654,-6.76,8.0,-0.12,29.99
15004,0.3279,-0.0248,0.8647,-6.81,7.88,-0.06,29.97
15014,0.3284,-0.0265,0.8684,-6.7,7.98,-0.06,29.99
15024,0.3308,-0.0277,0.8662,-6.78,7.94,-0.02,29.99
15034,0.328,-0.0249,0.8644,-6.69,7.98,-0.09,30.01
15044,0.3285,-0.0249,0.8645,-6.72,8.02,-0.06,29.99
15054,0.3292,-0.0229,0.8644,-6.79,8.0,0.03,30.01
15064,0.3307,-0.0267,0.8636,-6.67,7.95,0.0,29.99
15074,0.3284,-0.0266,0.8591,-6.67,8.02,-0.11,30.01
15084,0.3295,-0.0256,0.8658,-6.79,8.0,-0.11,29.98
15094,0.3303,-0.024,0.8652,-6.84,7.95,0.0,30.0
15104,0.3267,-0.0261,0.8661,-6.76,7.86,0.0,30.01
15114,0.3295,-0.0262,0.864,-6.7,7.95,-0.03,30.02
15124,0.328,-0.028,0.8663,-6.78,7.97,-0.03,30.01
15134,0.3258,-0.0239,0.8641,-6.78,8.0,0.0,30.0
15144,0.3246,-0.0267,0.8645,-6.79,7.92,-0.05,30.0
15154,0.3265,-0.0262,0.8687,-6.76,8.0,-0.05,29.98
15164,0.3279,-0.0254,0.8638,-6.79,7.98,-0.06,30.01
15174,0.3237,-0.0273,0.8658,-6.72,7.95,-0.11,30.01
15184,0.3268,-0.0291,0.8661,-6.9,8.0,-0.09,30.04
15194,0.3308,-0.0271,0.864,-6.81,7.92,0.05,30.02
15204,0.3284,-0.0267,0.8621,-6.69,7.92,-0.05,29.99
15214,0.3252,-0.0236,0.8655,-6.7,8.02,-0.09,30.01
15224,0.332,-0.025,0.8651,-6.81,7.91,-0.03,30.0
15234,0.3282,-0.0248,0.8623,-6.84,8.0,-0.03,30.02
15244,0.3275,-0.0265,0.8643,-6.73,8.0,-0.18,29.99
15254,0.3273,-0.0267,0.8641,-6.82,7.95,-0.08,29.99
15264,0.3314,-0.0275,0.8651,-6.72,7.95,-0.12,30.02
15274,0.3296,-0.0249,0.8624,-6.72,7.97,-0.08,30.02
15284,0.3273,-0.0262,0.8621,-6.73,7.92,-0.06,30.02
15294,0.3281,-0.0288,0.8643,-6.85,7.91,-0.09,30.02
15305,0.3284,-0.0247,0.8669,-6.75,7.92,-0.09,30.03
15315,0.3278,-0.0247,0.8651,-6.76,7.97,-0.03,30.04
15325,0.3287,-0.0269,0.8629,-6.73,8.06,-0.06,30.0
15335,0.3293,-0.0232,0.8616,-6.79,7.95,-0.03,30.0
15345,0.3289,-0.0277,0.8634,-6.73,7.97,-0.05,30.02
15355,0.3276,-0.0277,0.8685,-6.76,7.98,-0.03,30.04
15365,0.3285,-0.0273,0.8624,-6.78,7.95,-0.11,30.0
15375,0.3253,-0.0254,0.8668,-6.78,8.0,-0.08,30.0
15385,0.3246,-0.0238,0.868,-6.84,7.98,-0.06,30.0
15395,0.3311,-0.0245,0.864,-6.76,8.0,-0.03,30.03
15405,0.3273,-0.0259,0.8627,-6.73,7.92,-0.03,30.02
15415,0.3271,-0.0247,0.863,-6.79,7.97,-0.12,30.01
15425,0.3269,-0.0236,0.8654,-6.76,7.92,-0.06,30.0
15435,0.3259,-0.0262,0.8668,-6.7,7.95,-0.03,30.01
15445,0.327,-0.0237,0.8644,-6.78,7.92,-0.03,30.02
15455,0.3247,-0.024,0.8669,-6.84,8.02,-0.09,30.03
15465,0.3264,-0.026,0.8638,-6.78,7.94,-0.08,30.02
15475,0.3269,-0.026,0.8641,-6.82,7.94,-0.03,30.0
15485,0.3274,-0.0287,0.8658,-6.81,7.98,-0.06,30.01
15495,0.3301,-0.0261,0.8646,-6.87,8.02,-0.02,29.99
15505,0.3301,-0.0271,0.8682,-6.73,7.98,-0.12,30.01
15516,0.3302,-0.0239,0.8654,-6.78,7.95,-0.03,29.99
15526,0.3251,-0.0272,0.8694,-6.7,8.03,-0.09,30.02
15536,0.329,-0.0269,0.8632,-6.76,8.02,-0.05,30.01
15546,0.3276,-0.0308,0.8668,-6.76,8.0,-0.02,29.99
15556,0.3322,-0.0282,0.8652,-6.76,7.98,-0.06,30.01
15566,0.3284,-0.0244,0.8652,-6.85,7.98,-0.09,29.99
15576,0.327,-0.0243,0.8655,-6.82,7.95,-0.08,29.99
15586,0.3258,-0.0251,0.8634,-6.76,8.05,-0.12,30.0
15596,0.3287,-0.0283,0.8661,-6.73,7.97,-0.09,30.02
15606,0.325,-0.0282,0.8672,-6.69,7.98,-0.06,30.01
15616,0.3263,-0.027,0.8646,-6.7,7.91,-0.08,30.04
15626,0.3257,-0.0282,0.8656,-6.73,7.94,-0.06,30.03
15636,0.3281,-0.0253,0.866,-6.72,7.94,-0.08,30.03
15646,0.3253,-0.0269,0.866,-6.84,8.02,-0.06,30.02
15656,0.3276,-0.0221,0.8639,-6.72,7.97,0.0,30.02
15666,0.3289,-0.025,0.8641,-6.81,7.98,-0.06,30.07
15676,0.3292,-0.025,0.8625,-6.79,8.02,-0.03,30.02
15686,0.3301,-0.0245,0.8668,-6.7,7.94,-0.02,30.0
15696,0.3286,-0.0264,0.8635,-6.75,7.94,0.0,30.01
15706,0.3275,-0.0276,0.8665,-6.78,7.97,-0.02,30.03
15716,0.3275,-0.025,0.8632,-6.7,7.98,-0.03,30.03
15726,0.3285,-0.0251,0.8669,-6.76,8.03,0.02,30.03
15736,0.3285,-0.0262,0.8632,-6.73,7.97,-0.06,30.04
15746,0.3247,-0.0264,0.8679,-6.73,7.97,-0.05,30.04
15756,0.3301,-0.0249,0.8643,-6.81,7.94,-0.02,30.0
15766,0.3267,-0.0262,0.866,-6.76,7.97,-0.02,30.0
15776,0.329,-0.0264,0.8699,-6.79,7.98,0.0,30.01
15786,0.3256,-0.0222,0.8662,-6.69,7.97,-0.03,30.02
15796,0.3274,-0.0243,0.8634,-6.7,7.97,0.03,30.02
15806,0.3274,-0.0266,0.8641,-6.76,7.98,0.0,30.03
15816,0.3273,-0.0267,0.8651,-6.73,7.92,0.05,30.02
15826,0.3313,-0.0259,0.864,-6.75,7.95,-0.03,30.0
15836,0.3293,-0.0267,0.8646,-6.69,8.0,-0.06,30.02
15846,0.3281,-0.0249,0.864,-6.72,8.0,-0.08,30.02
15856,0.3276,-0.0253,0.8618,-6.69,7.88,-0.12,30.02
15866,0.3274,-0.0248,0.8606,-6.78,7.95,-0.12,30.02
15876,0.3281,-0.0278,0.8641,-6.75,7.92,-0.06,30.01
15886,0.3281,-0.0232,0.8679,-6.75,7.92,-0.03,30.03
15896,0.3276,-0.0271,0.8658,-6.72,7.97,0.02,29.99
15906,0.3285,-0.0261,0.8671,-6.78,8.05,-0.05,29.99
15916,0.3271,-0.0253,0.8647,-6.81,8.0,-0.06,30.03
15926,0.3275,-0.0248,0.8679,-6.78,8.03,-0.08,30.01
15936,0.3293,-0.0262,0.8638,-6.72,8.0,-0.06,30.03
15946,0.3307,-0.0269,0.8652,-6.76,7.97,0.0,30.02
15956,0.329,-0.0244,0.8602,-6.73,7.98,-0.03,30.02
15966,0.3248,-0.0267,0.8636,-6.76,7.97,-0.03,30.02
15976,0.328,-0.025,0.8656,-6.79,7.97,-0.05,30.0
15986,0.3291,-0.0242,0.8641,-6.82,7.91,-0.08,30.04
15996,0.3274,-0.0244,0.8611,-6.79,7.98,0.0,30.03
16006,0.3289,-0.0258,0.8676,-6.81,8.0,-0.03,30.03
16016,0.3326,-0.0254,0.8669,-6.76,7.94,-0.02,30.03
16026,0.3313,-0.0239,0.8647,-6.69,7.94,-0.05,30.03
16036,0.3302,-0.0256,0.8625,-6.76,7.92,-0.08,30.01
16046,0.3267,-0.0261,0.8617,-6.67,7.95,-0.03,30.02
16056,0.3264,-0.0242,0.8634,-6.75,8.02,-0.09,29.99
16066,0.3286,-0.0243,0.8645,-6.72,7.92,0.02,30.03
16076,0.3254,-0.0214,0.8633,-6.76,7.92,-0.02,30.02
16086,0.3273,-0.0264,0.8676,-6.87,7.92,-0.05,30.03
16096,0.328,-0.0278,0.8656,-6.7,8.02,-0.03,30.02
16106,0.325,-0.0259,0.8635,-6.72,8.0,0.02,30.02
16116,0.3269,-0.0237,0.8663,-6.75,7.98,-0.05,30.04
16126,0.3284,-0.0271,0.864,-6.78,7.91,-0.05,30.02
16136,0.3258,-0.0233,0.8632,-6.81,7.94,-0.03,30.04
16146,0.3293,-0.0261,0.8666,-6.76,7.97,-0.05,30.02
16156,0.3291,-0.0249,0.8683,-6.73,8.0,-0.03,30.0
16166,0.3241,-0.0269,0.8638,-6.7,8.0,0.03,30.02
16176,0.3285,-0.0273,0.8671,-6.79,7.91,-0.06,30.02
16186,0.3262,-0.0248,0.8608,-6.72,8.02,0.0,30.03
16196,0.3306,-0.0262,0.8647,-6.81,7.86,-0.05,30.03
16206,0.3269,-0.0254,0.8647,-6.78,7.94,-0.05,30.04
16216,0.3269,-0.0254,0.8655,-6.75,7.95,-0.09,30.04
16226,0.3278,-0.0275,0.8619,-6.82,7.94,-0.08,30.02
16236,0.328,-0.0266,0.8657,-6.81,7.94,-0.03,30.04
16246,0.3295,-0.0265,0.8617,-6.85,7.97,-0.03,30.03
16256,0.323,-0.0282,0.8632,-6.79,8.03,-0.06,30.03
16266,0.3281,-0.0249,0.8617,-6.82,7.92,-0.02,30.04
16276,0.3285,-0.0249,0.8635,-6.79,7.89,0.0,30.04
16286,0.33,-0.0271,0.8613,-6.76,8.05,-0.02,30.05
16296,0.3259,-0.0261,0.8672,-6.76,8.02,-0.06,30.03
16306,0.332,-0.0242,0.8649,-6.73,8.02,0.0,30.02
16316,0.3253,-0.0254,0.8633,-6.75,8.0,0.02,30.04
16326,0.3274,-0.0254,0.8619,-6.81,7.97,-0.03,30.0
16336,0.3302,-0.0254,0.8661,-6.76,7.94,-0.08,30.01
16346,0.3282,-0.0282,0.8662,-6.76,7.97,-0.02,30.01
16356,0.327,-0.0236,0.8613,-6.69,8.0,-0.06,30.02
16366,0.3275,-0.0256,0.8601,-6.82,7.98,-0.03,30.02
16376,0.3286,-0.0264,0.8651,-6.75,7.98,0.0,30.02
16386,0.3278,-0.0272,0.8652,-6.81,8.0,-0.06,30.03
16396,0.3273,-0.0265,0.8628,-6.69,8.02,0.02,30.03
16406,0.3296,-0.0262,0.8628,-6.78,7.97,-0.09,30.03
16416,0.3304,-0.0242,0.8657,-6.73,7.98,-0.09,30.02
16426,0.3286,-0.0253,0.8663,-6.73,8.0,-0.05,30.04
16436,0.3278,-0.0248,0.8634,-6.78,7.94,-0.05,30.03
16446,0.3304,-0.0289,0.8628,-6.81,8.02,-0.03,30.02
16456,0.3271,-0.0265,0.8639,-6.67,7.95,0.05,30.02
16466,0.3246,-0.0277,0.8669,-6.76,8.05,-0.03,30.02
16476,0.3262,-0.0253,0.8654,-6.78,7.97,-0.08,30.01
16486,0.3304,-0.0238,0.8652,-6.81,8.02,0.0,30.03
16496,0.3271,-0.0258,0.8625,-6.75,7.98,-0.05,30.03
16506,0.3286,-0.0276,0.8669,-6.78,8.05,-0.03,30.02
16516,0.3271,-0.0284,0.8665,-6.78,7.97,0.05,30.04
16526,0.3273,-0.0269,0.8665,-6.73,7.91,-0.11,30.01
16536,0.3259,-0.0243,0.8712,-6.73,7.97,0.0,30.0
16546,0.3248,-0.0261,0.8683,-6.72,7.97,-0.02,30.03
16556,0.3292,-0.0255,0.8633,-6.81,7.91,0.02,30.03
16566,0.3256,-0.0243,0.8652,-6.78,7.86,-0.08,30.02
16576,0.3289,-0.0249,0.8611,-6.78,7.91,-0.03,30.04
16586,0.3296,-0.0253,0.8635,-6.73,8.0,0.0,30.05
16596,0.3253,-0.0253,0.8667,-6.81,8.02,-0.11,30.02
16606,0.3271,-0.0259,0.8644,-6.84,8.02,-0.05,30.02
16616,0.3293,-0.0245,0.8671,-6.85,8.0,-0.05,30.03
16626,0.3267,-0.0297,0.8667,-6.81,8.02,-0.09,30.04
16636,0.3282,-0.0232,0.8654,-6.82,8.0,-0.06,30.03
16646,0.3286,-0.027,0.8678,-6.82,8.0,-0.09,30.02
16656,0.3286,-0.0256,0.8612,-6.76,8.02,-0.03,30.02
16666,0.3301,-0.0278,0.8652,-6.73,7.95,-0.05,30.02
16676,0.3285,-0.0248,0.8644,-6.82,7.97,-0.05,30.04
16686,0.3276,-0.0258,0.8634,-6.75,7.98,-0.03,30.04
16696,0.3271,-0.0228,0.8668,-6.78,8.03,0.02,30.05
16706,0.3314,-0.0259,0.8638,-6.75,7.98,-0.12,30.05
16716,0.3285,-0.0261,0.8639,-6.73,7.95,0.0,30.04
16726,0.3268,-0.0258,0.8633,-6.75,7.97,0.02,30.03
16736,0.3264,-0.0258,0.8655,-6.7,8.05,-0.05,30.02
16746,0.327,-0.0289,0.864,-6.75,8.03,-0.09,30.04
16756,0.3291,-0.0258,0.8674,-6.76,8.0,-0.11,30.02
16766,0.3263,-0.0256,0.8643,-6.81,7.97,0.0,30.03
16776,0.3259,-0.0236,0.8678,-6.84,7.94,-0.06,30.03
16786,0.3285,-0.026,0.8658,-6.79,7.95,-0.09,30.07
16796,0.3285,-0.0269,0.8657,-6.76,7.94,-0.02,30.03
16806,0.3278,-0.0242,0.8676,-6.82,8.0,-0.03,30.02
16816,0.3258,-0.0247,0.8673,-6.79,7.97,-0.06,30.05
16826,0.3289,-0.0272,0.8645,-6.7,8.0,-0.14,30.06
16836,0.3271,-0.0256,0.8622,-6.67,8.02,-0.06,30.02
16846,0.3278,-0.026,0.8622,-6.75,8.03,-0.05,30.05
16856,0.3287,-0.0254,0.8652,-6.76,8.0,-0.05,30.02
16866,0.3281,-0.0261,0.8667,-6.79,8.0,-0.05,30.04
16876,0.3287,-0.0265,0.866,-6.82,7.94,-0.06,30.06
16886,0.3259,-0.0244,0.8629,-6.79,8.0,-0.09,30.05
16897,0.3279,-0.0256,0.8678,-6.75,8.03,-0.03,30.02
16907,0.3281,-0.0239,0.8684,-6.79,8.0,0.03,30.05
16917,0.3303,-0.0255,0.8651,-6.84,7.97,-0.05,30.02
16927,0.3303,-0.0253,0.8707,-6.73,7.89,-0.03,30.04
16937,0.3268,-0.0284,0.8646,-6.81,7.97,-0.05,30.04
16947,0.3291,-0.0253,0.864,-6.72,7.97,-0.03,30.04
16957,0.3297,-0.0282,0.8649,-6.72,7.92,0.0,30.05
16967,0.3303,-0.0273,0.8647,-6.75,7.91,-0.09,30.06
16977,0.3285,-0.0275,0.8629,-6.78,7.97,-0.12,30.05
16987,0.3262,-0.0258,0.8644,-6.81,8.05,0.0,30.05
16997,0.3267,-0.0234,0.8667,-6.81,8.0,-0.08,30.03
17007,0.3276,-0.0281,0.8672,-6.76,8.08,-0.09,30.06
17017,0.3308,-0.0266,0.863,-6.73,7.91,-0.05,30.03
17027,0.3275,-0.0259,0.864,-6.81,7.91,-0.06,30.05
17038,0.3292,-0.0256,0.8616,-6.73,7.92,0.02,30.04
17048,0.327,-0.0247,0.8649,-6.73,7.97,-0.02,30.07
17059,0.3303,-0.0248,0.8665,-6.75,7.98,-0.02,30.03
17069,0.3282,-0.0283,0.8655,-6.82,8.03,0.02,30.04
17079,0.3263,-0.0243,0.8679,-6.76,7.98,0.02,30.04
17089,0.327,-0.0237,0.8661,-6.75,7.95,0.03,30.04
17099,0.33,-0.0256,0.8647,-6.76,7.94,-0.03,30.04
17109,0.3284,-0.0265,0.8673,-6.78,7.89,-0.05,30.05
17119,0.3278,-0.0231,0.8658,-6.76,8.0,-0.09,30.03
17129,0.328,-0.0248,0.8667,-6.78,7.95,-0.05,30.07
17140,0.3287,-0.0237,0.8668,-6.78,7.95,-0.09,30.04
17150,0.3298,-0.024,0.8647,-6.73,8.06,-0.05,30.03
17160,0.3252,-0.0248,0.8645,-6.78,7.98,-0.09,30.04
17170,0.3312,-0.0267,0.8644,-6.76,7.95,-0.12,30.05
17180,0.3281,-0.0304,0.8661,-6.75,7.94,-0.11,30.02
17190,0.3262,-0.0261,0.8666,-6.75,7.97,-0.06,30.05
17200,0.328,-0.0242,0.8678,-6.81,8.03,-0.05,30.02
17210,0.3296,-0.0254,0.8655,-6.78,7.95,0.0,30.04
17220,0.3278,-0.0236,0.8618,-6.78,7.97,-0.05,30.06
17230,0.3285,-0.0256,0.8633,-6.72,7.95,0.02,30.05
17240,0.3309,-0.028,0.8652,-6.76,7.98,0.0,30.04
17250,0.3287,-0.0271,0.8671,-6.73,8.02,-0.03,30.04
17260,0.3251,-0.0281,0.8668,-6.76,7.98,-0.06,30.05
17270,0.3281,-0.0244,0.8666,-6.78,7.98,-0.08,30.03
17280,0.3271,-0.025,0.8613,-6.79,7.97,-0.02,30.04
17290,0.3292,-0.0272,0.8654,-6.78,7.97,-0.06,30.03
17300,0.3262,-0.027,0.8691,-6.78,7.98,-0.05,30.03
17310,0.3262,-0.0264,0.864,-6.81,7.98,-0.02,30.06
17320,0.3278,-0.025,0.863,-6.75,7.98,-0.05,30.02
17330,0.3267,-0.0269,0.864,-6.78,7.88,-0.08,30.05
17340,0.3292,-0.0288,0.8661,-6.82,7.98,-0.09,30.04
17350,0.329,-0.0271,0.8633,-6.75,7.94,0.0,30.03
17360,0.3274,-0.0256,0.864,-6.76,7.95,-0.06,30.03
17370,0.3271,-0.0293,0.8654,-6.79,7.97,-0.05,30.03
17380,0.3311,-0.0273,0.8643,-6.78,7.97,-0.06,30.05
17390,0.3284,-0.0248,0.8635,-6.76,7.91,0.02,30.03
17400,0.3271,-0.0256,0.8611,-6.78,7.97,0.06,30.03
17410,0.3279,-0.0243,0.8615,-6.73,7.94,-0.02,30.04
17420,0.3265,-0.0244,0.8668,-6.78,7.92,-0.03,30.02
17430,0.3301,-0.0273,0.8663,-6.76,7.95,-0.06,30.05
17440,0.3262,-0.0253,0.8644,-6.72,7.95,0.02,30.06
17450,0.3282,-0.0248,0.8633,-6.75,8.0,-0.06,30.02
17460,0.3318,-0.0258,0.8685,-6.79,7.97,-0.11,30.03
17470,0.3292,-0.0248,0.8667,-6.76,7.94,-0.08,30.04
17480,0.3278,-0.0254,0.8645,-6.78,7.95,-0.03,30.05
17490,0.3286,-0.0245,0.8585,-6.73,7.89,-0.06,30.05
17500,0.3285,-0.0262,0.8651,-6.79,7.94,-0.05,30.04
17510,0.3293,-0.0253,0.8671,-6.7,8.02,-0.03,30.05
17520,0.3282,-0.0249,0.8667,-6.69,7.97,-0.03,30.05
17530,0.327,-0.0255,0.8696,-6.75,7.98,-0.03,30.04
17540,0.3253,-0.0239,0.8645,-6.75,7.98,-0.05,30.03
17550,0.3286,-0.0265,0.864,-6.7,8.11,-0.03,30.05
17560,0.3264,-0.0264,0.8671,-6.76,7.91,-0.11,30.04
17570,0.3281,-0.0264,0.8661,-6.67,8.0,0.03,30.06
17580,0.3268,-0.0266,0.865,-6.76,8.0,-0.08,30.03
17590,0.3286,-0.0249,0.8647,-6.78,8.0,-0.06,30.03
17600,0.3274,-0.0258,0.8629,-6.76,7.97,-0.05,30.05
17610,0.3274,-0.0269,0.8636,-6.79,8.06,-0.05,30.02
17620,0.3267,-0.0259,0.8649,-6.78,7.95,-0.05,30.04
17630,0.3303,-0.0249,0.8652,-6.76,7.94,-0.03,30.06
17640,0.3279,-0.0258,0.8677,-6.82,7.97,-0.08,30.02
17650,0.3279,-0.0226,0.8638,-6.75,7.98,0.03,30.04
17660,0.3253,-0.0251,0.8617,-6.79,7.97,0.06,30.06
17670,0.3268,-0.0277,0.8634,-6.78,7.95,0.02,30.05
17680,0.3295,-0.0239,0.8663,-6.79,8.08,-0.02,30.03
17690,0.3282,-0.0265,0.8666,-6.69,7.91,-0.02,30.04
17700,0.3262,-0.0255,0.8667,-6.79,7.98,-0.05,30.03
17710,0.3271,-0.0253,0.8627,-6.75,7.95,-0.06,30.04
17720,0.327,-0.0278,0.8634,-6.87,8.02,-0.02,30.05
17730,0.3268,-0.0251,0.8636,-6.78,8.02,-0.08,30.04
17740,0.3235,-0.0247,0.8671,-6.76,7.92,-0.08,30.04
17750,0.328,-0.025,0.8649,-6.72,8.02,-0.02,30.07
17760,0.3285,-0.0256,0.8636,-6.78,8.03,0.09,30.05
17770,0.3302,-0.026,0.8694,-6.7,8.02,-0.05,30.02
17780,0.3267,-0.027,0.8668,-6.87,7.97,-0.06,30.05
17790,0.3267,-0.0262,0.8667,-6.78,7.91,-0.08,30.06
17800,0.3268,-0.0281,0.8654,-6.76,7.94,-0.12,30.05
17810,0.3284,-0.0258,0.8655,-6.72,7.95,-0.09,30.07
17820,0.3269,-0.0249,0.8667,-6.72,8.02,-0.05,30.06
17830,0.3287,-0.0262,0.8651,-6.78,7.98,-0.06,30.08
17840,0.3268,-0.0278,0.8636,-6.81,7.95,0.06,30.05
17850,0.3289,-0.024,0.8666,-6.75,7.98,0.0,30.06
17862,0.3301,-0.025,0.864,-6.79,7.94,0.0,30.04
17872,0.3251,-0.0237,0.8679,-6.79,7.95,-0.08,30.04
17882,0.3295,-0.0258,0.8673,-6.79,7.95,-0.05,30.04
17892,0.3301,-0.0242,0.8643,-6.76,7.98,-0.02,30.08
17902,0.3284,-0.0237,0.8649,-6.81,7.97,-0.03,30.06
17912,0.3296,-0.0248,0.8641,-6.75,7.92,-0.05,30.07
17922,0.3287,-0.0266,0.8613,-6.79,8.02,-0.02,30.07
17932,0.3257,-0.027,0.8677,-6.72,7.95,-0.06,30.07
17943,0.3242,-0.0249,0.8647,-6.75,8.02,-0.02,30.05
17953,0.3289,-0.0259,0.8613,-6.79,8.05,-0.08,30.05
17963,0.3304,-0.0271,0.8698,-6.75,7.88,-0.03,30.04
17973,0.3287,-0.0272,0.8604,-6.84,8.0,-0.02,30.05
17983,0.3303,-0.0267,0.8668,-6.67,7.94,-0.03,30.06
17993,0.3237,-0.0254,0.8635,-6.75,7.95,-0.02,30.06
18003,0.3253,-0.026,0.864,-6.67,8.02,-0.05,30.04
18013,0.3262,-0.0262,0.8663,-6.79,8.02,0.0,30.05
18023,0.3262,-0.0278,0.8676,-6.84,7.89,-0.09,30.06
18033,0.3265,-0.0261,0.8612,-6.78,7.98,-0.03,30.04
18043,0.3263,-0.0256,0.8621,-6.72,7.97,-0.06,30.04
18053,0.3291,-0.0271,0.8655,-6.72,8.02,-0.02,30.06
18063,0.3264,-0.0265,0.8624,-6.78,7.97,-0.11,30.04
18073,0.3284,-0.0225,0.8641,-6.7,7.97,-0.03,30.05
18083,0.3289,-0.0266,0.8687,-6.72,7.98,-0.09,30.06
18093,0.3278,-0.0251,0.8608,-6.73,7.95,0.0,30.05
18103,0.3263,-0.0271,0.8644,-6.69,8.05,-0.06,30.06
18113,0.327,-0.0272,0.8658,-6.72,7.91,-0.03,30.09
18123,0.3287,-0.0262,0.8645,-6.73,7.98,-0.08,30.04
18133,0.3289,-0.027,0.8635,-6.78,8.03,-0.06,30.06
18143,0.3271,-0.0271,0.8693,-6.78,8.05,-0.15,30.04
18153,0.3276,-0.0234,0.8647,-6.78,8.02,-0.02,30.07
18163,0.326,-0.0261,0.8674,-6.78,7.97,-0.06,30.05
18173,0.3291,-0.0258,0.8678,-6.82,7.92,-0.03,30.05
18183,0.3289,-0.0214,0.8618,-6.72,8.0,0.03,30.06
18193,0.3262,-0.0248,0.8645,-6.76,7.98,-0.08,30.07
18203,0.3284,-0.0244,0.8633,-6.81,7.97,0.0,30.05
18213,0.328,-0.0227,0.86,-6.85,8.0,-0.09,30.05
18223,0.3287,-0.0232,0.8615,-6.72,8.02,-0.06,30.08
18233,0.3287,-0.0253,0.8671,-6.79,8.0,-0.03,30.06
18243,0.3274,-0.0244,0.8695,-6.84,7.98,-0.14,30.04
18253,0.329,-0.0254,0.8662,-6.82,8.05,-0.09,30.09
18263,0.3311,-0.0245,0.8665,-6.7,8.0,-0.03,30.04
18273,0.3292,-0.0232,0.8652,-6.78,8.03,-0.05,30.07
18283,0.3281,-0.0258,0.8644,-6.79,7.95,-0.03,30.07
18293,0.3285,-0.0281,0.8611,-6.82,8.0,-0.11,30.06
18303,0.3282,-0.0276,0.8663,-6.81,7.97,-0.11,30.06
18313,0.3268,-0.0239,0.8687,-6.69,7.94,-0.09,30.09
18323,0.3296,-0.0281,0.8627,-6.82,7.98,0.03,30.07
18333,0.3286,-0.0264,0.8636,-6.76,7.98,-0.05,30.07
18343,0.3275,-0.027,0.864,-6.75,7.95,-0.03,30.07
18353,0.326,-0.0258,0.8641,-6.75,7.97,-0.14,30.07
18363,0.3301,-0.025,0.8663,-6.76,7.95,-0.06,30.09
18373,0.329,-0.0255,0.8661,-6.7,7.91,-0.02,30.05
18383,0.3273,-0.0261,0.8658,-6.75,7.95,-0.09,30.07
18393,0.3296,-0.0228,0.8666,-6.79,8.02,0.0,30.04
18403,0.3263,-0.0283,0.8699,-6.72,8.02,-0.03,30.06
18413,0.328,-0.0239,0.8644,-6.76,8.02,-0.06,30.07
18423,0.3289,-0.0249,0.8639,-6.81,7.98,-0.02,30.07
18433,0.3251,-0.0289,0.8662,-6.81,7.97,-0.05,30.05
18443,0.3306,-0.0284,0.8667,-6.69,8.03,-0.05,30.08
18453,0.3301,-0.0254,0.8634,-6.79,7.95,-0.06,30.05
18463,0.3286,-0.0276,0.8629,-6.73,8.02,-0.02,30.05
18473,0.3296,-0.0256,0.8633,-6.81,7.97,-0.08,30.08
18483,0.3278,-0.0247,0.8663,-6.79,7.98,-0.06,30.05
18493,0.3279,-0.0243,0.8652,-6.81,8.09,-0.09,30.07
18503,0.3284,-0.0255,0.8652,-6.81,7.92,-0.03,30.07
18513,0.3297,-0.0284,0.8608,-6.73,7.94,-0.06,30.06
18523,0.3295,-0.0253,0.8639,-6.81,7.97,-0.06,30.09
18533,0.3268,-0.0283,0.8668,-6.75,7.98,-0.12,30.06
18543,0.3282,-0.0256,0.8636,-6.82,8.03,0.06,30.07
18553,0.326,-0.024,0.8654,-6.75,8.0,-0.05,30.07
18563,0.329,-0.0233,0.8623,-6.72,8.0,-0.05,30.05
18573,0.3256,-0.0262,0.8615,-6.73,7.97,0.08,30.07
18583,0.327,-0.028,0.8644,-6.82,8.02,-0.02,30.08
18593,0.3285,-0.0275,0.8638,-6.82,8.02,-0.06,30.08
18603,0.3314,-0.0284,0.8621,-6.72,7.97,0.02,30.06
18613,0.3273,-0.0258,0.8661,-6.75,7.94,0.0,30.06
18623,0.3296,-0.0258,0.8658,-6.73,8.03,0.06,30.08
18633,0.3274,-0.027,0.8649,-6.78,8.03,-0.09,30.06
18643,0.3287,-0.0264,0.8657,-6.73,7.98,-0.02,30.09
18653,0.3287,-0.0229,0.8677,-6.79,8.03,-0.08,30.08
18663,0.3304,-0.0234,0.8647,-6.79,8.02,-0.08,30.07
18673,0.33,-0.0244,0.8639,-6.75,7.94,-0.06,30.08
18683,0.3287,-0.026,0.8651,-6.79,8.03,-0.06,30.06
18693,0.327,-0.0265,0.8615,-6.87,7.95,-0.05,30.05
18703,0.3291,-0.0254,0.8645,-6.79,7.95,-0.02,30.08
18713,0.3271,-0.0253,0.8613,-6.73,7.92,0.05,30.06
18723,0.326,-0.0255,0.8649,-6.73,7.97,-0.11,30.07
18733,0.3309,-0.025,0.8623,-6.79,8.09,0.02,30.07
18743,0.3259,-0.025,0.8636,-6.75,7.98,-0.12,30.07
18753,0.3295,-0.0249,0.8688,-6.72,7.97,-0.08,30.09
18763,0.3284,-0.026,0.8645,-6.78,8.03,-0.02,30.08
18774,0.3273,-0.0253,0.8667,-6.78,7.95,-0.06,30.08
18784,0.3306,-0.0277,0.8679,-6.76,8.03,-0.09,30.08
18794,0.3265,-0.0253,0.864,-6.69,7.95,-0.08,30.05
18804,0.3267,-0.0249,0.863,-6.76,7.94,-0.03,30.07
18814,0.3276,-0.0254,0.863,-6.85,8.08,-0.03,30.05
18824,0.3278,-0.0294,0.8671,-6.81,8.02,-0.05,30.08
18834,0.3278,-0.0239,0.8682,-6.79,8.02,-0.08,30.08
18844,0.328,-0.0248,0.8615,-6.69,7.92,-0.06,30.08
18854,0.3264,-0.0269,0.869,-6.72,8.02,-0.02,30.08
18864,0.3247,-0.0258,0.8632,-6.78,7.95,-0.06,30.08
18874,0.3264,-0.0243,0.864,-6.76,7.97,0.06,30.07
18884,0.3278,-0.0287,0.8668,-6.79,7.95,-0.03,30.09
18894,0.3278,-0.0238,0.8666,-6.73,7.94,-0.08,30.08
18904,0.3256,-0.0243,0.8684,-6.79,7.94,-0.03,30.07
18914,0.3264,-0.022,0.8643,-6.75,8.0,-0.11,30.08
18924,0.3263,-0.0247,0.8665,-6.75,7.97,0.0,30.08
18934,0.3297,-0.0223,0.8666,-6.76,8.0,-0.02,30.07
18945,0.3291,-0.026,0.8652,-6.84,8.03,-0.08,30.07
18955,0.3286,-0.0276,0.8665,-6.7,7.91,-0.06,30.09
18965,0.3241,-0.0259,0.8677,-6.82,7.97,-0.08,30.05
18975,0.3287,-0.0232,0.8635,-6.81,7.95,0.05,30.07
18985,0.3285,-0.0233,0.8652,-6.81,8.0,-0.02,30.08
18995,0.3306,-0.0226,0.8656,-6.78,7.97,-0.06,30.07
19005,0.3282,-0.0249,0.865,-6.73,7.92,-0.05,30.09
19015,0.33,-0.0291,0.8689,-6.76,7.98,-0.06,30.07
19025,0.3287,-0.025,0.8622,-6.81,7.98,-0.05,30.07
19035,0.328,-0.0264,0.8679,-6.76,7.94,-0.08,30.07
19045,0.3284,-0.0236,0.8684,-6.78,7.95,-0.03,30.06
19055,0.3268,-0.0266,0.8671,-6.78,7.97,-0.03,30.07
19065,0.3276,-0.0249,0.8662,-6.81,8.06,-0.05,30.09
19075,0.3273,-0.0254,0.8699,-6.82,7.91,-0.06,30.07
19085,0.3281,-0.0242,0.8665,-6.76,7.98,0.02,30.06
19095,0.3296,-0.0231,0.8618,-6.76,7.91,0.0,30.07
19105,0.3273,-0.025,0.8632,-6.76,8.02,0.02,30.06
19115,0.3293,-0.0276,0.8652,-6.72,7.94,-0.08,30.04
19125,0.3252,-0.028,0.8691,-6.81,8.03,-0.05,30.06
19135,0.3282,-0.0264,0.8656,-6.81,7.95,-0.05,30.06
19145,0.3295,-0.026,0.8677,-6.72,7.92,0.02,30.07
19155,0.3296,-0.0261,0.8645,-6.81,7.95,0.05,30.06
19165,0.33,-0.0239,0.8658,-6.75,7.97,-0.06,30.08
19175,0.326,-0.027,0.8689,-6.78,8.03,0.05,30.05
19185,0.3265,-0.0278,0.8641,-6.73,8.02,-0.05,30.08
19195,0.3282,-0.0239,0.8634,-6.78,7.95,-0.05,30.07
19205,0.3292,-0.0272,0.8678,-6.78,8.05,-0.08,30.07
19215,0.3284,-0.0258,0.8657,-6.76,7.94,-0.02,30.07
19225,0.3282,-0.0262,0.8656,-6.75,8.0,0.06,30.06
19235,0.3285,-0.0248,0.8638,-6.78,7.91,-0.12,30.05
19245,0.327,-0.0256,0.8657,-6.78,7.94,-0.02,30.06
19255,0.3286,-0.0295,0.8666,-6.73,8.0,-0.08,30.08
19265,0.3293,-0.0264,0.8619,-6.76,7.95,-0.08,30.06
19275,0.3278,-0.0294,0.8665,-6.81,7.94,-0.09,30.09
19285,0.3306,-0.0299,0.8643,-6.81,7.97,0.03,30.07
19295,0.3263,-0.026,0.8621,-6.79,8.03,-0.09,30.06
19305,0.3324,-0.026,0.8636,-6.76,7.94,-0.06,30.08
19315,0.328,-0.0262,0.8622,-6.72,7.98,-0.03,30.06
19325,0.3273,-0.026,0.8645,-6.79,7.94,-0.03,30.07
19335,0.3271,-0.0233,0.8618,-6.75,7.95,-0.09,30.06
19345,0.3293,-0.0258,0.863,-6.75,7.97,-0.03,30.09
19355,0.3282,-0.0261,0.8638,-6.72,7.97,-0.03,30.09
19365,0.3276,-0.0249,0.8633,-6.76,7.95,0.03,30.05
19375,0.33,-0.0238,0.8658,-6.82,8.0,-0.08,30.05
19385,0.3276,-0.0267,0.8625,-6.78,7.97,-0.08,30.06
19395,0.3271,-0.025,0.8646,-6.76,7.97,-0.08,30.07
19405,0.3284,-0.026,0.8617,-6.78,7.98,-0.11,30.08
19415,0.326,-0.0253,0.8644,-6.81,7.98,-0.05,30.08
19426,0.3279,-0.0267,0.8611,-6.75,7.98,-0.02,30.09
19436,0.3278,-0.0275,0.863,-6.78,7.98,-0.06,30.09
19446,0.3253,-0.0267,0.8633,-6.82,8.11,0.03,30.07
19456,0.3269,-0.0254,0.8619,-6.76,7.95,0.0,30.06
19466,0.3274,-0.0242,0.8633,-6.73,7.98,-0.05,30.08
19476,0.3284,-0.0261,0.8624,-6.89,8.06,0.02,30.07
19486,0.3256,-0.025,0.8617,-6.81,7.98,-0.06,30.07
19497,0.3256,-0.0276,0.8676,-6.82,8.02,-0.09,30.08
19507,0.3289,-0.0249,0.8663,-6.81,8.0,-0.03,30.08
19517,0.3308,-0.0267,0.8671,-6.67,7.97,-0.05,30.07
19527,0.328,-0.0244,0.8641,-6.73,7.91,-0.06,30.09
19538,0.3282,-0.0272,0.8635,-6.79,7.98,-0.11,30.09
19548,0.328,-0.026,0.8654,-6.7,7.92,-0.08,30.08
19558,0.3258,-0.0258,0.8676,-6.84,7.98,-0.09,30.07
19568,0.3247,-0.025,0.8668,-6.69,7.95,0.0,30.1
19578,0.3278,-0.0251,0.8649,-6.73,7.95,0.03,30.06
19588,0.327,-0.0231,0.8663,-6.75,7.98,-0.09,30.08
19599,0.3262,-0.0269,0.8629,-6.78,7.97,-0.02,30.08
19609,0.3297,-0.0254,0.864,-6.79,7.91,-0.14,30.06
19619,0.3274,-0.0248,0.868,-6.78,7.94,-0.06,30.09
19629,0.329,-0.0266,0.8688,-6.81,7.97,-0.09,30.09
19639,0.3291,-0.0256,0.8624,-6.73,7.97,0.0,30.09
19649,0.328,-0.026,0.8641,-6.73,7.94,-0.02,30.08
19659,0.3291,-0.0245,0.866,-6.82,8.03,-0.05,30.1
19669,0.3278,-0.0271,0.8636,-6.82,7.98,-0.02,30.07
19679,0.3262,-0.0237,0.8699,-6.72,7.97,-0.05,30.08
19689,0.3308,-0.0248,0.8644,-6.75,8.0,-0.08,30.07
19699,0.3279,-0.0264,0.8665,-6.7,8.0,-0.05,30.09
19709,0.3273,-0.028,0.8636,-6.75,7.95,-0.02,30.11
19719,0.3285,-0.0232,0.8638,-6.84,7.92,-0.03,30.06
19729,0.3281,-0.0266,0.8657,-6.78,7.89,0.0,30.08
19739,0.3284,-0.026,0.8669,-6.81,8.0,-0.11,30.08
19749,0.3236,-0.0258,0.8622,-6.84,7.94,-0.11,30.06
19759,0.3273,-0.0245,0.8625,-6.78,7.97,-0.03,30.07
19769,0.3267,-0.0256,0.864,-6.72,7.97,0.0,30.09
19779,0.327,-0.0239,0.8651,-6.75,8.0,-0.05,30.09
19789,0.3264,-0.0267,0.8625,-6.78,7.95,0.0,30.09
19800,0.3284,-0.0266,0.8615,-6.72,8.0,-0.05,30.08
19810,0.328,-0.0266,0.861,-6.73,8.0,-0.12,30.09
19821,0.3274,-0.0258,0.8674,-6.79,8.0,-0.08,30.11
19831,0.3282,-0.0259,0.8683,-6.78,8.02,-0.05,30.09
19841,0.3282,-0.0247,0.8668,-6.67,8.0,-0.09,30.09
19851,0.3303,-0.0244,0.8655,-6.75,7.95,-0.12,30.07
19861,0.3298,-0.0269,0.8632,-6.7,7.92,-0.09,30.08
19871,0.3278,-0.0273,0.8635,-6.79,7.88,0.03,30.06
19881,0.3263,-0.0244,0.8608,-6.7,8.02,-0.08,30.08
19891,0.3267,-0.0244,0.8635,-6.75,7.95,-0.02,30.09
19901,0.328,-0.0261,0.8657,-6.75,7.91,-0.03,30.08
19911,0.3258,-0.0253,0.8625,-6.76,8.0,-0.12,30.11
19921,0.328,-0.0249,0.8666,-6.73,8.02,-0.08,30.07
19931,0.3268,-0.0259,0.8639,-6.76,7.94,-0.02,30.07
19941,0.3257,-0.0264,0.8665,-6.82,7.91,-0.03,30.09
19951,0.3296,-0.0262,0.8656,-6.84,7.98,-0.02,30.06
19961,0.3279,-0.0265,0.863,-6.73,7.94,-0.05,30.06
19971,0.3284,-0.0248,0.8639,-6.7,7.98,-0.05,30.09
19981,0.3286,-0.0278,0.8625,-6.78,7.95,-0.06,30.07
19991,0.3307,-0.0242,0.8672,-6.76,7.98,0.05,30.09
20003,0.3296,-0.0265,0.8689,-6.76,8.05,-0.06,30.08
20013,0.3292,-0.0294,0.8605,-6.76,8.02,-0.03,30.1
20023,0.3256,-0.0275,0.8671,-6.72,7.98,-0.08,30.08
20033,0.3282,-0.0273,0.8629,-6.78,8.03,-0.05,30.09
20043,0.3254,-0.0238,0.8617,-6.79,8.03,-0.08,30.09
20053,0.3252,-0.0269,0.8655,-6.75,7.95,-0.08,30.1
20063,0.3295,-0.0291,0.8628,-6.67,7.98,-0.02,30.11
20073,0.326,-0.0292,0.8666,-6.75,8.0,-0.09,30.09
20083,0.3275,-0.0243,0.8672,-6.81,7.94,-0.03,30.1
20093,0.3271,-0.0261,0.8666,-6.78,8.0,-0.08,30.09
20103,0.3281,-0.0247,0.8652,-6.66,7.95,-0.03,30.09
20113,0.3287,-0.025,0.8667,-6.76,7.89,-0.06,30.1
20123,0.3258,-0.0262,0.863,-6.7,7.91,0.02,30.1
20133,0.326,-0.0272,0.8662,-6.79,7.98,-0.08,30.09
20143,0.328,-0.0269,0.8647,-6.78,7.97,-0.06,30.09
20153,0.3309,-0.026,0.866,-6.76,7.98,0.0,30.08
20163,0.3264,-0.0262,0.8665,-6.72,7.98,-0.08,30.07
20173,0.3289,-0.0264,0.8645,-6.73,7.98,-0.06,30.1
20183,0.3289,-0.0231,0.8695,-6.89,7.98,-0.02,30.09
20193,0.328,-0.0271,0.8655,-6.82,7.97,-0.03,30.09
20203,0.329,-0.0269,0.8652,-6.76,7.98,-0.12,30.1
20213,0.3264,-0.025,0.8633,-6.81,7.97,0.02,30.09
20223,0.3275,-0.0256,0.864,-6.64,7.95,-0.11,30.08
20233,0.3259,-0.0249,0.8668,-6.81,7.97,-0.05,30.09
20243,0.3265,-0.0242,0.8691,-6.79,7.98,-0.09,30.1
20253,0.3264,-0.0251,0.8673,-6.85,7.98,-0.05,30.1
20263,0.3263,-0.0247,0.8655,-6.76,8.06,-0.09,30.07
20273,0.3271,-0.0245,0.8662,-6.76,8.02,-0.03,30.09
20283,0.3263,-0.0283,0.8618,-6.7,7.94,-0.03,30.1
20293,0.329,-0.0234,0.8674,-6.67,7.97,-0.03,30.09
20303,0.3281,-0.022,0.8656,-6.69,7.95,-0.09,30.09
20313,0.3284,-0.0265,0.8638,-6.82,7.95,0.05,30.1
20323,0.3303,-0.0243,0.8665,-6.79,7.97,0.03,30.09
20333,0.33,-0.0277,0.8645,-6.81,7.98,-0.11,30.09
20343,0.3276,-0.0271,0.869,-6.76,7.97,-0.02,30.09
20353,0.3289,-0.0247,0.864,-6.81,7.88,-0.08,30.1
20363,0.3263,-0.0233,0.8678,-6.7,7.98,-0.08,30.09
20373,0.3263,-0.0258,0.8623,-6.85,8.0,-0.06,30.07
20383,0.328,-0.028,0.864,-6.79,7.94,0.02,30.09
20393,0.3258,-0.0273,0.8652,-6.75,7.98,-0.05,30.08
20403,0.325,-0.025,0.8619,-6.75,8.02,-0.08,30.09
20413,0.3282,-0.0238,0.865,-6.7,7.94,-0.05,30.09
20423,0.3274,-0.027,0.8655,-6.73,8.05,-0.05,30.09
20433,0.3269,-0.0265,0.864,-6.75,7.98,-0.09,30.07
20443,0.3282,-0.0271,0.8641,-6.75,8.05,-0.05,30.06
20453,0.3298,-0.0255,0.8639,-6.75,8.06,-0.08,30.07
20463,0.3293,-0.0242,0.8627,-6.76,7.98,-0.06,30.09
20473,0.3274,-0.0247,0.8639,-6.73,7.94,-0.06,30.11
20483,0.3273,-0.0267,0.8658,-6.82,7.91,0.05,30.08
20493,0.3265,-0.0255,0.8658,-6.82,7.92,-0.06,30.12
20503,0.3284,-0.0261,0.8683,-6.72,7.92,0.02,30.07
20513,0.3284,-0.0267,0.8683,-6.82,8.03,-0.05,30.09
20523,0.3291,-0.0245,0.8618,-6.81,8.02,-0.03,30.12
20533,0.3296,-0.0251,0.865,-6.7,7.98,0.02,30.1
20543,0.3269,-0.027,0.8621,-6.75,8.02,0.06,30.1
20553,0.3295,-0.0269,0.8627,-6.81,7.88,0.0,30.09
20563,0.3246,-0.0243,0.8624,-6.7,7.97,-0.02,30.1
20573,0.3302,-0.0232,0.8655,-6.75,7.92,-0.05,30.11
20583,0.3265,-0.0243,0.8661,-6.85,7.97,-0.02,30.09
20593,0.3285,-0.0251,0.8655,-6.76,7.94,0.0,30.11
20603,0.3293,-0.0264,0.8652,-6.82,8.0,-0.08,30.09
20613,0.3275,-0.026,0.8658,-6.79,8.02,-0.11,30.08
20623,0.3269,-0.0254,0.865,-6.79,7.98,-0.03,30.1
20633,0.327,-0.0259,0.8636,-6.72,8.03,-0.05,30.09
20643,0.3291,-0.0276,0.8621,-6.69,8.0,-0.08,30.1
20653,0.3284,-0.0251,0.8627,-6.75,8.02,-0.05,30.09
20663,0.3257,-0.0267,0.865,-6.72,7.95,-0.03,30.09
20673,0.3243,-0.0262,0.8636,-6.79,7.91,0.03,30.1
20683,0.3271,-0.0226,0.8613,-6.75,8.0,-0.09,30.11
20693,0.3264,-0.0249,0.8641,-6.79,7.98,-0.09,30.12
20703,0.3295,-0.0269,0.8655,-6.72,8.0,-0.03,30.12
20713,0.3291,-0.0249,0.8656,-6.72,8.02,-0.03,30.1
20723,0.328,-0.024,0.8639,-6.76,7.97,-0.09,30.09
20733,0.3286,-0.0278,0.8639,-6.75,7.94,-0.05,30.11
20743,0.3284,-0.0255,0.8687,-6.76,8.02,-0.05,30.1
20753,0.3296,-0.0289,0.8654,-6.78,7.97,-0.06,30.1
20763,0.3281,-0.0251,0.8644,-6.7,7.98,-0.15,30.09
20773,0.3286,-0.0273,0.863,-6.7,7.94,0.02,30.08
20783,0.3297,-0.0247,0.8643,-6.73,8.0,0.0,30.09
20793,0.3268,-0.027,0.8656,-6.64,8.02,0.03,30.1
20803,0.3286,-0.026,0.8665,-6.73,7.92,-0.05,30.1
20813,0.3258,-0.0267,0.8629,-6.75,7.94,-0.06,30.12
20823,0.3268,-0.0269,0.8643,-6.73,7.94,-0.03,30.1
20833,0.3284,-0.0276,0.8627,-6.75,7.91,-0.05,30.09
20843,0.3286,-0.0265,0.8638,-6.7,7.98,-0.09,30.11
20853,0.3258,-0.0255,0.8646,-6.73,8.0,-0.08,30.09
20863,0.3287,-0.027,0.864,-6.76,7.98,-0.03,30.1
20873,0.3291,-0.0262,0.8628,-6.69,7.98,-0.02,30.1
20883,0.3293,-0.0283,0.8651,-6.81,7.97,-0.03,30.11
20893,0.3281,-0.0245,0.8647,-6.81,8.02,-0.05,30.12
20903,0.3286,-0.0261,0.8672,-6.81,7.95,-0.06,30.11
20913,0.326,-0.025,0.8618,-6.75,7.97,0.02,30.13
20923,0.329,-0.024,0.8665,-6.82,8.05,0.0,30.09
20933,0.3273,-0.0264,0.8693,-6.72,8.03,-0.02,30.08
20943,0.3287,-0.0247,0.8643,-6.78,7.97,-0.08,30.07
20953,0.3285,-0.0221,0.8612,-6.73,7.97,-0.02,30.11
20963,0.329,-0.0266,0.8647,-6.84,7.98,-0.05,30.09
20973,0.3284,-0.0269,0.8646,-6.81,7.97,-0.08,30.1
20983,0.3275,-0.0238,0.8654,-6.75,8.02,-0.02,30.11
20993,0.3258,-0.0245,0.8622,-6.84,7.98,-0.05,30.08
21003,0.3282,-0.0226,0.8679,-6.85,7.95,-0.02,30.09
21013,0.3275,-0.0275,0.8677,-6.82,8.0,-0.05,30.09
21023,0.3309,-0.0266,0.86,-6.73,8.05,-0.18,30.09
21033,0.3275,-0.0254,0.8634,-6.84,7.97,0.02,30.09
21043,0.3287,-0.0278,0.8655,-6.84,8.0,0.0,30.1
21053,0.33,-0.0272,0.8612,-6.73,7.97,-0.02,30.09
21063,0.3276,-0.0247,0.8625,-6.76,7.95,0.0,30.11
21073,0.3256,-0.0229,0.8643,-6.76,8.02,-0.02,30.09
21083,0.3282,-0.0253,0.864,-6.79,7.95,-0.09,30.09
21093,0.3269,-0.0256,0.8634,-6.72,8.03,0.03,30.09
21103,0.3297,-0.0233,0.8618,-6.66,8.02,-0.03,30.1
21113,0.3292,-0.0232,0.8641,-6.7,7.89,0.0,30.09
21123,0.3278,-0.0277,0.8684,-6.84,7.91,-0.03,30.09
21133,0.3268,-0.0254,0.8663,-6.79,8.0,-0.02,30.12
21143,0.3271,-0.0254,0.8695,-6.79,8.02,-0.08,30.1
21153,0.3282,-0.024,0.8672,-6.72,8.03,-0.03,30.13
21163,0.3284,-0.0237,0.8629,-6.79,7.98,-0.08,30.11
21173,0.3298,-0.0244,0.8658,-6.89,8.02,-0.05,30.11
21183,0.3269,-0.0244,0.8627,-6.82,8.0,-0.02,30.11
21193,0.326,-0.0232,0.863,-6.79,7.97,-0.03,30.13
21203,0.3271,-0.0248,0.8666,-6.79,7.88,-0.06,30.11
21213,0.3264,-0.0251,0.8641,-6.76,8.0,-0.03,30.1
21223,0.3254,-0.0259,0.8597,-6.79,7.97,0.03,30.1
21233,0.3257,-0.0276,0.8687,-6.82,7.97,-0.03,30.14
21243,0.326,-0.0244,0.8685,-6.75,7.98,0.0,30.12
21253,0.3265,-0.0277,0.8652,-6.78,7.95,-0.17,30.09
21263,0.3259,-0.025,0.8663,-6.84,7.97,-0.03,30.11
21273,0.3293,-0.0272,0.8665,-6.78,7.95,-0.05,30.12
21283,0.3303,-0.0265,0.8676,-6.75,7.98,-0.06,30.09
21293,0.3284,-0.0258,0.8655,-6.79,8.03,-0.11,30.1
21303,0.3256,-0.0271,0.8682,-6.75,7.89,-0.08,30.12
21313,0.3262,-0.0236,0.8699,-6.79,7.95,-0.05,30.1
21323,0.3271,-0.0289,0.866,-6.78,7.97,0.06,30.1
21333,0.3311,-0.0242,0.8636,-6.81,7.92,-0.11,30.11
21343,0.3267,-0.0255,0.8649,-6.72,7.94,-0.03,30.09
21353,0.3278,-0.0249,0.8633,-6.75,8.0,-0.09,30.11
21363,0.327,-0.026,0.8643,-6.76,7.98,-0.09,30.11
21373,0.3286,-0.0287,0.8644,-6.76,8.02,-0.02,30.1
21383,0.3282,-0.0262,0.8639,-6.7,8.02,-0.03,30.1
21393,0.3304,-0.0238,0.8629,-6.75,7.94,-0.03,30.13
21403,0.3291,-0.0248,0.864,-6.82,8.02,-0.05,30.1
21413,0.3257,-0.0239,0.8661,-6.82,8.0,-0.06,30.08
21423,0.3276,-0.0233,0.866,-6.82,8.0,-0.02,30.11
21433,0.3281,-0.0259,0.8628,-6.78,8.02,-0.09,30.11
21443,0.33,-0.0242,0.8632,-6.85,8.0,-0.11,30.12
21453,0.325,-0.0256,0.8635,-6.81,8.03,0.03,30.09
21463,0.3268,-0.0261,0.8634,-6.72,8.0,-0.03,30.11
21473,0.3307,-0.0264,0.8646,-6.84,7.97,-0.12,30.09
21483,0.3276,-0.026,0.8656,-6.76,8.03,-0.02,30.11
21493,0.3285,-0.0249,0.8677,-6.81,7.95,-0.08,30.13
21503,0.3297,-0.0229,0.8656,-6.84,7.98,-0.09,30.1
21513,0.3295,-0.0262,0.8646,-6.79,7.97,-0.08,30.11
21523,0.3289,-0.0278,0.8674,-6.7,8.06,-0.06,30.1
21533,0.327,-0.0265,0.8643,-6.75,8.03,-0.02,30.1
21543,0.3275,-0.0249,0.865,-6.76,7.91,0.0,30.12
21553,0.3259,-0.0276,0.8651,-6.76,7.98,-0.03,30.1
21563,0.33,-0.0275,0.8611,-6.73,7.98,-0.09,30.09
21573,0.3296,-0.0261,0.8629,-6.84,8.0,-0.06,30.12
21583,0.3281,-0.0255,0.8669,-6.76,7.94,-0.08,30.11
21593,0.3273,-0.0262,0.8674,-6.81,7.95,-0.14,30.1
21603,0.3274,-0.0245,0.8685,-6.82,8.02,-0.02,30.12
21613,0.3263,-0.0262,0.8657,-6.82,7.97,-0.02,30.09
21623,0.3287,-0.0282,0.8643,-6.72,7.97,-0.06,30.09
21633,0.3285,-0.0248,0.8671,-6.81,8.02,-0.12,30.11
21643,0.3268,-0.0255,0.8624,-6.75,8.03,-0.03,30.12
21653,0.3293,-0.0239,0.8635,-6.85,7.91,-0.06,30.12
21663,0.3274,-0.0278,0.8647,-6.75,7.98,0.0,30.1
21673,0.3279,-0.026,0.8646,-6.75,7.95,-0.08,30.11
21683,0.3276,-0.0245,0.8668,-6.73,8.0,-0.05,30.09
21693,0.326,-0.0256,0.8652,-6.81,8.05,-0.08,30.13
21703,0.3281,-0.0282,0.8693,-6.76,7.98,-0.12,30.12
21713,0.3286,-0.0283,0.8695,-6.73,8.0,-0.03,30.1
21723,0.3253,-0.0254,0.8649,-6.79,8.0,-0.05,30.12
21733,0.3304,-0.0249,0.8625,-6.82,7.95,-0.05,30.11
21743,0.3281,-0.0267,0.8627,-6.78,8.0,-0.08,30.12
21753,0.3285,-0.0264,0.8668,-6.72,8.02,0.03,30.12
21763,0.3284,-0.0261,0.8625,-6.75,8.03,-0.05,30.11
21773,0.3298,-0.0267,0.8661,-6.76,7.97,0.02,30.1
21783,0.3295,-0.0278,0.8649,-6.78,8.03,-0.08,30.11
21793,0.3262,-0.0258,0.8589,-6.81,7.98,-0.08,30.1
21803,0.325,-0.0283,0.8615,-6.81,8.0,-0.09,30.12
21813,0.3273,-0.0262,0.8634,-6.78,8.02,-0.03,30.08
21823,0.3278,-0.0267,0.8622,-6.82,8.02,-0.06,30.1
21833,0.3273,-0.0254,0.8636,-6.75,8.05,-0.11,30.1
21843,0.3274,-0.0264,0.8658,-6.79,7.97,-0.11,30.12
21853,0.3286,-0.0259,0.8656,-6.81,8.0,-0.03,30.1
21863,0.328,-0.0249,0.8671,-6.76,7.97,-0.09,30.11
21873,0.3273,-0.0264,0.8622,-6.76,8.03,-0.06,30.1
21883,0.327,-0.025,0.8627,-6.78,7.97,-0.09,30.1
21893,0.3295,-0.0265,0.8638,-6.78,7.97,-0.02,30.12
21903,0.3273,-0.0248,0.8605,-6.69,8.03,0.02,30.11
21913,0.3275,-0.0234,0.8673,-6.78,7.92,-0.06,30.14
21923,0.327,-0.0237,0.8645,-6.87,7.98,-0.09,30.12
21933,0.3259,-0.0261,0.8678,-6.78,8.0,-0.08,30.1
21943,0.3284,-0.0255,0.8621,-6.76,7.97,-0.06,30.12
21953,0.3265,-0.0262,0.8621,-6.72,7.98,-0.02,30.12
21963,0.3274,-0.0253,0.8671,-6.75,8.06,0.0,30.12
21973,0.3281,-0.0255,0.8605,-6.73,7.98,-0.11,30.1
21983,0.3289,-0.0247,0.8698,-6.85,7.98,0.02,30.13
21993,0.3252,-0.0277,0.8652,-6.79,7.95,-0.03,30.15
22003,0.3267,-0.0244,0.8617,-6.79,7.94,-0.02,30.11
22013,0.3269,-0.0258,0.8655,-6.81,7.98,-0.03,30.1
22023,0.3287,-0.025,0.8619,-6.78,8.06,0.0,30.1
22033,0.3275,-0.0234,0.8647,-6.82,8.0,0.02,30.11
22043,0.3263,-0.0265,0.8623,-6.85,7.94,-0.08,30.09
22053,0.3292,-0.0237,0.864,-6.76,7.95,-0.03,30.11
22063,0.3295,-0.0237,0.8635,-6.76,7.95,-0.06,30.11
22073,0.327,-0.0259,0.8646,-6.73,7.98,-0.09,30.09
22083,0.3308,-0.0247,0.8636,-6.79,8.03,-0.02,30.1
22093,0.3278,-0.0282,0.8613,-6.75,7.89,-0.11,30.1
22103,0.328,-0.0259,0.8634,-6.72,7.97,-0.06,30.1
22113,0.3284,-0.0273,0.8674,-6.75,7.97,0.02,30.14
22123,0.3293,-0.0255,0.8672,-6.76,7.94,-0.02,30.11
22133,0.3282,-0.0261,0.8667,-6.72,7.98,0.0,30.11
22143,0.3256,-0.0254,0.8669,-6.79,7.95,-0.09,30.11
22153,0.3248,-0.0248,0.8625,-6.78,7.94,0.0,30.1
22163,0.3276,-0.0266,0.8658,-6.75,7.94,-0.06,30.11
22173,0.3279,-0.0245,0.8669,-6.78,7.95,-0.05,30.12
22183,0.3273,-0.0244,0.8643,-6.75,8.0,-0.03,30.1
22193,0.3308,-0.0258,0.8599,-6.72,8.02,-0.06,30.12
22203,0.3276,-0.027,0.8636,-6.82,7.98,-0.03,30.11
22213,0.3284,-0.0249,0.8662,-6.73,7.98,-0.05,30.1
22223,0.3287,-0.027,0.8611,-6.78,7.98,-0.03,30.13
22233,0.3311,-0.027,0.8612,-6.73,7.95,-0.03,30.11
22243,0.3282,-0.0255,0.8622,-6.75,7.97,-0.03,30.1
22253,0.326,-0.0248,0.8629,-6.81,8.0,-0.03,30.12
22263,0.3317,-0.0258,0.8604,-6.75,7.94,-0.06,30.14
22273,0.3298,-0.0251,0.8662,-6.75,7.94,0.0,30.11
22283,0.325,-0.0229,0.8655,-6.76,8.03,-0.12,30.1
22293,0.3276,-0.0271,0.8645,-6.78,7.97,-0.05,30.12
22303,0.3274,-0.0278,0.8667,-6.75,8.09,-0.03,30.12
22313,0.329,-0.0267,0.8652,-6.75,7.98,-0.02,30.14
22323,0.3275,-0.0242,0.8646,-6.78,7.92,-0.02,30.13
22333,0.3287,-0.0256,0.8647,-6.82,7.95,-0.08,30.12
22343,0.3271,-0.025,0.8624,-6.84,8.06,-0.03,30.11
22353,0.3264,-0.0237,0.8658,-6.76,8.0,-0.02,30.11
22363,0.3257,-0.0289,0.8646,-6.73,8.0,0.0,30.11
22373,0.3287,-0.0276,0.8668,-6.7,8.0,-0.03,30.09
22383,0.3267,-0.0243,0.8669,-6.79,8.05,-0.09,30.07
22393,0.3259,-0.0242,0.8649,-6.72,8.02,-0.02,30.12
22403,0.3284,-0.0265,0.8654,-6.79,7.94,-0.03,30.1
22413,0.3276,-0.0259,0.8652,-6.72,8.0,-0.06,30.12
22423,0.3267,-0.0269,0.8632,-6.69,7.92,-0.08,30.12
22433,0.3304,-0.0232,0.8647,-6.73,8.05,-0.09,30.1
22443,0.3278,-0.024,0.8647,-6.76,7.97,-0.06,30.12
22453,0.3276,-0.0242,0.8649,-6.76,7.95,-0.06,30.1
22463,0.3263,-0.0238,0.8654,-6.79,7.97,-0.12,30.08
22473,0.3291,-0.0243,0.8647,-6.73,7.97,-0.15,30.11
22483,0.3273,-0.0259,0.8678,-6.73,7.94,0.0,30.11
22493,0.3278,-0.0294,0.8683,-6.84,7.98,0.0,30.12
22503,0.3258,-0.0258,0.8627,-6.72,8.06,-0.03,30.13
22513,0.3282,-0.0256,0.8669,-6.79,7.98,-0.02,30.09
22523,0.327,-0.0267,0.8641,-6.82,8.02,-0.05,30.11
22533,0.3297,-0.0223,0.8665,-6.76,8.03,-0.03,30.1
22543,0.3276,-0.0251,0.8658,-6.78,8.0,-0.05,30.12
22553,0.3291,-0.0266,0.8643,-6.78,7.98,-0.05,30.12
22563,0.3276,-0.0232,0.8629,-6.79,7.95,-0.08,30.12
22573,0.3325,-0.0284,0.8654,-6.76,7.94,-0.03,30.13
22583,0.3246,-0.0272,0.8652,-6.76,8.0,0.05,30.12
22593,0.3298,-0.026,0.8654,-6.7,8.02,-0.09,30.11
22603,0.3289,-0.0276,0.8654,-6.75,7.98,-0.06,30.13
22613,0.3276,-0.0255,0.8646,-6.75,7.97,0.0,30.14
22623,0.327,-0.0237,0.8641,-6.72,7.95,-0.11,30.13
22633,0.3273,-0.0253,0.8695,-6.76,8.0,-0.11,30.12
22643,0.3286,-0.024,0.863,-6.73,8.06,-0.09,30.11
22653,0.3273,-0.0256,0.8656,-6.76,8.0,-0.05,30.11
22663,0.3318,-0.0265,0.8612,-6.75,8.0,-0.02,30.12
22673,0.3295,-0.0259,0.8668,-6.81,7.97,-0.11,30.12
22683,0.3286,-0.0247,0.8602,-6.7,7.98,-0.06,30.14
22693,0.3309,-0.0247,0.864,-6.72,7.95,0.0,30.12
22703,0.3312,-0.0273,0.8607,-6.72,7.98,-0.03,30.13
22713,0.3274,-0.0251,0.8649,-6.79,7.94,-0.06,30.14
22723,0.3274,-0.0251,0.8663,-6.7,7.95,-0.02,30.13
22733,0.3279,-0.0243,0.8669,-6.79,8.0,-0.09,30.14
22743,0.327,-0.0244,0.8662,-6.69,7.95,-0.08,30.12
22753,0.328,-0.0271,0.8641,-6.82,7.92,-0.12,30.12
22763,0.3276,-0.024,0.8636,-6.79,7.95,-0.05,30.11
22773,0.325,-0.025,0.8676,-6.7,7.97,-0.09,30.13
22783,0.3259,-0.0258,0.8634,-6.79,8.0,0.0,30.11
22793,0.3292,-0.0266,0.8635,-6.75,7.95,-0.05,30.12
22803,0.3285,-0.0275,0.868,-6.81,7.97,-0.11,30.14
22813,0.3273,-0.0248,0.864,-6.82,8.03,0.02,30.13
22823,0.3307,-0.0237,0.8665,-6.79,8.05,-0.03,30.12
22833,0.3274,-0.0277,0.8628,-6.73,7.95,-0.08,30.13
22843,0.3284,-0.0251,0.863,-6.67,7.97,-0.09,30.13
22853,0.3293,-0.0255,0.8635,-6.78,7.95,-0.09,30.11
22863,0.3271,-0.0256,0.8658,-6.78,7.95,-0.06,30.1
22873,0.3287,-0.0229,0.8682,-6.73,7.92,-0.03,30.12
22883,0.3286,-0.0273,0.8663,-6.67,8.0,-0.03,30.13
22893,0.3291,-0.0233,0.8663,-6.75,7.98,-0.05,30.14
22903,0.3285,-0.0243,0.868,-6.69,8.0,-0.03,30.12
22913,0.3293,-0.0271,0.8627,-6.73,7.97,-0.06,30.14
22923,0.3285,-0.028,0.8655,-6.75,7.98,-0.02,30.15
22933,0.3267,-0.0262,0.8629,-6.89,8.0,0.02,30.12
22943,0.3298,-0.0243,0.8639,-6.72,7.97,0.03,30.14
22953,0.3295,-0.024,0.863,-6.78,8.03,-0.05,30.11
22963,0.3296,-0.0243,0.8651,-6.82,7.95,-0.03,30.13
22973,0.327,-0.025,0.8683,-6.79,7.97,0.02,30.13
22983,0.3243,-0.027,0.8638,-6.73,7.95,-0.06,30.12
22993,0.3263,-0.028,0.8639,-6.73,7.89,-0.08,30.11
23003,0.3259,-0.0266,0.8649,-6.76,7.98,-0.09,30.1
23013,0.3271,-0.0242,0.8651,-6.73,8.02,-0.09,30.12
23023,0.3286,-0.026,0.8638,-6.72,7.98,-0.08,30.11
23033,0.3262,-0.0284,0.865,-6.7,7.95,0.03,30.13
23043,0.326,-0.024,0.8663,-6.81,7.95,0.0,30.13
23053,0.3281,-0.0244,0.8661,-6.78,8.0,0.02,30.13
23063,0.3264,-0.0258,0.8641,-6.76,8.02,0.0,30.11
23073,0.3276,-0.0265,0.8591,-6.78,8.0,-0.09,30.12
23083,0.3292,-0.0265,0.8644,-6.79,7.97,-0.08,30.13
23093,0.3275,-0.0278,0.8627,-6.76,8.02,0.0,30.14
23103,0.3251,-0.0266,0.8649,-6.78,7.97,-0.05,30.12
23113,0.3245,-0.0267,0.863,-6.78,8.0,-0.06,30.13
23123,0.3297,-0.0237,0.8649,-6.75,7.94,-0.09,30.14
23133,0.3286,-0.0261,0.8627,-6.76,7.98,-0.08,30.13
23143,0.3274,-0.0237,0.8657,-6.66,8.0,-0.05,30.14
23153,0.3281,-0.0278,0.8632,-6.73,7.97,-0.11,30.14
23163,0.3285,-0.0248,0.8669,-6.75,8.02,-0.11,30.12
23173,0.3295,-0.0273,0.8611,-6.81,8.02,0.0,30.12
23183,0.3263,-0.0227,0.8645,-6.82,7.98,-0.08,30.15
23193,0.3257,-0.0267,0.8644,-6.82,7.97,-0.05,30.13
23203,0.3296,-0.0282,0.8628,-6.76,7.94,-0.05,30.13
23213,0.3279,-0.0258,0.8677,-6.76,7.88,-0.03,30.14
23223,0.3285,-0.0232,0.8666,-6.76,8.05,-0.06,30.15
23233,0.329,-0.0277,0.8635,-6.72,8.02,-0.02,30.14
23243,0.328,-0.0253,0.8632,-6.78,7.97,0.02,30.11
23253,0.3245,-0.0259,0.8641,-6.81,7.98,-0.02,30.13
23263,0.3276,-0.0248,0.8667,-6.79,8.0,0.02,30.14
23273,0.3284,-0.0243,0.8612,-6.75,7.98,0.02,30.13
23283,0.3269,-0.0282,0.8645,-6.72,8.02,0.03,30.16
23293,0.3274,-0.0264,0.8676,-6.79,8.0,-0.02,30.13
23303,0.3262,-0.0276,0.8665,-6.85,7.95,-0.11,30.1
23313,0.3267,-0.0243,0.8652,-6.76,8.0,-0.05,30.12
23323,0.328,-0.0265,0.864,-6.82,8.03,-0.09,30.15
23333,0.3265,-0.0243,0.8661,-6.84,8.03,-0.09,30.12
23343,0.324,-0.0262,0.8658,-6.85,8.03,-0.05,30.14
23353,0.3302,-0.024,0.8654,-6.81,7.98,-0.02,30.14
23363,0.3279,-0.0261,0.8656,-6.67,7.97,-0.05,30.13
23373,0.3293,-0.0251,0.8677,-6.78,7.98,-0.08,30.12
23383,0.329,-0.0258,0.863,-6.73,7.97,0.0,30.13
23393,0.3286,-0.0221,0.8638,-6.81,7.95,-0.03,30.16
23403,0.3269,-0.0227,0.8668,-6.78,7.97,-0.05,30.14
23413,0.3296,-0.0245,0.8652,-6.72,7.97,-0.08,30.12
23423,0.3279,-0.0266,0.8639,-6.78,7.98,-0.05,30.14
23433,0.3296,-0.0272,0.8671,-6.73,7.91,0.02,30.15
23443,0.3274,-0.0228,0.8684,-6.75,7.98,-0.06,30.12
23453,0.3246,-0.0278,0.8632,-6.84,7.97,-0.09,30.13
23463,0.326,-0.0247,0.8623,-6.79,7.95,-0.09,30.12
23473,0.3298,-0.0251,0.8632,-6.84,7.94,-0.06,30.11
23483,0.3268,-0.0271,0.8638,-6.81,8.03,-0.08,30.13
23493,0.3251,-0.025,0.8624,-6.78,8.02,-0.08,30.13
23503,0.3263,-0.0258,0.8669,-6.67,7.98,-0.06,30.14
23513,0.3302,-0.0289,0.8657,-6.73,7.97,-0.06,30.14
23523,0.3269,-0.0245,0.8679,-6.76,7.97,0.0,30.14
23533,0.3284,-0.0233,0.8673,-6.64,7.97,-0.02,30.15
23543,0.3286,-0.0229,0.8623,-6.73,8.05,0.0,30.13
23553,0.3246,-0.0264,0.8641,-6.82,7.97,-0.06,30.13
23563,0.3258,-0.0267,0.8608,-6.79,8.06,-0.05,30.14
23573,0.3268,-0.0271,0.8641,-6.85,8.02,0.08,30.14
23583,0.3282,-0.0291,0.8643,-6.84,7.98,-0.03,30.12
23593,0.3268,-0.0261,0.8668,-6.76,7.97,-0.05,30.15
23603,0.3303,-0.0239,0.8683,-6.85,8.02,-0.02,30.14
23613,0.3304,-0.0239,0.8621,-6.7,7.98,0.02,30.14
23623,0.3286,-0.0236,0.8662,-6.75,8.06,-0.02,30.14
23633,0.3256,-0.0249,0.8668,-6.73,7.94,-0.02,30.16
23643,0.3262,-0.0256,0.8641,-6.78,7.98,-0.06,30.1
23653,0.3258,-0.0276,0.8685,-6.75,8.02,-0.09,30.12
23663,0.3286,-0.0265,0.865,-6.75,7.97,-0.09,30.15
23673,0.3285,-0.024,0.8661,-6.78,7.95,-0.08,30.15
23683,0.3286,-0.0243,0.8667,-6.87,7.95,-0.06,30.14
23693,0.3284,-0.027,0.8694,-6.78,8.0,-0.03,30.13
23703,0.3285,-0.0249,0.8647,-6.72,7.97,0.02,30.12
23713,0.327,-0.0277,0.865,-6.79,8.03,-0.12,30.12
23723,0.3289,-0.0231,0.8663,-6.76,8.02,-0.08,30.14
23733,0.33,-0.0237,0.8621,-6.78,7.95,-0.08,30.13
23743,0.3284,-0.025,0.8641,-6.76,7.94,-0.05,30.13
23753,0.3323,-0.0245,0.8677,-6.7,7.97,-0.08,30.14
23763,0.3306,-0.0245,0.8667,-6.75,7.98,-0.09,30.14
23773,0.3312,-0.0243,0.8649,-6.81,7.97,0.0,30.13
23783,0.3286,-0.0245,0.8688,-6.78,7.98,-0.03,30.13
23793,0.3264,-0.0266,0.8629,-6.73,8.03,-0.06,30.16
23803,0.3284,-0.026,0.8662,-6.73,7.97,-0.03,30.15
23813,0.3269,-0.0254,0.864,-6.7,7.94,-0.08,30.14
23823,0.3257,-0.0234,0.866,-6.87,8.02,-0.08,30.12
23833,0.3263,-0.0281,0.8638,-6.89,7.97,-0.09,30.11
23843,0.328,-0.0266,0.8663,-6.81,8.0,-0.02,30.14
23853,0.3258,-0.0272,0.8658,-6.81,8.0,-0.05,30.13
23863,0.3246,-0.0258,0.8662,-6.73,8.05,-0.05,30.14
23873,0.3258,-0.0244,0.8649,-6.72,7.98,0.0,30.14
23883,0.3275,-0.0247,0.864,-6.76,7.98,-0.05,30.16
23893,0.3302,-0.0251,0.8657,-6.73,7.94,-0.15,30.14
23903,0.329,-0.0271,0.865,-6.79,7.94,-0.06,30.14
23913,0.3274,-0.0255,0.8683,-6.78,7.97,-0.02,30.16
23923,0.3296,-0.0283,0.8643,-6.81,7.91,-0.09,30.14
23933,0.3267,-0.028,0.8654,-6.73,7.98,-0.02,30.13
23943,0.3273,-0.0251,0.8665,-6.79,8.0,-0.06,30.12
23953,0.3286,-0.0227,0.8638,-6.75,7.98,0.0,30.13
23963,0.329,-0.0256,0.8625,-6.81,8.03,0.02,30.12
23973,0.325,-0.0286,0.8649,-6.82,7.97,-0.06,30.13
23983,0.3291,-0.0258,0.8624,-6.7,7.97,-0.09,30.14
23993,0.3275,-0.0254,0.8649,-6.7,7.95,-0.06,30.14
24003,0.3254,-0.0258,0.865,-6.72,7.92,-0.02,30.15
24013,0.3336,-0.024,0.8646,-6.81,8.03,-0.06,30.12
24023,0.3282,-0.0254,0.8673,-6.76,8.06,0.0,30.12
24033,0.3281,-0.0261,0.868,-6.73,7.97,-0.09,30.15
24043,0.3259,-0.0265,0.8627,-6.82,8.02,-0.14,30.14
24053,0.3284,-0.0253,0.8654,-6.7,7.97,-0.06,30.13
24063,0.3293,-0.0256,0.8667,-6.69,7.97,-0.03,30.14
24073,0.325,-0.0251,0.8647,-6.78,7.97,-0.06,30.14
24083,0.3292,-0.0261,0.8634,-6.82,7.95,-0.05,30.14
24093,0.3274,-0.0265,0.8636,-6.75,7.97,-0.11,30.13
24103,0.3273,-0.0258,0.8651,-6.78,7.92,-0.05,30.14
24113,0.3289,-0.0244,0.8607,-6.67,7.95,0.0,30.14
24123,0.326,-0.0248,0.8643,-6.76,8.02,-0.02,30.13
24133,0.3303,-0.0222,0.864,-6.78,8.02,-0.08,30.12
24143,0.3287,-0.0242,0.8677,-6.7,8.0,0.03,30.14
24153,0.3292,-0.0242,0.8644,-6.79,7.91,0.03,30.12
24163,0.3286,-0.0248,0.8612,-6.79,8.05,-0.03,30.13
24173,0.3253,-0.0253,0.8672,-6.76,8.06,-0.14,30.16
24183,0.3269,-0.0266,0.8669,-6.7,7.98,-0.09,30.16
24193,0.3258,-0.0265,0.865,-6.81,7.95,0.03,30.14
24203,0.3301,-0.0251,0.8657,-6.79,8.02,-0.05,30.13
24213,0.3279,-0.0271,0.8645,-6.82,7.98,0.02,30.12
24223,0.3253,-0.0236,0.8671,-6.81,8.02,-0.06,30.12
24233,0.3274,-0.0239,0.863,-6.79,7.92,-0.08,30.14
24243,0.3304,-0.026,0.8639,-6.79,8.02,-0.09,30.14
24253,0.3306,-0.028,0.8644,-6.76,7.98,-0.11,30.16
24263,0.3284,-0.0278,0.8656,-6.75,7.97,-0.02,30.15
24273,0.3252,-0.0231,0.8639,-6.75,7.95,-0.09,30.18
24283,0.3282,-0.0228,0.8644,-6.75,7.94,-0.05,30.14
24299,0.3306,-0.0281,0.8622,-6.79,7.92,-0.03,30.14
24309,0.3278,-0.0253,0.8665,-6.82,7.98,-0.02,30.15
24319,0.3292,-0.0278,0.8612,-6.7,7.97,-0.15,30.14
24329,0.3273,-0.0265,0.8622,-6.73,7.94,-0.15,30.15
24339,0.3265,-0.0254,0.8668,-6.66,7.94,-0.11,30.14
24349,0.3256,-0.0264,0.8624,-6.76,7.95,-0.06,30.14
24359,0.3273,-0.0259,0.8633,-6.7,8.02,-0.02,30.14
24369,0.3262,-0.0272,0.8677,-6.75,7.97,-0.05,30.14
24379,0.3282,-0.0244,0.8651,-6.79,8.05,-0.05,30.14
24390,0.3275,-0.025,0.86,-6.78,8.0,-0.03,30.17
24400,0.3264,-0.0239,0.8678,-6.73,7.98,-0.02,30.13
24410,0.3264,-0.0244,0.8608,-6.76,7.95,-0.05,30.14
24420,0.327,-0.0254,0.8624,-6.7,8.02,-0.05,30.16
24430,0.3258,-0.0245,0.8649,-6.79,7.97,-0.06,30.11
24441,0.3312,-0.0264,0.864,-6.81,7.92,0.0,30.14
24451,0.3292,-0.0264,0.8657,-6.78,7.95,0.03,30.13
24461,0.3284,-0.0281,0.8677,-6.73,8.0,-0.06,30.14
24471,0.3278,-0.0283,0.8633,-6.78,7.92,-0.05,30.16
24481,0.3282,-0.0276,0.8633,-6.78,7.94,-0.11,30.13
24491,0.3296,-0.0265,0.866,-6.73,7.97,-0.11,30.15
24501,0.3273,-0.0253,0.8635,-6.78,8.02,-0.02,30.15
24511,0.33,-0.0251,0.866,-6.81,8.05,-0.08,30.14
24521,0.3269,-0.0269,0.8696,-6.79,8.03,-0.06,30.14
24531,0.33,-0.0249,0.8651,-6.75,7.97,-0.02,30.16
24541,0.3275,-0.0253,0.8646,-6.85,8.0,-0.03,30.15
24551,0.3256,-0.0275,0.8618,-6.76,8.0,-0.02,30.14
24561,0.3282,-0.0276,0.8647,-6.76,7.97,-0.05,30.14
24571,0.3318,-0.027,0.8646,-6.73,8.0,0.0,30.16
24581,0.3292,-0.0251,0.8622,-6.73,8.05,0.05,30.15
24591,0.3295,-0.0265,0.8639,-6.66,8.0,-0.06,30.14
24601,0.3291,-0.0238,0.8639,-6.7,7.92,-0.02,30.15
24611,0.3264,-0.027,0.8628,-6.76,7.97,-0.03,30.14
24621,0.326,-0.0258,0.8683,-6.7,8.05,-0.03,30.14
24631,0.328,-0.0283,0.8673,-6.81,7.98,-0.09,30.15
24641,0.3279,-0.0242,0.8644,-6.84,7.98,-0.06,30.19
24651,0.3239,-0.0253,0.8647,-6.73,7.95,-0.06,30.17
24661,0.3281,-0.0254,0.864,-6.82,7.98,-0.05,30.13
24671,0.3282,-0.0258,0.8668,-6.76,8.0,-0.08,30.12
24681,0.329,-0.0256,0.8652,-6.76,7.94,-0.02,30.14
24691,0.3256,-0.025,0.863,-6.73,8.05,-0.06,30.14
24701,0.3276,-0.0258,0.8678,-6.78,8.02,-0.12,30.16
24711,0.3276,-0.0276,0.8634,-6.69,8.06,-0.02,30.16
24721,0.3273,-0.0266,0.8632,-6.72,7.97,-0.12,30.15
24731,0.3287,-0.0269,0.8625,-6.76,7.95,-0.11,30.16
24741,0.3268,-0.0264,0.8606,-6.79,8.03,-0.03,30.14
24751,0.326,-0.0249,0.8616,-6.75,7.98,-0.09,30.13
24761,0.3269,-0.0265,0.8639,-6.76,7.94,-0.06,30.14
24771,0.327,-0.0264,0.8657,-6.76,7.95,-0.09,30.14
24781,0.327,-0.0231,0.8679,-6.82,7.97,-0.02,30.18
24791,0.3286,-0.0253,0.864,-6.76,8.0,-0.02,30.17
24802,0.3268,-0.0249,0.8636,-6.72,8.0,-0.03,30.15
24812,0.3258,-0.0261,0.8655,-6.85,8.06,-0.03,30.14
24822,0.3257,-0.0288,0.8654,-6.7,7.95,0.03,30.15
24832,0.3298,-0.0291,0.8644,-6.7,7.92,-0.06,30.16
24842,0.3271,-0.0259,0.8684,-6.72,7.95,-0.06,30.17
24852,0.3281,-0.0272,0.8647,-6.75,7.98,-0.06,30.14
24862,0.3287,-0.0247,0.8641,-6.79,8.02,0.0,30.15
24872,0.3264,-0.025,0.8632,-6.81,7.92,-0.05,30.12
24882,0.3302,-0.0271,0.8615,-6.72,7.98,-0.05,30.13
24892,0.3297,-0.0269,0.864,-6.72,8.02,-0.06,30.17
24902,0.3286,-0.0291,0.8668,-6.72,8.0,-0.05,30.14
24912,0.3275,-0.0266,0.8641,-6.72,7.95,-0.02,30.17
24922,0.3284,-0.0247,0.8602,-6.78,8.02,0.02,30.15
24932,0.325,-0.0282,0.8677,-6.73,7.97,0.03,30.16
24942,0.3263,-0.0233,0.8651,-6.82,8.0,0.0,30.16
24952,0.3268,-0.0253,0.8668,-6.78,7.91,0.0,30.15
24962,0.3312,-0.0264,0.8679,-6.82,8.0,-0.14,30.14
24972,0.3296,-0.0282,0.8655,-6.82,7.95,-0.09,30.15
24982,0.3303,-0.0275,0.8668,-6.75,7.98,-0.06,30.16
24992,0.3291,-0.0254,0.8677,-6.79,7.98,0.0,30.16
25002,0.3271,-0.0243,0.8663,-6.67,7.95,-0.03,30.15
25012,0.3291,-0.0264,0.8624,-6.73,8.0,-0.06,30.15
25022,0.3263,-0.0229,0.8635,-6.81,8.0,-0.02,30.14
25032,0.328,-0.0254,0.8616,-6.75,7.97,-0.14,30.15
25042,0.3269,-0.0253,0.8636,-6.78,8.03,-0.03,30.15
25052,0.3271,-0.0262,0.8652,-6.78,7.98,-0.06,30.17
25062,0.326,-0.0281,0.8668,-6.81,8.06,-0.11,30.17
25072,0.328,-0.0266,0.8644,-6.73,8.05,-0.02,30.15
25082,0.3251,-0.0211,0.8655,-6.78,8.0,-0.08,30.17
25092,0.3281,-0.0265,0.8643,-6.69,7.94,-0.12,30.16
25102,0.3313,-0.0243,0.8646,-6.73,7.89,0.0,30.15
25112,0.3289,-0.0238,0.8661,-6.75,7.88,-0.11,30.15
25122,0.3269,-0.0278,0.8669,-6.76,8.02,-0.09,30.15
25132,0.3269,-0.0262,0.866,-6.75,8.03,0.03,30.15
25142,0.329,-0.0237,0.8683,-6.84,7.98,-0.11,30.16
25152,0.3297,-0.0243,0.8655,-6.76,7.98,-0.08,30.17
25162,0.3273,-0.0258,0.8611,-6.75,7.98,0.0,30.15
25172,0.3264,-0.0269,0.8677,-6.7,7.98,-0.03,30.15
25182,0.3251,-0.027,0.865,-6.75,7.92,-0.05,30.15
25192,0.3284,-0.0253,0.8649,-6.78,7.97,0.0,30.15
25202,0.3279,-0.0245,0.8665,-6.72,8.0,-0.06,30.17
25212,0.3262,-0.0251,0.8687,-6.75,7.97,-0.02,30.16
25222,0.3268,-0.0256,0.8632,-6.78,8.03,0.0,30.18
25232,0.3289,-0.0272,0.8635,-6.79,8.02,-0.06,30.15
25242,0.326,-0.0254,0.8645,-6.78,8.0,0.0,30.15
25252,0.3248,-0.0237,0.8644,-6.67,7.98,-0.11,30.16
25262,0.3275,-0.0236,0.8628,-6.7,7.89,-0.02,30.16
25272,0.3291,-0.0222,0.8665,-6.69,7.98,-0.08,30.17
25282,0.3323,-0.0271,0.8622,-6.72,7.94,0.02,30.14
25292,0.3278,-0.0256,0.8616,-6.81,7.91,-0.03,30.12
25302,0.3286,-0.025,0.8627,-6.84,7.91,-0.03,30.14
25312,0.3314,-0.0253,0.8618,-6.82,7.91,-0.05,30.14
25322,0.3257,-0.0244,0.864,-6.76,7.97,0.03,30.14
25332,0.33,-0.0266,0.8641,-6.7,7.95,-0.08,30.17
25342,0.3304,-0.0248,0.8663,-6.67,8.02,-0.03,30.14
25352,0.3302,-0.0288,0.8673,-6.79,7.92,-0.02,30.14
25362,0.33,-0.0271,0.8624,-6.82,8.05,-0.06,30.16
25372,0.3292,-0.0251,0.8674,-6.81,8.0,-0.09,30.13
25382,0.3257,-0.0243,0.8706,-6.79,7.92,-0.05,30.14
25392,0.3286,-0.0254,0.8624,-6.73,7.97,-0.03,30.13
25402,0.3296,-0.0261,0.8632,-6.72,7.97,-0.06,30.13
25412,0.327,-0.0269,0.8678,-6.87,7.92,-0.05,30.15
25422,0.3289,-0.0247,0.864,-6.81,7.92,-0.08,30.16
25432,0.3275,-0.026,0.8661,-6.76,7.97,-0.06,30.15
25442,0.3259,-0.0259,0.8668,-6.75,7.95,0.0,30.17
25452,0.3273,-0.028,0.8668,-6.75,7.97,-0.02,30.16
25462,0.3246,-0.0243,0.8658,-6.73,8.03,-0.06,30.14
25472,0.329,-0.0251,0.8624,-6.75,7.95,-0.03,30.14
25482,0.328,-0.0239,0.8641,-6.81,8.03,-0.02,30.14
25492,0.3275,-0.024,0.8633,-6.84,7.98,-0.03,30.14
25502,0.33,-0.0253,0.8649,-6.73,8.03,-0.05,30.15
25512,0.3269,-0.0297,0.8644,-6.79,8.02,0.03,30.16
25522,0.329,-0.0255,0.8641,-6.82,7.91,-0.11,30.16
25532,0.3274,-0.0258,0.8635,-6.72,8.02,-0.05,30.18
25542,0.3309,-0.0261,0.8651,-6.72,7.97,-0.08,30.14
25552,0.327,-0.0256,0.8629,-6.75,7.95,-0.03,30.17
25562,0.3285,-0.0253,0.8689,-6.76,7.94,-0.03,30.16
25572,0.3278,-0.028,0.8632,-6.75,7.94,-0.05,30.16
25582,0.3279,-0.0272,0.8627,-6.81,7.91,-0.06,30.16
25592,0.3292,-0.026,0.8635,-6.78,7.89,-0.02,30.17
25602,0.3296,-0.0214,0.8654,-6.76,8.0,-0.08,30.14
25612,0.3308,-0.0244,0.8641,-6.75,7.97,-0.05,30.18
25622,0.3252,-0.0265,0.87,-6.72,7.89,-0.11,30.18
25632,0.3324,-0.0264,0.8618,-6.78,7.94,0.0,30.16
25642,0.3287,-0.027,0.8643,-6.76,8.03,-0.09,30.17
25652,0.3246,-0.0254,0.8604,-6.82,8.03,-0.03,30.16
25662,0.3296,-0.0261,0.8663,-6.81,7.95,-0.02,30.15
25672,0.3291,-0.0255,0.8658,-6.73,7.95,-0.05,30.16
25682,0.3269,-0.028,0.8649,-6.72,8.03,-0.03,30.16
25692,0.3306,-0.0258,0.8636,-6.79,8.03,-0.11,30.15
25702,0.3252,-0.0262,0.8668,-6.81,7.95,-0.05,30.15
25712,0.3291,-0.0261,0.8666,-6.84,7.97,-0.08,30.17
25722,0.3247,-0.0247,0.8677,-6.79,7.98,-0.06,30.16
25732,0.329,-0.0253,0.864,-6.81,7.95,-0.08,30.17
25742,0.3279,-0.0281,0.8641,-6.84,7.97,0.03,30.18
25752,0.3276,-0.0289,0.865,-6.82,7.95,-0.03,30.17
25762,0.3297,-0.0259,0.8649,-6.76,7.92,-0.08,30.15
25772,0.3306,-0.0264,0.8677,-6.78,7.95,0.03,30.17
25782,0.3314,-0.028,0.865,-6.81,7.94,-0.03,30.18
25792,0.3295,-0.0261,0.8636,-6.72,7.95,-0.05,30.15
25802,0.3267,-0.0291,0.8646,-6.75,8.0,-0.03,30.15
25812,0.3271,-0.0277,0.8636,-6.81,7.95,-0.05,30.17
25822,0.325,-0.0244,0.8652,-6.75,7.97,-0.06,30.16
25832,0.3274,-0.0259,0.8655,-6.73,7.97,-0.02,30.16
25842,0.3256,-0.025,0.8661,-6.81,7.97,-0.09,30.17
25852,0.3286,-0.0227,0.8649,-6.84,7.95,-0.02,30.16
25862,0.325,-0.0265,0.8645,-6.81,8.03,0.02,30.17
25872,0.328,-0.0226,0.8619,-6.75,7.98,-0.06,30.15
25882,0.3286,-0.0229,0.8644,-6.79,8.02,-0.02,30.15
25892,0.3281,-0.0231,0.8662,-6.79,7.95,-0.06,30.21
25902,0.3293,-0.0251,0.865,-6.75,7.91,-0.15,30.18
25912,0.3289,-0.0282,0.8629,-6.78,7.97,-0.06,30.18
25922,0.3289,-0.0271,0.8634,-6.78,7.89,-0.06,30.16
25932,0.3279,-0.0272,0.8633,-6.72,7.98,0.05,30.17
25942,0.327,-0.0245,0.8619,-6.72,8.02,-0.08,30.18
25952,0.3323,-0.0231,0.8663,-6.7,7.97,-0.03,30.15
25962,0.3271,-0.0267,0.8687,-6.81,7.98,-0.06,30.16
25972,0.3259,-0.025,0.8646,-6.75,8.0,-0.03,30.15
25982,0.3287,-0.024,0.8638,-6.76,7.91,-0.08,30.17
25992,0.3252,-0.0275,0.8666,-6.75,7.97,-0.14,30.14
26002,0.3282,-0.0253,0.8629,-6.75,7.98,-0.05,30.16
26012,0.3275,-0.0281,0.8704,-6.69,8.0,-0.15,30.14
26022,0.3291,-0.0244,0.8666,-6.85,8.0,-0.06,30.13
26032,0.3278,-0.0237,0.864,-6.79,8.06,-0.03,30.14
26042,0.328,-0.0238,0.8652,-6.79,7.98,-0.06,30.14
26053,0.3273,-0.0265,0.866,-6.75,8.0,-0.12,30.16
26063,0.3263,-0.0272,0.8685,-6.73,7.94,-0.05,30.14
26073,0.3295,-0.0264,0.8647,-6.72,7.98,-0.11,30.17
26083,0.3276,-0.0242,0.8646,-6.81,7.94,-0.11,30.17
26093,0.3256,-0.025,0.8632,-6.75,7.95,-0.08,30.16
26103,0.3267,-0.0261,0.8616,-6.82,7.95,0.0,30.17
26113,0.3284,-0.0259,0.8649,-6.72,7.94,-0.08,30.17
26123,0.3269,-0.0232,0.864,-6.81,8.05,-0.08,30.14
26133,0.3269,-0.0292,0.8615,-6.84,8.06,-0.06,30.16
26143,0.3268,-0.0273,0.8652,-6.79,8.02,-0.05,30.16
26153,0.329,-0.024,0.8629,-6.78,8.0,-0.03,30.15
26163,0.3278,-0.0256,0.8627,-6.79,7.98,0.03,30.16
26173,0.3306,-0.027,0.8657,-6.79,7.92,-0.09,30.16
26183,0.3292,-0.0254,0.865,-6.81,7.98,-0.05,30.17
26193,0.3295,-0.0247,0.8662,-6.81,7.92,0.05,30.17
26203,0.3287,-0.0253,0.8651,-6.76,8.05,-0.05,30.17
26213,0.3298,-0.0265,0.8654,-6.81,7.98,-0.06,30.15
26223,0.3276,-0.0253,0.861,-6.73,7.98,-0.06,30.17
26233,0.3274,-0.0273,0.8623,-6.79,8.0,-0.05,30.17
26243,0.3293,-0.0271,0.8669,-6.75,8.03,0.02,30.17
26253,0.327,-0.028,0.8643,-6.75,7.97,-0.03,30.18
26263,0.3297,-0.0266,0.8671,-6.76,8.02,0.0,30.17
26273,0.3262,-0.0227,0.8627,-6.82,7.91,0.0,30.17
26283,0.3287,-0.0233,0.8616,-6.76,7.98,-0.03,30.15
26293,0.3289,-0.0258,0.8662,-6.78,7.94,-0.05,30.18
26303,0.3295,-0.0286,0.8673,-6.7,7.95,-0.03,30.17
26313,0.3251,-0.0254,0.8657,-6.72,7.92,-0.05,30.16
26323,0.3264,-0.028,0.8657,-6.76,7.94,-0.05,30.18
26333,0.329,-0.0254,0.863,-6.82,8.05,-0.02,30.18
26343,0.3281,-0.0261,0.8636,-6.73,8.03,0.0,30.17
26353,0.3284,-0.025,0.8661,-6.76,7.97,-0.06,30.17
26363,0.3293,-0.0242,0.8617,-6.78,7.94,-0.06,30.15
26373,0.3269,-0.0236,0.8643,-6.7,8.03,-0.02,30.17
26383,0.3312,-0.0238,0.8673,-6.72,8.05,-0.05,30.18
26393,0.3289,-0.026,0.8628,-6.79,7.98,-0.03,30.19
26403,0.3282,-0.0256,0.865,-6.76,7.92,-0.05,30.17
26413,0.329,-0.0272,0.8622,-6.75,7.97,-0.11,30.17
26423,0.3292,-0.0253,0.8654,-6.72,7.98,0.0,30.16
26433,0.3289,-0.0261,0.8635,-6.72,8.03,-0.09,30.19
26443,0.3286,-0.0258,0.8671,-6.69,7.98,-0.09,30.17
26453,0.3279,-0.0276,0.8702,-6.79,8.0,-0.05,30.18
26463,0.3286,-0.0247,0.8663,-6.66,7.94,-0.11,30.18
26473,0.3291,-0.0256,0.8654,-6.75,7.95,-0.06,30.2
26483,0.3281,-0.0243,0.8655,-6.79,7.94,-0.11,30.17
26493,0.3295,-0.0253,0.8617,-6.78,8.0,-0.06,30.17
26503,0.3274,-0.024,0.8636,-6.78,7.98,-0.06,30.13
26513,0.3297,-0.024,0.865,-6.75,7.97,-0.06,30.14
26523,0.3269,-0.0254,0.8627,-6.75,8.02,-0.08,30.17
26533,0.3251,-0.026,0.8652,-6.72,7.95,-0.08,30.17
26543,0.326,-0.0282,0.8667,-6.67,7.98,-0.02,30.16
26553,0.3263,-0.0247,0.8654,-6.75,7.95,-0.06,30.2
26563,0.3306,-0.0245,0.8669,-6.75,7.94,0.0,30.17
26573,0.3253,-0.0282,0.8645,-6.79,7.98,0.0,30.18
26583,0.327,-0.0244,0.8617,-6.79,7.95,-0.14,30.19
26593,0.3268,-0.0265,0.8662,-6.76,7.95,-0.05,30.19
26603,0.3269,-0.0265,0.8632,-6.78,7.97,0.0,30.13
26613,0.3246,-0.0251,0.8635,-6.78,8.0,-0.06,30.17
26623,0.329,-0.0242,0.8623,-6.79,7.94,0.02,30.17
26633,0.3268,-0.0266,0.8672,-6.75,7.92,-0.06,30.16
26643,0.3243,-0.0228,0.8665,-6.69,7.95,-0.08,30.19
26653,0.3271,-0.0237,0.8679,-6.76,7.94,-0.03,30.17
26663,0.3256,-0.0239,0.8634,-6.81,7.95,-0.03,30.18
26673,0.328,-0.0251,0.8665,-6.84,8.0,0.0,30.17
26683,0.3282,-0.0275,0.8669,-6.78,7.98,-0.06,30.17
26693,0.3306,-0.0259,0.8619,-6.78,8.02,-0.08,30.18
26703,0.329,-0.0269,0.8633,-6.72,8.05,-0.03,30.17
26713,0.3282,-0.0247,0.8649,-6.73,7.98,-0.06,30.17
26723,0.3307,-0.0238,0.8636,-6.82,7.98,-0.06,30.16
26733,0.3263,-0.0275,0.866,-6.73,7.91,-0.06,30.17
26743,0.33,-0.0236,0.8673,-6.79,7.98,-0.05,30.19
26753,0.3256,-0.0233,0.8643,-6.75,7.98,0.0,30.18
26763,0.327,-0.0242,0.866,-6.7,8.02,0.05,30.16
26773,0.3286,-0.0249,0.8677,-6.79,7.97,0.08,30.19
26783,0.3279,-0.0238,0.866,-6.73,7.98,-0.02,30.17
26793,0.33,-0.0277,0.8655,-6.73,8.05,0.02,30.19
26803,0.3268,-0.0255,0.8654,-6.78,7.98,-0.06,30.17
26813,0.3297,-0.0251,0.8639,-6.76,7.94,-0.05,30.16
26823,0.3291,-0.0264,0.8661,-6.76,8.0,-0.05,30.15
26833,0.3262,-0.0295,0.8654,-6.81,7.94,-0.06,30.19
26843,0.3293,-0.0269,0.8639,-6.78,7.94,-0.11,30.19
26853,0.3275,-0.0248,0.8658,-6.69,7.97,-0.03,30.15
26863,0.3264,-0.0254,0.8636,-6.75,8.0,0.03,30.15
26873,0.3287,-0.0234,0.8646,-6.75,7.97,-0.08,30.17
26883,0.3267,-0.0258,0.8638,-6.73,7.92,0.06,30.17
26893,0.3307,-0.0269,0.8672,-6.78,7.97,-0.02,30.17
26903,0.3302,-0.0251,0.8668,-6.82,7.98,-0.05,30.18
26913,0.3293,-0.0267,0.8612,-6.85,7.92,-0.05,30.18
26923,0.3254,-0.0249,0.8623,-6.78,7.91,-0.12,30.17
26933,0.3284,-0.0271,0.8633,-6.79,7.94,-0.03,30.14
26943,0.3274,-0.0247,0.8671,-6.73,7.98,0.03,30.17
26953,0.3295,-0.0254,0.8677,-6.75,8.0,-0.03,30.16
26963,0.3279,-0.0253,0.8657,-6.69,7.94,-0.11,30.18
26973,0.3304,-0.0258,0.863,-6.76,7.94,-0.09,30.17
26983,0.3284,-0.0259,0.8647,-6.85,7.89,-0.09,30.17
26993,0.3307,-0.0275,0.865,-6.75,7.98,-0.03,30.17
27003,0.3273,-0.0272,0.8662,-6.73,8.02,-0.06,30.15
27013,0.3282,-0.0249,0.8685,-6.79,8.03,-0.08,30.18
27023,0.3279,-0.0287,0.8649,-6.79,8.0,-0.08,30.19
27033,0.3291,-0.0264,0.8668,-6.81,8.02,0.0,30.16
27043,0.329,-0.0262,0.8645,-6.76,7.98,-0.02,30.18
27053,0.3281,-0.0244,0.8662,-6.79,8.0,-0.02,30.18
27063,0.3274,-0.0276,0.8617,-6.7,8.08,-0.03,30.18
27073,0.3264,-0.025,0.8616,-6.72,7.97,-0.08,30.18
27083,0.33,-0.0242,0.8666,-6.73,7.89,-0.02,30.18
27093,0.329,-0.0232,0.8651,-6.72,8.06,0.0,30.18
27103,0.3291,-0.0251,0.8639,-6.76,7.95,0.0,30.19
27113,0.3287,-0.0281,0.8666,-6.79,7.89,-0.05,30.21
27123,0.33,-0.0288,0.8657,-6.82,7.98,-0.05,30.2
27133,0.3265,-0.0251,0.8654,-6.84,8.03,-0.08,30.19
27143,0.3281,-0.0248,0.8645,-6.81,8.02,-0.02,30.19
27153,0.3273,-0.0273,0.8643,-6.72,8.0,-0.09,30.19
27163,0.3254,-0.0244,0.8682,-6.76,7.97,-0.08,30.17
27173,0.3295,-0.0243,0.8685,-6.75,7.98,-0.05,30.17
27183,0.3267,-0.0266,0.8643,-6.72,8.02,-0.03,30.16
27193,0.3311,-0.0253,0.8654,-6.69,7.97,-0.03,30.19
27203,0.3276,-0.0249,0.8673,-6.72,8.02,-0.02,30.19
27213,0.3303,-0.0236,0.868,-6.75,8.02,-0.09,30.19
27223,0.3265,-0.0259,0.8669,-6.78,8.03,-0.03,30.19
27233,0.3262,-0.0259,0.8622,-6.79,7.98,-0.05,30.19
27243,0.3265,-0.03,0.8671,-6.79,8.02,-0.02,30.2
27253,0.3271,-0.0261,0.8649,-6.85,7.95,0.03,30.19
27263,0.3295,-0.0262,0.8644,-6.73,8.0,-0.05,30.18
27273,0.3284,-0.0266,0.8665,-6.73,8.0,-0.02,30.18
27283,0.3286,-0.0272,0.8638,-6.76,8.02,0.03,30.17
27293,0.3289,-0.0256,0.8619,-6.79,8.06,0.0,30.19
27303,0.3263,-0.0266,0.8678,-6.79,8.0,-0.11,30.17
27313,0.3271,-0.027,0.8652,-6.78,7.95,-0.02,30.16
27323,0.3284,-0.0251,0.8641,-6.78,7.97,-0.06,30.18
27333,0.3267,-0.0258,0.8652,-6.75,7.94,-0.11,30.19
27343,0.3262,-0.025,0.8682,-6.76,7.92,-0.06,30.18
27353,0.3268,-0.0239,0.8607,-6.78,7.94,-0.06,30.17
27363,0.3297,-0.0242,0.8652,-6.76,8.0,-0.11,30.2
27373,0.3293,-0.0242,0.8636,-6.76,7.97,-0.03,30.19
27383,0.3289,-0.024,0.8635,-6.82,7.98,-0.02,30.19
27393,0.3257,-0.0243,0.8627,-6.7,7.98,-0.05,30.21
27403,0.327,-0.0266,0.8625,-6.7,7.92,-0.06,30.2
