t_ms,accel_x_g,accel_y_g,accel_z_g,gyro_x_dps,gyro_y_dps,gyro_z_dps,imu_temp_c
3273,0.2694,-0.0336,0.8704,-6.06,7.71,-0.05,20.57
3284,0.2712,-0.0332,0.8696,-6.03,7.79,-0.06,20.58
3294,0.2705,-0.0342,0.8658,-5.98,7.69,-0.09,20.57
3304,0.271,-0.0355,0.8698,-6.02,7.79,-0.05,20.55
3314,0.2723,-0.0343,0.8694,-6.08,7.71,-0.08,20.58
3324,0.2725,-0.035,0.8737,-6.18,7.74,-0.05,20.57
3334,0.2711,-0.0344,0.8718,-6.12,7.79,-0.08,20.56
3344,0.2705,-0.035,0.8707,-6.03,7.71,-0.03,20.55
3354,0.27,-0.0343,0.8677,-6.08,7.74,-0.03,20.58
3364,0.2675,-0.0355,0.8761,-6.11,7.71,-0.08,20.59
3374,0.2701,-0.0336,0.8727,-6.0,7.76,-0.08,20.56
3384,0.2698,-0.037,0.8729,-5.97,7.68,-0.08,20.57
3394,0.2722,-0.0341,0.8738,-6.08,7.69,-0.11,20.55
3404,0.274,-0.0341,0.8715,-6.09,7.71,-0.03,20.58
3414,0.2723,-0.0316,0.8745,-6.02,7.77,-0.05,20.57
3424,0.2733,-0.032,0.876,-6.11,7.73,-0.05,20.6
3434,0.2688,-0.028,0.8727,-6.03,7.8,-0.02,20.59
3444,0.2682,-0.0321,0.8705,-6.06,7.73,-0.09,20.6
3454,0.2681,-0.0323,0.8691,-6.12,7.74,0.0,20.6
3464,0.2667,-0.0358,0.869,-6.14,7.74,-0.11,20.62
3474,0.2699,-0.0347,0.869,-6.09,7.66,-0.06,20.6
3484,0.2704,-0.0297,0.8683,-6.11,7.68,-0.11,20.56
3494,0.2676,-0.031,0.8684,-6.14,7.74,-0.08,20.59
3504,0.2728,-0.0312,0.8746,-6.18,7.69,-0.02,20.58
3514,0.2723,-0.0337,0.8772,-6.15,7.69,-0.06,20.57
3524,0.2721,-0.0339,0.8749,-6.03,7.69,-0.05,20.58
3534,0.2715,-0.0352,0.8766,-6.08,7.79,-0.03,20.58
3544,0.2706,-0.0372,0.8723,-6.12,7.73,-0.05,20.6
3554,0.2737,-0.0356,0.8748,-5.98,7.74,-0.06,20.58
3564,0.2729,-0.036,0.8729,-6.11,7.69,-0.05,20.59
3574,0.2693,-0.0366,0.8728,-6.14,7.69,-0.08,20.58
3584,0.271,-0.0345,0.8702,-5.94,7.74,-0.02,20.59
3594,0.2728,-0.0348,0.8711,-6.03,7.77,-0.02,20.59
3604,0.2712,-0.033,0.8693,-6.14,7.79,-0.05,20.61
3614,0.2693,-0.0348,0.8722,-6.03,7.74,-0.05,20.59
3624,0.2684,-0.0356,0.875,-6.06,7.74,-0.09,20.61
3634,0.2722,-0.0322,0.8745,-6.18,7.74,-0.11,20.58
3644,0.2664,-0.033,0.8771,-6.18,7.73,-0.09,20.59
3654,0.2697,-0.0339,0.8746,-6.12,7.73,-0.06,20.57
3664,0.2679,-0.0344,0.8737,-6.06,7.69,-0.08,20.6
3674,0.2688,-0.0358,0.8707,-6.06,7.79,-0.03,20.58
3684,0.2693,-0.0356,0.8716,-6.09,7.73,-0.11,20.59
3694,0.2672,-0.0327,0.87,-6.11,7.76,-0.11,20.59
3704,0.2711,-0.0341,0.8666,-6.15,7.68,-0.02,20.6
3714,0.27,-0.0327,0.873,-6.17,7.68,-0.09,20.61
3724,0.272,-0.035,0.8705,-6.12,7.71,-0.03,20.6
3734,0.2728,-0.0332,0.8744,-6.05,7.79,-0.06,20.61
3744,0.2701,-0.0375,0.8727,-6.06,7.77,-0.02,20.61
3754,0.2728,-0.0365,0.8755,-6.05,7.76,-0.05,20.61
3764,0.2695,-0.0372,0.8728,-6.12,7.74,-0.06,20.6
3774,0.2723,-0.0337,0.8699,-6.11,7.74,-0.06,20.61
3784,0.2712,-0.0325,0.871,-6.06,7.74,-0.05,20.59
3794,0.2719,-0.0353,0.8722,-6.08,7.76,-0.08,20.6
3804,0.2697,-0.0332,0.8756,-6.12,7.74,-0.06,20.61
3814,0.271,-0.0347,0.875,-6.02,7.76,-0.05,20.6
3824,0.2701,-0.0302,0.8733,-6.08,7.74,-0.09,20.63
3834,0.2726,-0.0309,0.8755,-6.14,7.71,0.0,20.62
3844,0.2687,-0.0344,0.875,-6.03,7.77,-0.05,20.62
3854,0.2694,-0.0345,0.8737,-6.06,7.71,-0.03,20.59
3864,0.2708,-0.0349,0.8745,-6.15,7.77,-0.05,20.62
3874,0.2717,-0.0321,0.8722,-6.17,7.74,-0.08,20.62
3884,0.2716,-0.0323,0.8701,-6.08,7.74,-0.02,20.62
3894,0.2703,-0.0327,0.8671,-5.98,7.82,-0.09,20.61
3904,0.2686,-0.0365,0.875,-6.12,7.79,-0.05,20.62
3914,0.2714,-0.0332,0.8743,-6.02,7.73,-0.03,20.62
3924,0.2695,-0.031,0.8721,-6.11,7.74,-0.08,20.61
3934,0.2684,-0.0325,0.8784,-6.14,7.73,-0.11,20.61
3944,0.2717,-0.0359,0.8762,-6.08,7.68,-0.06,20.61
3954,0.2714,-0.0338,0.8759,-6.08,7.74,-0.06,20.61
3964,0.2682,-0.0331,0.8743,-6.11,7.69,-0.09,20.64
3974,0.2689,-0.0326,0.8687,-6.05,7.77,-0.09,20.64
3984,0.2705,-0.0325,0.8708,-6.09,7.74,-0.05,20.62
3994,0.2689,-0.0345,0.8719,-6.06,7.74,-0.06,20.63
4004,0.2717,-0.0319,0.8704,-6.09,7.73,-0.06,20.62
4014,0.2723,-0.0312,0.8717,-6.18,7.68,-0.06,20.61
4024,0.2711,-0.0326,0.874,-6.15,7.79,-0.03,20.62
4034,0.2703,-0.031,0.8743,-6.12,7.74,0.0,20.64
4044,0.2689,-0.0336,0.8698,-6.05,7.77,-0.03,20.64
4054,0.27,-0.0343,0.8712,-6.09,7.77,-0.08,20.63
4064,0.2678,-0.0323,0.869,-6.18,7.73,-0.05,20.62
4074,0.2706,-0.0348,0.8727,-6.11,7.8,0.08,20.62
4084,0.2712,-0.0364,0.8734,-6.17,7.74,0.0,20.63
4094,0.2698,-0.037,0.8741,-6.11,7.77,-0.05,20.62
4104,0.2681,-0.0356,0.876,-6.05,7.73,-0.03,20.62
4114,0.2729,-0.0364,0.8721,-6.14,7.68,-0.08,20.63
4124,0.2699,-0.035,0.871,-6.06,7.73,0.05,20.64
4134,0.2704,-0.0371,0.8768,-6.08,7.82,-0.03,20.63
4144,0.2738,-0.0358,0.8723,-6.02,7.76,-0.06,20.63
4154,0.2721,-0.0354,0.8737,-6.05,7.77,-0.08,20.64
4164,0.2725,-0.0359,0.8793,-6.12,7.74,-0.12,20.62
4174,0.2725,-0.0369,0.8727,-6.03,7.73,-0.11,20.64
4184,0.2715,-0.0334,0.8774,-6.02,7.71,0.03,20.61
4194,0.2725,-0.0332,0.873,-6.08,7.76,-0.02,20.61
4204,0.2706,-0.0354,0.8695,-6.11,7.69,-0.08,20.61
4214,0.269,-0.0345,0.8739,-6.02,7.77,-0.02,20.61
4224,0.2672,-0.0356,0.8702,-6.11,7.74,-0.12,20.64
4234,0.2698,-0.0355,0.8691,-6.12,7.71,-0.05,20.66
4244,0.2706,-0.0364,0.8752,-6.11,7.77,-0.09,20.64
4254,0.2709,-0.0328,0.8746,-6.2,7.79,-0.05,20.63
4264,0.2712,-0.0336,0.8737,-6.14,7.77,-0.02,20.63
4275,0.2711,-0.0323,0.8765,-6.08,7.71,0.0,20.62
4285,0.2699,-0.0341,0.8727,-6.11,7.79,-0.03,20.65
4296,0.2706,-0.0322,0.8695,-6.06,7.83,0.02,20.65
4306,0.2689,-0.0338,0.8693,-6.06,7.74,-0.05,20.64
4316,0.2672,-0.0369,0.8698,-5.98,7.76,0.0,20.65
4326,0.2675,-0.0363,0.8735,-6.08,7.66,0.0,20.64
4336,0.2672,-0.0347,0.8708,-6.17,7.73,-0.06,20.64
4346,0.2682,-0.0328,0.8724,-6.09,7.77,-0.03,20.65
4356,0.2719,-0.0341,0.8746,-6.08,7.73,-0.08,20.66
4366,0.2697,-0.031,0.8751,-6.17,7.73,-0.05,20.64
4376,0.2692,-0.0325,0.8708,-6.12,7.69,-0.03,20.65
4386,0.271,-0.0322,0.8752,-6.08,7.77,-0.11,20.65
4396,0.272,-0.0333,0.8726,-6.08,7.77,-0.09,20.66
4406,0.2708,-0.0328,0.8721,-6.09,7.77,-0.02,20.69
4416,0.2684,-0.031,0.8713,-6.09,7.82,-0.02,20.66
4426,0.2684,-0.0326,0.873,-6.12,7.76,-0.05,20.66
4436,0.271,-0.0343,0.8738,-6.11,7.76,-0.09,20.66
4446,0.2688,-0.0336,0.8712,-6.11,7.73,-0.09,20.66
4456,0.2717,-0.0323,0.8738,-6.05,7.77,-0.09,20.64
4466,0.2711,-0.0331,0.8771,-6.14,7.73,-0.05,20.65
4476,0.2703,-0.0352,0.8762,-6.12,7.74,-0.11,20.66
4486,0.2698,-0.0341,0.8795,-6.08,7.71,-0.14,20.66
4496,0.2728,-0.0371,0.8788,-6.15,7.73,-0.09,20.67
4506,0.2687,-0.0339,0.8763,-6.09,7.77,-0.08,20.66
4516,0.2717,-0.0366,0.8721,-6.08,7.8,-0.05,20.62
4526,0.2692,-0.0341,0.8734,-6.08,7.77,-0.05,20.66
4536,0.2683,-0.0343,0.8712,-6.08,7.83,-0.06,20.67
4546,0.2688,-0.0337,0.8693,-6.09,7.8,-0.06,20.66
4556,0.269,-0.0361,0.8682,-6.06,7.8,-0.02,20.67
4566,0.2688,-0.0381,0.8658,-6.11,7.76,-0.12,20.65
4576,0.2688,-0.0372,0.8673,-6.05,7.73,-0.06,20.65
4586,0.2742,-0.0339,0.8688,-6.08,7.74,-0.05,20.65
4596,0.271,-0.0322,0.8672,-6.05,7.76,-0.14,20.63
4606,0.27,-0.0337,0.8711,-6.05,7.79,-0.09,20.68
4616,0.2648,-0.0349,0.8655,-6.12,7.77,-0.02,20.65
4626,0.2699,-0.0339,0.8671,-6.02,7.71,-0.02,20.67
4636,0.2693,-0.0344,0.8625,-6.17,7.74,0.0,20.68
4646,0.2676,-0.0344,0.8668,-6.14,7.69,0.03,20.66
4656,0.2665,-0.0334,0.8745,-6.14,7.71,-0.05,20.67
4666,0.2686,-0.0343,0.8723,-6.21,7.76,-0.09,20.66
4676,0.2705,-0.0309,0.8719,-6.11,7.73,0.02,20.65
4686,0.2692,-0.0331,0.875,-6.2,7.82,-0.09,20.66
4696,0.2694,-0.0338,0.8752,-6.11,7.69,-0.02,20.67
4706,0.271,-0.0337,0.8756,-6.15,7.74,-0.06,20.67
4716,0.2693,-0.0356,0.8734,-6.08,7.76,-0.09,20.66
4726,0.2695,-0.0364,0.8743,-6.0,7.79,-0.06,20.66
4736,0.2727,-0.0377,0.8755,-6.06,7.74,-0.02,20.68
4746,0.2727,-0.0358,0.874,-6.11,7.79,0.03,20.65
4756,0.2809,-0.0334,0.8705,-6.12,7.51,0.02,20.67
4766,0.2733,-0.0338,0.8756,-6.11,7.6,-0.02,20.66
4776,0.2712,-0.0343,0.8793,-6.14,7.69,-0.08,20.69
4786,0.2761,-0.0345,0.8812,-6.09,7.65,-0.14,20.67
4796,0.2761,-0.0355,0.873,-6.12,7.79,-0.06,20.68
4806,0.2743,-0.0334,0.8767,-6.09,7.74,-0.03,20.67
4816,0.2723,-0.0371,0.8732,-6.09,7.79,-0.11,20.67
4826,0.2714,-0.0344,0.8729,-5.97,7.82,-0.05,20.66
4836,0.2706,-0.0359,0.8706,-6.02,7.77,-0.08,20.69
4846,0.2731,-0.0348,0.8678,-6.0,7.77,-0.05,20.66
4856,0.2704,-0.0359,0.8679,-6.05,7.77,0.03,20.68
4866,0.271,-0.0293,0.8687,-6.0,7.74,-0.06,20.67
4876,0.2704,-0.0337,0.8699,-6.09,7.74,-0.02,20.67
4886,0.2704,-0.0321,0.8678,-6.09,7.76,-0.03,20.68
4896,0.2677,-0.0333,0.8684,-6.06,7.71,-0.11,20.67
4906,0.2705,-0.033,0.866,-6.03,7.69,-0.06,20.69
4916,0.2705,-0.0339,0.8677,-6.06,7.68,-0.12,20.69
4926,0.2677,-0.0319,0.8707,-6.08,7.8,-0.03,20.7
4936,0.2635,-0.0337,0.8739,-6.09,7.76,-0.03,20.69
4946,0.2722,-0.0326,0.8663,-6.23,7.79,-0.02,20.67
4956,0.2689,-0.0322,0.8667,-6.15,7.79,-0.05,20.67
4966,0.2697,-0.0327,0.8693,-6.18,7.77,-0.03,20.7
4976,0.2677,-0.0332,0.8689,-6.17,7.77,-0.03,20.67
4986,0.2703,-0.0314,0.8679,-6.11,7.76,-0.05,20.71
4996,0.2654,-0.0352,0.8716,-6.17,7.71,0.0,20.67
5006,0.2701,-0.0359,0.8766,-6.14,7.74,-0.06,20.67
5016,0.2736,-0.0354,0.873,-6.15,7.68,-0.11,20.68
5026,0.2751,-0.0341,0.8777,-6.12,7.73,0.03,20.67
5036,0.2767,-0.0364,0.8848,-6.17,7.79,-0.08,20.67
5046,0.2719,-0.0327,0.8806,-6.11,7.71,-0.11,20.67
5056,0.2719,-0.0337,0.8822,-6.09,7.79,-0.03,20.69
5066,0.2743,-0.0331,0.8782,-6.03,7.71,-0.09,20.69
5076,0.2731,-0.0319,0.88,-6.11,7.65,-0.11,20.69
5086,0.2712,-0.0365,0.8771,-6.11,7.8,-0.11,20.67
5096,0.2721,-0.0359,0.8746,-6.12,7.69,-0.06,20.67
5106,0.2719,-0.0358,0.875,-6.08,7.68,-0.06,20.66
5116,0.2731,-0.0331,0.8698,-6.09,7.71,-0.09,20.7
5126,0.2697,-0.0366,0.8711,-6.08,7.76,-0.05,20.69
5136,0.2692,-0.0376,0.8682,-6.03,7.76,-0.05,20.69
5146,0.2689,-0.0358,0.8696,-6.06,7.77,-0.05,20.67
5156,0.2709,-0.0343,0.8663,-6.03,7.76,-0.03,20.69
5166,0.2712,-0.0354,0.8647,-6.03,7.77,-0.09,20.7
5176,0.2698,-0.0327,0.8649,-6.06,7.82,-0.08,20.7
5186,0.2688,-0.0332,0.8696,-6.11,7.74,-0.02,20.7
5196,0.2648,-0.0334,0.8668,-6.09,7.73,-0.08,20.67
5206,0.2661,-0.0317,0.8684,-6.08,7.76,-0.03,20.68
5216,0.2675,-0.0312,0.8702,-6.09,7.76,-0.02,20.68
5226,0.2709,-0.0317,0.866,-6.15,7.8,-0.09,20.68
5236,0.2721,-0.0378,0.8696,-6.12,7.74,-0.08,20.69
5246,0.2694,-0.0345,0.8728,-6.15,7.77,-0.02,20.68
5256,0.2695,-0.0334,0.8752,-6.2,7.74,-0.03,20.69
5266,0.2689,-0.033,0.8734,-6.2,7.77,-0.03,20.69
5276,0.2676,-0.0342,0.8774,-6.18,7.69,0.02,20.7
5286,0.272,-0.0317,0.8744,-6.11,7.76,-0.02,20.69
5296,0.2665,-0.0366,0.8772,-6.21,7.85,-0.02,20.7
5306,0.2693,-0.0371,0.8752,-6.12,7.8,-0.02,20.71
5316,0.2712,-0.0353,0.8826,-6.12,7.71,-0.03,20.7
5326,0.2743,-0.0363,0.8774,-6.11,7.73,0.12,20.68
5336,0.2737,-0.0331,0.8784,-6.12,7.69,-0.02,20.68
5346,0.2753,-0.0376,0.8774,-6.14,7.79,-0.09,20.68
5356,0.2728,-0.0334,0.8773,-6.05,7.69,-0.05,20.7
5366,0.275,-0.0336,0.873,-6.06,7.8,-0.09,20.69
5376,0.2753,-0.0354,0.8746,-6.02,7.76,-0.06,20.73
5386,0.2725,-0.0332,0.8706,-6.02,7.77,0.0,20.69
5396,0.2721,-0.036,0.8689,-5.94,7.83,-0.15,20.69
5406,0.2739,-0.0343,0.8691,-6.0,7.8,-0.06,20.69
5416,0.2725,-0.0326,0.8699,-6.05,7.76,-0.08,20.7
5426,0.2717,-0.0338,0.8669,-6.05,7.77,-0.08,20.72
5436,0.2706,-0.0349,0.8719,-6.0,7.76,-0.06,20.73
5446,0.2694,-0.0348,0.8708,-6.02,7.76,-0.09,20.72
5456,0.2694,-0.0332,0.8691,-5.98,7.74,-0.08,20.7
5466,0.2682,-0.0321,0.8705,-6.05,7.8,-0.05,20.69
5476,0.2683,-0.0334,0.8669,-6.08,7.77,-0.14,20.71
5486,0.2692,-0.0314,0.8673,-5.97,7.79,-0.11,20.69
5496,0.2671,-0.0325,0.8707,-6.14,7.79,0.02,20.71
5506,0.2668,-0.0322,0.8669,-6.17,7.83,0.02,20.71
5516,0.265,-0.0333,0.8706,-6.18,7.83,-0.02,20.73
5526,0.2683,-0.0305,0.8669,-6.26,7.79,0.02,20.72
5536,0.2653,-0.0333,0.8674,-6.23,7.8,-0.03,20.68
5546,0.2692,-0.032,0.8679,-6.24,7.69,-0.03,20.74
5556,0.2589,-0.0336,0.8807,-6.15,7.8,-0.03,20.73
5566,0.2649,-0.0363,0.8777,-6.17,7.94,0.02,20.7
5576,0.2738,-0.0366,0.8788,-6.18,7.74,0.0,20.69
5586,0.2787,-0.032,0.8799,-6.12,7.57,-0.03,20.7
5596,0.2738,-0.0336,0.8816,-6.12,7.66,0.0,20.7
5606,0.2676,-0.0341,0.8835,-6.05,7.83,0.03,20.71
5616,0.2874,-0.0336,0.8661,-5.94,7.19,0.02,20.72
5626,0.2555,-0.0367,0.8901,-6.02,7.91,-0.08,20.72
5636,0.2598,-0.03,0.8846,-6.24,8.23,-0.11,20.72
5646,0.275,-0.0309,0.8785,-6.12,7.88,-0.05,20.72
5656,0.2725,-0.0358,0.8772,-6.15,7.8,-0.02,20.72
5666,0.2756,-0.0366,0.8707,-6.11,7.74,-0.05,20.73
5676,0.2705,-0.0378,0.8751,-6.09,7.86,-0.05,20.73
5686,0.2737,-0.0375,0.8701,-6.08,7.88,0.0,20.72
5696,0.2714,-0.0359,0.8683,-5.95,7.65,-0.12,20.72
5706,0.2706,-0.0354,0.8668,-6.05,7.74,-0.06,20.72
5716,0.2679,-0.0331,0.8699,-5.95,7.73,-0.12,20.71
5726,0.269,-0.0321,0.8639,-6.09,7.74,0.0,20.7
5736,0.2697,-0.0323,0.8657,-6.09,7.73,-0.08,20.71
5746,0.2688,-0.031,0.8677,-6.11,7.76,-0.06,20.7
5756,0.2675,-0.0303,0.8669,-6.12,7.76,-0.09,20.72
5766,0.2705,-0.0327,0.8682,-6.15,7.74,-0.08,20.7
5776,0.2709,-0.0312,0.8679,-6.15,7.73,-0.11,20.71
5786,0.295,-0.0703,0.8604,-6.02,6.76,0.05,20.74
5796,0.2764,0.0118,0.9137,-6.37,4.82,0.09,20.7
5806,0.2855,-0.0382,0.8806,-5.27,8.34,0.08,20.69
5816,0.3019,-0.0663,0.8417,-6.5,4.27,0.09,20.71
5826,0.2474,-0.0388,0.8948,-6.0,7.6,-0.11,20.74
5836,0.2761,-0.037,0.8566,-6.11,7.31,-0.08,20.7
5846,0.2819,-0.0327,0.9174,-6.27,8.61,-0.11,20.73
5856,0.2906,-0.0374,0.8297,-6.05,7.95,-0.06,20.72
5866,0.2795,-0.0474,0.8746,-6.08,6.84,0.02,20.74
5876,0.2834,-0.0314,0.8784,-6.27,8.49,-0.12,20.75
5886,0.2701,-0.0431,0.8262,-6.05,7.45,0.03,20.74
5896,0.2772,-0.0354,0.89,-6.14,7.69,-0.02,20.72
5906,0.2671,-0.0293,0.8628,-6.32,8.11,-0.09,20.75
5916,0.2621,-0.0391,0.8595,-5.85,7.15,0.05,20.74
5926,0.2847,-0.028,0.8921,-6.23,8.02,-0.11,20.74
5936,0.2607,-0.0339,0.8745,-6.09,8.43,-0.11,20.72
5946,0.2833,-0.0294,0.8661,-5.98,7.04,0.0,20.72
5956,0.2797,-0.0287,0.8855,-6.12,8.12,0.02,20.74
5966,0.2603,-0.0344,0.8508,-6.09,7.82,-0.08,20.74
5976,0.2744,-0.0339,0.8925,-5.97,7.54,-0.02,20.72
5986,0.27,-0.0297,0.8746,-6.23,8.21,-0.06,20.73
5996,0.274,-0.0393,0.8696,-6.08,7.34,-0.02,20.74
6006,0.2792,-0.0331,0.8992,-6.17,7.8,-0.08,20.72
6016,0.2638,-0.0315,0.8751,-6.12,7.86,-0.08,20.71
6026,0.2683,-0.0332,0.8789,-6.06,7.59,-0.06,20.73
6036,0.2698,-0.0349,0.8744,-6.14,8.08,-0.03,20.72
6046,0.2676,-0.0377,0.8616,-5.91,7.62,-0.15,20.72
6056,0.276,-0.0374,0.8743,-6.0,7.63,-0.06,20.74
6066,0.2712,-0.0326,0.8711,-6.08,7.83,0.02,20.73
6076,0.2699,-0.0337,0.879,-6.02,7.65,-0.09,20.74
6086,0.2719,-0.0319,0.8789,-6.09,7.71,-0.11,20.74
6096,0.2701,-0.0292,0.8716,-6.05,7.69,0.02,20.72
6106,0.2699,-0.0309,0.8715,-6.08,7.74,-0.09,20.72
6116,0.2633,-0.0304,0.8635,-6.12,7.77,-0.12,20.74
6126,0.2678,-0.0323,0.8621,-6.03,7.74,-0.08,20.72
6136,0.2672,-0.0358,0.8674,-6.03,7.82,-0.08,20.72
6146,0.2657,-0.0334,0.8601,-6.11,7.69,-0.03,20.73
6156,0.2667,-0.0342,0.8737,-6.24,7.76,0.0,20.74
6166,0.267,-0.0341,0.8666,-6.27,7.83,0.02,20.74
6176,0.2684,-0.0361,0.8698,-6.17,7.68,0.03,20.72
6186,0.2694,-0.0355,0.8771,-6.2,7.83,-0.09,20.76
6196,0.2673,-0.0374,0.8724,-6.17,7.76,-0.12,20.77
6206,0.2682,-0.0339,0.8793,-6.03,7.65,-0.05,20.72
6216,0.2704,-0.0365,0.8735,-6.06,7.8,-0.03,20.75
6226,0.2675,-0.0374,0.8708,-6.02,7.66,-0.09,20.74
6236,0.27,-0.0336,0.8816,-6.05,7.77,-0.05,20.74
6246,0.2689,-0.0359,0.8727,-6.15,7.82,0.06,20.75
6256,0.2692,-0.0353,0.8752,-6.15,7.69,0.02,20.76
6266,0.2706,-0.0308,0.8783,-6.23,7.71,-0.02,20.75
6276,0.2679,-0.03,0.8735,-6.15,7.66,0.03,20.74
6286,0.2719,-0.0311,0.8817,-6.06,7.56,0.0,20.72
6296,0.2773,-0.0349,0.8779,-6.03,7.77,-0.06,20.72
6306,0.2772,-0.0348,0.8802,-6.02,7.63,-0.02,20.74
6316,0.2766,-0.0372,0.8835,-5.97,7.76,0.0,20.76
6326,0.2736,-0.0411,0.8721,-6.06,7.82,-0.08,20.74
6336,0.2716,-0.0377,0.8704,-5.98,7.74,-0.03,20.76
6346,0.2676,-0.0363,0.8677,-6.03,7.74,-0.11,20.77
6356,0.2662,-0.0343,0.8707,-6.08,7.66,-0.11,20.74
6366,0.2721,-0.0327,0.873,-6.08,7.63,-0.15,20.74
6376,0.2733,-0.0356,0.8732,-6.06,7.73,-0.09,20.74
6386,0.2765,-0.0353,0.8763,-5.95,7.76,-0.12,20.76
6396,0.2749,-0.0352,0.8759,-5.83,7.79,-0.05,20.73
6406,0.2751,-0.033,0.8707,-5.92,7.86,-0.11,20.76
6416,0.2728,-0.0355,0.865,-5.92,7.76,-0.09,20.74
6426,0.2716,-0.0321,0.8688,-5.98,7.74,-0.05,20.74
6436,0.2694,-0.0297,0.8745,-5.97,7.68,-0.05,20.74
6446,0.2737,-0.0276,0.874,-6.0,7.71,1.1,20.73
6456,0.2664,-0.0267,0.8743,-6.05,7.74,0.0,20.72
6466,0.2689,-0.0255,0.8698,-6.06,7.79,-0.08,20.77
6476,0.2678,-0.0323,0.8662,-6.11,7.74,-0.15,20.73
6486,0.2682,-0.0339,0.8616,-6.15,7.79,-0.11,20.75
6496,0.2667,-0.0347,0.8656,-6.2,7.79,-0.03,20.76
6506,0.2648,-0.0367,0.8621,-6.24,7.85,-0.06,20.75
6516,0.264,-0.0344,0.8608,-6.27,7.83,-0.03,20.75
6526,0.2643,-0.0341,0.8639,-6.27,7.82,-0.03,20.74
6536,0.2627,-0.0311,0.8641,-6.24,7.69,-0.02,20.76
6546,0.266,-0.0305,0.8691,-6.23,7.8,-0.02,20.76
6556,0.2703,-0.031,0.8765,-6.26,7.73,0.0,20.74
6566,0.2693,-0.0342,0.8823,-6.17,7.74,-0.03,20.75
6576,0.2755,-0.0328,0.8821,-6.08,7.82,-0.06,20.76
6586,0.2709,-0.032,0.8805,-6.12,7.79,-0.05,20.75
6596,0.2714,-0.0316,0.8816,-6.14,7.85,0.02,20.74
6606,0.2671,-0.0336,0.8807,-6.21,7.82,0.03,20.75
6616,0.2683,-0.0369,0.8845,-6.17,7.82,0.03,20.76
6626,0.267,-0.0341,0.8843,-6.21,7.73,-0.02,20.74
6636,0.2687,-0.0322,0.884,-6.2,7.77,-0.05,20.74
6646,0.2721,-0.0333,0.8816,-6.12,7.76,-0.06,20.77
6656,0.2738,-0.0348,0.8856,-6.03,7.77,-0.17,20.74
6666,0.2756,-0.0586,0.886,-5.98,7.83,-0.12,20.71
6676,0.291,-0.0405,0.8563,-6.41,7.08,-0.17,20.76
6686,0.3135,-0.0325,0.8525,-5.82,6.87,0.02,20.74
6696,0.2683,-0.0404,0.8876,-5.98,7.86,-0.05,20.76
6706,0.2758,-0.0339,0.8688,-5.89,7.65,-0.15,20.76
6716,0.265,-0.0289,0.8848,-5.94,8.18,-0.18,20.75
6726,0.2734,-0.026,0.8619,-6.0,7.97,-0.08,20.74
6736,0.2699,-0.0293,0.8602,-5.98,7.85,-0.03,20.77
6746,0.2775,-0.032,0.8561,-5.91,7.6,-0.14,20.77
6756,0.2742,-0.033,0.8607,-5.98,7.57,-0.06,20.76
6766,0.2594,-0.0308,0.8688,-5.94,7.83,-0.12,20.74
6776,0.2635,-0.0385,0.8644,-6.12,8.03,-0.12,20.75
6786,0.2699,-0.0436,0.8572,-6.06,7.65,-0.08,20.76
6796,0.2712,-0.0328,0.8563,-6.11,7.65,-0.05,20.76
6806,0.267,-0.0348,0.8618,-6.18,7.69,-0.05,20.77
6816,0.2655,-0.0309,0.8624,-6.11,7.88,-0.03,20.77
6826,0.2675,-0.0282,0.8718,-6.08,7.71,-0.03,20.76
6836,0.2684,-0.0121,0.8746,-6.14,7.6,-0.09,20.76
6846,0.2433,-0.0129,0.9236,-6.11,8.7,-0.18,20.74
6856,0.2465,-0.0292,0.9001,-6.15,8.24,-0.09,20.77
6866,0.2743,-0.0237,0.8893,-6.2,7.51,0.05,20.78
6876,0.2563,-0.0297,0.8931,-6.24,7.74,-0.03,20.77
6886,0.2683,-0.0328,0.8827,-6.17,7.44,-0.03,20.77
6896,0.2583,-0.0331,0.8912,-6.15,7.82,-0.06,20.76
6906,0.2446,-0.0393,0.8966,-6.12,8.11,-0.05,20.76
6916,0.26,-0.0393,0.8922,-6.05,8.03,-0.02,20.77
6926,0.2725,-0.0396,0.8768,-6.11,7.83,-0.02,20.75
6936,0.2788,-0.0299,0.8789,-6.0,7.48,0.02,20.78
6946,0.2712,-0.0267,0.892,-6.08,7.69,-0.09,20.77
6956,0.2705,-0.0299,0.885,-6.08,7.92,-0.08,20.78
6966,0.2751,-0.0365,0.8781,-6.02,7.77,-0.09,20.76
6976,0.2815,-0.036,0.8744,-6.06,7.71,-0.12,20.79
6986,0.2766,-0.0424,0.8724,-6.0,7.68,-0.06,20.79
6996,0.274,-0.0409,0.868,-6.05,7.74,-0.11,20.76
7006,0.2714,-0.0367,0.8616,-5.97,7.88,-0.11,20.77
7016,0.2677,-0.0363,0.8624,-5.89,7.77,0.0,20.76
7026,0.2679,-0.0314,0.8638,-5.89,7.74,-0.09,20.77
7036,0.2698,-0.0297,0.8601,-5.94,7.74,-0.06,20.77
7046,0.2684,-0.0284,0.8632,-5.92,7.77,-0.14,20.77
7056,0.2683,-0.0239,0.8656,-6.03,7.8,-0.17,20.77
7066,0.2695,-0.0294,0.8687,-6.12,7.77,-0.09,20.77
7076,0.2657,-0.0273,0.8679,-6.05,7.8,-0.12,20.77
7086,0.2706,-0.0308,0.8647,-6.06,7.71,-0.18,20.76
7096,0.2646,-0.0342,0.8639,-6.17,7.85,-0.12,20.76
7106,0.2607,-0.0353,0.8651,-6.06,7.83,-0.06,20.75
7116,0.2686,-0.0343,0.8682,-6.14,7.88,0.06,20.75
7126,0.2657,-0.0331,0.8695,-6.12,7.73,0.05,20.77
7136,0.2649,-0.0265,0.8761,-6.17,7.76,0.08,20.76
7146,0.27,-0.0311,0.8735,-6.2,7.82,0.06,20.78
7156,0.2712,-0.03,0.8678,-6.29,7.77,-0.02,20.77
7166,0.2678,-0.0347,0.8762,-6.18,7.69,0.02,20.78
7176,0.2703,-0.0299,0.8756,-6.31,7.82,-0.02,20.77
7186,0.2729,-0.033,0.8757,-6.17,7.82,-0.03,20.78
7196,0.2734,-0.035,0.8785,-6.23,7.8,0.0,20.78
7206,0.2728,-0.035,0.8835,-6.23,7.86,0.0,20.79
7216,0.2753,-0.0308,0.8827,-6.27,7.86,-0.02,20.75
7226,0.274,-0.032,0.8767,-6.24,7.82,0.0,20.79
7236,0.2701,-0.0336,0.871,-6.12,7.8,0.03,20.79
7246,0.2672,-0.0303,0.8687,-6.23,7.79,0.05,20.78
7256,0.2736,-0.0323,0.8723,-6.23,7.74,-0.03,20.78
7266,0.267,-0.0334,0.8712,-6.15,7.86,0.0,20.78
7276,0.2736,-0.0345,0.8781,-6.14,7.8,-0.06,20.79
7286,0.2765,-0.0326,0.8845,-6.15,7.8,-0.06,20.79
7296,0.2784,-0.0353,0.8876,-6.12,7.8,-0.06,20.78
7306,0.28,-0.0356,0.8901,-6.03,7.74,-0.05,20.78
7316,0.2831,-0.0374,0.8955,-6.05,7.73,0.0,20.78
7326,0.2793,-0.0361,0.8918,-6.0,7.73,-0.09,20.78
7336,0.2773,-0.0343,0.8912,-6.05,7.74,-0.14,20.78
7346,0.2743,-0.0338,0.8862,-5.92,7.73,-0.11,20.79
7356,0.2717,-0.036,0.8865,-5.98,7.74,-0.11,20.78
7366,0.271,-0.0342,0.8794,-6.05,7.68,-0.11,20.75
7376,0.2714,-0.0381,0.8796,-6.02,7.66,-0.17,20.77
7386,0.27,-0.0389,0.8743,-5.94,7.69,-0.17,20.78
7396,0.2728,-0.0442,0.8682,-6.0,7.68,-0.18,20.8
7406,0.2732,-0.043,0.8669,-5.85,7.69,-0.15,20.79
7416,0.2716,-0.0446,0.8662,-6.03,7.68,-0.09,20.77
7426,0.2679,-0.042,0.8567,-5.79,7.68,-0.09,20.77
7436,0.2672,-0.0392,0.8517,-5.8,7.65,-0.09,20.79
7446,0.2655,-0.0361,0.8497,-5.86,7.68,-0.08,20.79
7456,0.2642,-0.0294,0.8463,-5.95,7.76,-0.05,20.78
7466,0.2622,-0.0291,0.8462,-5.91,7.68,0.0,20.77
7476,0.2603,-0.0237,0.8494,-5.97,7.71,0.05,20.78
7486,0.2612,-0.0225,0.8494,-6.14,7.62,0.06,20.79
7496,0.2621,-0.0214,0.853,-6.17,7.69,-0.02,20.77
7506,0.2609,-0.0261,0.859,-6.18,7.69,0.11,20.78
7516,0.2645,-0.0292,0.8643,-6.24,7.68,0.09,20.79
7526,0.2638,-0.0354,0.8662,-6.27,7.69,0.08,20.8
7536,0.2677,-0.0322,0.8671,-6.41,7.68,0.09,20.79
7546,0.2695,-0.0323,0.8734,-6.23,7.66,0.06,20.79
7556,0.2639,-0.0347,0.8741,-6.34,7.85,0.11,20.81
7566,0.2716,-0.032,0.8798,-6.24,7.86,0.06,20.81
7576,0.2727,-0.0308,0.8844,-6.23,7.74,0.05,20.8
7586,0.2756,-0.032,0.8848,-6.35,7.76,0.12,20.77
7596,0.2754,-0.0328,0.8916,-6.29,7.77,0.06,20.78
7606,0.2747,-0.0323,0.8905,-6.27,7.83,0.0,20.78
7616,0.2749,-0.0295,0.8916,-6.17,7.74,0.03,20.79
7626,0.2784,-0.0332,0.8932,-6.17,7.88,-0.08,20.78
7636,0.2776,-0.0311,0.8954,-6.2,7.77,-0.05,20.78
7646,0.2751,-0.0322,0.8971,-6.11,7.86,-0.06,20.78
7656,0.2759,-0.0299,0.8942,-6.03,7.89,-0.05,20.82
7666,0.2764,-0.0289,0.8907,-6.11,7.85,-0.11,20.8
7676,0.2745,-0.0297,0.8806,-6.03,7.89,-0.11,20.79
7686,0.2742,-0.0306,0.8792,-6.03,7.79,-0.09,20.82
7696,0.2732,-0.0336,0.8762,-6.03,7.74,-0.17,20.78
7706,0.2719,-0.0343,0.8739,-6.05,7.74,-0.11,20.8
7716,0.2704,-0.0336,0.8698,-6.0,7.79,-0.21,20.79
7726,0.2664,-0.0343,0.8673,-6.06,7.79,-0.14,20.78
7736,0.2692,-0.036,0.8668,-6.0,7.77,-0.12,20.78
7746,0.2698,-0.0382,0.8625,-6.06,7.77,-0.15,20.81
7756,0.2705,-0.0392,0.8622,-6.05,7.77,-0.11,20.77
7766,0.2665,-0.0349,0.8602,-6.02,7.82,-0.2,20.78
7776,0.2668,-0.0326,0.8588,-6.12,7.77,-0.12,20.79
7786,0.2686,-0.0337,0.8607,-6.05,7.79,-0.11,20.79
7796,0.2678,-0.0325,0.858,-6.09,7.76,-0.08,20.78
7806,0.2654,-0.0305,0.8584,-6.08,7.77,-0.15,20.8
7816,0.2633,-0.0322,0.8629,-6.14,7.83,-0.05,20.79
7826,0.2693,-0.0317,0.8578,-6.15,7.77,0.05,20.79
7836,0.2692,-0.0328,0.8599,-6.18,7.76,-0.03,20.78
7846,0.2681,-0.031,0.8625,-6.17,7.79,0.05,20.8
7856,0.2697,-0.0343,0.8646,-6.26,7.73,0.02,20.79
7866,0.2714,-0.0364,0.8732,-6.23,7.74,0.0,20.79
7876,0.2711,-0.0321,0.875,-6.26,7.77,-0.06,20.79
7886,0.2708,-0.0367,0.8748,-6.23,7.65,0.03,20.8
7896,0.2716,-0.036,0.8802,-6.24,7.66,0.0,20.78
7906,0.2722,-0.038,0.8801,-6.23,7.71,0.0,20.8
7916,0.2745,-0.0369,0.8782,-6.23,7.65,0.06,20.78
7926,0.2732,-0.0404,0.8802,-6.2,7.76,-0.03,20.77
7936,0.2755,-0.0378,0.8796,-6.26,7.79,0.0,20.79
7946,0.2762,-0.0361,0.8787,-6.2,7.82,-0.02,20.79
7956,0.2712,-0.0363,0.8829,-6.17,7.79,0.02,20.79
7966,0.2719,-0.0367,0.8805,-6.09,7.73,-0.08,20.8
7976,0.2738,-0.0356,0.8785,-6.08,7.73,-0.05,20.79
7986,0.2728,-0.0332,0.8805,-6.0,7.73,0.0,20.79
7996,0.2739,-0.033,0.8812,-6.0,7.71,-0.03,20.79
8006,0.2755,-0.0345,0.8829,-5.97,7.66,-0.05,20.77
8016,0.2751,-0.0333,0.8815,-5.97,7.71,-0.06,20.79
8026,0.2758,-0.0325,0.8853,-5.92,7.79,-0.11,20.78
8036,0.2749,-0.0311,0.8827,-5.91,7.66,-0.08,20.77
8046,0.2734,-0.03,0.88,-5.92,7.79,-0.09,20.78
8056,0.2678,-0.0304,0.8723,-5.88,7.77,-0.15,20.82
8066,0.2678,-0.0306,0.8713,-5.89,7.77,-0.15,20.79
8076,0.2623,-0.037,0.8772,-5.88,7.98,-0.12,20.79
8086,0.2755,-0.0314,0.863,-5.97,7.79,-0.17,20.79
8096,0.2732,-0.0284,0.8673,-6.0,7.69,-0.17,20.81
8106,0.2622,-0.0338,0.8726,-6.02,7.86,-0.17,20.8
8116,0.2485,-0.0265,0.8783,-5.97,8.35,-0.21,20.81
8126,0.276,-0.0269,0.8719,-5.97,7.85,-0.08,20.81
8136,0.2697,-0.0292,0.8557,-6.06,7.57,-0.12,20.82
8146,0.2656,-0.0328,0.8669,-6.08,7.65,-0.08,20.8
8156,0.2701,-0.03,0.8635,-6.09,7.57,-0.02,20.81
8166,0.2629,-0.0392,0.8724,-6.02,7.77,-0.09,20.82
8176,0.2657,-0.0319,0.8657,-6.12,7.83,-0.05,20.81
8186,0.2657,-0.0292,0.8661,-6.12,7.71,-0.05,20.8
8196,0.2631,-0.0312,0.8663,-6.2,7.76,-0.09,20.8
8206,0.2625,-0.0304,0.8688,-6.27,7.76,-0.08,20.8
8216,0.2693,-0.0348,0.8695,-6.29,7.77,-0.05,20.79
8226,0.2747,-0.0352,0.8762,-6.29,7.69,-0.02,20.79
8236,0.2703,-0.0332,0.8792,-6.32,7.79,-0.03,20.81
8246,0.2729,-0.0344,0.8763,-6.27,7.73,0.0,20.79
8256,0.271,-0.0353,0.8745,-6.27,7.83,0.05,20.77
8266,0.266,-0.035,0.8728,-6.23,7.77,-0.05,20.79
8276,0.2682,-0.0333,0.8706,-6.27,7.8,-0.03,20.81
8286,0.2665,-0.0309,0.8676,-6.26,7.79,-0.03,20.81
8296,0.2651,-0.0309,0.8744,-6.26,7.74,0.09,20.81
8306,0.2688,-0.0321,0.8779,-6.23,7.68,0.02,20.81
8316,0.2729,-0.0321,0.8833,-6.23,7.69,-0.09,20.83
8326,0.2747,-0.0343,0.8833,-6.29,7.68,-0.05,20.79
8336,0.275,-0.0336,0.8818,-6.32,7.73,-0.08,20.82
8346,0.2754,-0.0347,0.8811,-6.23,7.76,-0.03,20.79
8356,0.2743,-0.0365,0.8783,-6.14,7.74,-0.11,20.8
8366,0.2736,-0.0376,0.8794,-6.14,7.83,-0.06,20.79
8376,0.2761,-0.0381,0.8772,-6.06,7.74,0.0,20.79
8386,0.2758,-0.0387,0.873,-6.0,7.8,-0.18,20.79
8396,0.2756,-0.0376,0.8708,-5.97,7.8,-0.09,20.82
8406,0.2731,-0.0394,0.8715,-5.97,7.85,-0.11,20.81
8416,0.2704,-0.0378,0.8694,-6.02,7.83,-0.03,20.81
8426,0.2697,-0.036,0.8694,-6.0,7.86,-0.05,20.82
8436,0.2689,-0.0337,0.8706,-6.0,7.85,-0.17,20.82
8446,0.2686,-0.0332,0.8706,-6.0,7.73,-0.08,20.8
8456,0.2686,-0.0321,0.8715,-5.97,7.77,-0.09,20.82
8466,0.2679,-0.0322,0.8744,-6.02,7.82,-0.03,20.81
8476,0.2667,-0.0282,0.8726,-6.03,7.76,-0.05,20.84
8486,0.2676,-0.0319,0.8748,-6.11,7.71,0.0,20.82
8496,0.2678,-0.0314,0.8754,-6.08,7.74,-0.03,20.81
8506,0.2683,-0.0352,0.8704,-6.06,7.73,-0.08,20.82
8516,0.2694,-0.0365,0.8732,-6.09,7.68,-0.06,20.8
8526,0.2666,-0.0371,0.8781,-6.06,7.95,-0.03,20.83
8536,0.2681,-0.035,0.8719,-6.12,7.79,0.03,20.83
8546,0.2703,-0.0325,0.8649,-6.14,7.62,0.0,20.82
8556,0.264,-0.0297,0.8712,-6.18,7.76,0.0,20.8
8566,0.2657,-0.0326,0.8673,-6.12,7.79,0.09,20.81
8576,0.2694,-0.0309,0.865,-6.15,7.73,-0.05,20.81
8586,0.2728,-0.0308,0.8729,-6.18,7.65,-0.09,20.81
8596,0.2743,-0.0334,0.8687,-6.17,7.66,0.0,20.8
8606,0.2732,-0.0323,0.8763,-6.17,7.76,-0.03,20.8
8616,0.2751,-0.0338,0.8766,-6.26,7.73,-0.03,20.81
8626,0.276,-0.0397,0.8752,-6.17,7.76,-0.06,20.81
8636,0.275,-0.0437,0.8755,-6.11,7.77,-0.03,20.8
8646,0.2555,-0.0243,0.8409,-6.37,6.95,-0.15,20.81
8656,0.2704,-0.0267,0.8805,-6.02,8.03,0.03,20.81
8666,0.2618,-0.0409,0.8602,-6.12,7.53,0.11,20.81
8676,0.2689,-0.0303,0.8892,-6.05,7.63,0.0,20.83
8686,0.2683,-0.0183,0.8754,-6.02,7.76,-0.03,20.81
8696,0.2646,-0.0186,0.8751,-5.98,7.54,-0.09,20.8
8706,0.264,-0.0264,0.8767,-6.17,7.85,-0.05,20.82
8716,0.262,-0.0444,0.861,-6.05,7.68,-0.08,20.8
8726,0.2767,-0.0334,0.8828,-6.18,7.6,-0.12,20.8
8736,0.2773,-0.0229,0.876,-6.26,7.83,0.0,20.82
8746,0.2715,-0.0396,0.876,-6.21,7.63,0.0,20.83
8756,0.2793,-0.0293,0.8873,-6.2,7.76,-0.02,20.82
8766,0.2697,-0.0243,0.8812,-6.15,7.91,0.02,20.83
8776,0.2722,-0.0349,0.8827,-6.24,7.63,-0.12,20.82
8786,0.2672,-0.0405,0.8773,-6.15,7.94,-0.09,20.82
8796,0.2671,-0.0402,0.8745,-6.15,7.76,-0.14,20.84
8806,0.2734,-0.0345,0.8756,-6.12,7.77,-0.11,20.82
8816,0.2683,-0.0396,0.8656,-6.15,7.74,-0.06,20.8
8826,0.2699,-0.041,0.869,-6.14,7.68,-0.02,20.81
8836,0.27,-0.0303,0.8711,-6.14,7.77,-0.05,20.8
8846,0.2721,-0.031,0.8691,-6.17,7.71,0.0,20.83
8856,0.2733,-0.0334,0.8759,-6.17,7.74,-0.02,20.83
8866,0.2736,-0.032,0.8735,-6.18,7.86,-0.06,20.81
8876,0.2769,-0.031,0.8774,-6.23,7.73,-0.05,20.79
8886,0.2744,-0.0311,0.8745,-6.14,7.76,-0.03,20.81
8896,0.2706,-0.0333,0.8718,-6.23,7.74,-0.12,20.8
8906,0.2681,-0.0363,0.8727,-6.11,7.74,0.03,20.86
8916,0.2665,-0.0339,0.8661,-6.12,7.8,-0.11,20.84
8926,0.2657,-0.0406,0.8645,-6.17,7.65,-0.05,20.84
8936,0.2645,-0.0355,0.8634,-6.17,7.77,-0.05,20.84
8946,0.2687,-0.0317,0.8616,-6.09,7.71,-0.05,20.81
8956,0.2708,-0.0328,0.8677,-6.14,7.62,-0.03,20.84
8966,0.2679,-0.0338,0.8721,-6.14,7.73,-0.08,20.83
8976,0.2705,-0.0342,0.8701,-6.08,7.69,-0.03,20.83
8986,0.2743,-0.0334,0.8798,-6.17,7.71,-0.09,20.83
8996,0.2755,-0.032,0.8752,-6.14,7.73,0.0,20.83
9006,0.276,-0.0352,0.876,-6.17,7.71,-0.11,20.82
9016,0.2727,-0.0311,0.8838,-6.12,7.8,-0.05,20.83
9026,0.2711,-0.0321,0.8792,-6.17,7.77,0.02,20.82
9036,0.2717,-0.0385,0.8805,-6.2,7.74,-0.08,20.83
9046,0.2697,-0.0338,0.8777,-6.11,7.79,-0.03,20.84
9056,0.2698,-0.0325,0.8732,-6.06,7.76,-0.02,20.84
9066,0.2692,-0.0344,0.8711,-6.08,7.77,-0.09,20.82
9076,0.2671,-0.0339,0.8726,-6.09,7.77,-0.08,20.83
9086,0.2661,-0.036,0.8719,-6.03,7.79,-0.03,20.85
9096,0.2678,-0.0355,0.8715,-6.11,7.77,-0.09,20.81
9106,0.2712,-0.0331,0.874,-6.14,7.71,-0.05,20.84
9116,0.2693,-0.0345,0.8715,-6.06,7.71,-0.03,20.87
9126,0.2705,-0.032,0.8682,-6.09,7.74,-0.06,20.84
9136,0.2706,-0.0314,0.8694,-6.06,7.71,-0.05,20.83
9146,0.2715,-0.0344,0.8696,-6.14,7.73,-0.09,20.85
9156,0.2755,-0.0317,0.8702,-6.17,7.69,-0.06,20.83
9166,0.2744,-0.0363,0.8745,-6.11,7.68,-0.09,20.81
9176,0.2743,-0.0381,0.8745,-6.14,7.8,0.02,20.84
9186,0.2764,-0.0382,0.8778,-6.06,7.85,0.03,20.84
9196,0.2745,-0.035,0.8789,-6.06,7.83,-0.05,20.85
9206,0.2689,-0.0354,0.8748,-6.03,7.88,-0.08,20.85
9216,0.2675,-0.035,0.8716,-5.98,7.86,0.0,20.85
9226,0.2638,-0.0342,0.8688,-6.05,7.94,-0.06,20.84
9236,0.2637,-0.0333,0.8678,-6.0,7.85,-0.08,20.85
9246,0.2626,-0.0273,0.8641,-5.98,7.73,0.0,20.84
9256,0.262,-0.0326,0.8595,-6.08,7.73,-0.03,20.83
9266,0.266,-0.0292,0.8673,-6.15,7.73,-0.08,20.84
9276,0.269,-0.0295,0.8715,-6.12,7.77,0.0,20.82
9286,0.2744,-0.0333,0.8771,-6.18,7.73,0.02,20.83
9296,0.2758,-0.0321,0.8851,-6.2,7.71,-0.05,20.84
9306,0.2761,-0.0293,0.8824,-6.17,7.74,-0.06,20.84
9316,0.27,-0.0353,0.8774,-6.15,7.77,-0.05,20.85
9326,0.2694,-0.0347,0.8734,-6.12,7.79,-0.05,20.84
9336,0.2714,-0.0366,0.8722,-6.12,7.73,-0.06,20.84
9346,0.2699,-0.0382,0.8711,-6.08,7.74,0.0,20.84
9356,0.2697,-0.0424,0.8651,-6.08,7.69,-0.05,20.84
9366,0.2692,-0.0382,0.8671,-6.06,7.79,-0.03,20.84
9376,0.2701,-0.0356,0.8685,-6.11,7.69,0.03,20.84
9386,0.2733,-0.0347,0.877,-6.03,7.82,-0.06,20.84
9396,0.2765,-0.0336,0.8831,-6.17,7.69,-0.11,20.84
9406,0.2736,-0.0327,0.8829,-6.14,7.69,-0.15,20.84
9416,0.272,-0.0332,0.8722,-6.17,7.76,-0.02,20.84
9426,0.2697,-0.0376,0.8696,-6.06,7.79,-0.02,20.84
9436,0.2706,-0.0341,0.863,-6.02,7.71,-0.05,20.83
9446,0.2703,-0.0316,0.8661,-5.95,7.66,-0.06,20.85
9456,0.2712,-0.0344,0.8732,-6.17,7.69,-0.08,20.85
9466,0.2744,-0.0328,0.8744,-6.09,7.77,-0.05,20.82
9476,0.271,-0.0321,0.8795,-6.12,7.76,-0.05,20.83
9486,0.2683,-0.0319,0.8774,-6.15,7.76,0.0,20.82
9496,0.2682,-0.0327,0.8757,-6.14,7.74,-0.06,20.82
9506,0.2679,-0.0334,0.8699,-6.14,7.85,-0.09,20.85
9516,0.269,-0.0334,0.8719,-6.12,7.71,-0.09,20.82
9526,0.271,-0.0349,0.8716,-6.15,7.68,-0.09,20.81
9536,0.271,-0.0297,0.8701,-6.2,7.69,0.08,20.84
9546,0.2728,-0.0333,0.8708,-6.26,7.73,0.0,20.83
9556,0.2733,-0.0325,0.8749,-6.18,7.79,0.0,20.83
9566,0.2725,-0.0277,0.8762,-6.06,7.83,-0.08,20.85
9576,0.2709,-0.0345,0.8759,-6.15,7.77,-0.03,20.82
9586,0.2688,-0.0369,0.8767,-6.11,7.74,-0.09,20.83
9596,0.2705,-0.0348,0.8763,-6.08,7.71,-0.09,20.84
9606,0.2667,-0.04,0.8698,-6.02,7.76,-0.02,20.84
9616,0.2667,-0.0359,0.8699,-6.06,7.79,-0.03,20.83
9626,0.2673,-0.0337,0.8702,-6.03,7.76,-0.05,20.85
9636,0.2679,-0.0311,0.8702,-6.12,7.71,-0.11,20.84
9646,0.271,-0.0299,0.8704,-6.17,7.77,-0.05,20.84
9656,0.2698,-0.0293,0.8767,-6.11,7.8,-0.06,20.85
9666,0.2693,-0.0254,0.8793,-6.11,7.76,-0.09,20.84
9676,0.2742,-0.033,0.873,-6.17,7.8,-0.06,20.85
9686,0.2715,-0.0352,0.8759,-6.03,7.8,-0.06,20.85
9696,0.2725,-0.0372,0.8695,-6.03,7.74,-0.08,20.86
9706,0.2686,-0.0367,0.8699,-6.11,7.76,-0.02,20.87
9716,0.2687,-0.0305,0.8712,-6.0,7.82,0.0,20.85
9726,0.2692,-0.0322,0.8688,-6.14,7.79,-0.08,20.87
9736,0.2703,-0.0308,0.8696,-6.08,7.85,-0.12,20.87
9746,0.2728,-0.0331,0.8783,-6.21,7.76,-0.09,20.86
9756,0.2698,-0.0336,0.8788,-6.14,7.85,-0.05,20.86
9766,0.2734,-0.0367,0.8766,-6.17,7.63,-0.02,20.86
9776,0.2651,-0.0364,0.8739,-6.2,7.77,-0.03,20.86
9786,0.2677,-0.0354,0.8666,-6.09,7.69,-0.08,20.87
9796,0.2693,-0.0381,0.8683,-6.12,7.73,-0.11,20.87
9806,0.2699,-0.0333,0.8671,-6.18,7.68,-0.03,20.84
9816,0.2706,-0.0348,0.8744,-6.18,7.79,-0.03,20.87
9826,0.2723,-0.031,0.8834,-6.18,7.69,0.02,20.87
9836,0.2744,-0.0333,0.8887,-6.12,7.77,-0.02,20.85
9846,0.2712,-0.0336,0.8812,-6.21,7.77,0.0,20.88
9856,0.2711,-0.0375,0.8728,-6.17,7.71,-0.03,20.89
9866,0.2699,-0.04,0.8668,-6.14,7.73,-0.06,20.83
9876,0.2688,-0.0374,0.8588,-6.06,7.76,0.0,20.84
9886,0.2698,-0.0319,0.8663,-6.08,7.69,-0.05,20.87
9896,0.272,-0.0342,0.8729,-6.12,7.76,-0.08,20.87
9906,0.2734,-0.0355,0.8806,-6.11,7.8,-0.11,20.85
9916,0.2751,-0.0344,0.8806,-6.14,7.77,0.02,20.89
9926,0.2706,-0.0315,0.8793,-6.03,7.79,-0.03,20.85
9936,0.2668,-0.0333,0.87,-6.02,7.76,-0.11,20.84
9946,0.2664,-0.0345,0.8608,-6.12,7.74,-0.03,20.87
9956,0.2666,-0.0304,0.8623,-6.06,7.79,-0.11,20.84
9966,0.2692,-0.0302,0.8665,-6.03,7.73,-0.06,20.87
9976,0.2716,-0.0282,0.8712,-6.17,7.74,-0.03,20.86
9986,0.2762,-0.0312,0.8733,-6.09,7.76,-0.02,20.86
9996,0.2764,-0.0311,0.879,-6.17,7.77,-0.08,20.86
10006,0.2777,-0.0355,0.8768,-6.15,7.82,-0.11,20.85
10016,0.2751,-0.0378,0.8759,-6.2,7.71,-0.05,20.86
10026,0.2708,-0.0365,0.8744,-6.17,7.79,-0.06,20.87
10036,0.2689,-0.0365,0.8772,-6.08,7.76,-0.06,20.89
10046,0.2655,-0.0355,0.8708,-6.06,7.74,-0.08,20.87
10056,0.2656,-0.0323,0.8711,-6.12,7.66,0.0,20.87
10066,0.266,-0.0317,0.8689,-6.09,7.73,-0.03,20.86
10076,0.2672,-0.0343,0.8689,-6.02,7.69,-0.06,20.86
10086,0.2749,-0.0281,0.8722,-6.06,7.71,-0.05,20.87
10096,0.2719,-0.0294,0.8773,-6.08,7.76,-0.03,20.9
10106,0.2715,-0.0315,0.8794,-6.23,7.76,-0.05,20.86
10116,0.2731,-0.0326,0.8795,-6.09,7.73,-0.03,20.89
10126,0.271,-0.0343,0.8796,-6.14,7.76,-0.06,20.89
10136,0.2697,-0.0355,0.8779,-6.15,7.82,-0.03,20.87
10146,0.2703,-0.0317,0.8707,-6.14,7.77,0.02,20.87
10156,0.2675,-0.0315,0.8678,-6.14,7.8,-0.09,20.86
10166,0.2643,-0.0312,0.8679,-6.21,7.76,-0.02,20.87
10176,0.2671,-0.0321,0.8645,-6.24,7.73,-0.03,20.87
10186,0.2712,-0.0333,0.8667,-6.17,7.63,-0.06,20.86
10196,0.274,-0.0331,0.8679,-6.21,7.68,0.02,20.87
10206,0.2756,-0.0349,0.8743,-6.15,7.68,-0.05,20.87
10216,0.2756,-0.0375,0.8815,-6.09,7.77,-0.11,20.85
10226,0.2729,-0.0363,0.8771,-6.06,7.76,-0.06,20.86
10236,0.272,-0.0354,0.8789,-6.09,7.77,-0.05,20.86
10246,0.2698,-0.0363,0.8699,-5.97,7.71,0.0,20.86
10256,0.2734,-0.0347,0.8657,-6.17,7.77,-0.06,20.88
10266,0.2682,-0.0291,0.8654,-6.14,7.69,-0.09,20.86
10276,0.2698,-0.0315,0.8671,-6.18,7.76,-0.08,20.86
10286,0.2698,-0.0332,0.8694,-6.14,7.76,-0.06,20.83
10296,0.2731,-0.0326,0.8722,-6.17,7.76,-0.11,20.87
10306,0.2745,-0.0337,0.8766,-6.15,7.83,0.0,20.85
10316,0.2686,-0.0367,0.8771,-6.15,7.85,0.0,20.84
10326,0.2693,-0.0352,0.8774,-6.0,7.85,-0.06,20.88
10336,0.2671,-0.0366,0.8743,-6.11,7.77,-0.02,20.88
10346,0.2666,-0.0354,0.8718,-6.12,7.77,-0.06,20.87
10356,0.2692,-0.0314,0.8699,-6.05,7.74,-0.06,20.88
10366,0.2709,-0.032,0.8711,-6.11,7.77,-0.06,20.89
10376,0.2692,-0.0327,0.8734,-6.12,7.66,-0.05,20.87
10386,0.2716,-0.0321,0.8757,-6.09,7.71,0.03,20.87
10396,0.2748,-0.0327,0.8748,-6.18,7.79,-0.02,20.89
10406,0.272,-0.0378,0.8728,-6.12,7.74,-0.03,20.87
10416,0.2725,-0.0337,0.8768,-6.14,7.74,0.02,20.89
10426,0.2706,-0.0315,0.8763,-6.15,7.82,-0.09,20.86
10436,0.2717,-0.0337,0.8718,-6.15,7.77,0.02,20.87
10446,0.2705,-0.0334,0.8738,-6.15,7.8,-0.02,20.89
10456,0.2692,-0.0328,0.873,-6.09,7.8,-0.11,20.87
10466,0.2679,-0.0347,0.866,-6.14,7.8,0.0,20.86
10476,0.2699,-0.036,0.8683,-6.06,7.77,-0.08,20.86
10486,0.2703,-0.0343,0.8678,-6.06,7.71,-0.09,20.88
10496,0.2727,-0.0336,0.8691,-6.11,7.71,-0.09,20.89
10506,0.2748,-0.0295,0.8707,-6.12,7.73,-0.05,20.89
10516,0.2714,-0.0374,0.8795,-6.12,7.77,-0.14,20.87
10526,0.2734,-0.0352,0.8806,-6.09,7.82,-0.03,20.84
10536,0.2704,-0.0334,0.8781,-6.14,7.79,-0.02,20.86
10546,0.2712,-0.0323,0.8706,-6.15,7.71,-0.05,20.87
10556,0.2692,-0.0333,0.8655,-6.14,7.74,-0.09,20.89
10566,0.2699,-0.0326,0.8634,-6.09,7.71,-0.05,20.87
10576,0.272,-0.0306,0.8643,-6.12,7.76,-0.03,20.86
10586,0.2711,-0.0321,0.8726,-6.08,7.71,-0.08,20.85
10596,0.2736,-0.0298,0.88,-6.09,7.74,-0.08,20.88
10606,0.2727,-0.0338,0.8829,-6.15,7.77,-0.02,20.86
10616,0.272,-0.0354,0.879,-6.14,7.79,-0.02,20.89
10626,0.2688,-0.0366,0.871,-6.15,7.79,-0.06,20.88
10636,0.2682,-0.0344,0.868,-6.12,7.73,-0.09,20.87
10646,0.2704,-0.0339,0.87,-6.12,7.74,-0.11,20.88
10656,0.2679,-0.0341,0.8735,-6.08,7.73,0.0,20.85
10666,0.2716,-0.0311,0.8774,-6.09,7.77,-0.12,20.87
10676,0.2715,-0.0323,0.8818,-6.15,7.79,-0.02,20.86
10686,0.271,-0.0314,0.877,-6.23,7.76,-0.03,20.87
10696,0.2689,-0.0332,0.8707,-6.14,7.68,-0.11,20.87
10706,0.2708,-0.0334,0.8667,-6.15,7.66,-0.09,20.85
10716,0.271,-0.0326,0.8646,-6.24,7.71,0.0,20.86
10726,0.2755,-0.0333,0.8721,-6.14,7.74,-0.03,20.89
10736,0.2784,-0.035,0.8778,-6.14,7.8,0.0,20.89
10746,0.2772,-0.0352,0.8872,-6.24,7.69,0.0,20.89
10756,0.2737,-0.0344,0.8796,-6.17,7.82,-0.12,20.88
10766,0.2709,-0.0304,0.869,-6.15,7.8,-0.11,20.88
10776,0.2657,-0.0321,0.865,-6.12,7.79,-0.09,20.9
10786,0.2645,-0.0327,0.8612,-6.06,7.74,-0.08,20.86
10796,0.2679,-0.0339,0.8674,-6.11,7.73,0.02,20.89
10806,0.2725,-0.0372,0.8755,-6.03,7.69,-0.12,20.87
10816,0.2716,-0.0344,0.8759,-6.11,7.76,-0.06,20.87
10826,0.2717,-0.0322,0.8807,-6.17,7.77,0.02,20.9
10836,0.271,-0.0308,0.8796,-6.21,7.79,-0.05,20.88
10846,0.2676,-0.032,0.8704,-6.23,7.74,-0.06,20.89
10856,0.2666,-0.033,0.8671,-6.21,7.8,-0.09,20.87
10866,0.2727,-0.0334,0.8669,-6.24,7.65,-0.02,20.88
10876,0.2722,-0.0392,0.8722,-6.08,7.8,-0.03,20.88
10886,0.2714,-0.0406,0.8765,-6.09,7.89,-0.06,20.88
10896,0.2758,-0.0415,0.8755,-6.21,7.77,0.0,20.89
10906,0.2745,-0.0376,0.871,-6.12,7.59,-0.03,20.89
10916,0.2592,-0.0352,0.88,-6.14,7.86,-0.12,20.89
10926,0.2661,-0.0316,0.8618,-6.11,7.74,-0.08,20.88
10936,0.2653,-0.0314,0.8644,-6.12,7.74,-0.05,20.89
10946,0.2671,-0.0328,0.868,-6.12,7.69,-0.08,20.88
10956,0.2734,-0.0322,0.8752,-6.17,7.76,-0.06,20.88
10966,0.2729,-0.0365,0.8783,-6.12,7.76,0.09,20.89
10976,0.2772,-0.0361,0.8835,-6.09,7.77,0.02,20.88
10986,0.2725,-0.036,0.8766,-6.2,7.79,-0.06,20.87
10996,0.2739,-0.0308,0.8712,-6.09,7.73,0.0,20.86
11006,0.2686,-0.033,0.8628,-6.11,7.79,-0.02,20.9
11016,0.2697,-0.0331,0.8702,-6.11,7.74,-0.03,20.88
11027,0.2704,-0.0326,0.8728,-6.12,7.73,-0.09,20.91
11037,0.2716,-0.0334,0.8749,-6.0,7.66,-0.03,20.88
11047,0.2803,-0.0422,0.8773,-6.14,7.66,-0.09,20.89
11057,0.347,-0.033,0.8207,-6.14,6.55,0.0,20.89
11067,0.2811,-0.0367,0.8765,-6.12,7.39,-0.05,20.89
11077,0.2729,-0.0389,0.87,-6.12,7.6,-0.05,20.9
11087,0.2827,-0.0321,0.8688,-6.11,7.79,-0.06,20.89
11097,0.2706,-0.0273,0.88,-6.09,7.88,-0.06,20.89
11107,0.2787,-0.0255,0.8713,-6.03,7.65,-0.05,20.88
11117,0.2714,-0.03,0.8729,-6.12,7.69,-0.05,20.89
11127,0.265,-0.0308,0.8799,-6.06,7.82,-0.03,20.89
11137,0.2645,-0.0348,0.8689,-6.17,7.91,-0.02,20.89
11147,0.2714,-0.0343,0.8638,-6.12,7.68,-0.02,20.9
11157,0.2748,-0.0319,0.8658,-6.12,7.65,0.0,20.9
11167,0.2698,-0.0328,0.8724,-6.09,7.79,-0.02,20.89
11177,0.2714,-0.0294,0.8728,-6.06,7.69,-0.05,20.89
11187,0.2765,-0.0334,0.8776,-6.08,7.8,-0.06,20.9
11197,0.2721,-0.0311,0.8779,-6.05,7.77,-0.12,20.9
11207,0.2671,-0.0333,0.8741,-6.15,7.85,-0.05,20.9
11217,0.2638,-0.0377,0.8735,-6.06,7.88,-0.02,20.91
11227,0.2662,-0.0347,0.8666,-6.17,7.73,-0.09,20.91
11237,0.2677,-0.0345,0.8683,-6.11,7.79,-0.03,20.9
11247,0.2721,-0.0321,0.8707,-6.17,7.71,-0.05,20.89
11257,0.272,-0.0322,0.8666,-6.14,7.74,0.03,20.91
11267,0.275,-0.0319,0.8766,-6.18,7.79,-0.06,20.85
11277,0.2756,-0.0344,0.8782,-6.08,7.83,-0.05,20.89
11287,0.2733,-0.0338,0.874,-6.15,7.76,-0.09,20.87
11297,0.2694,-0.0341,0.8772,-6.18,7.82,-0.08,20.9
11307,0.2744,-0.036,0.8733,-6.2,7.65,-0.02,20.9
11317,0.27,-0.0361,0.8743,-6.02,7.88,-0.05,20.91
11327,0.269,-0.0338,0.8745,-6.03,7.74,-0.08,20.88
11337,0.2671,-0.0344,0.8722,-6.06,7.86,-0.11,20.87
11347,0.2693,-0.0345,0.8694,-6.12,7.85,-0.03,20.88
11358,0.2645,-0.0312,0.8706,-6.09,7.85,-0.09,20.9
11368,0.2714,-0.0325,0.8701,-6.03,7.71,-0.08,20.9
11378,0.2703,-0.033,0.8733,-6.12,7.79,-0.05,20.89
11388,0.2694,-0.0345,0.8777,-6.14,7.73,-0.02,20.91
11398,0.2715,-0.0319,0.8771,-6.09,7.77,-0.08,20.9
11408,0.275,-0.0334,0.8754,-6.14,7.76,-0.09,20.9
11418,0.271,-0.035,0.8715,-6.06,7.86,-0.12,20.91
11428,0.2719,-0.0347,0.8749,-6.11,7.77,-0.03,20.9
11438,0.2712,-0.0337,0.8743,-6.03,7.74,-0.09,20.91
11448,0.2695,-0.0321,0.8685,-6.03,7.77,-0.09,20.91
11458,0.2664,-0.0339,0.8685,-6.11,7.69,-0.06,20.89
11468,0.2705,-0.0347,0.8759,-6.11,7.8,-0.06,20.9
11478,0.2701,-0.0284,0.8773,-6.11,7.76,-0.05,20.92
11488,0.2682,-0.0314,0.8767,-6.11,7.79,-0.03,20.9
11498,0.2701,-0.0332,0.8726,-6.11,7.73,0.0,20.9
11508,0.2692,-0.0353,0.873,-6.21,7.82,-0.03,20.89
11518,0.2721,-0.0339,0.8685,-6.21,7.79,-0.06,20.9
11528,0.2681,-0.0374,0.8679,-6.14,7.69,-0.08,20.91
11538,0.2687,-0.0392,0.8668,-6.23,7.76,0.11,20.92
11548,0.2706,-0.0366,0.8663,-6.09,7.71,-0.06,20.88
11558,0.2706,-0.0332,0.874,-6.14,7.76,-0.03,20.86
11568,0.2722,-0.0365,0.8757,-6.14,7.69,-0.06,20.9
11578,0.2709,-0.0327,0.8771,-6.15,7.71,-0.03,20.92
11588,0.2684,-0.0366,0.8777,-6.17,7.74,-0.05,20.9
11598,0.267,-0.0334,0.8733,-6.09,7.71,-0.09,20.93
11608,0.2667,-0.0367,0.8677,-6.12,7.79,-0.06,20.89
11618,0.269,-0.0356,0.8717,-6.15,7.76,-0.08,20.9
11628,0.2721,-0.0364,0.8645,-6.17,7.59,0.03,20.92
11638,0.2716,-0.0341,0.8673,-6.06,7.68,-0.05,20.92
11648,0.2705,-0.0327,0.8719,-6.14,7.82,0.03,20.92
11658,0.2739,-0.0322,0.873,-6.11,7.68,0.05,20.92
11668,0.2723,-0.0333,0.8798,-6.06,7.73,-0.05,20.91
11678,0.2725,-0.0366,0.8776,-6.08,7.8,-0.03,20.89
11688,0.2726,-0.0326,0.8796,-6.09,7.71,-0.06,20.92
11698,0.2717,-0.0314,0.8817,-6.09,7.79,-0.02,20.89
11708,0.272,-0.0355,0.8782,-6.15,7.76,0.02,20.89
11718,0.2705,-0.037,0.8789,-6.02,7.76,-0.12,20.93
11728,0.2709,-0.0345,0.8757,-6.08,7.71,-0.09,20.93
11738,0.2745,-0.037,0.8683,-6.14,7.77,-0.05,20.91
11748,0.2703,-0.0355,0.8726,-6.11,7.76,0.02,20.93
11758,0.2726,-0.0338,0.8719,-6.11,7.74,-0.03,20.92
11768,0.2709,-0.0386,0.876,-6.12,7.79,-0.09,20.9
11778,0.2719,-0.0356,0.8735,-6.08,7.79,-0.09,20.9
11788,0.2719,-0.0344,0.8723,-6.08,7.74,0.03,20.92
11798,0.266,-0.0311,0.8684,-6.02,7.74,-0.08,20.9
11808,0.2668,-0.0336,0.8716,-6.09,7.77,-0.09,20.9
11818,0.269,-0.0317,0.8607,-6.09,7.69,-0.09,20.89
11828,0.2708,-0.0327,0.8612,-6.05,7.65,-0.05,20.9
11838,0.2719,-0.0305,0.8651,-6.14,7.6,0.0,20.91
11848,0.2722,-0.032,0.8723,-6.15,7.73,0.0,20.9
11858,0.2705,-0.0305,0.873,-6.06,7.86,-0.05,20.91
11868,0.2699,-0.0303,0.8748,-6.14,7.8,-0.12,20.9
11878,0.2672,-0.0338,0.8719,-6.21,7.85,-0.02,20.9
11888,0.2661,-0.0341,0.8728,-6.2,7.85,-0.03,20.93
11898,0.2681,-0.0322,0.8726,-6.11,7.77,-0.09,20.9
11908,0.2653,-0.0331,0.8722,-6.17,7.79,-0.12,20.91
11918,0.2692,-0.0343,0.8728,-6.12,7.68,-0.12,20.9
11928,0.27,-0.0409,0.8798,-6.11,7.71,-0.14,20.89
11938,0.2712,-0.0399,0.8801,-6.15,7.77,-0.08,20.9
11948,0.2731,-0.0399,0.882,-6.05,7.74,-0.15,20.91
11958,0.2733,-0.0391,0.8813,-6.06,7.73,-0.12,20.9
11968,0.2734,-0.0348,0.8824,-5.94,7.76,-0.03,20.9
11978,0.2732,-0.0322,0.8816,-5.98,7.82,-0.12,20.9
11988,0.2712,-0.0332,0.8812,-6.03,7.82,-0.03,20.92
11998,0.2714,-0.0331,0.8798,-6.08,7.76,-0.08,20.92
12008,0.2693,-0.0277,0.8757,-6.03,7.71,-0.05,20.9
12018,0.2721,-0.0282,0.8721,-6.08,7.79,-0.05,20.89
12028,0.2725,-0.0283,0.8717,-6.11,7.76,-0.14,20.89
12038,0.2719,-0.0306,0.8663,-6.06,7.68,-0.09,20.91
12048,0.2719,-0.0291,0.8682,-6.08,7.65,0.0,20.91
12058,0.2728,-0.0302,0.8726,-6.15,7.63,-0.09,20.93
12068,0.2704,-0.0336,0.8713,-6.14,7.73,-0.11,20.95
12078,0.2715,-0.0352,0.8721,-6.14,7.71,-0.05,20.93
12088,0.2703,-0.0358,0.8741,-6.11,7.74,-0.08,20.92
12098,0.2677,-0.0367,0.8683,-6.08,7.76,-0.05,20.93
12108,0.2675,-0.0369,0.8695,-6.18,7.79,-0.06,20.92
12118,0.2677,-0.0348,0.8646,-6.2,7.8,-0.06,20.9
12128,0.2675,-0.0347,0.8682,-6.17,7.71,-0.05,20.93
12138,0.2708,-0.0342,0.8646,-6.12,7.77,-0.06,20.92
12148,0.2704,-0.0315,0.8674,-6.11,7.76,-0.09,20.91
12158,0.2726,-0.0312,0.8671,-6.11,7.73,0.0,20.92
12168,0.2722,-0.0343,0.869,-6.14,7.76,-0.06,20.9
12178,0.2714,-0.032,0.8734,-6.11,7.74,-0.03,20.92
12188,0.2711,-0.0327,0.875,-6.2,7.74,-0.05,20.89
12198,0.2697,-0.0344,0.8734,-6.12,7.82,0.02,20.91
12208,0.2712,-0.0345,0.8739,-6.11,7.8,0.02,20.93
12218,0.2692,-0.0383,0.8768,-6.11,7.8,0.0,20.92
12228,0.2714,-0.0354,0.8777,-6.18,7.74,-0.05,20.93
12238,0.2717,-0.0341,0.8804,-6.03,7.74,0.08,20.93
12248,0.2719,-0.0333,0.8793,-6.08,7.69,0.06,20.94
12258,0.27,-0.0289,0.881,-6.08,7.69,-0.05,20.93
12268,0.2723,-0.031,0.8788,-6.09,7.77,-0.08,20.92
12278,0.2726,-0.0333,0.8761,-6.02,7.74,-0.11,20.92
12288,0.2762,-0.0354,0.8738,-6.14,7.73,-0.09,20.92
12298,0.2723,-0.035,0.8774,-6.21,7.76,-0.09,20.91
12309,0.2751,-0.0353,0.8768,-6.14,7.8,-0.02,20.93
12319,0.2728,-0.031,0.8751,-6.2,7.73,-0.12,20.91
12330,0.2644,-0.0315,0.8805,-6.21,7.82,-0.06,20.92
12340,0.2709,-0.0345,0.874,-6.12,7.74,-0.12,20.93
12350,0.2643,-0.0371,0.8743,-6.05,7.94,-0.03,20.93
12360,0.269,-0.0372,0.8701,-6.05,7.76,-0.09,20.91
12370,0.2693,-0.0366,0.8694,-6.0,7.79,-0.09,20.93
12380,0.2661,-0.0358,0.8673,-6.08,7.83,-0.03,20.91
12390,0.2704,-0.0343,0.8654,-6.08,7.74,-0.12,20.93
12400,0.2697,-0.0311,0.8701,-6.12,7.8,-0.06,20.94
12410,0.2684,-0.0328,0.8639,-6.08,7.82,-0.06,20.92
12420,0.269,-0.028,0.8691,-6.05,7.76,-0.11,20.94
12430,0.2672,-0.0338,0.8696,-6.12,7.76,-0.11,20.94
12440,0.2667,-0.0325,0.8691,-6.12,7.76,-0.06,20.93
12450,0.269,-0.0314,0.8658,-6.14,7.73,0.03,20.94
12460,0.2692,-0.0305,0.8699,-6.18,7.76,0.08,20.93
12470,0.2706,-0.0304,0.8732,-6.23,7.71,0.05,20.92
12480,0.271,-0.0304,0.873,-6.2,7.79,0.02,20.92
12490,0.2694,-0.0325,0.8724,-6.2,7.79,-0.03,20.92
12500,0.2687,-0.0325,0.877,-6.27,7.74,0.05,20.93
12510,0.2677,-0.0334,0.8763,-6.2,7.71,-0.06,20.93
12520,0.2715,-0.0374,0.8756,-6.12,7.73,-0.14,20.92
12530,0.271,-0.0389,0.8738,-6.14,7.74,-0.05,20.95
12540,0.2725,-0.0366,0.8809,-6.15,7.74,-0.05,20.94
12550,0.2761,-0.0372,0.88,-6.11,7.73,-0.05,20.92
12560,0.2767,-0.0371,0.8773,-6.14,7.69,0.0,20.91
12570,0.2738,-0.033,0.8739,-6.09,7.71,-0.03,20.94
12580,0.277,-0.0325,0.875,-6.09,7.74,-0.09,20.96
12590,0.2747,-0.0327,0.8743,-6.06,7.76,-0.03,20.93
12600,0.2742,-0.0349,0.8756,-6.11,7.66,-0.14,20.96
12610,0.2732,-0.0337,0.8739,-6.14,7.79,-0.08,20.92
12620,0.2668,-0.0332,0.876,-5.97,7.79,-0.06,20.92
12630,0.2709,-0.033,0.868,-6.02,7.82,-0.12,20.92
12640,0.27,-0.0328,0.8632,-6.02,7.74,-0.12,20.91
12650,0.2692,-0.0315,0.8624,-6.09,7.76,-0.11,20.93
12660,0.267,-0.0293,0.8682,-6.08,7.69,-0.08,20.92
12670,0.2701,-0.0349,0.8693,-6.09,7.73,-0.11,20.94
12680,0.2759,-0.0323,0.8668,-6.12,7.66,0.0,20.93
12690,0.2621,-0.0322,0.8754,-6.31,7.95,-0.03,20.94
12700,0.2638,-0.0338,0.8712,-6.2,7.79,-0.06,20.92
12710,0.2689,-0.036,0.8761,-6.14,7.98,-0.08,20.91
12720,0.2664,-0.0364,0.8724,-6.23,7.88,-0.09,20.92
12730,0.2694,-0.0342,0.8717,-6.03,7.8,-0.08,20.93
12740,0.2703,-0.0327,0.8715,-6.11,7.71,-0.02,20.94
12750,0.2695,-0.0299,0.8711,-6.14,7.82,-0.09,20.93
12760,0.2679,-0.0332,0.8746,-6.06,7.77,-0.08,20.94
12770,0.267,-0.037,0.8732,-6.17,7.83,-0.09,20.94
12780,0.2694,-0.035,0.8739,-6.15,7.79,-0.03,20.92
12790,0.2683,-0.03,0.8705,-6.26,7.74,0.02,20.92
12800,0.2687,-0.0322,0.869,-6.09,7.83,-0.03,20.94
12810,0.2694,-0.0344,0.8751,-6.11,7.69,-0.08,20.93
12820,0.2737,-0.0319,0.875,-6.12,7.66,-0.05,20.95
12830,0.2761,-0.031,0.8773,-6.17,7.66,0.05,20.93
12840,0.2726,-0.0323,0.882,-6.14,7.69,-0.03,20.92
12850,0.2739,-0.0343,0.8745,-6.05,7.79,-0.11,20.94
12860,0.2737,-0.0325,0.8712,-6.18,7.85,-0.05,20.93
12870,0.2719,-0.0353,0.8707,-6.08,7.74,-0.12,20.92
12880,0.2717,-0.0311,0.8733,-6.14,7.76,-0.12,20.94
12890,0.2726,-0.0315,0.8752,-6.15,7.71,-0.11,20.92
12900,0.2704,-0.0355,0.8727,-6.14,7.73,-0.02,20.94
12910,0.2699,-0.036,0.8719,-6.08,7.69,-0.08,20.94
12920,0.2703,-0.0372,0.8671,-6.11,7.79,-0.02,20.93
12930,0.2689,-0.0345,0.868,-6.18,7.76,-0.08,20.92
12940,0.2679,-0.032,0.8699,-6.09,7.79,-0.08,20.94
12950,0.2709,-0.0345,0.8651,-6.15,7.73,-0.09,20.94
12960,0.2693,-0.0297,0.8708,-6.12,7.63,0.0,20.92
12970,0.2693,-0.03,0.8739,-6.12,7.65,-0.08,20.93
12980,0.2732,-0.0302,0.8735,-6.03,7.74,-0.17,20.95
12990,0.2686,-0.0323,0.8795,-6.09,7.77,-0.08,20.95
13000,0.2744,-0.0341,0.8744,-6.09,7.73,-0.05,20.94
13010,0.2708,-0.0316,0.8749,-6.17,7.76,0.0,20.93
13020,0.2709,-0.0334,0.876,-6.18,7.74,0.0,20.94
13030,0.2705,-0.0344,0.8708,-6.24,7.76,-0.03,20.96
13040,0.2682,-0.0331,0.8693,-6.23,7.8,-0.03,20.95
13050,0.2682,-0.0333,0.8665,-6.24,7.73,-0.11,20.97
13060,0.269,-0.0371,0.8706,-6.15,7.69,-0.08,20.93
13070,0.2753,-0.0388,0.875,-6.08,7.77,-0.08,20.95
13080,0.2745,-0.0389,0.88,-6.09,7.74,-0.06,20.97
13090,0.2723,-0.0354,0.8823,-6.15,7.68,-0.08,20.93
13100,0.2728,-0.0321,0.8793,-6.21,7.74,-0.06,20.94
13110,0.2709,-0.0317,0.8713,-6.2,7.76,-0.09,20.93
13120,0.2681,-0.0311,0.8632,-6.21,7.8,-0.08,20.94
13130,0.2659,-0.0337,0.8604,-6.24,7.8,0.0,20.95
13140,0.2671,-0.0342,0.86,-6.2,7.68,-0.06,20.94
13150,0.2662,-0.0321,0.8623,-6.31,7.71,0.05,20.92
13160,0.265,-0.0364,0.8663,-6.23,7.68,-0.06,20.95
13170,0.269,-0.0306,0.865,-6.23,7.6,0.06,20.94
13180,0.2709,-0.0255,0.8696,-6.27,7.65,0.03,20.92
13191,0.2672,-0.025,0.8735,-6.4,7.62,0.11,20.94
13201,0.2688,-0.0272,0.8755,-6.41,7.57,0.03,20.95
13211,0.2631,-0.0282,0.8729,-6.43,7.65,0.03,20.94
13221,0.2692,-0.0288,0.8741,-6.35,7.62,0.08,20.95
13231,0.271,-0.0323,0.8756,-6.38,7.54,0.03,20.93
13241,0.2753,-0.0303,0.8802,-6.32,7.57,0.05,20.93
13251,0.2777,-0.0381,0.8856,-6.31,7.57,0.09,20.93
13261,0.2777,-0.0349,0.8828,-6.29,7.56,-0.05,20.94
13271,0.2761,-0.0326,0.885,-6.31,7.5,-0.05,20.96
13281,0.2778,-0.0345,0.885,-6.27,7.51,-0.03,20.93
13291,0.2771,-0.0383,0.8829,-6.17,7.51,-0.03,20.95
13301,0.2755,-0.0405,0.8802,-6.24,7.48,-0.11,20.95
13311,0.2761,-0.0408,0.8793,-6.18,7.5,-0.18,20.94
13321,0.2789,-0.0438,0.8809,-6.12,7.48,-0.17,20.94
13332,0.2773,-0.0427,0.8807,-6.06,7.45,-0.23,20.96
13342,0.2756,-0.0389,0.8796,-6.0,7.51,-0.09,20.92
13352,0.277,-0.0394,0.8737,-5.89,7.48,-0.18,20.93
13362,0.2712,-0.0387,0.8734,-5.86,7.6,-0.14,20.95
13372,0.2698,-0.0381,0.8713,-5.92,7.51,-0.17,20.93
13382,0.272,-0.0344,0.866,-5.86,7.62,-0.24,20.94
13392,0.2709,-0.0364,0.866,-5.85,7.54,-0.18,20.94
13402,0.2733,-0.0354,0.8711,-5.92,7.53,-0.15,20.93
13412,0.2743,-0.0328,0.8657,-5.97,7.65,-0.06,20.96
13422,0.2699,-0.0328,0.8625,-5.92,7.65,-0.06,20.95
13432,0.2703,-0.0299,0.8615,-6.02,7.68,-0.11,20.96
13442,0.2655,-0.0303,0.8622,-5.98,7.66,-0.08,20.97
13452,0.2668,-0.0328,0.859,-6.12,7.77,-0.17,20.94
13462,0.2634,-0.0332,0.8669,-6.12,7.77,-0.03,20.99
13472,0.2634,-0.0341,0.8701,-6.18,7.74,0.06,20.94
13482,0.2656,-0.0323,0.8683,-6.17,7.71,0.08,20.95
13492,0.2661,-0.0332,0.8668,-6.29,7.76,-0.08,20.94
13502,0.2684,-0.031,0.8679,-6.29,7.68,0.02,20.96
13512,0.2731,-0.033,0.8699,-6.24,7.76,-0.02,20.96
13522,0.2732,-0.0341,0.8737,-6.32,7.71,0.14,20.94
13532,0.2765,-0.0323,0.8794,-6.17,7.8,0.06,20.97
13542,0.2784,-0.0352,0.8781,-6.26,7.79,0.0,20.94
13552,0.2792,-0.0308,0.8846,-6.2,7.8,-0.02,20.94
13562,0.2784,-0.0344,0.8846,-6.26,7.86,0.02,20.95
13572,0.2771,-0.0364,0.8829,-6.15,7.82,-0.06,20.94
13582,0.275,-0.0339,0.8806,-6.11,7.82,-0.05,20.95
13592,0.2766,-0.0345,0.8777,-6.17,7.86,-0.03,20.98
13602,0.2747,-0.0345,0.884,-6.12,7.86,-0.05,20.94
13612,0.2786,-0.0355,0.8837,-6.0,7.94,-0.08,20.96
13622,0.2771,-0.0364,0.8842,-5.94,7.95,-0.08,20.97
13632,0.2723,-0.0374,0.8784,-5.95,7.95,-0.09,20.95
13642,0.2723,-0.0372,0.8777,-5.89,7.95,-0.2,20.95
13652,0.2706,-0.0389,0.8696,-5.83,7.95,-0.18,20.97
13662,0.2708,-0.0394,0.8685,-5.77,7.98,-0.2,20.98
13672,0.2714,-0.0361,0.8657,-5.83,7.94,-0.21,20.96
13682,0.2729,-0.035,0.8645,-5.76,7.97,-0.15,20.94
13692,0.272,-0.0339,0.8638,-5.77,8.0,-0.15,20.94
13702,0.2712,-0.0361,0.8605,-5.89,7.97,-0.17,20.95
13712,0.2657,-0.0342,0.8582,-5.95,7.95,-0.17,20.94
13722,0.2618,-0.0341,0.8593,-5.97,8.02,-0.09,20.94
13732,0.2593,-0.0304,0.8512,-6.08,7.95,-0.05,20.92
13742,0.2598,-0.0295,0.8549,-6.08,7.94,-0.09,20.96
13752,0.2599,-0.0228,0.8558,-6.02,7.88,-0.05,20.95
13762,0.2618,-0.0233,0.8575,-6.15,7.83,0.03,20.96
13772,0.2615,-0.0217,0.8551,-6.29,7.8,0.03,20.96
13782,0.2606,-0.022,0.8549,-6.35,7.74,0.12,20.98
13792,0.2604,-0.0192,0.8612,-6.5,7.69,0.09,20.94
13802,0.2639,-0.0221,0.8688,-6.55,7.66,0.09,20.94
13812,0.2645,-0.0236,0.8741,-6.66,7.53,0.15,20.96
13822,0.2699,-0.0233,0.8781,-6.66,7.62,0.12,20.93
13832,0.2668,-0.0282,0.881,-6.58,7.59,0.18,20.94
13842,0.2678,-0.028,0.8822,-6.66,7.48,0.15,20.95
13852,0.2711,-0.0334,0.8872,-6.7,7.42,0.05,20.96
13862,0.275,-0.0331,0.8906,-6.63,7.45,0.14,20.97
13872,0.2782,-0.0366,0.8918,-6.53,7.39,0.06,20.97
13882,0.2836,-0.0365,0.8904,-6.55,7.37,0.06,20.94
13892,0.2815,-0.0382,0.891,-6.52,7.37,0.02,20.96
13902,0.2821,-0.0393,0.8885,-6.44,7.36,0.02,20.93
13912,0.281,-0.042,0.8892,-6.38,7.3,-0.11,20.94
13922,0.2814,-0.0439,0.8895,-6.18,7.37,-0.05,20.95
13932,0.2858,-0.0463,0.8911,-6.08,7.37,-0.15,20.96
13942,0.2861,-0.0455,0.8899,-5.89,7.37,-0.17,20.98
13952,0.2842,-0.0486,0.8884,-5.88,7.44,-0.2,20.94
13962,0.2823,-0.0477,0.8867,-5.68,7.47,-0.21,20.96
13972,0.2816,-0.0438,0.8806,-5.63,7.53,-0.24,20.96
13983,0.2783,-0.0399,0.8738,-5.66,7.51,-0.24,20.96
13993,0.2751,-0.0428,0.8638,-5.73,7.63,-0.24,20.96
14004,0.2744,-0.0415,0.8624,-5.65,7.59,-0.29,20.95
14014,0.2731,-0.0396,0.8588,-5.68,7.73,-0.32,20.94
14024,0.2688,-0.0414,0.8566,-5.71,7.76,-0.23,20.96
14034,0.2709,-0.0393,0.855,-5.76,7.76,-0.2,20.95
14044,0.2695,-0.0388,0.8538,-5.73,7.85,-0.2,20.97
14054,0.2659,-0.0354,0.8534,-5.89,7.88,-0.15,20.97
14064,0.2605,-0.0347,0.8527,-5.86,7.82,-0.11,20.96
14074,0.2635,-0.0356,0.8508,-5.91,7.91,-0.03,20.98
14084,0.2615,-0.0334,0.8541,-5.92,7.97,-0.06,20.97
14094,0.2609,-0.0284,0.8533,-6.05,7.97,0.0,20.95
14104,0.2627,-0.0288,0.8533,-6.12,7.89,0.02,20.96
14114,0.2655,-0.0289,0.8625,-6.2,7.92,0.08,20.96
14124,0.2662,-0.0305,0.8638,-6.21,7.92,0.06,20.97
14134,0.2717,-0.0322,0.8657,-6.32,7.98,0.14,20.94
14144,0.2695,-0.0306,0.8691,-6.32,8.03,0.12,20.95
14154,0.2693,-0.0291,0.8749,-6.44,8.02,0.15,20.96
14164,0.2715,-0.0284,0.8806,-6.4,7.98,0.15,20.96
14174,0.2699,-0.0275,0.8839,-6.35,8.0,0.23,20.95
14184,0.2709,-0.0297,0.8867,-6.44,8.02,0.2,20.97
14194,0.2734,-0.0266,0.886,-6.4,7.97,0.08,20.95
14204,0.2719,-0.03,0.8853,-6.35,7.95,0.05,20.97
14214,0.2736,-0.0312,0.8918,-6.34,7.86,0.05,20.98
14224,0.2784,-0.0328,0.8895,-6.21,7.88,0.06,20.99
14234,0.2793,-0.0328,0.8939,-6.14,7.85,-0.06,20.96
14244,0.2795,-0.0342,0.8901,-6.09,7.83,-0.09,20.96
14254,0.2773,-0.0338,0.8893,-6.0,7.79,-0.05,20.97
14264,0.2737,-0.0328,0.8821,-5.95,7.8,-0.09,20.97
14274,0.2772,-0.0322,0.8805,-5.92,7.79,-0.11,20.95
14284,0.2782,-0.0316,0.8817,-5.91,7.8,-0.17,20.96
14294,0.2759,-0.0292,0.8816,-5.86,7.74,-0.23,20.96
14304,0.2721,-0.0292,0.875,-5.86,7.8,-0.34,20.96
14314,0.2712,-0.0319,0.8757,-5.85,7.77,-0.24,20.94
14324,0.2698,-0.0278,0.8688,-5.85,7.79,-0.23,20.96
14334,0.2693,-0.0319,0.8588,-5.85,7.77,-0.23,20.99
14344,0.2633,-0.0316,0.8606,-5.92,7.74,-0.27,20.95
14354,0.2621,-0.0331,0.8534,-5.92,7.79,-0.2,20.95
14364,0.2642,-0.0337,0.8544,-5.97,7.69,-0.23,20.97
14374,0.2631,-0.0294,0.8551,-6.09,7.69,-0.17,20.97
14384,0.2629,-0.0325,0.858,-6.15,7.65,-0.2,20.96
14394,0.2614,-0.0302,0.8562,-6.27,7.62,-0.05,20.98
14404,0.2601,-0.0255,0.8503,-6.29,7.65,-0.03,20.97
14414,0.2606,-0.0231,0.8541,-6.4,7.59,-0.06,20.98
14424,0.2595,-0.0311,0.8516,-6.37,7.57,0.02,20.97
14434,0.2635,-0.037,0.8571,-6.44,7.59,0.08,20.95
14444,0.2649,-0.0333,0.8672,-6.5,7.56,0.08,20.96
14454,0.2644,-0.0374,0.8618,-6.64,7.45,0.05,20.97
14464,0.2689,-0.0385,0.8656,-6.72,7.42,0.14,20.98
14474,0.2771,-0.0419,0.8754,-6.64,7.39,0.17,20.97
14484,0.2762,-0.0382,0.8794,-6.7,7.45,0.14,20.97
14494,0.2797,-0.0375,0.8865,-6.5,7.44,0.06,20.96
14504,0.2877,-0.0419,0.8917,-6.43,7.42,0.09,20.97
14514,0.2847,-0.0457,0.9006,-6.32,7.56,0.0,20.97
14524,0.2893,-0.05,0.9073,-6.27,7.63,0.09,20.97
14534,0.2931,-0.052,0.9012,-6.18,7.71,-0.02,20.95
14544,0.2865,-0.0507,0.8933,-6.21,7.6,-0.03,20.97
14554,0.2865,-0.0452,0.892,-6.06,7.63,-0.05,20.98
14564,0.2897,-0.0474,0.8896,-6.05,7.63,-0.12,20.97
14574,0.2836,-0.0474,0.886,-5.94,7.66,-0.14,20.99
14584,0.2797,-0.0474,0.8857,-5.82,7.8,-0.23,20.98
14594,0.2858,-0.0486,0.8818,-5.66,7.8,-0.24,21.0
14604,0.2853,-0.05,0.8794,-5.48,7.88,-0.17,20.97
14614,0.2795,-0.0458,0.8723,-5.48,7.83,-0.29,20.96
14624,0.2773,-0.0416,0.87,-5.36,7.85,-0.18,20.98
14634,0.2738,-0.0333,0.8619,-5.45,7.98,-0.11,20.93
14644,0.2687,-0.0377,0.8641,-5.48,7.97,-0.21,20.94
14654,0.2672,-0.032,0.8591,-5.47,8.02,-0.18,20.97
14664,0.26,-0.0289,0.8599,-5.45,7.94,-0.14,20.97
14674,0.2627,-0.0282,0.86,-5.57,7.95,-0.11,20.94
14684,0.2578,-0.0228,0.8556,-5.63,8.03,-0.15,20.98
14694,0.259,-0.0215,0.8571,-5.73,8.12,-0.14,20.97
14704,0.2582,-0.0249,0.854,-5.95,8.11,0.02,20.97
14714,0.2603,-0.0242,0.854,-5.97,8.0,-0.05,20.94
14724,0.2616,-0.0232,0.8541,-6.03,8.05,-0.03,20.95
14734,0.2662,-0.0204,0.8595,-6.18,8.08,0.05,20.97
14744,0.2654,-0.0226,0.8606,-6.24,7.98,0.08,20.94
14754,0.2646,-0.0226,0.8611,-6.31,8.08,0.12,20.97
14764,0.2675,-0.0245,0.8602,-6.34,8.05,0.02,20.97
14774,0.2634,-0.0239,0.8643,-6.27,7.98,0.14,20.97
14784,0.2645,-0.0211,0.869,-6.37,8.06,0.08,20.95
14794,0.2625,-0.0254,0.8695,-6.41,7.98,0.06,20.97
14804,0.2666,-0.0239,0.8785,-6.46,7.91,0.12,20.98
14814,0.2668,-0.0254,0.8817,-6.46,7.91,-0.02,20.94
14824,0.2645,-0.0283,0.8805,-6.41,7.91,0.08,20.97
14834,0.267,-0.0258,0.8865,-6.5,7.89,0.08,20.98
14844,0.2675,-0.0276,0.8877,-6.44,7.89,0.11,20.96
14854,0.269,-0.0276,0.8867,-6.4,7.76,0.05,20.97
14864,0.2684,-0.0293,0.8871,-6.44,7.88,-0.02,20.97
14874,0.274,-0.0326,0.8901,-6.37,7.76,-0.06,20.93
14884,0.2742,-0.031,0.889,-6.4,7.77,-0.12,20.94
14894,0.2744,-0.0363,0.8861,-6.21,7.71,0.0,20.95
14904,0.2744,-0.0349,0.8816,-6.32,7.82,-0.15,20.96
14914,0.2772,-0.0381,0.879,-6.14,7.66,-0.14,20.98
14924,0.2797,-0.0375,0.8763,-6.14,7.68,-0.23,20.97
14934,0.2797,-0.0367,0.8737,-6.09,7.62,-0.15,20.97
14944,0.2789,-0.0363,0.8734,-6.02,7.62,-0.14,20.97
14954,0.2831,-0.0374,0.8763,-6.09,7.62,-0.26,20.99
14964,0.2793,-0.0348,0.8733,-5.94,7.66,-0.21,20.98
14974,0.275,-0.0328,0.8734,-5.98,7.53,-0.21,20.96
14984,0.2715,-0.0363,0.8708,-6.09,7.6,-0.23,20.96
14994,0.2677,-0.0338,0.8671,-5.97,7.56,-0.2,20.97
15004,0.2662,-0.0383,0.8639,-5.97,7.63,-0.2,21.0
15014,0.2646,-0.0417,0.8622,-6.05,7.66,-0.17,20.97
15024,0.2701,-0.045,0.8583,-5.98,7.6,-0.12,20.96
15034,0.2679,-0.0417,0.8622,-6.17,7.65,-0.09,20.98
15044,0.2659,-0.0422,0.8671,-6.17,7.65,-0.03,20.99
15054,0.2639,-0.0425,0.8649,-6.17,7.73,-0.05,20.98
15064,0.2705,-0.0389,0.866,-6.2,7.68,-0.02,20.97
15074,0.272,-0.0393,0.8694,-6.18,7.71,-0.05,20.96
15084,0.2722,-0.0405,0.8702,-6.18,7.62,0.05,20.97
15094,0.2711,-0.0405,0.8668,-6.23,7.73,0.02,20.98
15104,0.2723,-0.0403,0.8707,-6.18,7.73,0.06,21.0
15114,0.2756,-0.0396,0.8706,-6.23,7.74,0.05,20.97
15124,0.276,-0.0394,0.8728,-6.17,7.71,0.09,20.97
15134,0.2772,-0.0374,0.8774,-6.21,7.74,0.08,20.98
15144,0.2733,-0.0333,0.8798,-6.17,7.68,0.03,20.97
15154,0.2766,-0.0352,0.8761,-6.14,7.71,0.06,20.98
15164,0.2775,-0.0339,0.8768,-6.18,7.73,0.05,21.01
15174,0.2772,-0.0339,0.8809,-6.09,7.76,-0.03,20.99
15184,0.2758,-0.0354,0.8792,-6.06,7.79,-0.06,20.98
15194,0.2762,-0.0341,0.8794,-6.12,7.83,-0.03,20.98
15204,0.2753,-0.0364,0.8835,-6.02,7.85,-0.06,20.96
15214,0.275,-0.0356,0.884,-6.09,7.8,-0.08,21.02
15224,0.2769,-0.0317,0.8859,-5.95,7.8,-0.02,20.98
15234,0.2706,-0.0345,0.8805,-5.97,7.82,-0.12,20.98
15244,0.2697,-0.0309,0.8698,-5.86,7.86,-0.09,20.98
15254,0.2739,-0.0326,0.8678,-5.76,7.82,-0.06,20.99
15264,0.2678,-0.0392,0.8699,-5.86,7.73,-0.12,21.0
15274,0.2693,-0.0365,0.8693,-5.86,7.79,-0.06,20.99
15284,0.2653,-0.0353,0.8658,-5.83,7.79,-0.14,20.99
15294,0.2672,-0.0309,0.8665,-5.86,7.76,-0.18,20.99
15304,0.2656,-0.033,0.8677,-5.88,7.79,-0.17,20.97
15314,0.2655,-0.0332,0.8702,-5.79,7.79,-0.18,20.99
15324,0.2688,-0.0328,0.8687,-5.97,7.66,-0.15,20.98
15334,0.2725,-0.0319,0.8774,-5.89,7.63,-0.11,20.98
15344,0.2717,-0.0316,0.8765,-5.89,7.73,-0.03,21.0
15354,0.2699,-0.0337,0.8771,-5.91,7.65,-0.08,20.99
15364,0.2698,-0.032,0.8801,-5.97,7.71,-0.06,21.0
15374,0.2712,-0.03,0.8782,-6.03,7.79,-0.02,21.01
15384,0.2729,-0.0294,0.8788,-6.05,7.73,0.05,20.98
15394,0.2705,-0.0305,0.8771,-6.03,7.77,-0.05,20.99
15404,0.2734,-0.0321,0.877,-5.97,7.8,0.0,20.98
15414,0.2743,-0.0309,0.8832,-6.12,7.73,0.0,21.02
15424,0.2745,-0.0292,0.8826,-6.06,7.77,-0.03,20.98
15434,0.2736,-0.0325,0.8766,-6.08,7.77,-0.02,21.0
15444,0.2751,-0.0255,0.8718,-6.08,7.77,-0.06,21.0
15454,0.2711,-0.0271,0.8666,-6.15,7.83,-0.06,21.0
15464,0.2723,-0.0273,0.8705,-6.26,7.79,-0.06,20.98
15474,0.2743,-0.0258,0.8633,-6.21,7.82,-0.14,21.0
15484,0.2729,-0.0227,0.8683,-6.15,7.76,0.0,21.02
15494,0.2747,-0.0284,0.8726,-6.24,7.82,0.03,21.01
15504,0.2809,-0.0283,0.8741,-6.17,7.79,-0.09,21.0
15514,0.2749,-0.0259,0.8779,-6.08,7.83,-0.05,20.99
15524,0.2742,-0.0247,0.8719,-6.15,7.95,0.06,21.0
15534,0.2686,-0.0254,0.8713,-6.24,7.92,-0.02,21.0
15544,0.2684,-0.0278,0.868,-6.26,7.89,-0.11,20.96
15554,0.2672,-0.0305,0.8645,-6.31,7.97,-0.06,21.0
15564,0.2654,-0.0334,0.8667,-6.17,7.92,-0.09,21.0
15574,0.2654,-0.0316,0.8643,-6.21,7.91,-0.03,21.02
15584,0.2701,-0.0355,0.861,-6.23,7.74,-0.02,21.0
15594,0.2667,-0.0372,0.8684,-6.23,7.88,-0.03,21.0
15604,0.2701,-0.0378,0.863,-6.2,7.8,-0.08,21.0
15614,0.2677,-0.0352,0.87,-6.14,7.85,0.0,21.01
15624,0.2672,-0.0356,0.8768,-6.21,7.74,-0.08,21.01
15634,0.2654,-0.036,0.8776,-6.15,7.83,-0.03,21.01
15644,0.2665,-0.0359,0.8754,-6.14,7.86,-0.05,21.01
15654,0.2708,-0.0376,0.8777,-6.17,7.76,-0.05,20.98
15664,0.2721,-0.041,0.8718,-6.2,7.76,-0.14,21.0
15674,0.2693,-0.041,0.874,-6.2,7.77,-0.11,20.99
15684,0.2726,-0.0381,0.8793,-6.08,7.79,-0.03,21.0
15694,0.2698,-0.0402,0.8765,-6.05,7.73,-0.11,20.99
15704,0.2712,-0.0367,0.8755,-6.11,7.82,-0.15,21.0
15714,0.2719,-0.0386,0.8737,-6.21,7.77,0.0,21.0
15724,0.2736,-0.0345,0.8732,-6.11,7.71,0.05,20.99
15734,0.2719,-0.0339,0.8728,-6.17,7.76,-0.02,20.99
15744,0.274,-0.0402,0.8749,-6.17,7.66,-0.02,20.99
15754,0.2737,-0.0363,0.8741,-6.18,7.68,0.0,21.02
15764,0.2748,-0.036,0.8704,-6.17,7.62,-0.02,21.04
15774,0.2754,-0.0347,0.8763,-6.09,7.68,0.02,20.99
15784,0.2714,-0.0349,0.8723,-6.09,7.65,-0.06,21.02
15794,0.2748,-0.0355,0.8708,-6.17,7.68,-0.03,21.01
15804,0.2761,-0.0326,0.8728,-6.08,7.76,-0.08,21.01
15814,0.2754,-0.0337,0.8698,-6.14,7.69,-0.03,20.99
15824,0.2767,-0.0334,0.8724,-6.12,7.66,-0.03,21.03
15834,0.2769,-0.0331,0.876,-6.08,7.73,-0.06,20.99
15844,0.2787,-0.0333,0.8761,-6.18,7.74,-0.06,20.99
15854,0.2754,-0.0321,0.8756,-6.11,7.8,0.02,21.0
15864,0.2738,-0.0317,0.8724,-6.08,7.74,0.02,20.99
15874,0.2727,-0.0316,0.8673,-6.09,7.68,-0.06,20.99
15884,0.2729,-0.0317,0.8717,-6.02,7.69,-0.06,21.02
15894,0.2712,-0.0344,0.8746,-6.0,7.85,-0.03,20.99
15904,0.2695,-0.0366,0.8722,-6.06,7.77,-0.08,21.0
15914,0.2688,-0.0327,0.871,-6.12,7.77,-0.09,20.99
15924,0.2683,-0.0286,0.8702,-6.05,7.71,-0.03,20.99
15934,0.2675,-0.0306,0.8682,-6.05,7.8,-0.17,21.0
15944,0.2657,-0.0266,0.8706,-6.12,7.82,-0.09,21.01
15954,0.269,-0.0264,0.8717,-6.12,7.73,-0.08,20.99
15964,0.2692,-0.0293,0.874,-6.06,7.73,-0.08,20.99
15974,0.2673,-0.0286,0.8783,-6.2,7.79,-0.06,21.0
15984,0.2666,-0.0305,0.8732,-6.18,7.79,-0.12,21.0
15994,0.2654,-0.0308,0.871,-6.17,7.8,-0.05,20.99
16004,0.2682,-0.0348,0.8716,-6.11,7.77,-0.02,21.0
16014,0.2654,-0.0344,0.8712,-6.21,7.79,-0.09,21.02
16024,0.2672,-0.0342,0.8652,-6.14,7.77,0.03,20.99
16034,0.2712,-0.0298,0.8719,-6.15,7.79,-0.05,20.99
16044,0.2733,-0.03,0.8738,-6.2,7.71,-0.05,21.02
16054,0.2711,-0.0312,0.8773,-6.2,7.76,-0.03,21.01
16064,0.2704,-0.0334,0.8781,-6.21,7.8,-0.03,21.01
16074,0.271,-0.0319,0.8777,-6.12,7.82,-0.05,21.02
16084,0.2672,-0.0343,0.8734,-6.15,7.77,-0.05,21.01
16094,0.2712,-0.036,0.8749,-6.21,7.79,0.0,21.01
16104,0.2727,-0.035,0.8745,-6.17,7.77,0.0,21.01
16114,0.2747,-0.03,0.8724,-6.15,7.76,-0.03,20.98
16124,0.2727,-0.0322,0.8787,-6.14,7.82,0.02,20.99
16134,0.2731,-0.0312,0.8724,-6.15,7.77,-0.02,20.99
16144,0.2716,-0.0343,0.8717,-6.17,7.77,-0.05,21.01
16154,0.2733,-0.0331,0.8724,-6.23,7.73,0.02,21.01
16164,0.2747,-0.0341,0.8665,-6.2,7.73,-0.05,21.0
16174,0.2734,-0.0354,0.8729,-6.08,7.73,-0.08,21.03
16184,0.2748,-0.038,0.8695,-6.09,7.79,-0.06,21.03
16194,0.277,-0.0376,0.8721,-6.06,7.74,-0.08,21.01
16204,0.2739,-0.038,0.8765,-6.05,7.74,-0.08,21.0
16214,0.2737,-0.037,0.8739,-6.02,7.76,-0.11,21.01
16224,0.2719,-0.0392,0.8772,-6.14,7.83,0.0,21.02
16234,0.2714,-0.0365,0.8721,-6.09,7.88,-0.15,21.01
16244,0.2748,-0.0341,0.8765,-6.03,7.77,-0.08,21.03
16254,0.2705,-0.0333,0.8726,-6.05,7.85,-0.11,21.02
16264,0.2719,-0.0311,0.8732,-6.05,7.66,-0.08,21.0
16274,0.2737,-0.0342,0.8723,-6.12,7.83,-0.05,20.98
16285,0.2725,-0.0363,0.8663,-6.11,7.82,-0.08,21.02
16296,0.2733,-0.0336,0.8723,-6.15,7.65,0.0,21.02
16306,0.2708,-0.0306,0.8737,-6.14,7.85,-0.05,20.99
16316,0.2668,-0.0309,0.871,-6.12,7.76,-0.03,21.02
16326,0.2719,-0.0323,0.8761,-6.11,7.71,-0.03,21.02
16336,0.269,-0.0377,0.8728,-6.03,7.82,-0.08,21.01
16346,0.2695,-0.0381,0.8741,-6.0,7.69,-0.02,21.01
16356,0.2701,-0.0403,0.8767,-6.08,7.77,-0.03,21.01
16366,0.2723,-0.0365,0.873,-5.91,7.74,-0.06,21.0
16376,0.2726,-0.0377,0.8737,-6.11,7.74,0.0,20.99
16386,0.2765,-0.0377,0.8784,-6.03,7.86,0.02,21.0
16396,0.274,-0.032,0.8728,-6.03,7.74,-0.05,20.99
16406,0.2749,-0.0276,0.8729,-6.06,7.68,-0.05,21.0
16416,0.2698,-0.0284,0.8719,-6.09,7.76,-0.03,21.04
16426,0.2689,-0.0317,0.8657,-6.09,7.74,-0.05,21.02
16436,0.2703,-0.03,0.8744,-6.15,7.83,-0.06,21.0
16446,0.2717,-0.0278,0.8685,-6.06,7.82,-0.05,20.99
16456,0.2681,-0.0316,0.8644,-6.09,7.71,-0.03,21.0
16466,0.2687,-0.0295,0.8772,-6.05,7.63,-0.03,21.02
16476,0.2694,-0.0269,0.8785,-6.2,7.82,0.02,21.01
16486,0.2701,-0.0291,0.8766,-6.12,7.69,0.0,21.02
16496,0.2714,-0.0298,0.8817,-6.09,7.73,-0.03,21.0
16506,0.2708,-0.0306,0.8773,-6.24,7.85,-0.05,21.01
16516,0.2726,-0.0337,0.8738,-6.17,7.68,-0.03,21.02
16526,0.2758,-0.0331,0.8767,-6.12,7.82,0.0,21.02
16536,0.2721,-0.032,0.8722,-6.14,7.85,-0.11,21.01
16546,0.2701,-0.0355,0.8708,-6.12,7.65,-0.05,20.99
16556,0.2719,-0.0315,0.8757,-6.11,7.79,0.0,21.03
16566,0.2673,-0.0323,0.8726,-6.12,7.77,-0.02,21.01
16576,0.269,-0.0297,0.8757,-6.17,7.8,0.02,21.01
16586,0.2695,-0.031,0.8743,-6.15,7.77,-0.05,21.01
16596,0.2688,-0.0355,0.8755,-6.15,7.76,-0.11,21.02
16606,0.2678,-0.0376,0.8727,-6.11,7.82,-0.03,21.01
16616,0.2711,-0.0376,0.8706,-6.12,7.74,-0.09,21.02
16626,0.2715,-0.037,0.8733,-6.09,7.73,0.0,20.99
16636,0.2712,-0.0327,0.8739,-6.14,7.74,-0.06,21.01
16646,0.2704,-0.0321,0.8722,-6.17,7.77,-0.08,21.02
16656,0.2725,-0.0312,0.8739,-6.12,7.73,-0.05,21.02
16666,0.2712,-0.0322,0.8718,-6.17,7.8,-0.05,21.01
16676,0.2715,-0.0326,0.8737,-6.23,7.79,0.0,21.0
16686,0.274,-0.036,0.8748,-6.2,7.74,-0.11,20.99
16696,0.2728,-0.0358,0.8715,-6.12,7.73,-0.08,21.03
16706,0.2751,-0.0341,0.8672,-6.12,7.74,-0.03,21.03
16716,0.2664,-0.0363,0.8732,-6.17,7.65,-0.12,21.02
16726,0.275,-0.0315,0.8663,-6.27,7.79,-0.06,21.01
16736,0.2672,-0.0347,0.8771,-6.05,7.88,-0.05,21.04
16746,0.2729,-0.0378,0.8662,-6.18,7.6,-0.02,21.02
16756,0.2737,-0.0342,0.8704,-6.09,7.74,-0.12,20.99
16766,0.2703,-0.0372,0.8694,-6.14,7.77,-0.08,21.0
16776,0.2715,-0.0352,0.8749,-6.08,7.69,-0.05,20.99
16786,0.2725,-0.0394,0.8727,-6.12,7.76,0.0,21.03
16796,0.2723,-0.037,0.8788,-6.0,7.74,-0.03,21.03
16806,0.2726,-0.038,0.8729,-6.15,7.8,-0.02,21.03
16816,0.2734,-0.0352,0.8768,-6.12,7.77,-0.09,21.02
16826,0.2737,-0.0333,0.8805,-6.05,7.77,-0.14,21.02
16836,0.2728,-0.0316,0.8755,-6.05,7.79,-0.05,21.02
16846,0.2687,-0.0297,0.8715,-5.98,7.77,0.02,21.03
16856,0.2726,-0.0309,0.8721,-6.03,7.73,0.05,21.04
16866,0.2712,-0.0282,0.8718,-6.0,7.77,-0.03,21.04
16876,0.2708,-0.0306,0.8761,-6.15,7.77,-0.05,21.0
16886,0.2728,-0.0311,0.8754,-6.12,7.74,0.03,21.02
16896,0.2706,-0.0295,0.8722,-6.14,7.74,-0.05,21.02
16906,0.2705,-0.0333,0.8735,-6.15,7.73,-0.12,21.04
16916,0.2705,-0.0359,0.8698,-6.12,7.79,-0.06,21.01
16926,0.2729,-0.0366,0.8732,-6.17,7.74,0.0,21.04
16936,0.269,-0.0356,0.8707,-6.14,7.79,-0.02,21.03
16946,0.2715,-0.0355,0.8694,-6.11,7.74,-0.08,21.02
16956,0.2717,-0.035,0.8734,-6.18,7.77,0.0,21.01
16966,0.2721,-0.0332,0.873,-6.11,7.8,-0.06,21.02
16976,0.2693,-0.0299,0.866,-6.15,7.82,-0.08,21.0
16986,0.2717,-0.0312,0.8704,-6.18,7.76,-0.02,21.02
16996,0.2711,-0.0319,0.87,-6.11,7.8,-0.02,21.0
17006,0.2693,-0.0294,0.8663,-6.15,7.79,-0.05,20.99
17016,0.2671,-0.0309,0.8734,-6.17,7.79,-0.03,21.01
17026,0.2676,-0.0311,0.8737,-6.14,7.71,-0.08,21.05
17036,0.2727,-0.031,0.8741,-6.18,7.76,0.0,21.01
17046,0.2734,-0.0289,0.8774,-6.18,7.82,-0.09,21.01
17056,0.2714,-0.032,0.8707,-6.21,7.77,-0.11,21.04
17066,0.2695,-0.0311,0.8726,-6.27,7.79,-0.08,21.04
17076,0.2703,-0.0342,0.8765,-6.21,7.82,0.03,21.03
17086,0.2697,-0.0369,0.8762,-6.14,7.82,-0.02,21.04
17096,0.2721,-0.0377,0.8746,-6.23,7.83,-0.02,21.03
17106,0.2708,-0.0365,0.875,-6.26,7.82,-0.03,21.01
17116,0.2722,-0.0333,0.8708,-6.11,7.79,-0.03,21.02
17126,0.2749,-0.0332,0.8744,-6.11,7.76,-0.06,20.99
17136,0.2706,-0.0319,0.8738,-6.18,7.77,-0.09,21.02
17146,0.2717,-0.0343,0.8734,-6.15,7.79,-0.08,21.02
17156,0.2699,-0.0332,0.8754,-6.09,7.68,-0.05,21.04
17166,0.2719,-0.0359,0.8757,-6.05,7.74,-0.03,21.02
17176,0.2717,-0.035,0.8719,-6.02,7.77,-0.09,21.04
17186,0.2699,-0.0355,0.8729,-6.09,7.73,-0.09,21.04
17196,0.2697,-0.0356,0.8744,-6.11,7.76,-0.06,21.03
17206,0.2733,-0.0352,0.8722,-6.08,7.74,-0.08,21.02
17216,0.2717,-0.0341,0.8756,-6.12,7.76,-0.09,21.02
17226,0.2722,-0.0344,0.873,-6.12,7.68,0.03,21.01
17236,0.2738,-0.0359,0.8716,-6.17,7.65,0.0,21.02
17246,0.2712,-0.0355,0.8699,-6.09,7.76,-0.03,21.05
17256,0.2733,-0.0353,0.8723,-6.12,7.68,0.0,21.02
17266,0.2743,-0.0348,0.8704,-6.12,7.77,-0.03,21.02
17277,0.2725,-0.0344,0.8704,-6.15,7.77,-0.06,21.02
17287,0.2729,-0.0334,0.8763,-6.17,7.82,-0.05,21.0
17297,0.2687,-0.0319,0.8729,-6.24,7.74,-0.05,21.01
17307,0.272,-0.0333,0.8757,-6.18,7.76,-0.06,21.01
17317,0.2725,-0.0358,0.8748,-6.17,7.83,-0.05,21.02
17328,0.2719,-0.0378,0.875,-6.09,7.8,-0.02,21.03
17338,0.2703,-0.0367,0.8723,-6.17,7.77,-0.05,21.04
17348,0.2705,-0.033,0.87,-6.21,7.77,-0.05,21.04
17358,0.2725,-0.035,0.8702,-6.12,7.77,-0.03,21.02
17368,0.2712,-0.0355,0.8682,-6.11,7.77,0.0,21.03
17378,0.2715,-0.0344,0.8693,-6.09,7.8,-0.06,21.04
17388,0.2728,-0.0326,0.8718,-6.08,7.74,-0.03,21.03
17398,0.2739,-0.0317,0.8735,-6.09,7.77,-0.02,21.02
17408,0.2709,-0.035,0.8735,-6.06,7.77,-0.06,21.0
17418,0.2688,-0.0311,0.8763,-6.03,7.79,-0.03,21.04
17428,0.2692,-0.0317,0.8716,-6.06,7.79,-0.03,21.04
17438,0.2676,-0.0321,0.8755,-6.09,7.77,-0.08,21.01
17449,0.2708,-0.0325,0.8721,-6.03,7.79,-0.05,21.02
17460,0.2686,-0.0298,0.8726,-6.09,7.82,0.02,21.03
17470,0.27,-0.0326,0.877,-6.09,7.8,-0.08,21.05
17480,0.2686,-0.03,0.871,-6.12,7.82,-0.06,21.04
17490,0.2704,-0.0342,0.8718,-6.09,7.74,0.0,21.04
17500,0.2693,-0.0308,0.8734,-6.03,7.74,-0.03,21.02
17510,0.2716,-0.0305,0.8704,-6.11,7.71,-0.03,21.02
17520,0.2708,-0.0308,0.8721,-6.23,7.73,-0.06,21.05
17530,0.2692,-0.0344,0.8713,-6.26,7.69,-0.11,21.04
17540,0.2747,-0.0302,0.8752,-6.23,7.73,0.02,21.05
17550,0.2749,-0.0323,0.8739,-6.26,7.76,-0.11,21.02
17560,0.2719,-0.0348,0.8755,-6.14,7.76,0.0,21.05
17570,0.2727,-0.0375,0.8762,-6.15,7.82,-0.03,21.06
17580,0.2732,-0.0369,0.8761,-6.2,7.79,-0.09,21.03
17590,0.2729,-0.0372,0.8734,-6.2,7.8,-0.06,21.03
17600,0.2721,-0.0385,0.8744,-6.14,7.73,-0.05,21.03
17610,0.2725,-0.0371,0.8743,-6.09,7.77,-0.09,21.03
17620,0.2715,-0.0344,0.8734,-6.21,7.79,-0.08,21.03
17630,0.2721,-0.0348,0.8689,-6.17,7.8,-0.14,21.04
17640,0.271,-0.0338,0.864,-6.18,7.74,-0.02,21.02
17650,0.2709,-0.0337,0.8683,-6.17,7.77,-0.11,21.04
17660,0.2749,-0.0333,0.8756,-6.11,7.82,-0.06,21.02
17670,0.2731,-0.0311,0.8702,-6.17,7.74,0.0,21.05
17680,0.2719,-0.0339,0.8726,-6.12,7.74,0.02,21.01
17690,0.2703,-0.0337,0.8756,-6.09,7.8,-0.08,21.02
17700,0.2701,-0.0293,0.8761,-6.12,7.77,-0.11,21.02
17710,0.2675,-0.0352,0.8691,-6.11,7.76,0.0,21.03
17720,0.2687,-0.0378,0.8748,-6.14,7.79,-0.14,21.02
17730,0.2703,-0.0331,0.8718,-6.06,7.77,-0.03,21.02
17740,0.2676,-0.0352,0.8713,-6.15,7.79,-0.11,21.0
17750,0.2711,-0.0349,0.8724,-6.11,7.71,-0.05,21.04
17760,0.2731,-0.0334,0.8706,-6.06,7.76,0.02,21.04
17770,0.2734,-0.0345,0.8738,-6.11,7.77,-0.05,21.04
17780,0.2728,-0.0353,0.8698,-6.14,7.62,-0.11,21.04
17790,0.2734,-0.0343,0.8699,-6.09,7.74,-0.05,21.03
17800,0.2717,-0.0356,0.8718,-6.12,7.74,-0.05,21.02
17810,0.2672,-0.0345,0.8732,-6.05,7.73,-0.03,21.03
17820,0.2715,-0.032,0.873,-6.11,7.8,-0.08,21.04
17830,0.2712,-0.0308,0.8792,-6.11,7.76,-0.08,21.02
17840,0.2717,-0.0369,0.8765,-6.11,7.79,-0.08,21.03
17850,0.2708,-0.0338,0.8719,-6.08,7.8,-0.03,21.07
17860,0.2721,-0.0323,0.8724,-6.08,7.82,0.0,21.05
17870,0.2708,-0.0332,0.8701,-6.08,7.82,-0.03,21.02
17880,0.2728,-0.0336,0.8721,-6.11,7.85,-0.08,21.05
17890,0.2721,-0.0309,0.8735,-6.17,7.74,-0.05,21.04
17900,0.2715,-0.0331,0.8715,-6.14,7.76,-0.02,21.04
17910,0.2714,-0.0316,0.8718,-6.18,7.82,-0.02,21.04
17920,0.271,-0.03,0.8733,-6.2,7.79,-0.06,21.05
17930,0.2716,-0.0345,0.8707,-6.21,7.71,-0.08,21.04
17940,0.2677,-0.0298,0.8708,-6.15,7.77,0.0,21.05
17950,0.2706,-0.0309,0.8728,-6.21,7.74,-0.14,21.06
17960,0.2672,-0.036,0.8732,-6.12,7.79,-0.09,21.06
17970,0.2709,-0.0332,0.8762,-6.12,7.71,0.0,21.04
17980,0.2723,-0.0363,0.875,-6.09,7.73,-0.08,21.02
17990,0.2694,-0.035,0.8785,-6.14,7.77,-0.06,21.03
18000,0.2693,-0.0353,0.8699,-6.12,7.77,-0.09,21.04
18010,0.2722,-0.0338,0.8751,-6.06,7.76,-0.06,21.06
18020,0.2701,-0.0336,0.8737,-6.03,7.8,-0.08,21.04
18030,0.2701,-0.0347,0.8708,-6.08,7.79,-0.06,21.06
18040,0.2729,-0.0326,0.8737,-6.09,7.85,-0.11,21.02
18050,0.2719,-0.0338,0.8724,-6.11,7.8,-0.12,21.05
18060,0.2714,-0.0312,0.876,-6.14,7.74,-0.17,21.04
18070,0.271,-0.0334,0.8746,-6.15,7.89,-0.06,21.04
18080,0.2715,-0.0299,0.8682,-6.12,7.82,-0.05,21.05
18090,0.2688,-0.0356,0.877,-6.12,7.91,0.02,21.05
18100,0.2711,-0.0358,0.8705,-6.12,7.86,-0.06,21.04
18110,0.2677,-0.0386,0.8787,-6.17,7.76,-0.09,21.06
18120,0.2686,-0.0343,0.8823,-6.09,7.85,-0.06,21.05
18130,0.274,-0.0374,0.8776,-6.12,7.83,0.0,21.04
18140,0.2743,-0.0417,0.8682,-6.18,7.8,-0.02,21.04
18150,0.2748,-0.0424,0.8666,-6.17,7.74,-0.03,21.03
18160,0.2721,-0.0388,0.8715,-6.08,7.71,-0.06,21.07
18170,0.2716,-0.0344,0.8715,-6.02,7.82,-0.05,21.06
18180,0.2744,-0.0359,0.8608,-6.02,7.65,-0.05,21.04
18190,0.2773,-0.0297,0.8701,-6.03,7.68,-0.03,21.03
18200,0.2703,-0.0266,0.8748,-5.94,7.79,-0.09,21.06
18210,0.2771,-0.0267,0.8759,-6.0,7.66,-0.05,21.05
18220,0.2703,-0.0288,0.8782,-6.14,7.86,-0.09,21.02
18230,0.266,-0.0251,0.8805,-6.17,7.77,-0.09,21.03
18240,0.2677,-0.0303,0.881,-6.24,7.76,-0.06,21.05
18250,0.2666,-0.0354,0.8666,-6.27,7.76,-0.05,21.05
18260,0.2722,-0.0334,0.8661,-6.18,7.54,0.02,21.04
18270,0.2683,-0.0364,0.8719,-6.09,7.69,-0.06,21.05
18280,0.274,-0.0348,0.8737,-6.12,7.76,-0.05,21.07
18290,0.276,-0.0354,0.8751,-6.12,7.77,-0.02,21.04
18300,0.2755,-0.0283,0.8773,-6.05,7.79,-0.05,21.06
18310,0.2692,-0.0269,0.8763,-6.15,7.79,-0.03,21.04
18320,0.266,-0.0273,0.8672,-6.27,7.76,-0.08,21.04
18330,0.2656,-0.0278,0.8635,-6.34,7.77,-0.14,21.04
18340,0.2689,-0.0292,0.8667,-6.27,7.68,-0.08,21.05
18350,0.2701,-0.0352,0.8651,-6.11,7.73,-0.09,21.04
18360,0.2684,-0.0399,0.8711,-6.17,7.69,-0.11,21.05
18370,0.2727,-0.0371,0.8785,-6.03,7.85,-0.09,21.04
18380,0.2747,-0.0378,0.873,-6.09,7.76,-0.03,21.05
18390,0.2721,-0.0372,0.8796,-6.06,7.73,-0.02,21.03
18400,0.2733,-0.0336,0.8782,-6.17,7.86,-0.05,21.05
18410,0.269,-0.0289,0.8745,-6.15,7.8,-0.02,21.04
18420,0.2711,-0.0306,0.8695,-6.23,7.74,-0.06,21.04
18430,0.2714,-0.0365,0.8721,-6.14,7.8,-0.12,21.03
18440,0.2726,-0.0381,0.8677,-6.11,7.8,-0.12,21.07
18450,0.2721,-0.0393,0.8748,-6.14,7.88,-0.09,21.05
18460,0.2709,-0.0426,0.8749,-6.05,7.8,-0.11,21.05
18470,0.2728,-0.0366,0.8744,-6.03,7.79,-0.14,21.04
18480,0.2715,-0.0328,0.8705,-6.02,7.77,-0.05,21.04
18490,0.2731,-0.0299,0.875,-6.05,7.74,-0.08,21.07
18500,0.2725,-0.0308,0.8756,-6.08,7.77,0.0,21.05
18510,0.2712,-0.0293,0.8743,-6.05,7.8,-0.11,21.06
18520,0.2729,-0.0319,0.875,-6.14,7.82,-0.06,21.06
18530,0.2684,-0.0338,0.8763,-6.11,7.76,0.0,21.05
18540,0.2721,-0.0349,0.8754,-6.11,7.8,-0.11,21.07
18550,0.2721,-0.0376,0.8745,-6.12,7.77,-0.05,21.06
18560,0.2703,-0.0371,0.8734,-6.09,7.73,-0.08,21.07
18570,0.2716,-0.0397,0.875,-6.09,7.76,0.0,21.07
18580,0.2725,-0.0365,0.8715,-6.15,7.68,-0.03,21.04
18590,0.2733,-0.0328,0.8778,-6.0,7.8,-0.06,21.07
18600,0.2698,-0.0316,0.8719,-6.06,7.8,-0.05,21.05
18610,0.2697,-0.0306,0.8726,-6.09,7.79,-0.12,21.08
18620,0.2711,-0.03,0.8712,-6.05,7.8,-0.11,21.06
18630,0.2693,-0.0312,0.8743,-6.05,7.74,-0.02,21.07
18640,0.2698,-0.0289,0.87,-6.08,7.74,-0.08,21.09
18650,0.2719,-0.0326,0.865,-6.12,7.71,-0.03,21.04
18660,0.2739,-0.0294,0.8691,-6.18,7.74,-0.09,21.06
18670,0.2738,-0.0308,0.8691,-6.08,7.74,-0.08,21.04
18680,0.272,-0.0317,0.8721,-6.08,7.74,-0.03,21.03
18690,0.2695,-0.0333,0.8707,-6.08,7.68,-0.11,21.06
18700,0.2697,-0.0338,0.8761,-6.08,7.76,-0.05,21.07
18710,0.2686,-0.0305,0.8761,-6.09,7.82,-0.05,21.06
18720,0.2699,-0.0336,0.8723,-6.06,7.76,-0.06,21.07
18730,0.2683,-0.0321,0.8728,-6.06,7.74,-0.08,21.05
18740,0.2688,-0.0325,0.873,-6.14,7.79,-0.15,21.04
18750,0.2672,-0.0312,0.8698,-6.06,7.71,-0.02,21.07
18760,0.2693,-0.0311,0.8713,-6.17,7.74,-0.12,21.08
18770,0.2711,-0.0321,0.8717,-6.2,7.71,-0.08,21.07
18780,0.2714,-0.032,0.8698,-6.14,7.74,-0.03,21.09
18790,0.2701,-0.0339,0.8759,-6.2,7.76,-0.12,21.09
18800,0.2723,-0.0348,0.8735,-6.21,7.79,-0.06,21.06
18810,0.2739,-0.0348,0.8766,-6.15,7.71,-0.02,21.05
18820,0.2688,-0.036,0.8744,-6.15,7.74,-0.05,21.06
18830,0.2679,-0.0352,0.8765,-6.08,7.83,-0.06,21.08
18840,0.2709,-0.0364,0.8722,-6.15,7.79,0.0,21.09
18850,0.2732,-0.0325,0.8752,-6.23,7.79,-0.06,21.07
18860,0.2717,-0.0352,0.8719,-6.14,7.77,-0.08,21.07
18870,0.2689,-0.0343,0.8752,-6.17,7.79,0.0,21.07
18880,0.2699,-0.0336,0.8711,-6.15,7.71,-0.11,21.06
18890,0.2721,-0.0322,0.8724,-6.03,7.79,-0.06,21.06
18900,0.2719,-0.0344,0.8728,-6.08,7.83,-0.06,21.08
18910,0.2709,-0.0344,0.8732,-6.14,7.69,-0.05,21.06
18920,0.2734,-0.03,0.8748,-6.06,7.73,0.02,21.05
18930,0.2731,-0.032,0.8739,-6.12,7.76,-0.03,21.08
18940,0.2732,-0.0308,0.8788,-6.12,7.82,-0.03,21.06
18950,0.2762,-0.0331,0.8728,-6.2,7.74,-0.09,21.06
18960,0.2742,-0.0327,0.8738,-6.2,7.74,-0.06,21.07
18970,0.2703,-0.0309,0.8743,-6.15,7.77,-0.02,21.09
18980,0.2712,-0.033,0.8728,-6.2,7.73,-0.05,21.07
18990,0.2721,-0.033,0.8728,-6.12,7.79,-0.11,21.09
19000,0.2742,-0.0333,0.8677,-6.06,7.76,-0.09,21.08
19010,0.2722,-0.0344,0.8728,-6.17,7.69,-0.06,21.07
19020,0.2706,-0.0333,0.8687,-6.08,7.71,-0.06,21.08
19030,0.2656,-0.0325,0.8721,-6.18,7.77,-0.09,21.06
19040,0.2678,-0.0299,0.8687,-6.14,7.79,-0.02,21.07
19050,0.2716,-0.0344,0.8743,-6.14,7.76,-0.03,21.07
19060,0.2714,-0.0332,0.875,-6.15,7.74,-0.08,21.07
19070,0.2725,-0.0323,0.8737,-6.15,7.8,-0.09,21.06
19080,0.269,-0.0364,0.8761,-6.11,7.77,-0.09,21.05
19090,0.2729,-0.0355,0.8783,-6.08,7.77,-0.02,21.07
19100,0.2717,-0.0287,0.8724,-6.14,7.65,-0.08,21.05
19110,0.2679,-0.0332,0.8721,-6.05,7.8,-0.09,21.08
19120,0.2701,-0.0366,0.8671,-6.12,7.71,-0.09,21.04
19130,0.2694,-0.035,0.8699,-6.08,7.83,-0.06,21.07
19140,0.2695,-0.036,0.8667,-6.08,7.68,-0.05,21.05
19150,0.2745,-0.0341,0.8665,-6.15,7.63,-0.05,21.07
19160,0.2676,-0.0338,0.8778,-6.09,7.91,-0.06,21.08
19170,0.2727,-0.0354,0.8689,-6.11,7.76,0.02,21.07
19180,0.2668,-0.0359,0.8732,-6.14,7.89,-0.06,21.08
19190,0.2744,-0.0317,0.8693,-6.17,7.57,0.03,21.05
19200,0.27,-0.0278,0.8759,-6.05,7.8,-0.02,21.05
19210,0.2747,-0.0289,0.8754,-6.21,7.79,-0.02,21.06
19220,0.2736,-0.0323,0.8761,-6.05,7.83,-0.08,21.07
19230,0.2732,-0.0319,0.8807,-6.15,7.8,-0.09,21.07
19240,0.2697,-0.0306,0.8785,-6.14,7.85,-0.15,21.08
19250,0.2738,-0.0328,0.8761,-6.24,7.82,-0.02,21.08
19260,0.2717,-0.0305,0.8744,-6.12,7.77,-0.08,21.09
19270,0.2703,-0.0305,0.8679,-6.12,7.82,-0.08,21.08
19280,0.2703,-0.0297,0.8745,-6.17,7.76,-0.08,21.05
19290,0.2681,-0.0333,0.874,-6.12,7.79,-0.03,21.07
19300,0.2697,-0.0341,0.8707,-6.14,7.82,-0.08,21.06
19310,0.2715,-0.0348,0.8724,-6.15,7.74,-0.08,21.06
19320,0.2679,-0.0377,0.8735,-6.09,7.73,-0.05,21.07
19330,0.2679,-0.0383,0.8763,-6.18,7.73,-0.02,21.08
19341,0.2689,-0.0333,0.8771,-6.12,7.76,0.0,21.07
19351,0.2677,-0.0377,0.8704,-6.11,7.73,0.0,21.06
19361,0.2698,-0.0363,0.8706,-6.05,7.73,0.0,21.05
19371,0.2694,-0.0341,0.8699,-6.14,7.77,0.03,21.08
19381,0.2731,-0.0369,0.8729,-6.08,7.8,-0.09,21.07
19391,0.2695,-0.035,0.8743,-6.12,7.82,-0.14,21.09
19423,0.2683,-0.0333,0.8738,-6.18,7.8,0.08,21.06
19434,0.2693,-0.0297,0.8745,-6.17,7.8,-0.12,21.07
19444,0.2659,-0.0347,0.87,-6.08,7.79,-0.31,21.07
19454,0.2778,-0.0314,0.8729,-6.11,7.56,-0.4,21.09
19464,0.2754,-0.0377,0.8668,-6.08,7.8,-0.38,21.09
19474,0.2727,-0.0422,0.863,-6.21,7.47,-0.34,21.06
19484,0.2749,-0.0337,0.8766,-6.21,7.82,-0.12,21.07
19494,0.2717,-0.0354,0.8701,-6.21,7.82,-0.18,21.07
19504,0.2738,-0.0369,0.8778,-6.12,7.59,0.12,21.07
19514,0.2737,-0.0319,0.8792,-6.24,7.85,0.29,21.06
19524,0.271,-0.0325,0.8701,-6.15,7.71,0.35,21.07
19534,0.2765,-0.0361,0.8795,-6.15,7.69,0.17,21.06
19544,0.2682,-0.0383,0.8679,-6.12,7.88,0.0,21.07
19554,0.2699,-0.0381,0.8651,-6.17,7.73,-0.34,21.07
19564,0.2745,-0.0323,0.8707,-6.09,7.82,-0.41,21.07
19574,0.2698,-0.0361,0.8622,-6.12,7.77,-0.38,21.07
19584,0.271,-0.0352,0.8719,-6.09,7.73,-0.26,21.07
19594,0.2736,-0.0323,0.876,-6.11,7.8,-0.12,21.08
19604,0.2686,-0.0315,0.8723,-6.11,7.73,0.03,21.07
19614,0.2709,-0.0342,0.8767,-6.09,7.77,0.26,21.07
19624,0.2712,-0.0343,0.8774,-6.15,7.82,0.27,21.09
19634,0.2686,-0.0363,0.8781,-6.15,7.77,0.26,21.06
19644,0.2698,-0.0315,0.8773,-6.12,7.83,0.26,21.08
19654,0.2715,-0.0345,0.875,-6.12,7.86,0.09,21.06
19664,0.2728,-0.031,0.8722,-6.12,7.86,0.0,21.08
19674,0.2732,-0.0333,0.8665,-6.06,7.86,0.05,21.09
19684,0.2754,-0.0314,0.8707,-6.11,7.85,-0.38,21.07
19694,0.2731,-0.0304,0.8711,-6.12,7.82,-0.37,21.04
19704,0.2716,-0.0298,0.8696,-6.06,7.71,-0.32,21.08
19714,0.2733,-0.0312,0.8743,-6.21,7.76,-0.24,21.07
19724,0.2675,-0.0341,0.8752,-6.17,7.79,-0.38,21.08
19734,0.2664,-0.0311,0.8739,-6.21,7.68,-0.15,21.08
19744,0.2699,-0.0364,0.8737,-6.12,7.8,-0.08,21.1
19754,0.2736,-0.0383,0.8655,-6.08,7.74,0.15,21.07
19764,0.2775,-0.038,0.877,-6.18,7.74,0.17,21.07
19774,0.2744,-0.0377,0.8702,-6.17,7.8,0.29,21.05
19784,0.2709,-0.035,0.8688,-6.06,7.71,0.26,21.05
19794,0.2667,-0.0305,0.8698,-6.09,7.83,0.24,21.07
19804,0.2646,-0.033,0.8641,-6.11,7.82,0.12,21.07
19814,0.2675,-0.032,0.8665,-6.21,7.66,0.15,21.09
19824,0.27,-0.0334,0.8704,-6.24,7.79,-0.14,21.08
19834,0.2682,-0.0348,0.8669,-6.02,7.71,-0.23,21.07
19844,0.2719,-0.0323,0.8702,-6.17,7.73,-0.38,21.06
19854,0.2694,-0.0356,0.873,-6.21,7.69,-0.4,21.08
19864,0.272,-0.0338,0.8739,-6.09,7.66,-0.38,21.09
19874,0.2716,-0.0325,0.8777,-6.15,7.65,-0.4,21.09
19884,0.2712,-0.0302,0.8833,-6.17,7.69,-0.14,21.07
19894,0.2727,-0.0308,0.8859,-6.18,7.65,-0.05,21.1
19904,0.2788,-0.0338,0.8805,-6.27,7.71,0.06,21.06
19914,0.2791,-0.0314,0.8818,-6.35,7.74,-0.05,21.07
19924,0.2819,-0.0388,0.8813,-6.35,7.73,0.26,21.06
19934,0.2778,-0.0391,0.8789,-6.23,7.74,0.23,21.08
19944,0.2778,-0.0419,0.88,-6.18,7.85,0.24,21.09
19954,0.2756,-0.042,0.8776,-6.03,7.92,0.18,21.07
19964,0.2745,-0.0435,0.8788,-6.06,7.86,0.12,21.11
19974,0.2728,-0.0409,0.8749,-5.92,7.76,-0.12,21.09
19984,0.2699,-0.0383,0.874,-6.03,7.82,-0.08,21.07
19994,0.2684,-0.0358,0.8678,-6.08,7.79,-0.32,21.07
20004,0.264,-0.0353,0.8654,-6.11,7.85,-0.32,21.07
20014,0.2666,-0.0343,0.8617,-6.14,7.8,-0.37,21.06
20024,0.2667,-0.0333,0.8616,-6.08,7.77,-0.31,21.08
20034,0.2666,-0.0355,0.8599,-6.05,7.83,-0.32,21.09
20044,0.2656,-0.0366,0.861,-6.09,7.82,-0.2,21.09
20054,0.272,-0.0332,0.8684,-6.03,7.74,-0.02,21.1
20064,0.2675,-0.0323,0.8669,-6.09,7.82,0.24,21.08
20074,0.2715,-0.0298,0.8684,-6.08,7.77,0.29,21.06
20084,0.2698,-0.0281,0.8723,-6.12,7.83,0.32,21.06
20094,0.267,-0.0278,0.8743,-6.17,7.79,0.21,21.07
20104,0.2709,-0.0306,0.8757,-6.21,7.88,0.15,21.07
20114,0.2719,-0.0339,0.8665,-6.27,7.63,-0.02,21.07
20124,0.2734,-0.0375,0.8728,-6.18,7.79,-0.18,21.07
20134,0.2694,-0.0403,0.8712,-6.18,7.79,-0.23,21.07
20144,0.271,-0.0377,0.8798,-6.06,7.74,-0.35,21.1
20154,0.276,-0.0369,0.8746,-6.11,7.71,-0.38,21.07
20164,0.2758,-0.0348,0.8782,-6.03,7.85,-0.43,21.1
20174,0.2743,-0.0327,0.8793,-6.03,7.74,-0.24,21.07
20184,0.272,-0.0347,0.8776,-6.17,7.76,-0.2,21.07
20194,0.269,-0.0325,0.8809,-6.05,7.8,0.02,21.08
20205,0.2684,-0.0323,0.8795,-6.12,7.77,-0.14,21.07
20215,0.2681,-0.0332,0.8813,-6.12,7.77,0.06,21.08
20226,0.2712,-0.0336,0.8745,-6.09,7.76,-0.2,21.08
20236,0.2755,-0.0321,0.8729,-6.03,7.73,0.26,21.09
20246,0.2739,-0.0333,0.8755,-6.08,7.66,0.23,21.09
20256,0.2771,-0.0316,0.8744,-6.08,7.77,0.23,21.08
20266,0.2729,-0.0314,0.8726,-6.14,7.69,0.11,21.09
20276,0.2721,-0.0331,0.8767,-6.12,7.68,0.23,21.05
20287,0.2719,-0.0316,0.8706,-6.26,7.71,0.21,21.07
20297,0.2708,-0.0365,0.8723,-6.2,7.74,0.08,21.06
20307,0.2715,-0.0378,0.8719,-6.08,7.76,-0.23,21.08
20317,0.2676,-0.0376,0.8689,-6.17,7.73,-0.31,21.09
20327,0.2703,-0.0372,0.8695,-6.14,7.69,-0.37,21.09
20337,0.2688,-0.037,0.8694,-6.17,7.86,-0.31,21.09
20347,0.271,-0.0372,0.8665,-6.2,7.69,-0.4,21.09
20357,0.2729,-0.0369,0.8663,-6.18,7.8,-0.14,21.09
20367,0.2706,-0.0371,0.868,-6.21,7.8,-0.03,21.08
20377,0.2693,-0.0354,0.8683,-6.17,7.74,-0.14,21.1
20387,0.27,-0.0353,0.871,-6.15,7.86,-0.17,21.09
20397,0.2698,-0.0365,0.8707,-6.15,7.79,0.06,21.1
20407,0.2731,-0.0356,0.8743,-6.11,7.79,0.08,21.09
20418,0.2711,-0.0375,0.8704,-6.11,7.77,0.2,21.08
20428,0.2651,-0.0363,0.8708,-6.2,7.74,0.2,21.08
20438,0.2705,-0.0348,0.8696,-6.14,7.8,0.24,21.08
20448,0.2711,-0.0297,0.8658,-6.23,7.82,0.26,21.09
20458,0.272,-0.0321,0.8691,-6.15,7.69,0.26,21.09
20468,0.2704,-0.0314,0.8716,-6.2,7.71,0.12,21.1
20478,0.2703,-0.0354,0.8695,-6.18,7.73,-0.09,21.09
20488,0.2737,-0.0372,0.8768,-6.26,7.74,-0.24,21.08
20498,0.2725,-0.0328,0.8734,-6.18,7.77,-0.43,21.07
20508,0.2719,-0.0349,0.8733,-6.14,7.69,-0.32,21.09
20518,0.2759,-0.0322,0.8734,-6.18,7.71,-0.4,21.09
20528,0.2734,-0.0342,0.8744,-6.09,7.63,-0.18,21.1
20538,0.2712,-0.0305,0.8817,-6.05,7.74,-0.17,21.09
20548,0.2704,-0.0317,0.8838,-6.15,7.79,0.02,21.06
20558,0.2705,-0.0282,0.8811,-6.11,7.73,0.08,21.09
20568,0.2728,-0.0308,0.8835,-6.2,7.66,0.21,21.08
20578,0.2721,-0.0304,0.8757,-6.17,7.66,0.17,21.1
20588,0.2673,-0.0299,0.8743,-6.24,7.68,0.27,21.09
20598,0.276,-0.0322,0.8768,-6.21,7.69,0.14,21.09
20608,0.2723,-0.0365,0.8821,-6.18,7.65,0.24,21.08
20618,0.2756,-0.037,0.879,-6.05,7.6,-0.06,21.08
20628,0.2727,-0.0355,0.8832,-6.15,7.76,-0.09,21.04
20638,0.2791,-0.0356,0.8788,-6.11,7.65,-0.32,21.06
20648,0.2748,-0.0355,0.8813,-6.08,7.62,-0.4,21.1
20658,0.2765,-0.0317,0.8724,-6.12,7.71,-0.43,21.09
20668,0.2736,-0.0337,0.8661,-6.03,7.74,-0.29,21.11
20678,0.2708,-0.0347,0.8639,-6.23,7.8,-0.34,21.09
20688,0.2694,-0.0385,0.8617,-6.11,7.74,-0.09,21.09
20698,0.2711,-0.0399,0.8613,-6.14,7.76,0.02,21.08
20708,0.2728,-0.0361,0.8619,-6.09,7.74,0.09,21.08
20718,0.2682,-0.0361,0.8621,-6.12,7.77,0.24,21.11
20728,0.2689,-0.0359,0.8623,-6.18,7.86,0.24,21.09
20738,0.2677,-0.0343,0.8611,-6.18,7.89,0.24,21.09
20748,0.2677,-0.033,0.8671,-6.12,7.82,0.14,21.11
20758,0.2667,-0.0291,0.8661,-6.18,7.79,-0.06,21.09
20768,0.2657,-0.0328,0.866,-6.21,7.89,-0.18,21.09
20778,0.2682,-0.0341,0.8698,-6.2,7.89,-0.29,21.11
20788,0.2693,-0.0344,0.8704,-6.21,7.74,-0.35,21.09
20798,0.271,-0.0367,0.8685,-6.21,7.79,-0.27,21.07
20808,0.2701,-0.04,0.8698,-6.2,7.82,-0.26,21.1
20818,0.2722,-0.0374,0.8755,-6.21,7.91,-0.15,21.09
20828,0.2762,-0.0364,0.8782,-6.09,7.89,-0.09,21.1
20838,0.2725,-0.0366,0.8792,-6.27,7.82,-0.08,21.1
20848,0.2751,-0.0345,0.88,-6.21,7.77,0.08,21.1
20858,0.2766,-0.0396,0.8809,-6.23,7.76,0.24,21.1
20868,0.2754,-0.037,0.8813,-6.06,7.73,0.21,21.1
20878,0.274,-0.0372,0.8818,-6.11,7.83,0.27,21.1
20888,0.2766,-0.0371,0.8828,-6.08,7.74,0.15,21.09
20898,0.2744,-0.0404,0.8798,-6.08,7.77,0.12,21.1
20908,0.2742,-0.0375,0.8772,-6.06,7.74,-0.18,21.1
20918,0.2714,-0.0321,0.8763,-6.0,7.74,-0.21,21.11
20928,0.2688,-0.036,0.8788,-5.98,7.79,-0.46,21.09
20938,0.2706,-0.0302,0.8743,-6.09,7.82,-0.43,21.1
20948,0.27,-0.0353,0.8752,-6.02,7.77,-0.35,21.11
20958,0.2714,-0.0321,0.873,-6.02,7.8,-0.41,21.11
20968,0.274,-0.0323,0.8724,-6.0,7.76,-0.12,21.1
20978,0.2701,-0.0336,0.8727,-6.02,7.69,-0.2,21.09
20988,0.2698,-0.0305,0.8662,-6.08,7.77,-0.08,21.09
20998,0.2737,-0.0367,0.8662,-6.03,7.74,0.06,21.09
21008,0.2766,-0.0339,0.8638,-6.14,7.69,0.24,21.12
21018,0.2709,-0.0344,0.8661,-6.18,7.74,0.27,21.1
21028,0.269,-0.0354,0.8668,-6.14,7.73,0.24,21.1
21038,0.2678,-0.0387,0.8691,-6.12,7.69,0.12,21.08
21048,0.2657,-0.0334,0.8636,-6.12,7.8,0.08,21.09
21058,0.2668,-0.0325,0.8635,-6.05,7.71,-0.06,21.12
21068,0.2716,-0.0312,0.8647,-6.11,7.74,-0.09,21.08
21078,0.2688,-0.0297,0.8657,-6.11,7.76,-0.29,21.1
21088,0.2704,-0.0332,0.8696,-6.06,7.71,-0.29,21.11
21098,0.2667,-0.0288,0.87,-6.2,7.73,-0.38,21.1
21108,0.272,-0.0308,0.8771,-6.23,7.79,-0.27,21.12
21118,0.27,-0.031,0.8727,-6.32,7.85,-0.24,21.09
21128,0.2725,-0.0316,0.8767,-6.27,7.79,-0.06,21.11
21138,0.2689,-0.0337,0.881,-6.24,7.89,0.05,21.11
21148,0.2722,-0.0375,0.8737,-6.26,7.77,0.18,21.08
21158,0.2744,-0.0378,0.8773,-6.2,7.77,0.26,21.09
21168,0.2727,-0.0356,0.8765,-6.2,7.79,0.29,21.11
21178,0.2792,-0.0369,0.8788,-6.23,7.71,0.23,21.1
21188,0.2811,-0.036,0.8789,-6.14,7.76,0.15,21.09
21198,0.2781,-0.0365,0.8805,-6.12,7.8,0.0,21.11
21208,0.2754,-0.0388,0.8817,-6.05,7.77,-0.21,21.1
21218,0.2765,-0.0366,0.8741,-6.02,7.86,-0.37,21.1
21228,0.2722,-0.036,0.871,-6.03,7.85,-0.43,21.1
21238,0.271,-0.0376,0.8698,-6.12,7.8,-0.43,21.11
21248,0.2684,-0.0348,0.8707,-6.09,7.85,-0.41,21.09
21258,0.267,-0.0348,0.8711,-6.05,7.79,-0.31,21.06
21268,0.2656,-0.0333,0.8665,-6.08,7.83,-0.18,21.09
21278,0.2686,-0.0356,0.8632,-6.05,7.85,0.0,21.11
21288,0.2655,-0.0326,0.8636,-6.03,7.91,0.03,21.12
21298,0.2734,-0.0319,0.866,-6.24,7.82,0.32,21.08
21308,0.2667,-0.0333,0.8566,-6.08,7.82,0.12,21.07
21318,0.2683,-0.0293,0.8567,-6.14,7.73,0.29,21.09
21328,0.2694,-0.0294,0.8608,-6.27,7.71,0.14,21.09
21338,0.2676,-0.0337,0.8623,-6.18,7.73,0.17,21.08
21348,0.2677,-0.0331,0.8683,-6.2,7.71,-0.12,21.08
21358,0.2656,-0.0315,0.8702,-6.24,7.71,-0.08,21.09
21368,0.2688,-0.0348,0.8748,-6.21,7.66,-0.32,21.08
21378,0.2726,-0.0315,0.8713,-6.37,7.68,-0.29,21.11
21388,0.2703,-0.0314,0.8756,-6.37,7.63,-0.31,21.1
21398,0.2708,-0.0354,0.8755,-6.26,7.66,-0.17,21.09
21408,0.2692,-0.0325,0.8766,-6.32,7.77,-0.11,21.1
21418,0.271,-0.0359,0.8776,-6.4,7.69,0.03,21.1
21428,0.2706,-0.036,0.8737,-6.35,7.59,0.2,21.12
21438,0.269,-0.0325,0.8735,-6.38,7.57,0.4,21.09
21448,0.2683,-0.0303,0.8689,-6.35,7.57,0.37,21.11
21458,0.2683,-0.0232,0.8676,-6.46,7.56,0.32,21.09
21468,0.2681,-0.0277,0.8673,-6.44,7.51,0.32,21.09
21478,0.269,-0.0262,0.8752,-6.37,7.57,0.18,21.07
21488,0.2687,-0.0254,0.8777,-6.41,7.45,0.06,21.08
21498,0.2717,-0.0334,0.8799,-6.4,7.45,-0.03,21.09
21508,0.2747,-0.0369,0.8878,-6.4,7.42,-0.31,21.11
21518,0.2804,-0.0341,0.8961,-6.38,7.45,-0.4,21.1
21528,0.2878,-0.0377,0.9038,-6.18,7.44,-0.4,21.09
21538,0.2876,-0.0389,0.9047,-6.12,7.62,-0.47,21.09
21548,0.2914,-0.046,0.903,-6.03,7.65,-0.24,21.09
21558,0.2882,-0.042,0.8955,-5.94,7.74,-0.41,21.09
21568,0.2842,-0.0452,0.8788,-5.97,7.85,0.05,21.08
21578,0.2738,-0.0498,0.8729,-5.95,7.86,0.08,21.1
21588,0.2734,-0.0496,0.8668,-6.0,7.76,0.17,21.1
21598,0.2756,-0.0466,0.8665,-6.08,7.74,0.03,21.09
21608,0.2744,-0.0459,0.8586,-6.05,7.76,0.08,21.1
21618,0.2727,-0.0505,0.8507,-6.03,7.89,0.02,21.11
21628,0.2699,-0.0452,0.8458,-5.86,7.82,-0.08,21.1
21638,0.2635,-0.0465,0.8435,-5.79,7.97,-0.44,21.1
21648,0.2628,-0.0415,0.8424,-5.74,7.97,-0.23,21.11
21658,0.2606,-0.0383,0.8455,-5.62,7.94,-0.32,21.11
21668,0.2599,-0.0308,0.8529,-5.79,7.91,-0.24,21.09
21678,0.2578,-0.0245,0.8641,-5.89,7.97,-0.4,21.09
21688,0.2557,-0.0209,0.8666,-6.26,7.94,-0.29,21.1
21698,0.2559,-0.0179,0.8683,-6.23,7.98,-0.2,21.09
21708,0.2611,-0.0198,0.8729,-6.35,8.05,0.02,21.11
21718,0.2616,-0.0295,0.8708,-6.35,8.05,0.17,21.08
21728,0.2673,-0.0398,0.8691,-6.5,8.0,0.24,21.1
21738,0.2661,-0.0447,0.8662,-6.49,8.03,0.38,21.12
21748,0.2719,-0.0404,0.8715,-6.41,8.0,0.41,21.11
21758,0.2749,-0.042,0.8784,-6.37,7.91,0.43,21.1
21768,0.2776,-0.0447,0.8794,-6.31,7.85,0.31,21.13
21778,0.2802,-0.0374,0.8807,-6.34,7.85,0.12,21.14
21788,0.2803,-0.0372,0.8784,-6.15,7.83,-0.05,21.12
21798,0.2804,-0.0364,0.8884,-6.08,7.85,-0.2,21.14
21808,0.2806,-0.0327,0.8889,-5.98,7.89,-0.37,21.12
21818,0.2803,-0.0321,0.8865,-5.94,7.77,-0.37,21.1
21828,0.2806,-0.0328,0.8892,-6.0,7.74,-0.44,21.1
21838,0.2797,-0.0344,0.8938,-5.92,7.8,-0.26,21.13
21848,0.2804,-0.0303,0.8923,-5.86,7.83,-0.18,21.11
21858,0.2751,-0.027,0.8934,-5.95,7.77,0.02,21.12
21868,0.2734,-0.0275,0.8773,-5.95,7.76,0.02,21.11
21878,0.2701,-0.0248,0.875,-6.02,7.76,0.18,21.1
21888,0.2704,-0.0297,0.8694,-5.97,7.77,0.14,21.1
21898,0.2676,-0.0299,0.8646,-6.05,7.77,0.2,21.11
21908,0.2657,-0.0332,0.864,-5.98,7.73,0.0,21.13
21918,0.2644,-0.0337,0.8645,-5.94,7.76,0.12,21.12
21928,0.2651,-0.0342,0.8639,-5.92,7.66,-0.27,21.11
21938,0.2635,-0.0317,0.8625,-5.92,7.77,-0.27,21.12
21948,0.2657,-0.0325,0.8575,-5.91,7.76,-0.37,21.11
21958,0.2632,-0.0305,0.8547,-6.02,7.79,-0.41,21.11
21968,0.2643,-0.0281,0.8558,-6.09,7.6,-0.44,21.1
21978,0.2639,-0.0277,0.8597,-6.05,7.66,-0.35,21.11
21988,0.2687,-0.0281,0.8613,-6.2,7.63,-0.27,21.1
21998,0.2689,-0.0314,0.8676,-6.24,7.68,-0.11,21.1
22008,0.2678,-0.033,0.8625,-6.24,7.66,0.06,21.11
22018,0.2664,-0.0342,0.8678,-6.46,7.74,0.24,21.13
22028,0.27,-0.0326,0.8674,-6.29,7.68,0.26,21.1
22038,0.2664,-0.0348,0.8706,-6.43,7.76,0.29,21.14
22048,0.2678,-0.0355,0.8716,-6.44,7.77,0.29,21.1
22058,0.2672,-0.0372,0.8718,-6.43,7.76,0.09,21.13
22068,0.2683,-0.0353,0.8773,-6.37,7.73,0.03,21.13
22078,0.2698,-0.0371,0.8798,-6.41,7.73,-0.23,21.1
22088,0.2708,-0.0376,0.8785,-6.41,7.71,-0.17,21.12
22098,0.2715,-0.0371,0.8765,-6.34,7.74,-0.24,21.12
22108,0.2745,-0.0414,0.881,-6.24,7.73,-0.26,21.12
22118,0.2767,-0.0392,0.8804,-6.23,7.69,-0.2,21.09
22128,0.2792,-0.0355,0.879,-6.27,7.62,-0.06,21.11
22139,0.2803,-0.0354,0.8807,-6.29,7.73,-0.2,21.13
22149,0.2791,-0.0355,0.8824,-6.14,7.66,-0.05,21.12
22159,0.2764,-0.0338,0.8815,-6.15,7.73,0.02,21.11
22170,0.2764,-0.037,0.8817,-6.0,7.68,-0.15,21.11
22180,0.2773,-0.0389,0.8788,-6.11,7.74,0.02,21.13
22190,0.2745,-0.0398,0.8787,-6.03,7.66,0.14,21.11
22200,0.278,-0.0435,0.8795,-6.03,7.66,0.14,21.11
22210,0.2787,-0.042,0.8749,-6.0,7.76,0.2,21.09
22220,0.2733,-0.0414,0.879,-5.97,7.76,0.06,21.1
22230,0.2739,-0.0409,0.8739,-5.83,7.8,0.14,21.09
22240,0.2733,-0.0424,0.875,-5.85,7.83,-0.24,21.1
22250,0.2715,-0.0392,0.8704,-5.79,7.77,-0.09,21.11
22260,0.2712,-0.0355,0.8682,-5.8,7.86,-0.23,21.08
22270,0.2688,-0.0333,0.8669,-5.94,7.82,-0.34,21.09
22280,0.2672,-0.0333,0.8641,-5.94,7.82,-0.43,21.14
22290,0.2659,-0.0311,0.8645,-5.95,7.83,-0.5,21.12
22300,0.2692,-0.0348,0.8593,-6.02,7.82,-0.41,21.11
22310,0.2651,-0.0333,0.8644,-6.03,7.83,-0.14,21.1
22320,0.2687,-0.0344,0.8612,-6.06,7.88,-0.11,21.12
22330,0.27,-0.0322,0.8672,-6.14,7.76,0.03,21.12
22340,0.2701,-0.0317,0.8682,-6.09,7.74,0.14,21.11
22350,0.27,-0.0292,0.868,-6.12,7.88,0.32,21.11
22360,0.2723,-0.0304,0.8734,-6.12,7.8,0.4,21.1
22370,0.2721,-0.033,0.873,-6.17,7.85,0.31,21.11
22380,0.272,-0.0339,0.8766,-6.15,7.89,0.29,21.11
22390,0.272,-0.037,0.8783,-6.11,7.8,0.05,21.13
22400,0.2692,-0.0386,0.8806,-6.15,7.79,0.06,21.11
22410,0.2714,-0.0347,0.8804,-6.2,7.85,0.02,21.12
22420,0.2719,-0.0353,0.8828,-6.14,7.8,0.0,21.11
22430,0.2728,-0.0319,0.8794,-6.09,7.77,0.0,21.12
22440,0.2771,-0.0327,0.8749,-6.11,7.85,0.02,21.13
22450,0.2739,-0.0326,0.8767,-6.06,7.95,-0.08,21.1
22460,0.2758,-0.0336,0.876,-6.02,7.88,-0.09,21.12
22470,0.2759,-0.0338,0.8743,-6.09,7.91,-0.11,21.14
22480,0.2732,-0.0314,0.8728,-6.2,7.89,-0.03,21.14
22490,0.2739,-0.0327,0.8752,-6.11,7.86,-0.02,21.13
22500,0.2721,-0.0316,0.8691,-6.08,7.85,-0.14,21.11
22510,0.2706,-0.0297,0.8744,-6.09,7.8,-0.11,21.09
22520,0.2703,-0.0303,0.876,-6.03,7.76,-0.14,21.11
22530,0.2689,-0.0291,0.8738,-6.0,7.85,-0.08,21.14
22540,0.2678,-0.0325,0.8733,-5.98,7.88,-0.14,21.14
22550,0.27,-0.0338,0.8738,-5.98,7.91,-0.14,21.14
22560,0.2706,-0.0377,0.8726,-5.97,7.82,-0.12,21.13
22570,0.2688,-0.035,0.8689,-6.06,7.86,-0.12,21.13
22580,0.271,-0.0325,0.8735,-6.06,7.8,-0.09,21.11
22590,0.271,-0.0326,0.8741,-6.06,7.83,-0.14,21.11
22600,0.2726,-0.0312,0.8684,-6.0,7.86,-0.15,21.13
22610,0.2726,-0.0349,0.8699,-6.03,7.92,-0.17,21.14
22620,0.272,-0.0364,0.8745,-6.02,7.89,-0.08,21.1
22630,0.2701,-0.0372,0.8693,-5.95,7.85,-0.17,21.12
22640,0.2728,-0.0358,0.8691,-6.02,7.83,-0.18,21.13
22650,0.2709,-0.0366,0.8693,-6.02,7.86,-0.17,21.14
22660,0.2677,-0.0344,0.8707,-6.05,7.86,-0.11,21.16
22670,0.2683,-0.0367,0.8668,-6.06,7.77,-0.14,21.15
22680,0.2661,-0.032,0.8693,-6.14,7.91,-0.08,21.13
22690,0.2699,-0.0342,0.8679,-6.2,7.91,-0.11,21.11
22700,0.2671,-0.0363,0.8649,-6.14,7.88,-0.08,21.12
22710,0.2681,-0.0342,0.8665,-6.17,7.89,-0.05,21.11
22720,0.271,-0.0345,0.8617,-6.23,7.89,-0.08,21.15
22730,0.269,-0.0337,0.8683,-6.18,7.82,-0.03,21.12
22740,0.2697,-0.0289,0.875,-6.21,7.88,-0.02,21.12
22752,0.2694,-0.0288,0.8704,-6.18,7.92,-0.02,21.12
22762,0.2716,-0.0327,0.87,-6.23,7.83,0.05,21.14
22772,0.2684,-0.0273,0.8734,-6.26,7.83,0.03,21.14
22782,0.271,-0.03,0.8734,-6.26,7.85,0.05,21.14
22792,0.2662,-0.0326,0.8789,-6.32,7.8,0.08,21.13
22802,0.2732,-0.0375,0.8774,-6.21,7.89,-0.02,21.12
22812,0.2719,-0.0372,0.875,-6.24,7.85,0.05,21.13
22822,0.2706,-0.0343,0.8787,-6.29,7.82,0.05,21.11
22832,0.2731,-0.0367,0.8772,-6.27,7.86,0.05,21.11
22842,0.2771,-0.0322,0.8749,-6.23,7.8,0.0,21.14
22852,0.2747,-0.0378,0.8771,-6.12,7.79,0.03,21.15
22862,0.2756,-0.035,0.8754,-6.15,7.79,-0.05,21.13
22872,0.2765,-0.0321,0.875,-6.08,7.82,-0.02,21.14
22882,0.2753,-0.0305,0.8771,-6.09,7.71,-0.17,21.12
22892,0.2715,-0.0339,0.8777,-6.02,7.79,-0.11,21.14
22902,0.271,-0.0326,0.8792,-5.97,7.88,-0.08,21.12
22912,0.2712,-0.0327,0.8752,-6.02,7.8,-0.14,21.14
22922,0.2705,-0.0359,0.8739,-5.92,7.77,-0.17,21.12
22932,0.2664,-0.0311,0.8728,-6.02,7.76,-0.14,21.12
22942,0.2659,-0.0339,0.875,-6.06,7.74,-0.2,21.12
22952,0.2648,-0.0332,0.8719,-6.0,7.77,-0.2,21.13
22962,0.2682,-0.0339,0.8698,-5.95,7.68,-0.08,21.12
22972,0.2698,-0.0305,0.8643,-6.09,7.73,-0.14,21.16
22982,0.2688,-0.0338,0.8663,-6.02,7.74,-0.14,21.15
22992,0.2699,-0.0322,0.8669,-6.11,7.74,-0.03,21.12
23002,0.2716,-0.0308,0.865,-6.08,7.73,-0.02,21.11
23012,0.2698,-0.0309,0.8654,-6.12,7.74,-0.11,21.13
23022,0.2668,-0.0314,0.8695,-6.11,7.74,-0.09,21.12
23032,0.2714,-0.0314,0.8727,-6.17,7.79,-0.11,21.12
23042,0.2694,-0.032,0.8744,-6.12,7.77,-0.06,21.12
23052,0.2673,-0.0348,0.8727,-6.18,7.73,-0.05,21.14
23062,0.2693,-0.0316,0.8727,-6.26,7.76,-0.03,21.14
23072,0.2722,-0.0344,0.8683,-6.2,7.69,0.03,21.15
23082,0.2675,-0.0316,0.8743,-6.21,7.79,0.05,21.13
23092,0.2703,-0.0327,0.8738,-6.29,7.77,-0.06,21.13
23102,0.2711,-0.035,0.8745,-6.29,7.74,-0.02,21.14
23112,0.2731,-0.035,0.8773,-6.26,7.79,-0.02,21.14
23122,0.2712,-0.0325,0.8754,-6.27,7.83,0.03,21.13
23132,0.2721,-0.036,0.8772,-6.24,7.8,-0.05,21.17
23142,0.2733,-0.0338,0.8732,-6.18,7.82,-0.05,21.15
23152,0.2736,-0.0358,0.8749,-6.17,7.85,0.02,21.12
23162,0.2722,-0.0358,0.8746,-6.2,7.71,0.02,21.14
23172,0.2751,-0.0358,0.8732,-6.15,7.69,-0.05,21.16
23182,0.2708,-0.0363,0.8788,-6.17,7.76,-0.15,21.14
23192,0.2684,-0.0331,0.876,-6.14,7.83,-0.09,21.14
23202,0.27,-0.0358,0.8801,-6.15,7.85,-0.08,21.13
23212,0.2708,-0.0353,0.8783,-6.11,7.82,-0.12,21.13
23222,0.2722,-0.035,0.8711,-5.98,7.73,-0.08,21.13
23232,0.2692,-0.0345,0.8721,-6.05,7.79,-0.11,21.14
23242,0.2683,-0.0359,0.8752,-6.11,7.83,-0.17,21.14
23252,0.272,-0.038,0.8727,-6.08,7.77,-0.08,21.13
23262,0.2722,-0.0371,0.8726,-5.97,7.74,-0.08,21.14
23272,0.2715,-0.0356,0.8733,-6.0,7.71,-0.09,21.15
23282,0.2673,-0.0331,0.8707,-6.02,7.79,-0.09,21.15
23292,0.2699,-0.0323,0.8698,-5.97,7.8,-0.08,21.14
23302,0.2671,-0.0328,0.8726,-5.98,7.74,-0.05,21.15
23312,0.2671,-0.0304,0.8676,-6.03,7.77,-0.09,21.13
23322,0.2627,-0.0336,0.8684,-6.09,7.8,-0.05,21.13
23332,0.2666,-0.0325,0.8676,-6.11,7.79,-0.11,21.15
23342,0.2671,-0.0312,0.8695,-6.12,7.76,-0.06,21.15
23352,0.2689,-0.0304,0.8685,-6.21,7.71,-0.08,21.15
23362,0.2751,-0.0314,0.8701,-6.15,7.73,-0.05,21.13
23372,0.272,-0.0325,0.8751,-6.2,7.77,0.0,21.14
23382,0.271,-0.0325,0.8777,-6.2,7.66,0.09,21.13
23392,0.2742,-0.0331,0.8776,-6.11,7.76,-0.05,21.15
23402,0.2727,-0.0345,0.8727,-6.29,7.76,0.02,21.17
23412,0.2722,-0.0365,0.8743,-6.2,7.77,0.0,21.14
23422,0.2726,-0.0352,0.8802,-6.2,7.74,0.03,21.13
23432,0.2695,-0.0332,0.8779,-6.26,7.68,-0.02,21.13
23442,0.2745,-0.0323,0.8763,-6.12,7.69,-0.03,21.14
23452,0.2697,-0.0321,0.8771,-6.12,7.8,-0.06,21.14
23462,0.2731,-0.0332,0.8773,-6.17,7.74,-0.03,21.16
23472,0.2723,-0.0333,0.8752,-6.17,7.76,-0.05,21.15
23482,0.2697,-0.0334,0.8787,-6.09,7.69,-0.05,21.15
23492,0.2688,-0.0316,0.8799,-6.11,7.86,-0.09,21.15
23502,0.2693,-0.0332,0.8763,-6.11,7.85,-0.08,21.14
23512,0.2668,-0.0342,0.8754,-6.14,7.82,-0.08,21.14
23522,0.274,-0.0366,0.8733,-6.11,7.73,-0.15,21.14
23532,0.272,-0.0321,0.8691,-6.14,7.69,-0.05,21.16
23542,0.2686,-0.031,0.8752,-6.08,7.76,-0.12,21.16
23552,0.2694,-0.0353,0.8735,-6.09,7.76,-0.09,21.16
23562,0.2668,-0.0367,0.8728,-6.11,7.79,-0.08,21.16
23572,0.2699,-0.0355,0.8735,-5.98,7.73,-0.12,21.15
23582,0.2677,-0.0327,0.8735,-6.06,7.76,-0.05,21.14
23592,0.2693,-0.0342,0.8716,-6.03,7.68,-0.11,21.16
23602,0.2664,-0.0326,0.8763,-6.06,7.68,-0.06,21.15
23612,0.2697,-0.0331,0.8715,-6.15,7.77,-0.08,21.15
23622,0.2646,-0.0315,0.8752,-6.05,7.89,-0.02,21.14
23632,0.2716,-0.0339,0.8741,-6.14,7.86,-0.05,21.16
23642,0.27,-0.0358,0.8622,-6.09,7.71,-0.05,21.14
23652,0.2655,-0.0328,0.8721,-6.14,7.76,-0.06,21.12
23662,0.2706,-0.0306,0.871,-6.18,7.92,-0.03,21.15
23672,0.2742,-0.0325,0.8685,-6.17,7.77,-0.11,21.15
23682,0.2701,-0.0349,0.8718,-6.09,7.65,0.03,21.16
23692,0.2682,-0.0337,0.873,-6.26,7.73,-0.03,21.14
23702,0.2675,-0.032,0.871,-6.24,7.86,0.02,21.16
23712,0.2699,-0.0344,0.8705,-6.17,7.83,-0.02,21.15
23722,0.2739,-0.0327,0.8746,-6.27,7.73,0.06,21.13
23732,0.2721,-0.0332,0.8748,-6.2,7.65,0.02,21.16
23742,0.2706,-0.0356,0.879,-6.18,7.73,0.06,21.16
23752,0.2714,-0.0331,0.8757,-6.26,7.76,-0.02,21.15
23762,0.2764,-0.0391,0.8755,-6.17,7.73,-0.12,21.16
23772,0.2716,-0.0339,0.8784,-6.12,7.83,0.02,21.17
23782,0.2715,-0.036,0.8768,-6.21,7.85,-0.05,21.17
23792,0.2738,-0.0358,0.8727,-6.15,7.82,0.0,21.15
23802,0.2749,-0.0338,0.874,-6.05,7.79,-0.11,21.13
23812,0.2734,-0.035,0.8729,-6.09,7.77,-0.12,21.15
23822,0.2728,-0.0369,0.8772,-6.11,7.77,-0.12,21.14
23832,0.2716,-0.0355,0.8716,-6.09,7.8,-0.02,21.14
23842,0.2719,-0.0321,0.8722,-6.06,7.82,-0.15,21.16
23852,0.2706,-0.0319,0.868,-6.06,7.79,-0.06,21.15
23862,0.2661,-0.0322,0.8687,-6.12,7.74,-0.12,21.2
23872,0.2705,-0.0326,0.8711,-6.11,7.68,-0.06,21.16
23882,0.2675,-0.0347,0.869,-6.12,7.71,-0.03,21.14
23892,0.2723,-0.0349,0.8759,-6.15,7.89,-0.11,21.14
23902,0.2706,-0.033,0.8683,-6.09,7.76,-0.05,21.12
23912,0.2737,-0.0337,0.8674,-6.15,7.53,-0.02,21.14
23922,0.2706,-0.0312,0.8684,-6.17,7.65,0.02,21.13
23932,0.2656,-0.0337,0.8684,-6.15,7.85,0.0,21.14
23942,0.2673,-0.033,0.8705,-6.23,7.89,-0.06,21.17
23952,0.2734,-0.0345,0.874,-6.24,7.86,-0.05,21.15
23962,0.2704,-0.0315,0.8691,-6.2,7.74,-0.09,21.15
23972,0.2731,-0.0374,0.8762,-6.17,7.69,-0.08,21.17
23982,0.2711,-0.0316,0.873,-6.18,7.83,-0.03,21.13
23992,0.2716,-0.0331,0.8729,-6.18,7.77,-0.08,21.15
24002,0.2706,-0.0323,0.8729,-6.2,7.68,-0.03,21.14
24012,0.2684,-0.0338,0.8755,-6.2,7.82,-0.02,21.14
24022,0.2717,-0.0326,0.8715,-6.18,7.65,0.03,21.16
24032,0.2692,-0.0342,0.8745,-6.14,7.74,-0.02,21.16
24042,0.2728,-0.0365,0.877,-6.17,7.83,-0.08,21.16
24052,0.2708,-0.0353,0.8776,-6.15,7.79,0.0,21.17
24062,0.2705,-0.0316,0.8733,-6.17,7.76,-0.05,21.15
24072,0.2719,-0.0348,0.879,-6.2,7.71,-0.05,21.15
24082,0.2693,-0.0349,0.8767,-6.23,7.74,-0.02,21.17
24092,0.2732,-0.0319,0.8752,-6.24,7.69,-0.12,21.16
24102,0.2712,-0.0337,0.8727,-6.11,7.66,-0.06,21.14
24112,0.2721,-0.0364,0.8698,-6.15,7.77,0.0,21.16
24122,0.2677,-0.036,0.8701,-6.12,7.74,-0.06,21.17
24132,0.2705,-0.0381,0.8741,-6.14,7.77,-0.12,21.16
24142,0.2689,-0.0374,0.8713,-6.17,7.73,-0.03,21.17
24152,0.2709,-0.0356,0.8779,-6.14,7.62,-0.11,21.14
24162,0.271,-0.0331,0.8815,-6.09,7.77,-0.11,21.15
24172,0.2729,-0.0333,0.8702,-6.08,7.86,-0.02,21.15
24182,0.2733,-0.0321,0.8687,-6.15,7.73,-0.11,21.17
24192,0.272,-0.0355,0.8695,-6.03,7.77,-0.12,21.17
24202,0.2675,-0.0358,0.8677,-6.09,7.69,-0.08,21.18
24212,0.2708,-0.0331,0.8695,-6.09,7.74,0.0,21.16
24222,0.2711,-0.0299,0.8685,-6.08,7.74,-0.02,21.15
24232,0.267,-0.0328,0.8748,-6.12,7.71,-0.06,21.14
24242,0.2635,-0.0312,0.875,-6.18,7.76,0.0,21.15
24252,0.2667,-0.0314,0.874,-6.18,7.8,-0.11,21.16
24262,0.2729,-0.0341,0.8735,-6.17,7.77,0.0,21.16
24272,0.2748,-0.0355,0.8695,-6.11,7.71,-0.05,21.17
24282,0.2722,-0.0358,0.8734,-6.06,7.69,-0.06,21.18
24292,0.2722,-0.0367,0.8729,-6.11,7.76,-0.05,21.16
24302,0.2684,-0.0361,0.8723,-6.15,7.8,-0.11,21.18
24312,0.2693,-0.0365,0.8729,-6.14,7.79,0.0,21.14
24322,0.2719,-0.0332,0.8761,-6.14,7.83,-0.02,21.17
24332,0.2723,-0.0314,0.8707,-6.09,7.79,-0.06,21.17
24342,0.2731,-0.0348,0.8745,-6.09,7.77,-0.05,21.16
24352,0.2737,-0.0298,0.8706,-6.17,7.79,-0.06,21.15
24362,0.2676,-0.0338,0.874,-6.14,7.74,-0.02,21.15
24372,0.2711,-0.0315,0.8741,-6.11,7.74,-0.02,21.17
24383,0.2688,-0.0308,0.8732,-6.09,7.77,-0.06,21.14
24393,0.2719,-0.0342,0.8711,-6.2,7.71,-0.02,21.15
24403,0.2701,-0.0332,0.8783,-6.18,7.76,-0.06,21.17
24414,0.2701,-0.0305,0.8759,-6.15,7.73,-0.09,21.17
24424,0.2678,-0.0292,0.8781,-6.11,7.77,-0.12,21.17
24434,0.2729,-0.0336,0.8744,-6.15,7.79,-0.17,21.17
24444,0.2727,-0.035,0.8711,-6.15,7.73,-0.08,21.14
24454,0.2689,-0.0361,0.8752,-6.08,7.77,-0.05,21.15
24464,0.2673,-0.0349,0.8728,-6.15,7.94,-0.05,21.18
24474,0.2697,-0.0372,0.8666,-6.17,7.86,-0.03,21.16
24484,0.2715,-0.0364,0.8735,-6.18,7.74,-0.09,21.13
24494,0.2737,-0.0366,0.8711,-6.17,7.66,-0.11,21.18
24504,0.2722,-0.0344,0.8748,-6.12,7.74,-0.09,21.17
24514,0.2684,-0.0348,0.8743,-6.14,7.82,-0.03,21.16
24524,0.2688,-0.0352,0.8711,-6.12,7.82,0.05,21.2
24534,0.2684,-0.0345,0.8684,-6.05,7.86,-0.06,21.18
24544,0.2704,-0.0353,0.8716,-6.09,7.85,-0.08,21.17
24554,0.2681,-0.0312,0.8701,-6.17,7.79,-0.06,21.17
24564,0.2699,-0.0314,0.8654,-6.17,7.68,-0.03,21.17
24574,0.2698,-0.0323,0.8724,-6.15,7.74,-0.05,21.16
24584,0.2711,-0.0348,0.8732,-6.18,7.77,0.03,21.16
24594,0.2687,-0.0309,0.8777,-6.21,7.73,-0.05,21.16
24604,0.2688,-0.033,0.8763,-6.14,7.76,0.03,21.19
24614,0.2633,-0.0332,0.8751,-6.21,7.92,0.03,21.17
24624,0.272,-0.0355,0.8682,-6.2,7.88,-0.12,21.17
24634,0.2769,-0.0372,0.866,-6.23,7.73,-0.06,21.16
24644,0.2766,-0.0365,0.8688,-6.18,7.6,0.02,21.16
24654,0.27,-0.0338,0.8749,-6.14,7.71,-0.11,21.18
24664,0.2733,-0.0348,0.8696,-6.18,7.74,-0.09,21.17
24674,0.2712,-0.0344,0.8766,-6.14,7.82,-0.15,21.19
24684,0.2682,-0.0325,0.8777,-6.18,7.86,-0.06,21.18
24694,0.2704,-0.0358,0.8796,-6.14,7.79,-0.06,21.18
24704,0.2765,-0.0343,0.8734,-6.12,7.68,-0.12,21.17
24714,0.2756,-0.0358,0.8704,-6.05,7.83,-0.05,21.18
24724,0.2677,-0.0339,0.8737,-6.15,7.79,-0.02,21.17
24734,0.2716,-0.0332,0.8763,-6.18,7.86,-0.05,21.18
24744,0.2716,-0.0312,0.8738,-6.11,7.66,-0.11,21.15
24754,0.2688,-0.0343,0.8765,-6.11,7.77,-0.09,21.14
24764,0.2675,-0.032,0.8717,-6.08,7.79,-0.06,21.17
24775,0.2675,-0.031,0.8702,-6.09,7.69,0.03,21.17
24786,0.2675,-0.033,0.8766,-6.12,7.74,-0.03,21.19
24796,0.2664,-0.0323,0.868,-6.12,7.74,-0.17,21.16
24806,0.2701,-0.0323,0.8704,-6.17,7.65,-0.03,21.17
24816,0.2711,-0.032,0.8756,-6.15,7.71,-0.11,21.17
24826,0.2705,-0.0363,0.873,-6.14,7.82,-0.08,21.17
24836,0.2732,-0.032,0.877,-6.14,7.73,-0.09,21.17
24846,0.2749,-0.0314,0.8724,-6.2,7.85,-0.06,21.18
24856,0.2708,-0.0343,0.8707,-6.21,7.68,-0.06,21.18
24866,0.2698,-0.0323,0.873,-6.14,7.83,0.0,21.21
24876,0.2679,-0.0308,0.8712,-6.11,7.8,-0.02,21.2
24886,0.2717,-0.0306,0.8699,-6.09,7.71,-0.09,21.19
24896,0.2709,-0.0321,0.8722,-6.09,7.71,-0.11,21.19
24906,0.2709,-0.0327,0.8727,-6.12,7.68,-0.08,21.18
24916,0.2697,-0.0315,0.8715,-6.17,7.8,-0.06,21.18
24926,0.2733,-0.0326,0.8732,-6.2,7.79,-0.08,21.18
24936,0.2728,-0.0326,0.8733,-6.12,7.76,-0.09,21.18
24946,0.2708,-0.0371,0.8765,-6.17,7.8,-0.08,21.17
24956,0.2704,-0.0372,0.8732,-6.09,7.74,0.0,21.16
24966,0.2668,-0.0325,0.871,-6.21,7.88,-0.03,21.17
24976,0.271,-0.0291,0.8666,-6.23,7.79,-0.03,21.2
24986,0.2673,-0.0299,0.8651,-6.31,7.71,0.0,21.18
24996,0.2689,-0.0303,0.8635,-6.27,7.62,-0.05,21.17
25006,0.265,-0.0289,0.8618,-6.37,7.62,0.02,21.17
25016,0.2637,-0.0328,0.8669,-6.37,7.66,-0.03,21.17
25026,0.265,-0.0345,0.8689,-6.35,7.68,-0.06,21.15
25036,0.269,-0.0309,0.8732,-6.29,7.57,-0.02,21.15
25046,0.2662,-0.0342,0.875,-6.34,7.63,-0.06,21.18
25056,0.2719,-0.0345,0.8688,-6.44,7.51,0.14,21.16
25066,0.2678,-0.0312,0.8774,-6.4,7.48,0.08,21.17
25076,0.2629,-0.031,0.8741,-6.47,7.45,0.0,21.18
25086,0.2687,-0.0299,0.8729,-6.47,7.53,0.06,21.19
25096,0.2673,-0.0302,0.8696,-6.6,7.47,-0.02,21.17
25106,0.2697,-0.0276,0.8691,-6.63,7.5,0.06,21.18
25116,0.2684,-0.0369,0.8724,-6.55,7.4,0.06,21.17
25126,0.2693,-0.0404,0.8772,-6.5,7.48,0.05,21.17
25136,0.2737,-0.0396,0.8781,-6.38,7.4,-0.05,21.19
25146,0.2775,-0.0393,0.8801,-6.29,7.37,0.08,21.16
25156,0.2832,-0.0376,0.884,-6.2,7.36,0.06,21.19
25167,0.2793,-0.0345,0.8901,-6.14,7.39,-0.03,21.14
25177,0.2841,-0.0308,0.8909,-6.12,7.4,0.02,21.16
25188,0.2794,-0.0326,0.889,-6.24,7.45,-0.06,21.17
25198,0.2739,-0.0343,0.8898,-6.17,7.54,-0.11,21.18
25208,0.27,-0.037,0.8848,-6.21,7.42,-0.08,21.17
25218,0.2717,-0.0385,0.8778,-6.14,7.4,-0.17,21.21
25228,0.276,-0.0413,0.871,-6.05,7.47,-0.15,21.2
25238,0.2748,-0.0446,0.8722,-5.92,7.51,-0.21,21.18
25248,0.2817,-0.045,0.8752,-5.85,7.54,-0.2,21.17
25258,0.2844,-0.0471,0.8682,-5.76,7.48,-0.2,21.17
25268,0.2799,-0.043,0.8684,-5.73,7.4,-0.18,21.16
25278,0.274,-0.0377,0.8704,-5.73,7.63,-0.09,21.16
25288,0.2698,-0.0334,0.8652,-5.77,7.6,-0.03,21.17
25298,0.2672,-0.0302,0.8718,-5.91,7.69,-0.05,21.17
25308,0.2668,-0.0243,0.868,-5.88,7.8,-0.11,21.18
25318,0.2678,-0.0259,0.871,-5.92,7.69,-0.11,21.19
25328,0.2672,-0.0338,0.8712,-6.0,7.71,-0.17,21.21
25338,0.2687,-0.0366,0.8645,-6.03,7.74,-0.15,21.17
25348,0.2682,-0.0388,0.8627,-6.03,7.77,-0.06,21.18
25358,0.2712,-0.0417,0.8617,-6.09,7.79,-0.12,21.18
25368,0.2708,-0.038,0.8611,-6.09,7.79,-0.02,21.19
25378,0.2728,-0.0372,0.8684,-6.14,7.91,-0.02,21.18
25388,0.2709,-0.0331,0.8738,-6.12,7.94,0.03,21.17
25398,0.2731,-0.03,0.8794,-6.09,7.98,0.0,21.18
25408,0.2772,-0.0315,0.8687,-6.21,8.02,0.02,21.16
25418,0.2754,-0.0292,0.8667,-6.17,8.05,0.05,21.17
25428,0.2705,-0.0315,0.8726,-6.21,8.06,0.0,21.18
25438,0.2698,-0.0355,0.8732,-6.2,7.98,-0.05,21.16
25448,0.2703,-0.0353,0.8762,-6.11,8.05,0.02,21.18
25458,0.2682,-0.0366,0.8759,-6.14,8.02,0.06,21.19
25468,0.2688,-0.0347,0.8749,-6.17,8.02,-0.02,21.18
25478,0.2727,-0.0334,0.8778,-6.17,8.03,-0.03,21.19
25488,0.2809,-0.0291,0.8788,-6.17,8.12,0.0,21.18
25498,0.2759,-0.0261,0.8728,-6.21,8.06,-0.02,21.19
25508,0.2738,-0.0265,0.8771,-6.14,7.97,0.02,21.16
25518,0.2715,-0.0306,0.8794,-6.15,8.11,-0.12,21.19
25528,0.2692,-0.0309,0.8724,-6.08,8.08,-0.09,21.19
25538,0.2726,-0.0341,0.8735,-6.2,7.97,-0.03,21.17
25548,0.2666,-0.0356,0.8698,-6.06,7.98,-0.06,21.19
25558,0.2657,-0.0353,0.8716,-6.12,8.03,-0.12,21.19
25568,0.2681,-0.031,0.8707,-6.11,8.05,-0.15,21.17
25578,0.2585,-0.0295,0.8713,-6.11,8.15,-0.08,21.19
25588,0.2848,-0.0303,0.8527,-6.12,7.56,-0.03,21.2
25598,0.2826,-0.0289,0.8582,-6.14,7.42,-0.03,21.2
25608,0.2666,-0.032,0.8739,-6.11,7.83,-0.06,21.19
25618,0.2808,-0.0325,0.8676,-6.14,7.76,-0.06,21.16
25628,0.2804,-0.0292,0.8625,-6.2,7.59,-0.03,21.16
25638,0.2748,-0.0315,0.8669,-6.2,7.71,0.0,21.2
25648,0.2736,-0.0342,0.8662,-6.27,7.73,0.02,21.17
25658,0.2693,-0.0377,0.8666,-6.35,7.69,0.0,21.19
25668,0.2703,-0.0354,0.8652,-6.27,7.66,0.0,21.17
25678,0.2666,-0.037,0.87,-6.47,7.66,-0.03,21.17
25688,0.2654,-0.0349,0.8729,-6.38,7.77,-0.06,21.18
25698,0.2653,-0.0326,0.8756,-6.34,7.68,-0.06,21.21
25708,0.2704,-0.0369,0.8732,-6.29,7.54,-0.05,21.19
25718,0.2672,-0.0387,0.876,-6.21,7.51,-0.02,21.19
25728,0.2695,-0.0398,0.8793,-6.27,7.6,-0.11,21.16
25738,0.2708,-0.04,0.8738,-6.29,7.53,-0.05,21.18
25748,0.2742,-0.0431,0.8823,-6.26,7.57,0.02,21.19
25758,0.2776,-0.0376,0.876,-6.27,7.53,0.02,21.17
25768,0.2733,-0.0375,0.8756,-6.29,7.5,-0.02,21.15
25778,0.2734,-0.0358,0.8739,-6.29,7.51,-0.03,21.17
25788,0.2734,-0.0325,0.8727,-6.27,7.54,0.02,21.22
25798,0.2738,-0.0377,0.8741,-6.26,7.6,0.0,21.18
25808,0.28,-0.0388,0.873,-6.2,7.45,-0.09,21.19
25818,0.2766,-0.0353,0.8716,-6.17,7.51,-0.02,21.2
25828,0.2723,-0.0377,0.8762,-6.12,7.44,-0.02,21.18
25838,0.2727,-0.0374,0.8724,-6.15,7.42,-0.05,21.17
25848,0.2769,-0.0391,0.8724,-6.23,7.48,0.02,21.21
25858,0.2776,-0.0381,0.8712,-6.17,7.44,-0.06,21.19
25868,0.271,-0.036,0.8727,-6.06,7.54,-0.02,21.17
25878,0.2771,-0.0366,0.8702,-6.02,7.62,-0.06,21.18
25888,0.2723,-0.031,0.8706,-6.05,7.5,-0.06,21.15
25898,0.2738,-0.032,0.8698,-6.03,7.56,-0.05,21.2
25908,0.2697,-0.0359,0.868,-6.08,7.51,-0.08,21.2
25918,0.2755,-0.0337,0.8673,-6.08,7.56,-0.08,21.17
25928,0.2742,-0.0349,0.8679,-6.11,7.62,-0.11,21.2
25938,0.2731,-0.0383,0.8727,-6.06,7.62,-0.05,21.19
25948,0.2695,-0.0383,0.8679,-6.09,7.69,-0.06,21.19
25958,0.2716,-0.0408,0.8706,-6.14,7.57,-0.02,21.18
25968,0.2733,-0.0376,0.8778,-6.21,7.69,-0.09,21.19
25978,0.2758,-0.0347,0.8779,-6.09,7.66,-0.05,21.19
25988,0.2764,-0.0345,0.8862,-5.94,7.73,-0.08,21.19
25998,0.2794,-0.0385,0.8828,-5.89,7.74,-0.15,21.19
26009,0.2809,-0.0409,0.8795,-5.74,7.82,-0.14,21.19
26019,0.2795,-0.0419,0.8867,-5.76,7.89,-0.14,21.2
26029,0.2812,-0.0442,0.8903,-5.85,7.8,-0.14,21.19
26039,0.2822,-0.041,0.8896,-5.91,7.88,-0.06,21.18
26049,0.2805,-0.0479,0.8817,-6.06,7.95,-0.06,21.19
26059,0.2805,-0.0413,0.881,-5.95,8.11,-0.08,21.17
26069,0.2703,-0.041,0.86,-5.89,8.14,-0.11,21.19
26079,0.2654,-0.0419,0.8538,-5.66,8.14,-0.11,21.21
26089,0.2659,-0.0377,0.8518,-5.71,8.18,-0.09,21.19
26100,0.2642,-0.0333,0.8518,-5.63,7.98,-0.11,21.21
26110,0.2693,-0.0323,0.8585,-5.74,8.03,-0.05,21.19
26120,0.2668,-0.0315,0.8636,-5.8,7.73,0.0,21.19
26130,0.2712,-0.0215,0.8627,-5.98,8.27,0.02,21.18
26140,0.2705,-0.016,0.8937,-6.05,9.73,-0.09,21.19
26150,0.2651,-0.0216,0.8438,-6.09,7.69,0.05,21.19
26160,0.2739,-0.0134,0.8624,-6.03,7.04,-0.02,21.18
26170,0.2346,-0.0128,0.8894,-6.14,9.19,-0.09,21.19
26180,0.2487,-0.0237,0.863,-6.06,8.66,-0.06,21.19
26190,0.2633,-0.0256,0.8619,-6.08,7.94,-0.05,21.17
26200,0.2605,-0.0186,0.8604,-6.18,7.82,0.0,21.19
26210,0.2507,-0.0234,0.8939,-6.29,8.32,-0.12,21.18
26220,0.2516,-0.0251,0.8829,-6.32,8.34,0.05,21.2
26230,0.256,-0.024,0.8702,-6.44,8.0,0.03,21.21
26240,0.2714,-0.0239,0.8657,-6.52,7.89,-0.02,21.19
26250,0.2715,-0.026,0.8694,-6.47,7.73,0.06,21.18
26260,0.2751,-0.0293,0.8774,-6.43,7.86,-0.08,21.15
26270,0.2743,-0.0349,0.8887,-6.23,7.89,-0.09,21.17
26280,0.2805,-0.0332,0.8906,-6.17,7.74,-0.15,21.19
26290,0.286,-0.0369,0.8917,-6.17,7.8,-0.09,21.22
26300,0.2843,-0.0319,0.8893,-6.21,7.79,-0.15,21.19
26310,0.2783,-0.0339,0.8812,-6.15,7.68,-0.09,21.19
26320,0.2777,-0.0262,0.8777,-6.17,7.95,-0.09,21.17
26330,0.2728,-0.0276,0.8706,-6.15,7.8,-0.03,21.2
26340,0.276,-0.0304,0.8634,-6.14,7.63,-0.11,21.18
26350,0.2826,-0.0294,0.8632,-6.27,7.66,-0.14,21.19
26360,0.2729,-0.0339,0.8651,-6.17,7.45,-0.14,21.2
26370,0.2651,-0.0334,0.8809,-6.24,7.69,-0.15,21.2
26380,0.2611,-0.0354,0.8751,-6.24,7.94,-0.14,21.22
26390,0.2628,-0.0409,0.8704,-6.34,7.68,-0.08,21.2
26400,0.2616,-0.0443,0.8704,-6.29,7.6,-0.21,21.19
26410,0.2599,-0.0447,0.8691,-6.23,7.62,-0.17,21.19
26420,0.2643,-0.0481,0.8711,-6.15,7.66,-0.09,21.19
26430,0.2653,-0.0507,0.8657,-6.11,7.68,-0.08,21.19
26440,0.2688,-0.0446,0.8667,-6.08,7.56,-0.06,21.2
26450,0.2712,-0.0432,0.8616,-6.03,7.71,0.0,21.19
26460,0.2679,-0.04,0.8596,-6.11,7.63,-0.12,21.2
26470,0.2715,-0.0399,0.8641,-6.14,7.73,-0.08,21.18
26480,0.2762,-0.0353,0.8611,-6.21,7.79,-0.09,21.18
26490,0.2788,-0.0366,0.8584,-6.21,7.73,-0.06,21.16
26500,0.2817,-0.0361,0.8649,-6.15,7.63,-0.06,21.19
26510,0.2794,-0.0381,0.8702,-6.23,7.69,0.08,21.18
26520,0.2762,-0.04,0.8738,-6.17,7.74,-0.03,21.2
26530,0.277,-0.0416,0.8752,-6.21,7.8,0.0,21.2
26540,0.2769,-0.0465,0.8708,-6.18,7.73,0.09,21.19
26550,0.2711,-0.0461,0.873,-6.21,7.6,0.05,21.2
26560,0.2742,-0.0442,0.8689,-6.17,7.76,0.02,21.2
26570,0.2695,-0.0431,0.8713,-6.05,7.88,-0.06,21.2
26580,0.2688,-0.0496,0.8759,-6.02,7.74,-0.03,21.19
26590,0.2717,-0.0479,0.8688,-5.95,7.63,-0.08,21.18
26600,0.2726,-0.0413,0.8768,-5.79,7.65,-0.03,21.17
26610,0.2687,-0.0463,0.8765,-5.83,7.65,-0.08,21.18
26621,0.2726,-0.0404,0.8828,-5.83,7.6,-0.05,21.19
26631,0.2766,-0.0361,0.8881,-5.82,7.59,-0.02,21.2
26641,0.2773,-0.0294,0.892,-5.85,7.6,0.02,21.18
26651,0.2737,-0.031,0.8842,-5.79,7.74,-0.05,21.21
26661,0.2788,-0.0234,0.8888,-5.8,7.62,-0.02,21.21
26671,0.271,-0.0292,0.8835,-5.85,7.63,-0.06,21.18
26681,0.2737,-0.0316,0.8854,-5.76,7.69,-0.02,21.18
26691,0.2792,-0.0302,0.8881,-5.77,7.65,-0.08,21.2
26701,0.2744,-0.028,0.8787,-5.88,7.65,-0.14,21.21
26712,0.2758,-0.0276,0.8837,-5.85,7.71,-0.03,21.21
26722,0.2772,-0.0265,0.8771,-5.82,7.76,-0.02,21.2
26732,0.2722,-0.0271,0.8621,-5.69,7.88,-0.02,21.21
26742,0.2745,-0.0238,0.8556,-5.76,7.69,-0.05,21.21
26752,0.2688,-0.0206,0.8693,-5.77,7.79,-0.09,21.22
26762,0.2694,-0.0198,0.8589,-5.82,7.95,-0.03,21.18
26772,0.2739,-0.0184,0.8621,-5.97,7.65,-0.06,21.22
26782,0.2761,-0.0149,0.8673,-6.11,7.79,-0.06,21.18
26792,0.2689,-0.0131,0.8647,-6.23,7.88,-0.02,21.2
26802,0.2684,-0.0132,0.8615,-6.46,7.97,-0.08,21.21
26812,0.2736,-0.0155,0.8608,-6.4,7.89,-0.03,21.19
26822,0.265,-0.0172,0.8516,-6.31,7.95,-0.08,21.19
26832,0.2697,-0.0251,0.8613,-6.26,7.68,-0.03,21.19
26842,0.2684,-0.0237,0.8621,-6.41,7.82,-0.09,21.22
26852,0.2629,-0.0276,0.8635,-6.31,7.82,-0.03,21.21
26862,0.2631,-0.0314,0.8748,-6.34,7.92,-0.09,21.22
26872,0.265,-0.0276,0.8724,-6.47,7.94,-0.03,21.2
26882,0.2612,-0.0251,0.8756,-6.44,7.83,-0.03,21.22
26892,0.2632,-0.0282,0.8722,-6.58,7.79,-0.05,21.22
26902,0.2614,-0.0283,0.8763,-6.5,7.82,-0.03,21.21
26912,0.2638,-0.0336,0.8752,-6.44,7.76,-0.03,21.19
26922,0.2638,-0.038,0.8781,-6.46,7.85,-0.09,21.2
26932,0.2644,-0.0416,0.8778,-6.41,7.86,-0.09,21.22
26942,0.2679,-0.0453,0.882,-6.4,7.74,-0.06,21.2
26952,0.2665,-0.041,0.8845,-6.41,7.77,-0.08,21.21
26962,0.2656,-0.042,0.8813,-6.24,7.71,-0.14,21.21
26972,0.2678,-0.0432,0.8812,-6.37,7.68,-0.05,21.2
26982,0.271,-0.0403,0.8801,-6.31,7.76,-0.14,21.22
26992,0.2722,-0.0432,0.8824,-6.29,7.79,-0.06,21.21
27002,0.2738,-0.0435,0.8794,-6.23,7.76,-0.12,21.21
27012,0.2788,-0.0439,0.879,-6.08,7.77,-0.08,21.22
27022,0.2771,-0.0439,0.8824,-6.08,7.74,-0.12,21.22
27032,0.2753,-0.0488,0.8771,-6.03,7.68,-0.18,21.21
27042,0.281,-0.0408,0.8804,-5.94,7.71,-0.02,21.21
27052,0.2812,-0.0424,0.8715,-5.92,7.79,-0.03,21.23
27062,0.2777,-0.0366,0.8746,-6.02,7.74,-0.06,21.22
27072,0.2811,-0.0366,0.868,-6.08,7.86,0.0,21.22
27082,0.2802,-0.0387,0.8667,-6.11,7.74,0.0,21.22
27092,0.28,-0.0399,0.8676,-6.03,7.74,-0.03,21.24
27102,0.2784,-0.04,0.8672,-5.97,7.71,-0.02,21.22
27112,0.2792,-0.0396,0.8624,-6.09,7.74,-0.03,21.22
27122,0.2799,-0.0364,0.8655,-6.05,7.69,-0.02,21.22
27132,0.2778,-0.0371,0.8658,-6.02,7.8,-0.06,21.21
27142,0.271,-0.0348,0.873,-5.98,7.8,-0.03,21.2
27152,0.2767,-0.0353,0.8658,-6.02,7.88,-0.05,21.2
27162,0.2771,-0.0327,0.8662,-5.98,7.63,0.0,21.21
27172,0.2736,-0.0314,0.8705,-5.97,7.76,0.02,21.2
27182,0.2717,-0.0286,0.8737,-6.11,7.92,0.02,21.21
27192,0.2678,-0.0317,0.8782,-6.09,7.82,-0.03,21.22
27202,0.2742,-0.0321,0.8802,-6.23,7.74,0.0,21.23
27212,0.2638,-0.028,0.8757,-6.15,7.79,0.0,21.22
27222,0.2638,-0.031,0.8811,-6.14,7.74,-0.03,21.24
27232,0.265,-0.0308,0.8693,-6.14,7.88,-0.03,21.22
27242,0.2692,-0.0306,0.8702,-6.15,7.71,-0.11,21.23
27252,0.2708,-0.0288,0.8732,-6.09,7.74,0.05,21.22
27262,0.267,-0.0317,0.8785,-6.08,7.71,-0.03,21.22
27272,0.2628,-0.0287,0.8799,-5.98,7.69,-0.05,21.22
27282,0.2662,-0.0271,0.8761,-6.09,7.76,0.06,21.22
27292,0.271,-0.0309,0.8835,-6.11,7.79,-0.03,21.22
27302,0.2689,-0.0288,0.8812,-6.15,7.66,-0.03,21.22
27312,0.274,-0.0294,0.8822,-6.14,7.6,-0.08,21.22
27322,0.275,-0.0306,0.8774,-6.18,7.66,-0.03,21.23
27332,0.2694,-0.0302,0.8741,-6.08,7.76,-0.09,21.22
27342,0.2693,-0.0288,0.8751,-6.05,7.8,-0.09,21.21
27352,0.2686,-0.0286,0.8794,-6.09,7.74,-0.11,21.21
27362,0.2693,-0.0281,0.8784,-6.12,7.74,-0.09,21.22
27372,0.2711,-0.0272,0.8702,-6.14,7.71,-0.09,21.21
27382,0.2677,-0.0309,0.8676,-6.14,7.73,-0.09,21.22
