t_ms,accel_x_g,accel_y_g,accel_z_g,gyro_x_dps,gyro_y_dps,gyro_z_dps,imu_temp_c
3291,0.3365,-0.0223,0.8655,-6.44,7.8,-0.06,26.58
3307,0.3319,-0.0244,0.8627,-6.44,7.85,-0.05,26.59
3317,0.3334,-0.0265,0.8666,-6.46,7.83,-0.08,26.56
3327,0.3336,-0.0227,0.8639,-6.46,7.8,-0.11,26.56
3337,0.3352,-0.0229,0.8647,-6.52,7.83,-0.03,26.57
3347,0.3352,-0.0229,0.8649,-6.49,7.86,-0.02,26.57
3357,0.3307,-0.0222,0.8654,-6.47,7.88,-0.03,26.58
3367,0.3325,-0.0253,0.8652,-6.49,7.94,-0.02,26.59
3377,0.3303,-0.0227,0.8668,-6.49,7.88,0.02,26.59
3389,0.3347,-0.0221,0.8665,-6.5,7.86,0.0,26.59
3399,0.3323,-0.0223,0.8688,-6.43,7.8,-0.03,26.59
3409,0.3336,-0.0208,0.8645,-6.58,7.88,0.0,26.58
3419,0.3318,-0.0267,0.8655,-6.49,7.83,-0.09,26.58
3429,0.334,-0.025,0.8662,-6.52,7.89,-0.08,26.57
3439,0.3344,-0.0219,0.8621,-6.55,7.88,0.0,26.59
3449,0.3354,-0.0239,0.863,-6.5,7.94,-0.05,26.59
3459,0.335,-0.0265,0.8673,-6.55,7.89,-0.08,26.57
3469,0.3317,-0.0248,0.8628,-6.55,7.8,-0.03,26.58
3479,0.3334,-0.0211,0.8682,-6.5,7.85,-0.11,26.58
3489,0.3347,-0.0221,0.8657,-6.53,7.85,-0.11,26.59
3499,0.3367,-0.0243,0.8629,-6.55,7.86,-0.05,26.57
3509,0.335,-0.0229,0.8676,-6.55,7.82,0.03,26.59
3519,0.3346,-0.0227,0.8616,-6.5,7.91,-0.03,26.58
3529,0.3335,-0.0236,0.8615,-6.41,7.92,-0.02,26.58
3539,0.3337,-0.0233,0.8668,-6.46,7.88,-0.02,26.59
3549,0.3353,-0.0197,0.8646,-6.46,7.8,-0.03,26.57
3559,0.3354,-0.0215,0.8596,-6.5,7.89,-0.08,26.59
3569,0.3335,-0.0219,0.8636,-6.49,7.77,-0.09,26.61
3579,0.3357,-0.0227,0.8615,-6.52,7.85,-0.05,26.6
3589,0.334,-0.0225,0.8649,-6.49,7.94,-0.02,26.59
3599,0.3323,-0.024,0.8618,-6.61,7.8,-0.05,26.58
3609,0.3353,-0.0238,0.865,-6.47,7.86,-0.03,26.58
3619,0.3313,-0.0266,0.8597,-6.55,7.92,0.0,26.6
3629,0.3346,-0.022,0.8682,-6.47,7.8,-0.02,26.6
3639,0.3362,-0.0229,0.8656,-6.5,7.82,-0.03,26.58
3649,0.3328,-0.0251,0.8669,-6.49,7.88,-0.08,26.58
3659,0.3333,-0.0249,0.8627,-6.52,7.85,-0.08,26.6
3669,0.3322,-0.0225,0.8627,-6.47,7.89,-0.03,26.59
3679,0.3353,-0.024,0.8625,-6.55,7.83,-0.06,26.6
3689,0.3339,-0.024,0.8646,-6.55,7.8,0.02,26.59
3699,0.3325,-0.022,0.8662,-6.53,7.88,0.0,26.59
3709,0.3317,-0.0243,0.8649,-6.49,7.8,-0.08,26.6
3719,0.3351,-0.0243,0.8635,-6.49,7.77,-0.08,26.61
3729,0.3324,-0.0236,0.8635,-6.55,7.89,-0.08,26.58
3739,0.3314,-0.0228,0.8649,-6.55,7.86,0.03,26.59
3749,0.3311,-0.0238,0.8655,-6.46,7.77,-0.09,26.62
3759,0.33,-0.0223,0.8677,-6.64,7.92,-0.21,26.62
3769,0.3298,-0.0217,0.8701,-6.52,8.08,-0.08,26.59
3779,0.3301,-0.0243,0.8666,-6.52,7.95,-0.08,26.58
3789,0.3369,-0.025,0.8588,-6.46,7.83,-0.03,26.6
3799,0.3312,-0.0233,0.8634,-6.55,7.92,-0.09,26.62
3809,0.3319,-0.0239,0.8645,-6.5,7.89,-0.05,26.58
3819,0.3348,-0.0226,0.8578,-6.47,7.83,-0.05,26.6
3829,0.3359,-0.0227,0.8613,-6.53,7.83,-0.05,26.6
3839,0.3368,-0.0233,0.8678,-6.61,7.83,-0.05,26.6
3849,0.3347,-0.0217,0.8607,-6.44,7.82,-0.03,26.59
3859,0.3308,-0.0214,0.8594,-6.47,7.89,-0.03,26.59
3869,0.3361,-0.0206,0.8657,-6.55,7.82,-0.09,26.6
3879,0.333,-0.0237,0.8617,-6.46,7.85,-0.05,26.61
3889,0.3347,-0.0233,0.8632,-6.47,7.83,0.05,26.6
3900,0.3351,-0.025,0.8652,-6.46,7.91,-0.05,26.6
3910,0.3331,-0.0248,0.8655,-6.5,7.85,-0.09,26.62
3920,0.3331,-0.0208,0.8656,-6.46,7.91,0.0,26.6
3930,0.3336,-0.0233,0.8625,-6.46,7.88,0.0,26.61
3940,0.3351,-0.0247,0.8628,-6.49,7.83,0.03,26.6
3950,0.3311,-0.0219,0.8646,-6.46,7.88,0.03,26.62
3960,0.3339,-0.0249,0.8617,-6.49,7.86,-0.05,26.61
3970,0.3357,-0.0238,0.8644,-6.52,7.92,-0.03,26.58
3980,0.3328,-0.0238,0.8661,-6.52,7.89,-0.05,26.58
3990,0.3325,-0.0222,0.8658,-6.53,7.91,0.03,26.62
4000,0.3342,-0.0238,0.8628,-6.53,7.86,-0.12,26.6
4010,0.3328,-0.0249,0.8625,-6.52,7.82,-0.03,26.61
4020,0.3347,-0.0233,0.8663,-6.47,7.85,-0.03,26.61
4030,0.3312,-0.025,0.8628,-6.49,7.8,-0.11,26.6
4040,0.3335,-0.0219,0.8617,-6.55,7.91,0.08,26.6
4050,0.3352,-0.0231,0.8639,-6.47,7.85,-0.03,26.61
4060,0.335,-0.0249,0.8635,-6.49,7.88,-0.11,26.59
4070,0.3346,-0.0232,0.8629,-6.5,7.85,-0.05,26.61
4080,0.3336,-0.0227,0.8656,-6.5,7.83,0.0,26.6
4090,0.3359,-0.0238,0.8636,-6.49,7.82,-0.11,26.6
4100,0.3369,-0.0245,0.8621,-6.5,7.82,-0.06,26.62
4110,0.3345,-0.0237,0.8678,-6.47,7.82,-0.08,26.62
4120,0.3336,-0.0219,0.865,-6.46,7.86,-0.11,26.62
4130,0.3347,-0.0253,0.8684,-6.46,7.86,-0.02,26.62
4140,0.334,-0.0221,0.8622,-6.44,7.76,-0.09,26.61
4150,0.3336,-0.0245,0.8616,-6.37,7.85,0.02,26.61
4160,0.3324,-0.0245,0.8611,-6.47,7.79,0.08,26.6
4170,0.3317,-0.0251,0.8687,-6.46,7.88,-0.05,26.62
4180,0.3319,-0.0231,0.8652,-6.49,7.88,-0.06,26.61
4190,0.3335,-0.0265,0.8629,-6.49,7.88,-0.09,26.64
4200,0.3337,-0.0239,0.8654,-6.52,7.82,0.0,26.62
4210,0.3346,-0.0247,0.8633,-6.56,7.74,-0.02,26.62
4220,0.3341,-0.0249,0.8673,-6.55,7.85,-0.03,26.61
4230,0.3318,-0.0226,0.865,-6.6,7.88,0.0,26.58
4240,0.3314,-0.0231,0.8712,-6.56,7.79,-0.08,26.62
4250,0.334,-0.0221,0.8667,-6.49,7.92,-0.08,26.61
4260,0.3315,-0.0254,0.8645,-6.52,7.89,-0.08,26.62
4270,0.3341,-0.0249,0.8612,-6.44,7.85,0.0,26.6
4280,0.3339,-0.0238,0.8652,-6.49,7.83,-0.08,26.62
4290,0.3333,-0.0247,0.8634,-6.52,7.83,0.0,26.62
4300,0.3304,-0.0194,0.8645,-6.5,7.86,-0.03,26.63
4310,0.3345,-0.0223,0.8645,-6.52,7.88,-0.14,26.6
4320,0.3301,-0.0258,0.8644,-6.46,7.82,-0.02,26.62
4330,0.3336,-0.0258,0.8667,-6.49,7.79,-0.12,26.63
4340,0.332,-0.0239,0.866,-6.49,7.88,-0.05,26.61
4350,0.334,-0.0258,0.8635,-6.5,7.88,-0.05,26.64
4360,0.3334,-0.0254,0.864,-6.49,7.88,-0.05,26.63
4370,0.3351,-0.0233,0.8674,-6.49,7.88,-0.11,26.63
4380,0.3345,-0.0232,0.8634,-6.58,7.89,-0.02,26.64
4390,0.3357,-0.0219,0.8617,-6.52,7.85,0.06,26.6
4400,0.3352,-0.0226,0.8644,-6.5,7.86,0.05,26.62
4410,0.3348,-0.0248,0.8628,-6.46,7.89,-0.05,26.62
4420,0.3357,-0.0215,0.8618,-6.49,7.86,-0.02,26.61
4430,0.3322,-0.0238,0.8635,-6.44,7.83,-0.02,26.64
4440,0.3334,-0.0215,0.8643,-6.49,7.85,-0.08,26.64
4450,0.3346,-0.0236,0.8613,-6.5,7.89,-0.06,26.63
4460,0.3345,-0.024,0.8641,-6.53,7.86,0.0,26.65
4470,0.3329,-0.0245,0.8655,-6.44,7.86,-0.03,26.65
4480,0.3325,-0.0247,0.8597,-6.46,7.88,-0.02,26.65
4490,0.333,-0.0232,0.865,-6.49,7.83,-0.05,26.64
4500,0.3346,-0.0244,0.8627,-6.52,7.86,-0.06,26.65
4510,0.3334,-0.0237,0.8636,-6.53,7.91,0.0,26.64
4520,0.3354,-0.0247,0.8661,-6.52,7.88,0.0,26.66
4530,0.3362,-0.0247,0.8639,-6.43,7.89,-0.02,26.64
4540,0.3333,-0.0223,0.8622,-6.5,7.85,-0.08,26.64
4550,0.3335,-0.024,0.8654,-6.55,7.86,-0.03,26.63
4560,0.3348,-0.0211,0.8649,-6.55,7.85,-0.06,26.63
4570,0.3376,-0.0231,0.8624,-6.49,7.89,-0.08,26.65
4580,0.3347,-0.0231,0.8627,-6.55,7.85,-0.03,26.64
4590,0.3346,-0.0267,0.8624,-6.5,7.83,-0.09,26.66
4600,0.3329,-0.0222,0.8583,-6.49,7.88,-0.08,26.65
4610,0.3347,-0.0198,0.8634,-6.5,7.86,-0.08,26.65
4620,0.3342,-0.0211,0.8589,-6.53,7.89,-0.02,26.64
4630,0.3342,-0.0215,0.8663,-6.46,7.91,0.02,26.66
4640,0.3348,-0.0237,0.8624,-6.41,7.91,0.02,26.65
4650,0.3334,-0.0239,0.8647,-6.5,7.86,0.0,26.67
4660,0.3346,-0.0245,0.8636,-6.47,7.89,0.0,26.66
4670,0.3344,-0.0217,0.8645,-6.44,7.89,-0.02,26.66
4680,0.332,-0.0236,0.8666,-6.6,7.88,0.0,26.67
4690,0.333,-0.0221,0.8636,-6.52,7.82,-0.02,26.66
4700,0.3346,-0.0243,0.8635,-6.5,7.86,0.02,26.66
4710,0.3336,-0.0232,0.8633,-6.46,7.83,-0.02,26.66
4720,0.3339,-0.0219,0.8632,-6.53,7.86,-0.12,26.66
4730,0.3351,-0.0223,0.8608,-6.52,7.85,-0.08,26.67
4740,0.3328,-0.0238,0.8633,-6.52,7.83,-0.02,26.66
4750,0.333,-0.0227,0.8658,-6.52,7.8,-0.03,26.66
4760,0.3317,-0.0232,0.8605,-6.5,7.89,-0.06,26.64
4770,0.334,-0.0216,0.8656,-6.47,7.86,0.0,26.66
4780,0.3329,-0.0211,0.8672,-6.5,7.86,-0.08,26.64
4790,0.3329,-0.0223,0.8668,-6.49,7.88,-0.06,26.66
4800,0.3364,-0.025,0.8617,-6.5,7.85,-0.11,26.66
4810,0.3313,-0.0222,0.863,-6.49,7.85,-0.09,26.67
4820,0.3341,-0.0237,0.8651,-6.53,7.83,-0.03,26.64
4830,0.3303,-0.0255,0.8671,-6.5,7.89,-0.09,26.63
4840,0.3345,-0.0234,0.8666,-6.55,7.88,-0.05,26.67
4850,0.3328,-0.0221,0.8656,-6.53,7.86,-0.05,26.65
4860,0.3323,-0.0242,0.8645,-6.44,7.85,-0.03,26.66
4870,0.3341,-0.0223,0.8634,-6.58,7.91,0.02,26.64
4880,0.3344,-0.0236,0.8615,-6.49,7.86,-0.05,26.66
4890,0.3357,-0.0267,0.8645,-6.38,7.88,-0.08,26.65
4900,0.3334,-0.022,0.8632,-6.55,7.91,0.0,26.64
4910,0.3335,-0.0227,0.8633,-6.49,7.91,-0.05,26.65
4920,0.3307,-0.0221,0.8639,-6.46,7.85,-0.12,26.67
4930,0.3315,-0.0208,0.863,-6.49,7.89,-0.05,26.65
4940,0.334,-0.0209,0.8658,-6.49,7.88,0.0,26.66
4950,0.3333,-0.0256,0.8651,-6.5,7.86,-0.09,26.65
4960,0.3334,-0.0248,0.8633,-6.5,7.83,-0.06,26.66
4970,0.3311,-0.0245,0.8611,-6.49,7.83,-0.08,26.67
4980,0.3336,-0.0238,0.8597,-6.52,7.85,-0.06,26.67
4990,0.3353,-0.0222,0.8621,-6.52,7.88,-0.05,26.67
5000,0.3325,-0.0217,0.8628,-6.47,7.88,0.02,26.66
5010,0.3322,-0.0215,0.8621,-6.49,7.88,-0.06,26.69
5020,0.3331,-0.0228,0.8647,-6.47,7.88,-0.11,26.66
5030,0.3324,-0.0245,0.8623,-6.49,7.82,0.02,26.67
5040,0.3302,-0.0223,0.8607,-6.52,7.89,0.0,26.66
5050,0.3331,-0.0221,0.8635,-6.61,7.82,-0.03,26.68
5060,0.3315,-0.0234,0.8661,-6.5,7.91,-0.02,26.66
5070,0.3356,-0.022,0.8644,-6.47,7.83,-0.06,26.66
5080,0.3385,-0.0254,0.8669,-6.53,7.82,-0.12,26.65
5090,0.3347,-0.02,0.8595,-6.47,7.89,0.0,26.66
5100,0.3335,-0.0253,0.8651,-6.58,7.83,0.02,26.67
5110,0.3315,-0.0245,0.864,-6.46,7.91,0.0,26.65
5120,0.3334,-0.0228,0.8656,-6.55,7.91,-0.02,26.64
5130,0.3313,-0.0243,0.8654,-6.49,7.88,-0.14,26.66
5140,0.3313,-0.025,0.8662,-6.5,7.88,-0.03,26.68
5150,0.3313,-0.0243,0.8662,-6.49,7.86,-0.12,26.67
5160,0.3335,-0.0226,0.8665,-6.43,7.91,-0.05,26.67
5170,0.3333,-0.0223,0.8652,-6.41,7.86,-0.06,26.67
5180,0.3341,-0.0229,0.863,-6.53,7.91,-0.02,26.67
5190,0.333,-0.0234,0.8627,-6.44,7.89,-0.05,26.65
5200,0.3357,-0.0243,0.8613,-6.47,7.88,0.03,26.68
5210,0.3363,-0.0228,0.8634,-6.49,7.83,-0.02,26.68
5220,0.3345,-0.0236,0.8638,-6.5,7.86,-0.02,26.68
5230,0.3331,-0.0211,0.8635,-6.5,7.92,-0.11,26.67
5240,0.3336,-0.024,0.8629,-6.47,7.88,-0.08,26.67
5250,0.3342,-0.0217,0.8676,-6.5,7.83,-0.09,26.66
5260,0.332,-0.0212,0.8662,-6.49,7.86,0.02,26.67
5270,0.3314,-0.0226,0.8623,-6.44,7.89,-0.06,26.69
5280,0.3344,-0.0226,0.861,-6.58,7.83,-0.05,26.68
5290,0.3337,-0.0204,0.8657,-6.46,7.79,-0.12,26.67
5300,0.3361,-0.021,0.8679,-6.49,7.83,-0.09,26.68
5310,0.3344,-0.0243,0.8649,-6.46,7.85,-0.03,26.69
5320,0.3331,-0.0226,0.8639,-6.55,7.88,-0.05,26.7
5330,0.3331,-0.025,0.8654,-6.6,7.86,-0.06,26.67
5340,0.333,-0.0229,0.8662,-6.52,7.88,0.0,26.67
5350,0.3348,-0.0192,0.864,-6.55,7.88,-0.14,26.69
5360,0.3341,-0.0223,0.8623,-6.46,7.91,0.0,26.67
5370,0.3313,-0.0229,0.8623,-6.5,7.89,-0.02,26.67
5380,0.3362,-0.0214,0.8645,-6.5,7.85,0.0,26.68
5390,0.3353,-0.0214,0.8646,-6.56,7.82,-0.05,26.67
5400,0.3329,-0.0236,0.8668,-6.56,7.82,0.03,26.66
5410,0.3376,-0.0229,0.863,-6.43,7.91,-0.02,26.69
5420,0.3324,-0.0221,0.8625,-6.61,7.77,-0.06,26.69
5430,0.3353,-0.0211,0.8604,-6.47,7.92,-0.06,26.69
5440,0.3345,-0.0236,0.865,-6.5,7.86,-0.05,26.69
5450,0.3353,-0.0256,0.8638,-6.47,7.91,-0.06,26.68
5460,0.3342,-0.0242,0.8624,-6.6,7.86,-0.03,26.7
5470,0.3352,-0.024,0.8644,-6.53,7.91,-0.05,26.67
5480,0.3352,-0.0231,0.8649,-6.52,7.88,-0.08,26.69
5490,0.334,-0.0223,0.8663,-6.44,7.89,-0.08,26.67
5500,0.3376,-0.0217,0.8639,-6.5,7.83,-0.05,26.67
5510,0.3333,-0.0233,0.8663,-6.58,7.91,-0.03,26.68
5520,0.3353,-0.0239,0.8625,-6.46,7.95,-0.02,26.68
5530,0.3353,-0.0209,0.8643,-6.6,7.86,-0.02,26.71
5540,0.3322,-0.0225,0.8655,-6.47,7.91,0.03,26.66
5550,0.3335,-0.0223,0.8596,-6.47,7.95,-0.05,26.66
5560,0.3346,-0.0215,0.8616,-6.53,7.86,-0.03,26.68
5570,0.3322,-0.0245,0.8627,-6.5,7.86,-0.08,26.68
5580,0.3331,-0.0234,0.8629,-6.53,7.83,-0.09,26.67
5590,0.3329,-0.0232,0.8643,-6.49,7.88,-0.05,26.71
5600,0.3334,-0.0255,0.8621,-6.49,7.86,-0.06,26.68
5610,0.334,-0.0234,0.8645,-6.46,7.91,-0.02,26.69
5620,0.3357,-0.0259,0.8672,-6.55,7.83,-0.03,26.69
5630,0.3315,-0.0225,0.8602,-6.56,7.88,0.0,26.7
5640,0.334,-0.0251,0.8645,-6.58,7.86,-0.02,26.71
5650,0.3357,-0.0239,0.8662,-6.55,7.85,-0.05,26.67
5660,0.3341,-0.0229,0.8676,-6.5,7.89,-0.06,26.69
5670,0.3345,-0.0222,0.8615,-6.53,7.92,-0.09,26.71
5680,0.3325,-0.0199,0.8634,-6.52,7.85,0.0,26.69
5690,0.3333,-0.0211,0.8623,-6.5,7.79,-0.09,26.68
5700,0.3352,-0.0236,0.8638,-6.55,7.82,-0.06,26.7
5710,0.3335,-0.0231,0.8669,-6.49,7.88,-0.06,26.7
5720,0.3351,-0.0226,0.8627,-6.47,7.88,0.02,26.69
5730,0.3337,-0.0206,0.8667,-6.46,7.83,-0.09,26.71
5740,0.3353,-0.0221,0.8633,-6.49,7.8,-0.05,26.71
5750,0.3324,-0.0232,0.8627,-6.52,7.94,-0.06,26.7
5760,0.3333,-0.0238,0.8644,-6.53,7.89,-0.14,26.69
5770,0.3317,-0.022,0.8634,-6.53,7.83,-0.09,26.68
5780,0.3344,-0.0201,0.8644,-6.49,7.88,0.02,26.69
5790,0.3342,-0.0236,0.863,-6.53,7.88,-0.05,26.69
5800,0.3309,-0.0227,0.8624,-6.56,7.82,-0.03,26.7
5810,0.3341,-0.0223,0.8638,-6.53,7.91,0.0,26.71
5820,0.3354,-0.0267,0.8667,-6.55,7.94,0.02,26.71
5830,0.3341,-0.0222,0.8645,-6.49,7.86,0.03,26.71
5840,0.3324,-0.0223,0.8658,-6.53,7.83,0.03,26.71
5850,0.3353,-0.0254,0.869,-6.5,7.85,0.02,26.69
5860,0.3325,-0.0219,0.8643,-6.47,7.86,-0.03,26.69
5870,0.3325,-0.0225,0.8594,-6.53,7.88,-0.03,26.69
5880,0.3323,-0.0231,0.8645,-6.61,7.92,-0.11,26.71
5890,0.3341,-0.025,0.863,-6.52,7.88,-0.08,26.68
5900,0.3334,-0.0232,0.8647,-6.49,7.86,-0.05,26.7
5910,0.3317,-0.024,0.8634,-6.52,7.79,0.05,26.69
5920,0.3351,-0.0229,0.8667,-6.47,7.79,-0.08,26.68
5930,0.3348,-0.0228,0.8628,-6.49,7.82,0.0,26.68
5940,0.3342,-0.0227,0.8649,-6.49,7.85,-0.03,26.69
5950,0.3326,-0.0222,0.865,-6.5,7.8,-0.11,26.71
5960,0.3317,-0.0244,0.8607,-6.43,7.85,-0.06,26.68
5970,0.3331,-0.0253,0.8672,-6.5,7.95,-0.06,26.72
5980,0.3357,-0.0244,0.8629,-6.49,7.89,0.0,26.7
5990,0.335,-0.0227,0.8644,-6.5,7.88,0.0,26.7
6000,0.333,-0.0244,0.8662,-6.55,7.89,0.0,26.71
6010,0.3317,-0.0221,0.8639,-6.52,7.91,-0.03,26.7
6020,0.332,-0.0227,0.8647,-6.55,7.89,-0.05,26.7
6030,0.3346,-0.0226,0.8632,-6.5,7.91,-0.03,26.7
6040,0.3317,-0.026,0.8623,-6.46,7.91,0.0,26.7
6050,0.333,-0.0238,0.8616,-6.49,7.91,-0.06,26.7
6060,0.332,-0.0237,0.8621,-6.56,7.77,-0.05,26.7
6070,0.3347,-0.0254,0.8647,-6.5,7.86,-0.11,26.73
6080,0.3341,-0.0245,0.8633,-6.5,7.89,-0.11,26.7
6090,0.3348,-0.0217,0.8666,-6.53,7.85,-0.06,26.71
6100,0.3339,-0.0221,0.8624,-6.49,7.85,-0.03,26.72
6110,0.3337,-0.0233,0.8635,-6.49,7.8,0.03,26.7
6120,0.3335,-0.024,0.8674,-6.5,7.85,-0.11,26.67
6130,0.3344,-0.0243,0.8623,-6.53,7.86,-0.02,26.69
6140,0.3317,-0.0259,0.8632,-6.47,7.82,-0.02,26.71
6150,0.3342,-0.0238,0.8662,-6.5,7.86,0.0,26.68
6160,0.334,-0.0232,0.8629,-6.52,7.91,-0.03,26.7
6170,0.3351,-0.0221,0.8635,-6.55,7.86,-0.06,26.69
6180,0.3361,-0.0239,0.8634,-6.49,7.82,-0.05,26.7
6190,0.3323,-0.0242,0.8673,-6.53,7.89,-0.06,26.72
6200,0.3346,-0.0225,0.866,-6.6,7.79,-0.05,26.7
6210,0.3333,-0.0238,0.8677,-6.55,7.83,-0.09,26.69
6220,0.3337,-0.0238,0.8616,-6.55,7.88,-0.05,26.7
6230,0.3356,-0.0227,0.8643,-6.53,7.83,-0.03,26.72
6240,0.333,-0.0217,0.8647,-6.56,7.88,-0.11,26.71
6251,0.3352,-0.0211,0.8652,-6.53,7.8,-0.05,26.7
6261,0.3308,-0.0231,0.8654,-6.52,7.89,-0.09,26.71
6271,0.3315,-0.0206,0.8629,-6.5,7.82,0.05,26.69
6281,0.3315,-0.0215,0.8673,-6.56,7.88,-0.03,26.72
6291,0.3351,-0.0221,0.8668,-6.5,7.89,-0.03,26.71
6301,0.3334,-0.0231,0.8612,-6.5,7.91,-0.02,26.69
6311,0.3346,-0.0217,0.861,-6.46,7.89,-0.03,26.72
6321,0.3335,-0.0219,0.8689,-6.53,7.88,-0.05,26.73
6331,0.3342,-0.0242,0.8674,-6.43,7.86,-0.06,26.72
6341,0.3336,-0.0222,0.8636,-6.53,7.83,-0.06,26.72
6351,0.3352,-0.0248,0.8651,-6.53,7.82,-0.05,26.68
6361,0.3353,-0.0216,0.8621,-6.5,7.83,-0.03,26.72
6371,0.335,-0.021,0.8636,-6.44,7.89,-0.02,26.74
6381,0.3328,-0.0206,0.865,-6.49,7.88,-0.14,26.72
6391,0.3336,-0.0237,0.864,-6.53,7.86,-0.03,26.71
6401,0.335,-0.0225,0.864,-6.5,7.82,-0.03,26.71
6411,0.3362,-0.0238,0.8624,-6.46,7.88,-0.03,26.72
6421,0.3322,-0.0211,0.8636,-6.5,7.85,-0.02,26.72
6431,0.334,-0.0227,0.8655,-6.47,7.85,-0.03,26.71
6446,0.3364,-0.0206,0.8643,-6.35,7.77,0.34,26.71
6456,0.3368,-0.024,0.864,-6.49,7.73,-0.02,26.72
6466,0.334,-0.0215,0.8688,-6.52,7.91,-0.11,26.72
6476,0.3357,-0.0254,0.8644,-6.47,7.89,-0.02,26.73
6486,0.3352,-0.0219,0.8632,-6.56,7.85,-0.06,26.74
6496,0.334,-0.0232,0.8612,-6.55,7.82,-0.08,26.74
6506,0.3334,-0.0238,0.8628,-6.44,7.88,-0.06,26.73
6516,0.3322,-0.0238,0.8635,-6.47,7.86,0.03,26.72
6526,0.3301,-0.0219,0.8654,-6.6,7.86,-0.03,26.72
6536,0.3336,-0.0221,0.8607,-6.58,7.86,-0.03,26.73
6546,0.3314,-0.0204,0.8621,-6.58,7.89,-0.02,26.72
6556,0.3353,-0.0205,0.8621,-6.56,7.86,-0.02,26.73
6566,0.3337,-0.0229,0.8636,-6.5,7.83,-0.02,26.71
6576,0.3306,-0.0225,0.8667,-6.52,7.85,-0.06,26.73
6586,0.3322,-0.021,0.8646,-6.55,7.92,-0.12,26.72
6596,0.3336,-0.0216,0.8628,-6.53,7.91,-0.06,26.73
6606,0.3346,-0.0222,0.8649,-6.61,7.88,-0.03,26.74
6616,0.334,-0.0239,0.8632,-6.56,7.91,-0.09,26.73
6626,0.3328,-0.0216,0.8643,-6.5,7.91,-0.08,26.74
6636,0.3333,-0.0249,0.8611,-6.49,7.88,-0.03,26.74
6646,0.3336,-0.0219,0.8639,-6.56,7.88,-0.08,26.72
6656,0.3363,-0.0239,0.8629,-6.5,7.91,-0.09,26.74
6666,0.3322,-0.0261,0.8634,-6.53,7.76,-0.06,26.73
6676,0.3306,-0.0251,0.8654,-6.47,7.88,-0.03,26.72
6686,0.3378,-0.0238,0.8627,-6.46,7.82,-0.05,26.74
6696,0.3362,-0.0229,0.8636,-6.47,7.8,-0.06,26.72
6706,0.3333,-0.0211,0.8632,-6.43,7.88,-0.06,26.72
6716,0.3362,-0.022,0.8629,-6.44,7.92,-0.06,26.73
6726,0.3308,-0.0262,0.8651,-6.49,7.86,-0.05,26.75
6736,0.3342,-0.0225,0.8676,-6.5,7.86,0.03,26.72
6746,0.334,-0.0225,0.8658,-6.41,7.88,-0.05,26.71
6756,0.3315,-0.0262,0.8632,-6.4,7.92,-0.08,26.74
6766,0.3324,-0.0219,0.8634,-6.53,7.89,-0.05,26.7
6776,0.335,-0.0234,0.8635,-6.49,7.85,-0.06,26.73
6786,0.3361,-0.0245,0.8618,-6.5,7.92,0.03,26.74
6796,0.3341,-0.0234,0.8655,-6.5,7.92,0.0,26.74
6806,0.3348,-0.0229,0.8638,-6.53,7.89,-0.02,26.74
6816,0.3346,-0.0245,0.8701,-6.56,7.89,-0.06,26.73
6826,0.3335,-0.0233,0.8619,-6.53,7.86,-0.05,26.72
6836,0.3342,-0.0242,0.8647,-6.43,7.92,-0.06,26.75
6846,0.3328,-0.0225,0.8644,-6.47,7.86,-0.02,26.74
6856,0.3347,-0.0234,0.8666,-6.5,7.85,-0.03,26.74
6866,0.3335,-0.0239,0.8672,-6.52,7.82,-0.05,26.75
6876,0.3325,-0.0217,0.8633,-6.46,7.88,-0.02,26.75
6886,0.3345,-0.0215,0.8673,-6.49,7.89,-0.02,26.74
6896,0.3352,-0.0221,0.8625,-6.56,7.94,-0.08,26.74
6906,0.3342,-0.0258,0.8645,-6.56,7.86,-0.03,26.74
6916,0.3361,-0.0203,0.8634,-6.47,7.88,-0.05,26.72
6926,0.3346,-0.0226,0.8633,-6.52,7.82,0.02,26.71
6936,0.3353,-0.0242,0.8641,-6.37,7.83,-0.06,26.73
6946,0.3358,-0.025,0.8658,-6.5,7.85,-0.11,26.72
6956,0.3344,-0.0264,0.8616,-6.52,7.86,-0.05,26.72
6966,0.3347,-0.0242,0.86,-6.56,7.83,-0.02,26.74
6976,0.3359,-0.0238,0.8644,-6.55,7.91,0.03,26.73
6986,0.3329,-0.0206,0.8656,-6.49,7.86,0.0,26.73
6996,0.3331,-0.0231,0.8644,-6.5,7.88,-0.05,26.73
7006,0.334,-0.0221,0.8651,-6.55,7.91,-0.03,26.76
7017,0.3362,-0.0259,0.8634,-6.47,7.91,-0.09,26.74
7027,0.3339,-0.0244,0.8634,-6.5,7.91,-0.11,26.76
7037,0.3329,-0.0238,0.8643,-6.44,7.89,-0.09,26.77
7047,0.3369,-0.0219,0.8621,-6.52,7.83,-0.09,26.73
7057,0.333,-0.0234,0.8632,-6.55,7.86,-0.08,26.73
7067,0.3336,-0.0242,0.8678,-6.56,7.89,-0.06,26.73
7077,0.3337,-0.021,0.8635,-6.63,7.88,-0.06,26.74
7087,0.3365,-0.0232,0.8634,-6.58,7.88,-0.03,26.74
7097,0.332,-0.0243,0.8646,-6.47,7.82,-0.08,26.74
7107,0.3345,-0.0229,0.8639,-6.49,7.85,-0.03,26.73
7117,0.3348,-0.0243,0.8627,-6.5,7.8,-0.02,26.73
7127,0.3351,-0.0225,0.8671,-6.5,7.85,-0.03,26.76
7137,0.334,-0.0228,0.8645,-6.52,7.86,-0.02,26.74
7147,0.3325,-0.026,0.864,-6.5,7.83,-0.05,26.74
7157,0.3308,-0.0244,0.8696,-6.56,7.85,-0.02,26.74
7167,0.3315,-0.0242,0.8676,-6.53,7.86,-0.09,26.76
7177,0.3347,-0.0232,0.8645,-6.5,7.85,-0.11,26.72
7187,0.3342,-0.0248,0.8628,-6.44,7.89,-0.02,26.74
7197,0.3323,-0.0238,0.8616,-6.46,7.91,-0.08,26.73
7207,0.3347,-0.0228,0.8657,-6.5,7.88,-0.06,26.74
7217,0.3363,-0.0244,0.8677,-6.5,7.85,0.0,26.75
7227,0.334,-0.0239,0.8622,-6.46,7.88,-0.03,26.74
7237,0.3336,-0.0205,0.8654,-6.61,7.85,0.0,26.74
7247,0.3347,-0.0254,0.866,-6.53,7.83,-0.02,26.73
7257,0.3328,-0.0236,0.8621,-6.49,7.88,-0.05,26.72
7267,0.3335,-0.024,0.8641,-6.52,7.91,-0.08,26.74
7277,0.333,-0.0247,0.864,-6.44,7.89,-0.03,26.74
7287,0.3315,-0.0231,0.868,-6.46,7.83,0.0,26.73
7297,0.332,-0.0199,0.8649,-6.5,7.91,-0.02,26.78
7307,0.3341,-0.0222,0.8688,-6.5,7.95,0.02,26.76
7317,0.3339,-0.0261,0.8668,-6.46,7.88,0.0,26.76
7327,0.3333,-0.0212,0.8661,-6.52,7.82,0.03,26.77
7337,0.3346,-0.025,0.8688,-6.47,7.94,-0.05,26.74
7347,0.3331,-0.0238,0.8639,-6.47,7.91,-0.02,26.77
7357,0.3331,-0.0255,0.8639,-6.52,7.86,-0.06,26.76
7367,0.3359,-0.0253,0.8639,-6.52,7.83,-0.05,26.73
7377,0.3315,-0.0251,0.8651,-6.53,7.88,-0.03,26.75
7387,0.3312,-0.0205,0.8657,-6.44,7.88,0.03,26.75
7397,0.3328,-0.024,0.8644,-6.55,7.91,-0.06,26.76
7407,0.3353,-0.021,0.8638,-6.5,7.86,-0.03,26.76
7417,0.3372,-0.0225,0.8674,-6.5,7.91,-0.08,26.72
7427,0.3358,-0.0233,0.8628,-6.47,7.89,-0.02,26.74
7437,0.3331,-0.0219,0.8571,-6.52,7.85,-0.05,26.76
7447,0.332,-0.0219,0.8641,-6.49,7.85,-0.02,26.74
7458,0.3328,-0.0258,0.8641,-6.47,7.94,-0.05,26.75
7469,0.3298,-0.0228,0.8649,-6.53,7.85,0.05,26.74
7479,0.3344,-0.0223,0.8668,-6.44,7.91,0.02,26.72
7489,0.3326,-0.0248,0.861,-6.5,7.92,0.02,26.75
7499,0.3319,-0.0247,0.8644,-6.6,7.79,-0.08,26.75
7509,0.3341,-0.0239,0.8655,-6.49,7.88,0.0,26.75
7519,0.3319,-0.0223,0.8666,-6.5,7.86,-0.05,26.73
7529,0.3342,-0.0238,0.8616,-6.52,7.83,-0.05,26.74
7539,0.332,-0.0231,0.8645,-6.46,7.88,-0.05,26.73
7549,0.3315,-0.0221,0.8651,-6.49,7.86,-0.14,26.74
7559,0.3337,-0.024,0.8661,-6.56,7.91,-0.03,26.74
7569,0.3339,-0.0228,0.8655,-6.5,7.91,0.02,26.74
7579,0.3345,-0.0244,0.866,-6.52,7.83,-0.09,26.74
7589,0.3341,-0.0228,0.8629,-6.58,7.91,-0.08,26.74
7599,0.3303,-0.0236,0.8635,-6.5,7.89,-0.06,26.74
7609,0.3331,-0.0225,0.869,-6.47,7.89,-0.02,26.75
7619,0.3335,-0.0239,0.8615,-6.47,7.85,-0.08,26.73
7629,0.3368,-0.0194,0.8652,-6.6,7.79,-0.05,26.74
7639,0.3323,-0.0226,0.865,-6.49,7.85,-0.02,26.72
7649,0.333,-0.0219,0.8634,-6.4,7.82,0.05,26.77
7659,0.3375,-0.0204,0.8687,-6.5,7.88,-0.05,26.76
7669,0.3354,-0.0244,0.8647,-6.53,7.91,-0.03,26.76
7679,0.333,-0.0231,0.8647,-6.63,7.88,-0.08,26.74
7689,0.3348,-0.0228,0.8634,-6.55,7.89,-0.14,26.74
7699,0.3323,-0.0238,0.8612,-6.53,7.86,-0.12,26.74
7709,0.3324,-0.0253,0.8669,-6.5,7.88,-0.03,26.75
7719,0.333,-0.0206,0.8617,-6.53,7.8,-0.08,26.73
7729,0.332,-0.0256,0.8651,-6.53,7.79,-0.05,26.74
7739,0.3346,-0.0203,0.8657,-6.52,7.83,-0.02,26.74
7749,0.3325,-0.0219,0.8616,-6.49,7.85,-0.05,26.74
7759,0.3352,-0.0234,0.8651,-6.5,7.85,-0.02,26.76
7769,0.3353,-0.0233,0.8649,-6.55,7.88,-0.03,26.76
7779,0.3376,-0.0199,0.8651,-6.46,7.83,0.02,26.74
7789,0.3318,-0.022,0.8618,-6.49,7.88,-0.03,26.73
7799,0.3357,-0.0226,0.8608,-6.49,7.89,0.03,26.73
7809,0.3335,-0.0214,0.8632,-6.53,7.85,-0.12,26.74
7819,0.3361,-0.0242,0.865,-6.49,7.83,-0.03,26.75
7829,0.3339,-0.0212,0.8624,-6.56,7.94,-0.06,26.77
7839,0.3319,-0.0216,0.8655,-6.49,7.92,-0.08,26.76
7849,0.3323,-0.0238,0.8667,-6.52,7.86,-0.09,26.74
7859,0.3339,-0.0242,0.8646,-6.44,7.83,-0.11,26.71
7869,0.3315,-0.0236,0.8621,-6.56,7.85,-0.02,26.76
7879,0.3363,-0.0239,0.8638,-6.49,7.91,-0.09,26.75
7889,0.3346,-0.0248,0.8615,-6.49,7.86,-0.09,26.72
7899,0.3326,-0.0243,0.8632,-6.55,7.88,-0.11,26.73
7909,0.3317,-0.0265,0.8647,-6.46,7.92,-0.06,26.77
7919,0.3352,-0.0231,0.8624,-6.5,7.88,-0.09,26.75
7929,0.3357,-0.0242,0.8667,-6.5,7.83,-0.02,26.75
7939,0.3315,-0.025,0.861,-6.52,7.85,-0.06,26.75
7949,0.3344,-0.0222,0.8634,-6.49,7.86,0.02,26.77
7959,0.3341,-0.0249,0.8646,-6.55,7.85,-0.02,26.74
7969,0.3351,-0.025,0.8649,-6.56,7.88,-0.05,26.74
7979,0.3328,-0.0219,0.8665,-6.53,7.86,-0.03,26.74
7989,0.3325,-0.0248,0.8613,-6.58,7.92,-0.02,26.74
7999,0.3331,-0.0245,0.8644,-6.56,7.86,-0.03,26.74
8009,0.3352,-0.0243,0.8652,-6.5,7.92,-0.03,26.73
8019,0.333,-0.0223,0.8656,-6.5,7.8,-0.06,26.78
8029,0.3331,-0.0256,0.8643,-6.5,7.88,-0.06,26.74
8039,0.332,-0.0226,0.8651,-6.55,7.91,-0.06,26.74
8049,0.3339,-0.0232,0.8665,-6.55,7.85,-0.06,26.75
8059,0.3322,-0.024,0.8611,-6.53,7.86,0.02,26.75
8069,0.3348,-0.0254,0.8651,-6.46,7.86,0.05,26.76
8079,0.3334,-0.0265,0.8604,-6.46,7.88,-0.06,26.73
8089,0.333,-0.0232,0.8617,-6.55,7.85,-0.08,26.75
8099,0.3346,-0.0232,0.8615,-6.53,7.82,-0.08,26.76
8109,0.332,-0.022,0.864,-6.53,7.92,-0.08,26.74
8119,0.332,-0.0223,0.8641,-6.52,7.91,-0.05,26.74
8129,0.3341,-0.0221,0.8605,-6.46,7.95,-0.02,26.76
8139,0.334,-0.0238,0.8645,-6.55,7.89,-0.02,26.77
8149,0.334,-0.0238,0.8643,-6.5,7.86,-0.03,26.78
8159,0.3345,-0.0234,0.8655,-6.6,7.91,-0.09,26.76
8169,0.3329,-0.025,0.8647,-6.52,7.82,-0.05,26.75
8179,0.3354,-0.026,0.8649,-6.58,7.89,-0.08,26.77
8189,0.3301,-0.0248,0.864,-6.61,7.91,-0.03,26.77
8199,0.3325,-0.0237,0.8619,-6.49,7.85,-0.05,26.77
8209,0.3351,-0.0232,0.8619,-6.6,7.86,0.02,26.76
8219,0.3319,-0.0242,0.8605,-6.55,7.89,-0.03,26.74
8229,0.3329,-0.0227,0.8628,-6.58,7.83,-0.05,26.79
8239,0.3318,-0.0248,0.864,-6.5,7.83,-0.05,26.78
8249,0.3336,-0.0238,0.8668,-6.55,7.83,0.0,26.77
8259,0.3337,-0.0244,0.8677,-6.46,7.91,-0.03,26.76
8269,0.3359,-0.0227,0.8656,-6.49,7.91,-0.14,26.77
8279,0.3326,-0.0229,0.8647,-6.53,7.88,-0.03,26.76
8289,0.3359,-0.0239,0.8644,-6.46,7.8,-0.03,26.77
8299,0.3328,-0.0237,0.8668,-6.47,7.85,-0.02,26.78
8309,0.3329,-0.0228,0.8617,-6.56,7.83,-0.12,26.79
8319,0.334,-0.0239,0.8646,-6.56,7.83,-0.06,26.77
8329,0.3287,-0.021,0.8634,-6.55,7.85,-0.05,26.79
8339,0.3337,-0.0214,0.8596,-6.49,7.86,-0.08,26.79
8349,0.3341,-0.0231,0.8671,-6.52,7.91,-0.03,26.79
8359,0.3333,-0.0236,0.8669,-6.47,7.82,-0.08,26.77
8369,0.334,-0.0231,0.8649,-6.49,7.86,-0.02,26.78
8379,0.3335,-0.024,0.8654,-6.5,7.86,0.0,26.79
8389,0.3346,-0.0222,0.8658,-6.52,7.86,-0.03,26.76
8399,0.3322,-0.0244,0.8634,-6.52,7.82,-0.08,26.74
8409,0.3322,-0.0226,0.8641,-6.53,7.83,-0.09,26.78
8419,0.3356,-0.0248,0.8646,-6.53,7.83,-0.06,26.78
8430,0.3322,-0.0233,0.863,-6.5,7.8,-0.06,26.76
8440,0.3363,-0.0229,0.8649,-6.55,7.83,-0.03,26.77
8450,0.335,-0.0251,0.8657,-6.49,7.83,-0.03,26.79
8460,0.3336,-0.0249,0.8647,-6.61,7.88,-0.05,26.77
8470,0.3342,-0.0193,0.8623,-6.5,7.89,-0.05,26.78
8480,0.3346,-0.0225,0.8624,-6.55,7.85,-0.03,26.77
8490,0.335,-0.0243,0.8645,-6.61,7.85,-0.03,26.77
8500,0.3348,-0.022,0.8669,-6.58,7.92,-0.14,26.77
8510,0.3324,-0.0209,0.8639,-6.55,7.91,0.0,26.77
8520,0.3346,-0.0247,0.8644,-6.52,7.83,-0.06,26.78
8530,0.3331,-0.0231,0.8649,-6.56,7.85,0.0,26.78
8540,0.333,-0.0233,0.8629,-6.46,7.86,-0.03,26.79
8550,0.3363,-0.0234,0.8665,-6.56,7.83,-0.05,26.78
8560,0.3353,-0.0247,0.863,-6.55,7.77,-0.05,26.75
8570,0.3348,-0.0249,0.8641,-6.52,7.92,0.05,26.77
8580,0.3345,-0.0228,0.8621,-6.58,7.91,0.0,26.77
8590,0.3339,-0.0216,0.8618,-6.5,7.89,-0.05,26.79
8600,0.3328,-0.0248,0.8628,-6.53,7.85,-0.06,26.78
8610,0.3341,-0.0232,0.8593,-6.5,7.89,0.0,26.77
8620,0.3347,-0.0233,0.8616,-6.6,7.89,-0.03,26.79
8630,0.3367,-0.0239,0.8644,-6.52,7.89,-0.08,26.79
8640,0.3319,-0.0245,0.8647,-6.47,7.85,-0.05,26.79
8650,0.3329,-0.0212,0.8654,-6.6,7.88,-0.14,26.77
8660,0.3335,-0.021,0.8622,-6.58,7.8,-0.08,26.76
8670,0.3342,-0.0244,0.8635,-6.46,7.83,-0.03,26.78
8680,0.3329,-0.0253,0.8663,-6.53,7.88,-0.09,26.75
8690,0.3342,-0.0245,0.868,-6.53,7.91,-0.06,26.77
8700,0.3323,-0.0226,0.8608,-6.52,7.89,-0.03,26.73
8710,0.3322,-0.0248,0.8624,-6.47,7.83,-0.03,26.76
8720,0.3342,-0.0212,0.8633,-6.55,7.92,-0.09,26.75
8730,0.3319,-0.0228,0.863,-6.46,7.88,-0.05,26.77
8740,0.3346,-0.0234,0.8596,-6.47,7.79,-0.05,26.78
8750,0.3359,-0.0233,0.8604,-6.6,7.77,0.03,26.76
8760,0.3361,-0.0247,0.8652,-6.49,7.83,-0.09,26.79
8770,0.3331,-0.0227,0.8643,-6.47,7.94,-0.03,26.76
8780,0.3322,-0.0219,0.8635,-6.56,7.85,-0.05,26.8
8790,0.334,-0.0212,0.8639,-6.56,7.8,-0.06,26.78
8800,0.3354,-0.0228,0.8635,-6.56,7.8,-0.03,26.76
8810,0.3346,-0.0219,0.8663,-6.52,7.88,-0.03,26.78
8820,0.3344,-0.0208,0.8632,-6.49,7.82,-0.09,26.77
8830,0.3357,-0.0222,0.8663,-6.58,7.86,-0.05,26.76
8840,0.3373,-0.0233,0.8652,-6.5,7.83,-0.03,26.75
8850,0.334,-0.0243,0.8612,-6.53,7.91,-0.09,26.75
8860,0.3328,-0.0227,0.8665,-6.5,7.91,-0.09,26.79
8870,0.3353,-0.024,0.8608,-6.6,7.86,-0.05,26.77
8880,0.3325,-0.0243,0.8689,-6.52,7.85,-0.05,26.78
8890,0.3317,-0.0255,0.8611,-6.56,7.89,-0.05,26.77
8900,0.3342,-0.024,0.8657,-6.53,7.82,-0.08,26.76
8910,0.3331,-0.0254,0.8645,-6.53,7.89,-0.02,26.76
8920,0.329,-0.025,0.8658,-6.46,7.88,-0.05,26.75
8930,0.3322,-0.0238,0.8632,-6.5,7.89,-0.06,26.77
8940,0.338,-0.0221,0.8641,-6.52,7.83,-0.05,26.78
8950,0.3339,-0.0222,0.8619,-6.5,7.89,-0.02,26.76
8960,0.3329,-0.0251,0.8617,-6.47,7.88,-0.02,26.78
8970,0.3353,-0.0226,0.8657,-6.49,7.79,-0.08,26.8
8980,0.3339,-0.0234,0.8678,-6.52,7.83,-0.12,26.76
8990,0.3329,-0.0227,0.8627,-6.49,7.86,0.03,26.8
9000,0.3365,-0.026,0.86,-6.49,7.91,-0.06,26.78
9010,0.3331,-0.0226,0.8624,-6.55,7.92,-0.11,26.8
9020,0.334,-0.0204,0.8676,-6.5,7.83,-0.08,26.78
9030,0.3357,-0.0242,0.8625,-6.55,7.83,-0.09,26.78
9040,0.3314,-0.0227,0.8647,-6.46,7.86,-0.02,26.79
9050,0.3306,-0.0267,0.8645,-6.53,7.85,-0.05,26.79
9060,0.333,-0.0238,0.8646,-6.5,7.88,0.0,26.79
9070,0.3333,-0.0222,0.8658,-6.6,7.77,0.03,26.79
9080,0.3351,-0.0259,0.8647,-6.52,7.91,-0.08,26.8
9090,0.3319,-0.0239,0.8678,-6.53,7.91,0.0,26.82
9100,0.3354,-0.0226,0.8666,-6.5,7.77,-0.06,26.82
9110,0.3381,-0.0239,0.8657,-6.53,7.85,-0.05,26.82
9120,0.3359,-0.024,0.8666,-6.47,7.92,-0.09,26.78
9130,0.3376,-0.0234,0.8655,-6.52,7.89,0.03,26.79
9140,0.3356,-0.0236,0.8645,-6.49,7.91,0.03,26.81
9150,0.3293,-0.0262,0.8628,-6.52,7.88,-0.09,26.81
9160,0.3334,-0.0226,0.8647,-6.61,7.86,-0.14,26.79
9170,0.3337,-0.0248,0.8593,-6.52,7.82,-0.05,26.77
9180,0.3359,-0.0247,0.8641,-6.5,7.89,0.0,26.8
9190,0.333,-0.022,0.8618,-6.56,7.88,-0.08,26.79
9200,0.3341,-0.0205,0.8639,-6.56,7.94,0.0,26.79
9210,0.3344,-0.0233,0.8647,-6.55,7.98,-0.03,26.8
9220,0.3322,-0.0258,0.8662,-6.55,7.94,-0.06,26.77
9230,0.3348,-0.0256,0.8612,-6.5,7.89,-0.02,26.8
9240,0.3351,-0.024,0.8638,-6.5,7.85,-0.12,26.78
9250,0.3319,-0.0251,0.8645,-6.56,7.85,-0.03,26.79
9260,0.3337,-0.0227,0.8641,-6.5,7.82,0.0,26.8
9270,0.3344,-0.0232,0.8658,-6.47,7.94,0.02,26.81
9280,0.3353,-0.0225,0.8666,-6.46,7.83,-0.02,26.79
9290,0.333,-0.0226,0.865,-6.41,7.88,-0.05,26.78
9300,0.3345,-0.0222,0.8649,-6.46,7.83,-0.05,26.78
9310,0.3325,-0.0245,0.8702,-6.5,7.77,-0.12,26.8
9320,0.3329,-0.0238,0.864,-6.43,7.91,-0.02,26.81
9330,0.3313,-0.0225,0.8628,-6.5,7.85,-0.11,26.8
9340,0.3314,-0.0222,0.8641,-6.38,7.85,-0.14,26.8
9350,0.3324,-0.0243,0.869,-6.56,7.89,-0.08,26.79
9360,0.3334,-0.0226,0.861,-6.5,7.83,-0.06,26.8
9370,0.3352,-0.024,0.8627,-6.46,7.88,-0.03,26.8
9380,0.3329,-0.0244,0.8636,-6.49,7.86,-0.03,26.8
9390,0.333,-0.0253,0.8655,-6.5,7.8,0.02,26.8
9400,0.3311,-0.0209,0.8633,-6.5,7.76,0.0,26.81
9410,0.3329,-0.0244,0.8651,-6.55,7.82,-0.02,26.8
9420,0.3339,-0.0216,0.8657,-6.53,7.86,-0.08,26.79
9430,0.3329,-0.0209,0.8662,-6.49,7.85,-0.02,26.8
9440,0.3335,-0.0232,0.8621,-6.53,7.85,-0.12,26.79
9450,0.3319,-0.0221,0.8649,-6.44,7.91,-0.03,26.78
9460,0.3352,-0.0228,0.865,-6.56,7.85,-0.03,26.8
9470,0.3323,-0.0212,0.8667,-6.46,7.83,-0.05,26.79
9480,0.3317,-0.0222,0.8674,-6.5,7.89,-0.02,26.79
9490,0.335,-0.0258,0.864,-6.5,7.91,0.0,26.8
9500,0.3342,-0.0233,0.8657,-6.46,7.92,0.06,26.79
9510,0.3348,-0.0256,0.8632,-6.53,7.83,-0.08,26.81
9520,0.33,-0.0244,0.8636,-6.47,7.88,-0.03,26.81
9530,0.3323,-0.0208,0.8639,-6.47,7.88,-0.08,26.79
9540,0.3358,-0.0221,0.8624,-6.49,7.8,-0.02,26.8
9550,0.3347,-0.0232,0.8666,-6.52,7.86,-0.09,26.76
9560,0.3344,-0.0225,0.8616,-6.47,7.85,-0.06,26.81
9570,0.3323,-0.0239,0.863,-6.55,7.89,0.03,26.8
9580,0.3322,-0.0225,0.8661,-6.52,7.89,0.02,26.8
9590,0.3345,-0.0225,0.8662,-6.53,7.94,-0.06,26.82
9601,0.3313,-0.0211,0.8651,-6.58,7.8,-0.08,26.79
9611,0.3363,-0.0242,0.8625,-6.5,7.85,-0.06,26.83
9621,0.3331,-0.0247,0.8643,-6.44,7.91,-0.03,26.82
9631,0.3325,-0.0222,0.8615,-6.5,7.82,-0.12,26.8
9642,0.3337,-0.0251,0.8658,-6.49,7.85,-0.06,26.82
9652,0.3325,-0.024,0.8658,-6.49,7.88,-0.05,26.79
9662,0.3353,-0.0231,0.8629,-6.6,7.82,-0.03,26.8
9672,0.3348,-0.0248,0.865,-6.53,7.83,0.0,26.79
9682,0.3328,-0.0206,0.8662,-6.6,7.88,-0.03,26.82
9692,0.335,-0.0226,0.865,-6.46,7.82,-0.11,26.79
9702,0.3379,-0.0223,0.8619,-6.49,7.89,0.0,26.79
9712,0.3359,-0.0198,0.8645,-6.41,7.89,-0.02,26.8
9722,0.3335,-0.0221,0.8647,-6.47,7.89,-0.09,26.79
9732,0.3354,-0.0217,0.8621,-6.58,7.92,-0.06,26.8
9742,0.3353,-0.0231,0.8635,-6.61,7.82,0.0,26.79
9752,0.3351,-0.0229,0.8641,-6.49,7.89,-0.08,26.79
9762,0.3373,-0.0225,0.8646,-6.49,7.88,-0.08,26.79
9772,0.3342,-0.0261,0.8652,-6.5,7.79,-0.05,26.79
9782,0.3336,-0.0258,0.8649,-6.47,7.83,0.03,26.81
9792,0.3351,-0.0253,0.8629,-6.49,7.85,-0.08,26.79
9802,0.3323,-0.0242,0.8623,-6.49,7.83,-0.05,26.8
9812,0.3333,-0.0212,0.8617,-6.46,7.86,-0.06,26.8
9822,0.3354,-0.0233,0.8677,-6.58,7.8,0.0,26.8
9832,0.3353,-0.0247,0.8621,-6.5,7.89,-0.05,26.8
9842,0.3348,-0.024,0.8644,-6.55,7.86,-0.08,26.79
9852,0.333,-0.0236,0.8658,-6.52,7.8,0.0,26.8
9862,0.3329,-0.0229,0.8615,-6.63,7.86,-0.05,26.82
9872,0.332,-0.0232,0.8638,-6.44,7.94,0.0,26.81
9882,0.3346,-0.0245,0.8645,-6.52,7.86,-0.11,26.81
9892,0.3334,-0.0272,0.8622,-6.6,7.82,-0.06,26.79
9902,0.3323,-0.0225,0.8668,-6.5,7.94,-0.03,26.78
9912,0.3296,-0.0229,0.8665,-6.5,7.82,-0.02,26.78
9922,0.3337,-0.0229,0.8655,-6.56,7.86,-0.03,26.79
9932,0.3353,-0.0208,0.8643,-6.49,7.91,-0.08,26.79
9942,0.3346,-0.0223,0.8633,-6.53,7.92,-0.08,26.8
9952,0.3356,-0.0238,0.8624,-6.53,7.83,0.0,26.8
9962,0.3311,-0.0272,0.8656,-6.52,7.97,-0.11,26.79
9972,0.3323,-0.0225,0.8641,-6.49,7.89,-0.08,26.78
9982,0.3352,-0.0229,0.8605,-6.46,7.83,-0.03,26.8
9992,0.3336,-0.0225,0.8655,-6.43,7.92,-0.08,26.8
10002,0.3314,-0.0217,0.8661,-6.5,7.91,-0.06,26.79
10013,0.3342,-0.0255,0.8667,-6.5,7.89,-0.05,26.8
10023,0.3308,-0.0204,0.8649,-6.56,7.82,-0.05,26.82
10033,0.3347,-0.0195,0.8641,-6.63,7.86,0.0,26.82
10043,0.3342,-0.0234,0.8634,-6.56,7.89,-0.09,26.82
10053,0.3351,-0.0254,0.8627,-6.55,7.92,-0.12,26.82
10063,0.3341,-0.0193,0.8645,-6.5,7.77,0.02,26.8
10073,0.3325,-0.0237,0.8663,-6.55,7.8,0.0,26.81
10083,0.3342,-0.0229,0.8666,-6.52,7.86,0.02,26.79
10093,0.3342,-0.0225,0.8639,-6.55,7.85,-0.14,26.8
10103,0.3325,-0.0215,0.8641,-6.49,7.79,-0.05,26.81
10113,0.3352,-0.0229,0.863,-6.47,7.82,-0.11,26.81
10123,0.3328,-0.0221,0.8636,-6.5,7.83,-0.09,26.81
10134,0.3346,-0.0228,0.8647,-6.47,7.85,-0.02,26.83
10144,0.3326,-0.0248,0.8616,-6.52,7.89,-0.02,26.8
10154,0.3351,-0.0253,0.864,-6.58,7.86,-0.08,26.81
10164,0.3328,-0.022,0.8652,-6.56,7.83,-0.03,26.81
10174,0.3314,-0.0221,0.8644,-6.53,7.82,-0.03,26.81
10184,0.3329,-0.0211,0.8694,-6.63,7.82,-0.02,26.82
10194,0.3337,-0.0219,0.8618,-6.58,7.85,-0.05,26.82
10204,0.3334,-0.0236,0.8702,-6.46,7.88,-0.02,26.84
10214,0.3325,-0.0222,0.8666,-6.53,7.85,-0.02,26.77
10224,0.3319,-0.0243,0.8657,-6.55,7.89,-0.05,26.8
10234,0.3347,-0.0223,0.8639,-6.46,7.88,-0.02,26.79
10244,0.3352,-0.0234,0.8601,-6.47,7.85,-0.11,26.84
10254,0.3341,-0.0242,0.8634,-6.44,7.86,-0.06,26.8
10264,0.3344,-0.0226,0.8619,-6.55,7.86,-0.02,26.82
10274,0.333,-0.0232,0.8646,-6.49,7.91,-0.05,26.82
10284,0.3325,-0.0229,0.8666,-6.47,7.85,0.0,26.83
10297,0.3324,-0.0258,0.863,-6.55,7.86,0.0,26.81
10307,0.3328,-0.021,0.8633,-6.53,7.85,-0.08,26.79
10317,0.3329,-0.0217,0.8667,-6.61,7.89,-0.06,26.82
10327,0.333,-0.0255,0.864,-6.5,7.85,-0.09,26.81
10337,0.334,-0.0248,0.8666,-6.5,7.8,0.09,26.82
10347,0.3334,-0.0242,0.864,-6.5,7.82,-0.09,26.8
10357,0.3328,-0.0223,0.8617,-6.52,7.86,-0.06,26.82
10367,0.3346,-0.0247,0.8646,-6.47,7.8,-0.02,26.8
10377,0.3354,-0.0242,0.863,-6.53,7.89,-0.08,26.83
10387,0.334,-0.0208,0.8616,-6.49,7.88,-0.05,26.84
10397,0.3342,-0.0219,0.8647,-6.53,7.89,-0.08,26.83
10407,0.3345,-0.025,0.8621,-6.47,7.91,0.0,26.82
10417,0.3336,-0.0221,0.863,-6.56,7.85,0.05,26.82
10427,0.3336,-0.0258,0.8643,-6.47,7.88,-0.05,26.82
10437,0.3358,-0.0205,0.8627,-6.46,7.89,-0.09,26.82
10447,0.3354,-0.0233,0.8623,-6.43,7.77,0.0,26.83
10458,0.332,-0.0229,0.8654,-6.49,7.83,-0.03,26.82
10468,0.3346,-0.024,0.8647,-6.61,7.77,-0.09,26.8
10478,0.3358,-0.0234,0.8705,-6.5,7.86,-0.03,26.83
10488,0.3346,-0.0248,0.8655,-6.53,7.79,-0.02,26.83
10498,0.3307,-0.0239,0.8608,-6.53,7.8,-0.03,26.81
10508,0.3344,-0.0231,0.8608,-6.58,7.8,-0.03,26.8
10518,0.3339,-0.0223,0.8611,-6.6,7.82,-0.03,26.79
10528,0.3353,-0.0208,0.8647,-6.5,7.83,-0.06,26.82
10538,0.3347,-0.0251,0.8671,-6.6,7.88,0.0,26.83
10548,0.3344,-0.0225,0.866,-6.53,7.86,-0.03,26.83
10558,0.3326,-0.0205,0.8636,-6.52,7.91,-0.08,26.81
10568,0.3333,-0.0236,0.863,-6.44,7.86,-0.02,26.8
10578,0.3319,-0.0251,0.8671,-6.5,7.8,0.02,26.82
10588,0.3324,-0.0216,0.8655,-6.46,7.88,-0.03,26.81
10598,0.3331,-0.0203,0.8657,-6.52,7.8,-0.03,26.84
10608,0.3348,-0.0244,0.8635,-6.49,7.85,-0.09,26.79
10618,0.3326,-0.0244,0.8619,-6.6,7.94,-0.08,26.82
10628,0.3344,-0.0253,0.8647,-6.5,7.8,-0.06,26.81
10638,0.3311,-0.0211,0.865,-6.56,7.8,-0.06,26.81
10648,0.3337,-0.0227,0.8636,-6.61,7.86,0.0,26.79
10658,0.3335,-0.0212,0.8644,-6.58,7.91,0.0,26.81
10668,0.334,-0.0238,0.8639,-6.6,7.95,-0.11,26.83
10678,0.3334,-0.0222,0.8616,-6.44,7.83,-0.03,26.83
10688,0.3339,-0.0267,0.8616,-6.5,7.89,0.0,26.81
10698,0.3375,-0.0232,0.864,-6.49,7.85,-0.05,26.81
10708,0.3336,-0.0262,0.8632,-6.53,7.85,-0.05,26.83
10718,0.3352,-0.0243,0.8613,-6.44,7.83,0.03,26.82
10728,0.3339,-0.0219,0.8636,-6.46,7.91,-0.02,26.82
10738,0.3353,-0.0245,0.8628,-6.46,7.88,-0.06,26.8
10748,0.3358,-0.0244,0.8617,-6.49,7.82,-0.05,26.81
10758,0.3333,-0.0237,0.8639,-6.47,7.89,0.0,26.83
10768,0.3336,-0.0234,0.8639,-6.46,7.89,-0.08,26.84
10778,0.3361,-0.0248,0.864,-6.52,7.86,-0.02,26.82
10788,0.3336,-0.0242,0.8678,-6.5,7.85,-0.03,26.84
10798,0.333,-0.0214,0.8679,-6.64,7.86,-0.05,26.83
10808,0.3333,-0.0239,0.8644,-6.49,7.86,-0.02,26.82
10818,0.3337,-0.0247,0.8647,-6.53,7.82,-0.11,26.82
10828,0.3351,-0.0232,0.8654,-6.53,7.86,-0.05,26.83
10838,0.3339,-0.0272,0.8663,-6.52,7.89,-0.02,26.82
10848,0.333,-0.0251,0.8656,-6.56,7.85,-0.02,26.82
10858,0.3325,-0.0222,0.8636,-6.55,7.85,-0.02,26.81
10868,0.3325,-0.0247,0.8649,-6.5,7.91,-0.03,26.84
10878,0.3336,-0.0226,0.8666,-6.56,7.8,-0.11,26.84
10888,0.3325,-0.0226,0.8632,-6.56,7.86,-0.05,26.82
10898,0.3325,-0.0228,0.8641,-6.52,7.85,-0.03,26.84
10908,0.3351,-0.0219,0.8629,-6.49,7.86,-0.05,26.84
10918,0.3359,-0.0233,0.8666,-6.47,7.8,0.0,26.82
10928,0.3361,-0.0228,0.8623,-6.5,7.95,-0.03,26.82
10938,0.3356,-0.0216,0.8678,-6.44,7.89,-0.03,26.83
10948,0.3345,-0.024,0.8649,-6.47,7.86,-0.02,26.85
10958,0.3322,-0.0231,0.8638,-6.5,7.89,-0.03,26.82
10968,0.3314,-0.0225,0.8589,-6.58,7.83,-0.08,26.84
10978,0.3361,-0.0244,0.8649,-6.53,7.8,-0.05,26.83
10988,0.3326,-0.024,0.8666,-6.52,7.85,0.03,26.82
10998,0.3357,-0.0239,0.8623,-6.47,7.88,-0.05,26.84
11008,0.3351,-0.0215,0.8673,-6.56,7.8,-0.06,26.82
11018,0.3335,-0.0237,0.8635,-6.47,7.8,-0.05,26.82
11028,0.334,-0.0216,0.8606,-6.56,7.85,-0.03,26.83
11038,0.333,-0.0245,0.8624,-6.58,7.89,0.03,26.8
11048,0.3346,-0.0221,0.8645,-6.5,7.85,-0.08,26.82
11058,0.3331,-0.022,0.864,-6.53,7.89,0.0,26.82
11068,0.3339,-0.0237,0.8622,-6.56,7.83,-0.05,26.81
11078,0.3368,-0.0223,0.8662,-6.49,7.83,-0.09,26.81
11088,0.3352,-0.026,0.8645,-6.49,7.85,-0.08,26.84
11098,0.3337,-0.0262,0.8627,-6.58,7.83,-0.11,26.84
11108,0.334,-0.0255,0.8644,-6.61,7.8,-0.12,26.83
11118,0.3325,-0.026,0.8638,-6.49,7.85,0.0,26.84
11128,0.33,-0.024,0.8668,-6.52,7.86,-0.05,26.82
11138,0.3351,-0.0239,0.8674,-6.49,7.88,-0.05,26.81
11148,0.3312,-0.0231,0.8623,-6.5,7.86,-0.09,26.82
11158,0.3373,-0.0239,0.8662,-6.46,7.85,-0.03,26.82
11168,0.3339,-0.0219,0.8615,-6.55,7.79,-0.11,26.83
11178,0.3333,-0.022,0.8629,-6.52,7.85,-0.09,26.83
11188,0.3307,-0.0225,0.8655,-6.53,7.88,-0.05,26.82
11198,0.3344,-0.0226,0.8618,-6.53,7.82,-0.06,26.83
11208,0.3323,-0.024,0.8628,-6.63,7.8,0.03,26.83
11218,0.334,-0.0245,0.8634,-6.47,7.82,-0.06,26.82
11228,0.3325,-0.0228,0.863,-6.53,7.88,-0.05,26.84
11238,0.3365,-0.0242,0.8627,-6.56,7.88,-0.05,26.84
11248,0.3334,-0.0226,0.8627,-6.55,7.88,-0.12,26.83
11258,0.3334,-0.0231,0.8651,-6.55,7.92,0.08,26.82
11268,0.332,-0.024,0.8641,-6.49,7.89,-0.06,26.84
11278,0.3342,-0.0265,0.8636,-6.56,7.83,-0.05,26.84
11288,0.3351,-0.027,0.8639,-6.58,7.92,-0.11,26.82
11298,0.3328,-0.0255,0.8654,-6.5,7.88,0.02,26.84
11308,0.3342,-0.021,0.8634,-6.56,7.89,0.0,26.83
11318,0.3337,-0.0208,0.8665,-6.5,7.85,0.03,26.82
11328,0.3322,-0.0229,0.8638,-6.56,7.92,-0.03,26.83
11338,0.3361,-0.0259,0.8667,-6.46,7.83,0.02,26.82
11348,0.3336,-0.0232,0.8656,-6.49,7.85,-0.03,26.84
11358,0.3365,-0.0228,0.8658,-6.5,7.92,0.0,26.81
11368,0.3339,-0.021,0.8651,-6.52,7.86,0.02,26.83
11378,0.3323,-0.0262,0.8634,-6.55,7.89,-0.08,26.84
11388,0.3352,-0.025,0.8649,-6.53,7.91,-0.06,26.84
11398,0.3333,-0.0247,0.8629,-6.55,7.86,-0.05,26.81
11408,0.3307,-0.0255,0.8619,-6.44,7.82,-0.03,26.83
11418,0.3342,-0.0228,0.8658,-6.55,7.89,-0.08,26.82
11428,0.3335,-0.0228,0.865,-6.52,7.91,-0.05,26.82
11438,0.3344,-0.0264,0.8618,-6.6,7.83,0.0,26.8
11448,0.3353,-0.0229,0.8611,-6.6,7.86,-0.03,26.82
11458,0.3342,-0.0233,0.8621,-6.52,7.88,-0.05,26.8
11468,0.3339,-0.0221,0.8668,-6.64,7.85,-0.02,26.83
11478,0.3319,-0.0229,0.8643,-6.55,7.88,-0.02,26.82
11488,0.3354,-0.0236,0.8657,-6.58,7.89,0.0,26.82
11498,0.3329,-0.0249,0.8644,-6.52,7.86,0.02,26.8
11508,0.3344,-0.0222,0.8633,-6.46,7.89,-0.06,26.84
11518,0.3335,-0.0216,0.8623,-6.53,7.86,-0.06,26.83
11528,0.3335,-0.0225,0.8634,-6.49,7.89,-0.11,26.83
11538,0.3345,-0.0253,0.8622,-6.56,7.8,-0.02,26.82
11549,0.3333,-0.0253,0.8654,-6.49,7.91,-0.05,26.83
11559,0.3324,-0.0228,0.8683,-6.46,7.83,-0.03,26.82
11569,0.3331,-0.0266,0.863,-6.53,7.8,0.05,26.83
11579,0.3345,-0.0244,0.8682,-6.53,7.86,-0.06,26.83
11589,0.3308,-0.022,0.869,-6.58,7.82,-0.02,26.83
11599,0.3325,-0.0244,0.869,-6.5,7.8,-0.06,26.82
11609,0.3325,-0.0248,0.863,-6.52,7.89,-0.05,26.83
11619,0.3335,-0.0229,0.8667,-6.53,7.82,0.05,26.82
11629,0.3363,-0.0223,0.8661,-6.5,7.89,0.05,26.82
11639,0.3326,-0.0223,0.8656,-6.58,7.92,-0.06,26.82
11649,0.3333,-0.0223,0.8641,-6.52,7.92,-0.02,26.84
11659,0.3329,-0.0204,0.8652,-6.46,7.85,-0.08,26.82
11669,0.3322,-0.0231,0.8663,-6.5,7.89,-0.08,26.85
11679,0.3358,-0.0237,0.8656,-6.47,7.89,0.0,26.84
11689,0.3322,-0.0205,0.8673,-6.61,7.88,-0.05,26.82
11699,0.3281,-0.0227,0.86,-6.55,7.88,-0.14,26.82
11709,0.3341,-0.025,0.8656,-6.55,7.77,0.05,26.81
11719,0.3342,-0.0251,0.8647,-6.49,7.88,-0.03,26.82
11729,0.3334,-0.0229,0.8641,-6.55,7.88,-0.08,26.84
11739,0.3336,-0.0225,0.8644,-6.47,7.85,-0.06,26.82
11749,0.3342,-0.0244,0.8643,-6.47,7.91,-0.03,26.82
11759,0.3331,-0.0222,0.8635,-6.53,7.8,-0.09,26.83
11769,0.334,-0.0227,0.8641,-6.47,7.94,-0.03,26.85
11779,0.3324,-0.0227,0.8639,-6.49,7.89,-0.09,26.83
11789,0.3326,-0.0222,0.8636,-6.6,7.86,-0.08,26.84
11799,0.3351,-0.0227,0.8679,-6.53,7.83,-0.05,26.82
11809,0.3359,-0.0214,0.8602,-6.55,7.89,-0.09,26.84
11819,0.3347,-0.0215,0.8639,-6.47,7.89,-0.08,26.83
11829,0.3351,-0.0244,0.8652,-6.47,7.88,-0.14,26.83
11839,0.3326,-0.0238,0.8621,-6.46,7.82,-0.05,26.83
11849,0.3289,-0.0236,0.8639,-6.56,7.88,-0.12,26.83
11859,0.334,-0.0247,0.8669,-6.6,7.86,0.02,26.82
11869,0.3348,-0.024,0.8657,-6.4,7.86,-0.05,26.84
11879,0.3348,-0.0237,0.8611,-6.49,7.89,-0.09,26.85
11889,0.3356,-0.0226,0.8638,-6.46,7.88,-0.03,26.83
11899,0.3326,-0.0223,0.8647,-6.52,7.86,0.0,26.82
11909,0.3333,-0.0215,0.8651,-6.53,7.88,0.06,26.84
11919,0.3372,-0.0221,0.8594,-6.63,7.85,-0.03,26.83
11929,0.3344,-0.0262,0.8623,-6.58,7.89,-0.08,26.83
11939,0.3308,-0.0261,0.8617,-6.53,7.82,-0.03,26.84
11949,0.3331,-0.0277,0.8679,-6.5,7.91,-0.02,26.83
11959,0.332,-0.0231,0.8651,-6.52,7.91,-0.02,26.82
11969,0.3319,-0.0226,0.8724,-6.49,7.83,-0.06,26.81
11979,0.3398,-0.0227,0.863,-6.58,7.8,-0.09,26.81
11989,0.3359,-0.0211,0.8689,-6.56,7.82,-0.09,26.82
11999,0.3348,-0.0248,0.8707,-6.43,7.83,-0.06,26.82
12009,0.3295,-0.0162,0.8555,-6.58,7.86,-0.02,26.84
12019,0.333,-0.0267,0.8561,-6.58,7.91,0.02,26.83
12029,0.3303,-0.0331,0.8562,-6.37,7.97,-0.03,26.81
12039,0.3357,-0.0232,0.8654,-6.35,7.82,-0.15,26.82
12049,0.3376,-0.016,0.8724,-6.61,7.79,0.03,26.83
12059,0.338,-0.0225,0.8718,-6.58,7.92,0.02,26.83
12069,0.3345,-0.0273,0.8683,-6.46,7.83,0.03,26.84
12079,0.335,-0.0144,0.8674,-6.44,7.91,-0.08,26.82
12089,0.3363,-0.0186,0.868,-6.56,7.92,-0.06,26.86
12099,0.3334,-0.0309,0.8618,-6.55,7.98,-0.05,26.84
12109,0.3303,-0.0342,0.853,-6.5,7.85,-0.09,26.84
12119,0.3315,-0.0239,0.8595,-6.34,7.83,0.02,26.88
12129,0.3324,-0.0243,0.8623,-6.6,7.79,-0.03,26.83
12139,0.3334,-0.0261,0.8661,-6.49,7.86,0.09,26.83
12149,0.3328,-0.0221,0.866,-6.46,7.82,-0.06,26.85
12159,0.3361,-0.0133,0.871,-6.41,7.82,-0.03,26.83
12169,0.3372,-0.0176,0.8721,-6.61,7.88,0.05,26.82
12179,0.3326,-0.0271,0.8671,-6.61,7.88,-0.05,26.84
12189,0.3362,-0.0309,0.8665,-6.52,7.88,-0.06,26.82
12199,0.3353,-0.0229,0.8662,-6.47,7.89,-0.05,26.84
12209,0.3346,-0.0281,0.8623,-6.6,7.86,-0.06,26.84
12219,0.3324,-0.0267,0.8583,-6.56,7.92,0.03,26.84
12229,0.3357,-0.0237,0.865,-6.53,7.92,0.0,26.83
12239,0.3339,-0.0195,0.8674,-6.47,7.8,-0.05,26.83
12249,0.3344,-0.0199,0.8662,-6.52,7.85,0.05,26.84
12259,0.3363,-0.0226,0.8684,-6.5,7.83,0.0,26.82
12269,0.334,-0.0216,0.8687,-6.52,7.82,-0.11,26.82
12279,0.3361,-0.0221,0.8651,-6.5,7.86,-0.11,26.82
12289,0.3326,-0.0236,0.8636,-6.5,7.86,-0.11,26.85
12299,0.3341,-0.0276,0.8573,-6.52,7.82,-0.08,26.84
12309,0.3322,-0.0295,0.8641,-6.52,7.86,-0.05,26.83
12319,0.3292,-0.0258,0.8612,-6.6,7.91,-0.08,26.83
12329,0.3302,-0.0206,0.86,-6.55,7.83,0.08,26.83
12339,0.3322,-0.0215,0.863,-6.49,7.77,0.03,26.84
12349,0.3346,-0.0211,0.8695,-6.5,7.85,-0.06,26.84
12359,0.3358,-0.0144,0.8696,-6.47,7.88,-0.02,26.84
12369,0.3336,-0.021,0.868,-6.55,7.86,-0.02,26.81
12379,0.3344,-0.0281,0.8644,-6.56,7.83,-0.05,26.85
12389,0.3339,-0.0266,0.8628,-6.53,7.88,-0.08,26.83
12399,0.332,-0.0249,0.863,-6.47,7.85,-0.05,26.84
12409,0.3325,-0.0227,0.8613,-6.49,7.86,0.02,26.83
12419,0.3311,-0.0229,0.8615,-6.46,7.8,-0.03,26.82
12429,0.3356,-0.021,0.8613,-6.55,7.88,-0.17,26.87
12439,0.3359,-0.0198,0.863,-6.47,7.83,-0.11,26.87
12449,0.3336,-0.0198,0.869,-6.53,7.79,-0.08,26.85
12459,0.3367,-0.0238,0.8661,-6.49,7.86,-0.02,26.87
12469,0.3375,-0.0251,0.864,-6.52,7.85,-0.08,26.84
12479,0.3329,-0.0212,0.8651,-6.55,7.85,-0.06,26.85
12489,0.3354,-0.025,0.8623,-6.52,7.88,-0.02,26.85
12499,0.3344,-0.0286,0.8606,-6.58,7.89,0.05,26.86
12509,0.3341,-0.0223,0.863,-6.49,7.95,0.03,26.84
12519,0.3322,-0.0232,0.8622,-6.55,7.86,-0.06,26.84
12529,0.3333,-0.0227,0.8613,-6.64,7.88,-0.09,26.84
12539,0.3325,-0.0238,0.8623,-6.49,7.83,-0.02,26.85
12549,0.3328,-0.0254,0.863,-6.46,7.91,-0.06,26.84
12559,0.3339,-0.0245,0.8673,-6.49,7.85,-0.03,26.84
12569,0.3368,-0.0232,0.861,-6.53,7.85,-0.06,26.85
12579,0.3348,-0.0267,0.866,-6.55,7.85,-0.05,26.83
12589,0.3339,-0.0242,0.8635,-6.46,7.91,-0.02,26.84
12599,0.3341,-0.0232,0.8632,-6.47,7.85,0.0,26.84
12609,0.3346,-0.0198,0.8627,-6.55,7.83,-0.14,26.84
12619,0.3347,-0.0233,0.8654,-6.52,7.79,-0.11,26.87
12629,0.3342,-0.0226,0.8634,-6.6,7.77,-0.08,26.85
12639,0.3331,-0.0238,0.864,-6.52,7.88,-0.05,26.86
12649,0.3334,-0.0248,0.8646,-6.5,7.89,-0.11,26.88
12659,0.3347,-0.0299,0.8656,-6.49,7.94,-0.09,26.85
12669,0.3333,-0.0276,0.8672,-6.52,7.86,0.0,26.83
12679,0.3346,-0.025,0.8652,-6.52,7.86,-0.11,26.83
12689,0.3352,-0.0222,0.8656,-6.61,7.82,-0.09,26.84
12699,0.3335,-0.0208,0.8621,-6.55,7.85,-0.08,26.82
12709,0.3354,-0.022,0.8641,-6.47,7.77,-0.05,26.84
12719,0.334,-0.02,0.8633,-6.6,7.86,-0.08,26.84
12729,0.334,-0.0231,0.8629,-6.5,7.89,-0.05,26.84
12739,0.3339,-0.0248,0.8629,-6.44,7.92,-0.05,26.84
12749,0.3362,-0.0232,0.8663,-6.49,7.91,-0.05,26.86
12759,0.3323,-0.0254,0.8656,-6.58,7.86,-0.06,26.84
12769,0.3309,-0.026,0.8669,-6.49,7.88,-0.06,26.86
12779,0.3352,-0.0247,0.866,-6.43,7.89,-0.03,26.87
12789,0.3323,-0.0222,0.8665,-6.55,7.86,-0.11,26.85
12799,0.3301,-0.0189,0.865,-6.47,7.85,0.0,26.85
12809,0.334,-0.0234,0.8651,-6.5,7.88,0.02,26.86
12819,0.3344,-0.0236,0.866,-6.49,7.74,-0.09,26.85
12829,0.3314,-0.0237,0.8649,-6.55,7.83,-0.05,26.88
12839,0.3341,-0.0244,0.8684,-6.56,7.85,-0.11,26.85
12849,0.3337,-0.0229,0.8615,-6.52,7.83,-0.12,26.82
12859,0.3335,-0.0264,0.866,-6.44,7.86,-0.09,26.86
12869,0.3312,-0.024,0.8673,-6.49,7.85,-0.02,26.85
12879,0.3345,-0.0204,0.8632,-6.46,7.86,-0.05,26.85
12889,0.3328,-0.0221,0.8649,-6.47,7.85,0.05,26.87
12899,0.3311,-0.0221,0.863,-6.5,7.83,0.02,26.86
12909,0.3306,-0.0258,0.8622,-6.47,7.88,-0.03,26.85
12919,0.3318,-0.0227,0.8638,-6.64,7.89,-0.06,26.84
12929,0.3357,-0.0244,0.8619,-6.56,7.88,-0.09,26.86
12939,0.335,-0.0228,0.8677,-6.52,7.89,-0.05,26.84
12949,0.3324,-0.0215,0.8657,-6.58,7.91,-0.05,26.86
12959,0.3335,-0.0234,0.8628,-6.53,7.94,-0.11,26.86
12969,0.335,-0.0217,0.8655,-6.47,7.8,-0.05,26.87
12979,0.3351,-0.0227,0.8649,-6.49,7.92,-0.03,26.84
12989,0.3336,-0.02,0.8624,-6.5,7.94,-0.05,26.85
12999,0.3319,-0.0231,0.8629,-6.55,7.91,0.05,26.84
13009,0.333,-0.022,0.8649,-6.58,7.83,0.0,26.85
13019,0.3329,-0.0247,0.8604,-6.55,7.86,-0.02,26.85
13029,0.3342,-0.0244,0.8627,-6.49,7.91,-0.11,26.85
13039,0.3337,-0.0266,0.861,-6.53,7.85,-0.05,26.85
13049,0.333,-0.0225,0.8671,-6.53,7.8,-0.05,26.86
13059,0.3322,-0.0225,0.8667,-6.52,7.86,-0.03,26.86
13069,0.3318,-0.0192,0.8645,-6.55,7.88,-0.06,26.86
13079,0.3308,-0.0237,0.8663,-6.46,7.83,-0.08,26.85
13089,0.3319,-0.0239,0.8641,-6.52,7.89,-0.06,26.87
13099,0.3326,-0.0284,0.859,-6.49,7.85,-0.06,26.86
13109,0.3346,-0.0234,0.8624,-6.49,7.8,-0.02,26.88
13119,0.3351,-0.0223,0.8629,-6.5,7.86,0.0,26.87
13129,0.3347,-0.0239,0.8599,-6.58,7.88,-0.02,26.85
13139,0.3328,-0.022,0.8624,-6.53,7.82,-0.05,26.87
13149,0.3331,-0.0227,0.8667,-6.6,7.86,-0.06,26.84
13159,0.3312,-0.0238,0.8641,-6.47,7.85,-0.11,26.84
13169,0.3351,-0.0208,0.8647,-6.53,7.85,-0.03,26.86
13179,0.3347,-0.024,0.8639,-6.56,7.88,-0.09,26.86
13189,0.3333,-0.0226,0.8654,-6.53,7.85,-0.06,26.87
13199,0.3353,-0.0225,0.8615,-6.53,7.83,-0.06,26.85
13209,0.333,-0.0227,0.8638,-6.61,7.92,-0.06,26.84
13219,0.3308,-0.0225,0.8645,-6.56,7.91,0.03,26.83
13229,0.3341,-0.0217,0.8645,-6.52,7.92,-0.06,26.84
13239,0.3329,-0.0233,0.8647,-6.47,7.82,-0.02,26.86
13249,0.3354,-0.0237,0.8629,-6.55,7.94,-0.08,26.86
13259,0.3373,-0.0231,0.8625,-6.46,7.89,-0.08,26.86
13269,0.3365,-0.0226,0.8646,-6.58,7.91,-0.02,26.85
13279,0.3326,-0.0236,0.865,-6.55,7.83,-0.08,26.83
13289,0.3335,-0.0265,0.8635,-6.52,7.88,-0.08,26.86
13299,0.3339,-0.0211,0.8615,-6.58,7.85,-0.05,26.84
13309,0.3351,-0.0209,0.8602,-6.47,7.82,-0.03,26.81
13319,0.3335,-0.0253,0.8635,-6.5,7.82,-0.02,26.85
13329,0.3374,-0.0239,0.8602,-6.47,7.83,-0.08,26.86
13339,0.3361,-0.0237,0.8647,-6.49,7.86,-0.03,26.86
13349,0.3344,-0.0232,0.8665,-6.4,7.89,-0.03,26.85
13359,0.3348,-0.0244,0.8669,-6.47,7.8,-0.02,26.84
13369,0.3325,-0.0229,0.8649,-6.52,7.86,-0.06,26.86
13379,0.3336,-0.0242,0.8636,-6.49,7.91,-0.02,26.86
13389,0.3323,-0.0249,0.8644,-6.53,7.86,-0.05,26.85
13399,0.3369,-0.0226,0.8647,-6.58,7.8,-0.06,26.84
13409,0.3328,-0.0231,0.8645,-6.56,7.89,-0.06,26.85
13419,0.3339,-0.0231,0.8641,-6.55,7.88,-0.12,26.86
13429,0.3318,-0.025,0.8656,-6.44,7.85,-0.09,26.87
13439,0.3329,-0.0237,0.8639,-6.49,7.89,-0.06,26.86
13449,0.3334,-0.0215,0.8644,-6.5,7.85,-0.03,26.86
13459,0.3353,-0.0245,0.8668,-6.52,7.85,0.05,26.87
13470,0.3342,-0.0221,0.8663,-6.47,7.88,-0.03,26.85
13480,0.3358,-0.0232,0.8625,-6.47,7.86,-0.08,26.87
13490,0.3335,-0.0199,0.8649,-6.53,7.88,-0.03,26.84
13500,0.33,-0.022,0.8634,-6.58,7.92,-0.08,26.86
13510,0.3333,-0.0244,0.8624,-6.55,7.82,-0.12,26.87
13520,0.3328,-0.0234,0.8649,-6.52,7.85,-0.08,26.84
13530,0.3334,-0.0237,0.8606,-6.55,7.86,-0.06,26.86
13540,0.3318,-0.0251,0.8644,-6.47,7.89,-0.05,26.85
13550,0.3333,-0.0194,0.8633,-6.49,7.85,-0.06,26.86
13560,0.3356,-0.0219,0.8646,-6.5,7.82,0.02,26.86
13570,0.3353,-0.0232,0.8668,-6.5,7.88,0.0,26.84
13580,0.3315,-0.0225,0.8666,-6.55,7.88,-0.03,26.85
13590,0.3346,-0.0242,0.8696,-6.56,7.91,-0.03,26.84
13600,0.334,-0.0211,0.8643,-6.5,7.86,-0.06,26.88
13610,0.334,-0.0209,0.8685,-6.6,7.91,-0.09,26.88
13620,0.3307,-0.0208,0.8654,-6.55,7.94,-0.02,26.84
13630,0.3351,-0.0238,0.8649,-6.55,7.82,-0.06,26.87
13640,0.3336,-0.0232,0.8649,-6.58,7.82,-0.03,26.88
13650,0.3359,-0.0219,0.8649,-6.58,7.82,-0.11,26.85
13660,0.3348,-0.0214,0.8635,-6.53,7.86,0.02,26.85
13670,0.3345,-0.0242,0.8635,-6.53,7.88,-0.05,26.87
13680,0.3341,-0.0198,0.8632,-6.47,7.86,-0.03,26.87
13690,0.3334,-0.022,0.8688,-6.49,7.82,0.0,26.87
13700,0.3323,-0.0217,0.8676,-6.53,7.83,-0.05,26.88
13710,0.3344,-0.024,0.8621,-6.52,7.94,0.03,26.87
13720,0.3324,-0.025,0.8636,-6.55,7.82,-0.12,26.85
13730,0.3314,-0.0242,0.8656,-6.56,7.85,0.03,26.87
13740,0.3357,-0.0225,0.8643,-6.52,7.83,-0.12,26.87
13750,0.3337,-0.0237,0.8671,-6.58,7.89,-0.11,26.85
13760,0.3341,-0.0273,0.8619,-6.52,7.83,-0.08,26.84
13770,0.3326,-0.0244,0.8651,-6.5,7.8,-0.08,26.84
13780,0.3306,-0.0212,0.8652,-6.55,7.85,0.02,26.87
13790,0.3326,-0.0222,0.8624,-6.53,7.89,-0.02,26.89
13800,0.332,-0.0245,0.8645,-6.49,7.85,-0.11,26.86
13810,0.3337,-0.0233,0.8617,-6.53,7.92,-0.09,26.87
13820,0.3334,-0.0221,0.8654,-6.43,7.82,-0.06,26.86
13830,0.3354,-0.0242,0.8633,-6.52,7.91,-0.03,26.85
13840,0.3347,-0.0243,0.8662,-6.5,7.89,-0.06,26.87
13850,0.3358,-0.0221,0.8687,-6.53,7.92,0.0,26.88
13860,0.3348,-0.0231,0.8635,-6.49,7.88,-0.03,26.87
13870,0.3328,-0.0253,0.8658,-6.49,7.82,-0.06,26.88
13880,0.3331,-0.024,0.8661,-6.52,7.85,-0.03,26.87
13890,0.3339,-0.0265,0.8651,-6.47,7.88,-0.09,26.88
13900,0.3325,-0.0222,0.8616,-6.5,7.91,0.0,26.85
13910,0.3368,-0.0232,0.865,-6.47,7.82,-0.02,26.87
13920,0.3309,-0.0255,0.8667,-6.49,7.86,-0.03,26.85
13930,0.3318,-0.0225,0.8625,-6.61,7.86,-0.02,26.86
13940,0.3345,-0.0238,0.8625,-6.47,7.91,0.03,26.85
13950,0.3359,-0.0231,0.8633,-6.44,7.94,-0.02,26.87
13960,0.3339,-0.0245,0.8647,-6.56,7.91,-0.05,26.87
13970,0.3341,-0.0216,0.864,-6.53,7.89,-0.11,26.87
13980,0.3323,-0.0186,0.8645,-6.6,7.88,-0.08,26.88
13990,0.3337,-0.0226,0.8647,-6.53,7.88,-0.05,26.89
14000,0.3328,-0.0227,0.861,-6.52,7.83,-0.02,26.87
14010,0.3322,-0.022,0.8687,-6.47,7.86,-0.08,26.87
14020,0.3315,-0.0212,0.8666,-6.6,7.86,-0.06,26.87
14030,0.3341,-0.024,0.8633,-6.55,7.85,-0.02,26.85
14040,0.3345,-0.0221,0.8669,-6.5,7.8,0.0,26.85
14050,0.3351,-0.022,0.8657,-6.49,7.76,-0.08,26.88
14060,0.334,-0.0229,0.8622,-6.5,7.79,-0.05,26.87
14070,0.3302,-0.0233,0.865,-6.47,7.82,-0.06,26.87
14080,0.3352,-0.0217,0.8661,-6.56,7.91,-0.08,26.87
14090,0.3334,-0.0236,0.8625,-6.56,7.91,-0.03,26.88
14100,0.3342,-0.0223,0.8654,-6.55,7.92,-0.08,26.85
14110,0.3339,-0.0254,0.8611,-6.52,7.8,-0.06,26.87
14120,0.3301,-0.0229,0.866,-6.52,7.85,-0.08,26.85
14130,0.3329,-0.0236,0.8654,-6.49,7.85,-0.15,26.84
14140,0.3323,-0.0253,0.8645,-6.47,7.85,-0.05,26.85
14150,0.3326,-0.0216,0.8647,-6.58,7.89,-0.06,26.85
14160,0.3342,-0.0227,0.8657,-6.52,7.77,-0.08,26.87
14170,0.3304,-0.021,0.8646,-6.53,7.82,0.0,26.86
14180,0.3319,-0.0236,0.8644,-6.46,7.83,-0.03,26.87
14190,0.3312,-0.0225,0.8612,-6.49,7.83,-0.05,26.86
14200,0.3347,-0.0232,0.8639,-6.52,7.83,-0.09,26.87
14210,0.3329,-0.0212,0.8644,-6.52,7.8,-0.11,26.87
14220,0.3308,-0.0247,0.8629,-6.5,7.8,-0.12,26.87
14230,0.3322,-0.0261,0.8629,-6.55,7.83,-0.05,26.88
14240,0.3328,-0.0255,0.8641,-6.46,7.88,-0.03,26.88
14250,0.3324,-0.0245,0.8656,-6.5,7.85,-0.02,26.87
14260,0.3329,-0.0208,0.8606,-6.47,7.91,-0.02,26.87
14270,0.3341,-0.0227,0.8621,-6.5,7.91,-0.02,26.87
14280,0.334,-0.0216,0.8641,-6.55,7.92,-0.11,26.89
14290,0.3326,-0.0253,0.8606,-6.47,7.89,-0.05,26.85
14300,0.3322,-0.0226,0.8621,-6.49,7.89,-0.08,26.89
14310,0.3356,-0.0237,0.8673,-6.5,7.91,-0.03,26.87
14320,0.3353,-0.0193,0.8641,-6.52,7.86,-0.05,26.88
14330,0.3303,-0.0232,0.8667,-6.55,7.85,-0.03,26.88
14340,0.3311,-0.0233,0.8615,-6.63,7.88,-0.05,26.88
14350,0.3346,-0.0231,0.8625,-6.49,7.92,-0.05,26.87
14360,0.3356,-0.0234,0.8658,-6.6,7.89,-0.06,26.86
14370,0.3322,-0.0256,0.863,-6.53,7.85,-0.09,26.87
14380,0.3329,-0.0216,0.8639,-6.47,7.74,-0.05,26.85
14390,0.3335,-0.0237,0.8632,-6.55,7.85,0.02,26.87
14400,0.3322,-0.0215,0.8596,-6.52,7.92,-0.06,26.86
14410,0.3347,-0.0238,0.8638,-6.47,7.89,-0.11,26.87
14420,0.3331,-0.024,0.8678,-6.6,7.86,-0.02,26.87
14430,0.3326,-0.0251,0.8649,-6.5,7.82,-0.03,26.89
14440,0.3328,-0.0236,0.8657,-6.56,7.85,-0.09,26.89
14450,0.3331,-0.0223,0.8606,-6.58,7.91,-0.06,26.89
14460,0.332,-0.0209,0.8639,-6.49,7.86,-0.08,26.88
14470,0.3344,-0.0231,0.8669,-6.43,7.83,-0.11,26.88
14480,0.3328,-0.0238,0.8632,-6.55,7.83,-0.03,26.87
14490,0.3312,-0.0225,0.8638,-6.55,7.85,-0.03,26.85
14500,0.3335,-0.0239,0.8647,-6.5,7.83,-0.11,26.84
14510,0.3354,-0.0227,0.8655,-6.53,7.83,-0.06,26.85
14520,0.333,-0.0242,0.8661,-6.52,7.86,-0.03,26.88
14530,0.3328,-0.0225,0.8621,-6.47,7.86,-0.05,26.89
14540,0.332,-0.0222,0.8639,-6.53,7.89,0.0,26.87
14550,0.3368,-0.0234,0.8628,-6.47,7.91,0.02,26.87
14560,0.3345,-0.0212,0.8647,-6.52,7.88,-0.14,26.87
14570,0.3318,-0.02,0.864,-6.56,7.79,-0.05,26.89
14580,0.332,-0.0255,0.8589,-6.49,7.79,-0.08,26.85
14590,0.3342,-0.025,0.863,-6.6,7.88,-0.05,26.88
14600,0.3347,-0.0245,0.8629,-6.56,7.91,-0.17,26.87
14610,0.3373,-0.0237,0.8652,-6.58,7.86,-0.11,26.88
14620,0.3308,-0.0222,0.8657,-6.53,7.86,0.0,26.85
14630,0.3325,-0.0214,0.8677,-6.44,7.82,-0.05,26.89
14640,0.3333,-0.0242,0.864,-6.56,7.91,-0.05,26.84
14650,0.3333,-0.0222,0.8621,-6.53,7.91,0.0,26.86
14660,0.3314,-0.0205,0.8651,-6.49,7.86,-0.09,26.85
14670,0.3326,-0.0197,0.8656,-6.44,7.85,-0.08,26.88
14680,0.3325,-0.0214,0.8602,-6.49,7.86,0.0,26.86
14690,0.3346,-0.0208,0.8612,-6.58,7.89,-0.05,26.85
14700,0.3329,-0.0223,0.8646,-6.49,7.88,-0.11,26.86
14710,0.3341,-0.0236,0.8649,-6.5,7.88,-0.15,26.87
14720,0.3333,-0.0242,0.8625,-6.47,7.86,0.0,26.86
14730,0.3323,-0.0228,0.8632,-6.47,7.88,-0.11,26.88
14740,0.3358,-0.0248,0.8621,-6.5,7.82,-0.02,26.89
14750,0.3322,-0.0238,0.863,-6.52,7.82,-0.09,26.86
14760,0.333,-0.0227,0.864,-6.52,7.85,-0.05,26.84
14770,0.3326,-0.0239,0.8644,-6.52,7.83,-0.09,26.86
14780,0.3322,-0.0204,0.8622,-6.53,7.92,-0.09,26.86
14790,0.333,-0.0233,0.8605,-6.53,7.94,-0.02,26.88
14800,0.335,-0.0239,0.8641,-6.61,7.88,-0.06,26.88
14810,0.335,-0.0226,0.866,-6.56,7.86,-0.06,26.88
14820,0.3318,-0.0226,0.8618,-6.49,7.83,-0.11,26.88
14830,0.3345,-0.021,0.8612,-6.55,7.88,0.05,26.87
14840,0.333,-0.0226,0.8666,-6.52,7.86,-0.03,26.86
14850,0.3336,-0.0232,0.8654,-6.56,7.79,-0.03,26.88
14860,0.3345,-0.0214,0.8656,-6.52,7.89,0.03,26.88
14870,0.333,-0.0261,0.8658,-6.55,7.82,0.05,26.88
14880,0.334,-0.0238,0.8625,-6.47,7.85,-0.03,26.85
14890,0.334,-0.0227,0.8633,-6.49,7.88,-0.05,26.91
14900,0.3363,-0.0194,0.8657,-6.49,7.89,0.0,26.9
14910,0.3359,-0.0236,0.8611,-6.5,7.82,-0.05,26.87
14920,0.3361,-0.0231,0.8662,-6.5,7.89,-0.02,26.88
14930,0.3311,-0.0237,0.8647,-6.52,7.89,-0.12,26.87
14940,0.3351,-0.0249,0.8663,-6.55,7.85,-0.06,26.88
14950,0.3352,-0.0219,0.8651,-6.49,7.86,0.06,26.89
14960,0.3297,-0.0209,0.8656,-6.53,7.89,-0.06,26.87
14970,0.3333,-0.0245,0.86,-6.53,7.86,0.0,26.89
14980,0.3354,-0.0251,0.8651,-6.6,7.91,-0.05,26.85
14990,0.3345,-0.0217,0.8645,-6.44,7.89,-0.08,26.89
15000,0.3335,-0.024,0.8688,-6.46,7.83,-0.11,26.88
15011,0.3302,-0.0238,0.8636,-6.53,7.77,-0.08,26.88
15021,0.3319,-0.0244,0.8644,-6.52,7.94,0.03,26.87
15031,0.3341,-0.0234,0.8649,-6.61,7.85,-0.09,26.88
15041,0.3344,-0.0208,0.8645,-6.58,7.85,-0.09,26.86
15051,0.335,-0.0205,0.861,-6.46,7.83,-0.02,26.87
15061,0.3373,-0.0245,0.8679,-6.43,7.83,-0.08,26.88
15071,0.3336,-0.0228,0.8644,-6.47,7.83,-0.06,26.87
15081,0.333,-0.0179,0.8652,-6.55,7.85,-0.03,26.87
15091,0.3298,-0.0227,0.8605,-6.53,7.83,-0.08,26.89
15103,0.3298,-0.0249,0.8652,-6.52,7.86,0.0,26.9
15113,0.3354,-0.0253,0.8646,-6.52,7.83,-0.06,26.87
15123,0.3306,-0.0261,0.863,-6.49,7.85,-0.03,26.89
15133,0.3359,-0.0228,0.8632,-6.55,7.85,-0.05,26.87
15143,0.3345,-0.0215,0.8654,-6.52,7.83,-0.09,26.88
15153,0.3354,-0.0238,0.8671,-6.5,7.86,-0.06,26.89
15163,0.3325,-0.0221,0.8657,-6.56,7.86,-0.08,26.89
15173,0.3315,-0.0253,0.864,-6.58,7.83,-0.08,26.88
15183,0.3346,-0.0229,0.8633,-6.46,7.83,-0.09,26.89
15193,0.3361,-0.0212,0.8619,-6.5,7.82,-0.05,26.9
15203,0.3325,-0.0249,0.863,-6.52,7.86,-0.02,26.88
15213,0.3361,-0.0227,0.8634,-6.52,7.88,-0.03,26.88
15223,0.3333,-0.0211,0.8629,-6.53,7.89,0.0,26.87
15233,0.3341,-0.0288,0.8704,-6.52,7.92,-0.05,26.88
15243,0.3317,-0.0214,0.8691,-6.53,7.86,-0.05,26.88
15253,0.3297,-0.024,0.8638,-6.6,7.8,-0.09,26.88
15263,0.3319,-0.0245,0.8641,-6.52,7.94,-0.03,26.88
15273,0.3336,-0.0244,0.8656,-6.56,7.86,-0.03,26.9
15283,0.3329,-0.0216,0.8622,-6.56,7.86,-0.06,26.88
15293,0.3297,-0.025,0.8649,-6.46,7.97,-0.09,26.89
15303,0.3319,-0.0233,0.8672,-6.52,7.91,-0.06,26.86
15313,0.3376,-0.0234,0.864,-6.5,7.83,-0.03,26.88
15323,0.3335,-0.0254,0.8671,-6.5,7.86,0.0,26.88
15333,0.3364,-0.0212,0.8636,-6.6,7.8,0.0,26.86
15343,0.3324,-0.0233,0.8629,-6.53,7.83,-0.05,26.89
15353,0.3329,-0.0245,0.861,-6.56,7.76,-0.03,26.88
15363,0.3336,-0.0251,0.8628,-6.56,7.85,-0.06,26.87
15373,0.332,-0.02,0.8656,-6.56,7.88,-0.08,26.88
15383,0.3342,-0.0205,0.8633,-6.55,7.88,-0.05,26.87
15393,0.3346,-0.0244,0.8643,-6.49,7.88,-0.05,26.88
15403,0.3344,-0.026,0.8635,-6.52,7.88,-0.03,26.89
15413,0.3337,-0.0217,0.8627,-6.53,7.86,-0.05,26.89
15423,0.3359,-0.0229,0.8629,-6.58,7.89,0.0,26.9
15433,0.3348,-0.0195,0.8645,-6.52,7.8,-0.03,26.87
15443,0.3296,-0.0219,0.8624,-6.61,7.91,-0.08,26.89
15453,0.3331,-0.0233,0.8646,-6.55,7.88,-0.02,26.9
15463,0.334,-0.0232,0.8612,-6.56,7.85,-0.05,26.9
15473,0.3324,-0.0242,0.8601,-6.58,7.85,0.05,26.89
15483,0.3353,-0.0225,0.8658,-6.58,7.89,-0.02,26.89
15493,0.3322,-0.0205,0.8629,-6.44,7.91,-0.12,26.88
15503,0.3328,-0.0267,0.8612,-6.53,7.79,0.06,26.9
15513,0.3322,-0.0238,0.8617,-6.56,7.83,-0.02,26.9
15523,0.3362,-0.0251,0.8633,-6.56,7.92,-0.06,26.88
15533,0.3367,-0.0242,0.8632,-6.56,7.92,-0.05,26.87
15543,0.3303,-0.0239,0.8641,-6.61,7.86,-0.06,26.89
15553,0.3322,-0.0247,0.8608,-6.56,7.82,-0.05,26.88
15563,0.3348,-0.0222,0.8647,-6.55,7.92,-0.03,26.9
15573,0.3341,-0.021,0.8656,-6.53,7.8,-0.02,26.9
15583,0.3333,-0.024,0.8641,-6.52,7.89,-0.02,26.88
15593,0.3348,-0.0249,0.8673,-6.5,7.85,-0.05,26.89
15603,0.33,-0.0229,0.8635,-6.46,7.85,-0.06,26.88
15613,0.3346,-0.0227,0.8656,-6.56,7.88,-0.06,26.87
15623,0.3329,-0.0211,0.8643,-6.5,7.92,-0.06,26.89
15633,0.3334,-0.0209,0.864,-6.52,7.83,-0.09,26.88
15643,0.3341,-0.0242,0.86,-6.52,7.88,-0.06,26.89
15653,0.3325,-0.0212,0.8633,-6.5,7.94,-0.06,26.91
15663,0.332,-0.0244,0.8623,-6.46,7.82,0.02,26.88
15673,0.3309,-0.0239,0.8665,-6.47,7.89,-0.06,26.87
15683,0.3359,-0.025,0.8645,-6.58,7.89,0.02,26.89
15693,0.3346,-0.0234,0.858,-6.5,7.85,-0.02,26.89
15703,0.3323,-0.0237,0.8635,-6.55,7.88,-0.03,26.89
15713,0.3298,-0.0243,0.8657,-6.52,7.89,-0.05,26.89
15723,0.3335,-0.0226,0.8622,-6.6,7.85,-0.09,26.88
15733,0.3313,-0.0266,0.8663,-6.5,7.86,-0.02,26.89
15743,0.3312,-0.022,0.8645,-6.56,7.85,-0.17,26.89
15753,0.3313,-0.0221,0.8682,-6.52,7.82,-0.05,26.9
15763,0.3337,-0.0201,0.8611,-6.47,7.83,-0.03,26.89
15773,0.3323,-0.0227,0.8651,-6.56,7.83,-0.05,26.89
15783,0.3344,-0.0204,0.865,-6.53,7.82,0.0,26.89
15793,0.3347,-0.0238,0.8639,-6.53,7.86,-0.12,26.89
15803,0.3352,-0.0254,0.8667,-6.56,7.91,-0.06,26.89
15813,0.333,-0.0233,0.864,-6.47,7.89,-0.05,26.89
15823,0.332,-0.0261,0.8669,-6.55,7.92,0.02,26.92
15833,0.3337,-0.024,0.8605,-6.56,7.88,-0.08,26.91
15843,0.3339,-0.0254,0.8625,-6.5,7.83,-0.03,26.89
15853,0.3344,-0.0243,0.8644,-6.44,7.88,0.03,26.89
15863,0.3331,-0.0226,0.8655,-6.56,7.91,-0.05,26.9
15873,0.3346,-0.0233,0.8616,-6.49,7.82,-0.05,26.86
15883,0.3353,-0.0242,0.8633,-6.53,7.83,-0.03,26.89
15893,0.332,-0.0234,0.8596,-6.49,7.88,-0.05,26.86
15903,0.3337,-0.0234,0.8636,-6.49,7.85,-0.08,26.88
15913,0.3304,-0.0233,0.8606,-6.55,7.89,-0.08,26.88
15923,0.3308,-0.0179,0.8652,-6.5,7.89,-0.09,26.87
15933,0.3319,-0.0232,0.8649,-6.52,7.77,-0.09,26.87
15943,0.3322,-0.0231,0.864,-6.52,7.91,0.0,26.89
15953,0.3324,-0.0231,0.865,-6.47,7.89,-0.06,26.88
15963,0.3369,-0.0237,0.8632,-6.44,7.88,-0.06,26.9
15973,0.3336,-0.0216,0.8643,-6.49,7.82,0.02,26.9
15983,0.3342,-0.0228,0.8632,-6.52,7.85,-0.05,26.9
15993,0.3328,-0.0228,0.8634,-6.52,7.83,-0.02,26.89
16003,0.3326,-0.0211,0.8661,-6.46,7.88,0.0,26.91
16013,0.3347,-0.0236,0.8613,-6.53,7.92,-0.05,26.88
16023,0.3333,-0.0244,0.8629,-6.56,7.91,-0.08,26.89
16033,0.3303,-0.0225,0.8627,-6.6,7.85,-0.12,26.88
16043,0.3308,-0.0247,0.8624,-6.58,7.85,-0.02,26.88
16053,0.3345,-0.0243,0.8641,-6.43,7.85,-0.02,26.89
16063,0.3346,-0.022,0.8679,-6.56,7.76,0.02,26.92
16073,0.3319,-0.0243,0.8698,-6.5,7.89,-0.06,26.92
16083,0.3346,-0.0228,0.8656,-6.49,7.85,-0.12,26.88
16093,0.3337,-0.025,0.863,-6.55,7.82,-0.02,26.88
16103,0.334,-0.0211,0.8633,-6.53,7.79,-0.03,26.9
16113,0.3359,-0.0225,0.8668,-6.53,7.85,-0.02,26.89
16123,0.3325,-0.0258,0.8641,-6.55,7.82,-0.08,26.88
16133,0.3344,-0.0215,0.8639,-6.46,7.85,-0.06,26.9
16143,0.3308,-0.0249,0.8712,-6.55,7.85,0.0,26.9
16153,0.3303,-0.024,0.8671,-6.49,7.89,0.0,26.91
16163,0.3347,-0.0236,0.8617,-6.49,7.83,0.0,26.89
16173,0.3333,-0.0226,0.8645,-6.49,7.83,0.0,26.91
16183,0.3342,-0.0254,0.8597,-6.55,7.86,-0.09,26.91
16193,0.3325,-0.0238,0.8666,-6.47,7.85,0.03,26.87
16203,0.3373,-0.0245,0.8689,-6.52,7.91,0.02,26.87
16213,0.3357,-0.0219,0.866,-6.55,7.85,-0.12,26.88
16224,0.3354,-0.0231,0.8652,-6.6,7.8,-0.05,26.88
16235,0.3346,-0.0226,0.866,-6.52,7.85,-0.11,26.89
16245,0.3337,-0.0232,0.8672,-6.61,7.88,-0.03,26.89
16255,0.3315,-0.0239,0.866,-6.6,7.89,-0.05,26.9
16265,0.3339,-0.0239,0.8638,-6.47,7.89,-0.08,26.89
16275,0.3326,-0.0237,0.864,-6.53,7.85,-0.02,26.91
16285,0.3335,-0.0203,0.8713,-6.63,7.92,-0.05,26.9
16296,0.3347,-0.0276,0.8646,-6.47,7.86,-0.06,26.9
16306,0.3339,-0.0244,0.8666,-6.61,7.86,-0.09,26.88
16316,0.3317,-0.0231,0.8663,-6.55,7.77,-0.08,26.9
16327,0.3335,-0.0217,0.866,-6.53,7.86,-0.06,26.9
16337,0.3341,-0.0219,0.8677,-6.49,7.89,-0.08,26.92
16347,0.3369,-0.0216,0.8636,-6.47,7.86,-0.06,26.92
16357,0.3341,-0.0216,0.8657,-6.5,7.92,0.02,26.9
16367,0.3312,-0.0214,0.8674,-6.58,7.86,-0.02,26.92
16377,0.3323,-0.0267,0.863,-6.52,7.85,-0.02,26.9
16387,0.3334,-0.0215,0.8638,-6.53,7.89,-0.11,26.9
16397,0.332,-0.021,0.8615,-6.5,7.88,-0.11,26.88
16407,0.3325,-0.0244,0.8616,-6.5,7.8,-0.02,26.91
16417,0.3357,-0.0243,0.8622,-6.5,7.88,-0.05,26.91
16427,0.3331,-0.021,0.8629,-6.47,7.88,-0.09,26.91
16437,0.3342,-0.0228,0.8688,-6.49,7.86,-0.09,26.9
16447,0.3357,-0.0214,0.866,-6.52,7.88,-0.11,26.9
16457,0.3317,-0.0206,0.8635,-6.49,7.92,-0.05,26.91
16467,0.3322,-0.0237,0.8629,-6.56,7.91,-0.02,26.92
16477,0.333,-0.0217,0.8644,-6.5,7.88,-0.09,26.89
16487,0.3351,-0.0256,0.8646,-6.47,7.83,-0.02,26.89
16497,0.3324,-0.0258,0.8615,-6.5,7.86,-0.02,26.89
16507,0.3331,-0.0242,0.8643,-6.43,7.83,-0.06,26.89
16517,0.3358,-0.0243,0.8671,-6.47,7.85,-0.02,26.91
16527,0.3365,-0.0234,0.8612,-6.52,7.86,0.0,26.89
16537,0.3322,-0.025,0.8644,-6.53,7.82,-0.03,26.91
16547,0.3346,-0.0229,0.8668,-6.56,7.85,-0.05,26.92
16557,0.333,-0.0214,0.8682,-6.47,7.92,-0.06,26.9
16567,0.332,-0.0233,0.8665,-6.47,7.83,-0.08,26.92
16577,0.3331,-0.0216,0.8632,-6.5,7.91,-0.05,26.9
16587,0.3345,-0.0234,0.8611,-6.5,7.83,-0.05,26.9
16597,0.3328,-0.0215,0.8644,-6.52,7.88,-0.09,26.89
16608,0.3346,-0.0265,0.8622,-6.52,7.89,-0.02,26.91
16618,0.3342,-0.0217,0.8645,-6.53,7.91,-0.02,26.89
16628,0.3304,-0.0226,0.8636,-6.47,7.91,-0.03,26.89
16638,0.3308,-0.0225,0.8638,-6.41,7.86,-0.05,26.9
16648,0.3329,-0.0231,0.8594,-6.46,7.88,-0.11,26.88
16658,0.3346,-0.0236,0.8634,-6.53,7.89,-0.03,26.92
16668,0.335,-0.0216,0.8647,-6.53,7.85,-0.02,26.93
16678,0.3323,-0.0231,0.8667,-6.52,7.85,-0.11,26.89
16688,0.3311,-0.0189,0.8615,-6.55,7.88,-0.03,26.92
16698,0.3333,-0.0229,0.8641,-6.55,7.88,0.02,26.89
16708,0.3345,-0.0228,0.8628,-6.5,7.82,-0.05,26.89
16718,0.3334,-0.0222,0.8645,-6.55,7.85,-0.11,26.89
16728,0.3325,-0.0234,0.8643,-6.47,7.86,-0.06,26.89
16738,0.3346,-0.0233,0.8645,-6.52,7.91,-0.14,26.89
16748,0.3357,-0.0225,0.8636,-6.56,7.86,-0.05,26.9
16758,0.3333,-0.0204,0.865,-6.66,7.89,-0.06,26.91
16768,0.3345,-0.0237,0.8672,-6.5,7.85,-0.03,26.89
16778,0.3352,-0.0204,0.8618,-6.55,7.83,-0.02,26.92
16788,0.3326,-0.0221,0.8666,-6.53,7.83,0.02,26.91
16798,0.3352,-0.022,0.8666,-6.46,7.86,-0.05,26.9
16808,0.3323,-0.0239,0.863,-6.52,7.86,-0.02,26.91
16818,0.332,-0.0206,0.8632,-6.49,7.91,0.02,26.89
16828,0.3342,-0.0248,0.863,-6.6,7.88,-0.03,26.9
16839,0.3334,-0.0212,0.8606,-6.53,7.82,-0.02,26.91
16849,0.3331,-0.0227,0.8661,-6.5,7.89,-0.11,26.89
16860,0.3368,-0.0223,0.8629,-6.6,7.85,-0.06,26.9
16870,0.3334,-0.0247,0.8657,-6.53,7.83,-0.09,26.89
16880,0.3339,-0.0215,0.8617,-6.56,7.82,0.02,26.91
16890,0.333,-0.0226,0.8589,-6.58,7.85,-0.06,26.92
16900,0.3331,-0.0247,0.8667,-6.5,7.91,-0.03,26.93
16910,0.3358,-0.0217,0.8607,-6.63,7.88,-0.08,26.91
16920,0.3335,-0.0209,0.8669,-6.5,7.89,-0.02,26.92
16930,0.3344,-0.0234,0.8646,-6.52,7.89,0.0,26.9
16940,0.3345,-0.0226,0.866,-6.52,7.91,-0.03,26.91
16950,0.332,-0.0211,0.8671,-6.55,7.88,-0.03,26.91
16960,0.3314,-0.0233,0.8651,-6.52,7.83,-0.02,26.89
16970,0.3331,-0.0231,0.8665,-6.56,7.86,-0.06,26.89
16980,0.3325,-0.0226,0.8647,-6.5,7.91,-0.03,26.89
16990,0.3347,-0.0227,0.8643,-6.47,7.83,-0.09,26.92
17000,0.3344,-0.0234,0.8657,-6.47,7.89,-0.02,26.92
17010,0.3323,-0.022,0.8641,-6.41,7.95,-0.08,26.93
17020,0.3356,-0.0208,0.8652,-6.52,7.83,-0.11,26.93
17030,0.3309,-0.0216,0.8647,-6.53,7.86,-0.03,26.91
17041,0.3361,-0.0223,0.8618,-6.47,7.92,0.02,26.89
17051,0.3348,-0.0253,0.8656,-6.47,7.85,-0.03,26.9
17061,0.3325,-0.0248,0.8634,-6.63,7.88,-0.03,26.94
17071,0.3325,-0.0229,0.8652,-6.6,7.89,-0.09,26.9
17081,0.3341,-0.0225,0.8633,-6.55,7.83,-0.12,26.89
17091,0.334,-0.022,0.8639,-6.49,7.82,-0.09,26.89
17101,0.3335,-0.0221,0.8683,-6.49,7.86,0.0,26.91
17112,0.3334,-0.0233,0.8645,-6.49,7.91,-0.06,26.9
17122,0.3344,-0.0273,0.8672,-6.52,7.86,-0.03,26.89
17132,0.3334,-0.0261,0.8606,-6.56,7.86,-0.08,26.91
17142,0.3336,-0.0216,0.8651,-6.52,7.77,-0.06,26.9
17152,0.3342,-0.0231,0.8657,-6.58,7.83,-0.02,26.9
17162,0.3342,-0.0238,0.8636,-6.6,7.77,-0.06,26.91
17172,0.3345,-0.0261,0.8651,-6.56,7.85,0.0,26.9
17182,0.3333,-0.0231,0.8663,-6.47,7.92,-0.02,26.91
17192,0.3353,-0.0248,0.8655,-6.46,7.88,-0.02,26.92
17202,0.3325,-0.022,0.8646,-6.53,7.82,-0.09,26.91
17212,0.3334,-0.0232,0.8677,-6.55,7.88,-0.08,26.9
17222,0.3348,-0.0239,0.8657,-6.5,7.88,0.0,26.9
17232,0.3341,-0.0219,0.8623,-6.49,7.86,0.06,26.91
17242,0.3339,-0.0226,0.861,-6.46,7.89,0.0,26.89
17252,0.3346,-0.0221,0.8627,-6.52,7.91,-0.05,26.92
17262,0.3347,-0.0229,0.8636,-6.53,7.88,-0.05,26.91
17272,0.335,-0.0227,0.8663,-6.6,7.8,-0.08,26.9
17282,0.3339,-0.0232,0.8616,-6.53,7.88,-0.09,26.9
17298,0.334,-0.0205,0.8621,-6.56,7.83,-0.09,26.91
17308,0.3287,-0.0233,0.865,-6.58,7.89,0.0,26.91
17318,0.3331,-0.0225,0.8693,-6.58,7.89,-0.03,26.9
17328,0.3326,-0.0225,0.8633,-6.47,7.88,-0.03,26.9
17338,0.3326,-0.0231,0.8604,-6.56,7.85,-0.06,26.91
17348,0.3341,-0.0255,0.8624,-6.52,7.89,-0.09,26.91
17358,0.3348,-0.0199,0.8666,-6.55,7.85,-0.17,26.93
17368,0.3339,-0.024,0.8616,-6.53,7.86,-0.05,26.91
17378,0.3331,-0.0238,0.8657,-6.53,7.83,-0.08,26.89
17388,0.3334,-0.0242,0.864,-6.5,7.89,-0.11,26.91
17398,0.3326,-0.0238,0.8627,-6.49,7.89,-0.06,26.89
17408,0.3331,-0.0236,0.8632,-6.58,7.85,-0.05,26.9
17418,0.3353,-0.0249,0.8594,-6.5,7.85,-0.05,26.92
17428,0.3301,-0.0242,0.8643,-6.58,7.8,0.02,26.92
17438,0.335,-0.0222,0.8645,-6.52,7.85,-0.08,26.89
17448,0.334,-0.02,0.8639,-6.53,7.94,-0.06,26.91
17458,0.3345,-0.0225,0.866,-6.52,7.95,0.02,26.94
17468,0.3359,-0.0232,0.8656,-6.58,7.89,-0.03,26.93
17478,0.3319,-0.0214,0.8585,-6.52,7.95,0.02,26.91
17488,0.3347,-0.025,0.8575,-6.52,7.85,-0.06,26.91
17498,0.3342,-0.0205,0.8636,-6.47,7.91,-0.05,26.9
17508,0.334,-0.0208,0.8657,-6.55,7.83,-0.02,26.91
17518,0.3353,-0.0261,0.8657,-6.64,7.85,-0.05,26.91
17528,0.3344,-0.025,0.864,-6.56,7.85,-0.05,26.91
17538,0.3352,-0.0258,0.8589,-6.52,7.82,-0.06,26.93
17548,0.3357,-0.0212,0.8643,-6.53,7.86,-0.12,26.87
17558,0.3339,-0.0227,0.8633,-6.49,7.89,-0.08,26.92
17568,0.3341,-0.0234,0.8663,-6.56,7.82,0.0,26.92
17578,0.334,-0.0222,0.861,-6.55,7.82,-0.08,26.92
17588,0.3328,-0.0229,0.8641,-6.55,7.85,-0.05,26.89
17598,0.3324,-0.0216,0.8641,-6.6,7.86,-0.11,26.89
17608,0.3341,-0.0256,0.8663,-6.46,7.86,-0.06,26.91
17618,0.3335,-0.0203,0.8605,-6.52,7.76,0.0,26.89
17628,0.3328,-0.0225,0.8593,-6.49,7.82,-0.03,26.9
17638,0.3336,-0.0228,0.8636,-6.47,7.86,-0.03,26.91
17648,0.3361,-0.0223,0.861,-6.46,7.8,-0.03,26.92
17658,0.3356,-0.0244,0.864,-6.47,7.89,-0.03,26.93
17668,0.3341,-0.0245,0.8654,-6.53,7.85,-0.08,26.93
17678,0.3342,-0.0244,0.861,-6.6,7.85,-0.09,26.9
17688,0.3369,-0.0243,0.8606,-6.49,7.94,-0.06,26.89
17698,0.3319,-0.0256,0.8628,-6.53,7.94,0.02,26.91
17708,0.3311,-0.0219,0.8649,-6.49,7.89,0.0,26.9
17718,0.3319,-0.0194,0.8615,-6.52,7.85,0.0,26.9
17728,0.3324,-0.0237,0.8636,-6.55,7.88,-0.11,26.9
17738,0.3353,-0.0229,0.8625,-6.53,7.88,-0.08,26.93
17748,0.3331,-0.0211,0.8676,-6.53,7.79,0.03,26.89
17758,0.3359,-0.0239,0.8641,-6.52,7.91,-0.03,26.89
17768,0.3346,-0.0238,0.8661,-6.44,7.82,-0.05,26.9
17778,0.333,-0.0205,0.8662,-6.53,7.94,-0.02,26.92
17788,0.3356,-0.0226,0.8645,-6.53,7.83,-0.08,26.92
17798,0.3337,-0.021,0.8628,-6.49,7.88,-0.03,26.92
17808,0.33,-0.022,0.8644,-6.58,7.83,-0.03,26.9
17818,0.3345,-0.0229,0.8639,-6.55,7.89,-0.11,26.9
17828,0.3353,-0.0198,0.8641,-6.52,7.86,-0.03,26.88
17838,0.3314,-0.0215,0.863,-6.58,7.88,-0.06,26.91
17848,0.3335,-0.0247,0.8687,-6.52,7.86,0.02,26.91
17858,0.3315,-0.0277,0.8678,-6.46,7.86,-0.08,26.9
17868,0.3334,-0.0244,0.8616,-6.5,7.85,-0.06,26.88
17878,0.3325,-0.0229,0.866,-6.5,7.82,-0.08,26.9
17888,0.3337,-0.0242,0.8616,-6.55,7.89,-0.03,26.92
17898,0.3315,-0.0231,0.8672,-6.53,7.92,-0.03,26.9
17908,0.3336,-0.0267,0.8619,-6.53,7.85,-0.11,26.91
17918,0.3325,-0.0242,0.86,-6.53,7.85,-0.03,26.91
17928,0.3348,-0.0229,0.8622,-6.53,7.91,-0.05,26.91
17938,0.332,-0.0243,0.8655,-6.47,7.86,-0.09,26.93
17948,0.3339,-0.0229,0.8645,-6.53,7.92,-0.06,26.92
17958,0.3347,-0.0236,0.8632,-6.55,7.88,0.02,26.92
17968,0.3333,-0.0225,0.8636,-6.58,7.91,-0.09,26.93
17978,0.3353,-0.022,0.863,-6.55,7.88,0.06,26.93
17988,0.334,-0.0251,0.8669,-6.49,7.86,0.02,26.92
17998,0.3347,-0.0236,0.8705,-6.53,7.85,-0.06,26.93
18008,0.3347,-0.0261,0.8651,-6.52,7.88,-0.05,26.94
18018,0.3348,-0.0225,0.8633,-6.44,7.89,0.05,26.92
18028,0.335,-0.0226,0.8621,-6.49,7.86,-0.06,26.9
18038,0.3323,-0.0236,0.8618,-6.52,7.82,-0.05,26.91
18048,0.3336,-0.0231,0.8629,-6.6,7.91,-0.03,26.93
18058,0.3319,-0.0226,0.8607,-6.52,7.88,-0.09,26.92
18068,0.3345,-0.024,0.8634,-6.47,7.86,-0.06,26.89
18078,0.3339,-0.025,0.8676,-6.52,7.92,0.0,26.91
18088,0.3336,-0.0237,0.8635,-6.44,7.89,-0.15,26.92
18098,0.3331,-0.0249,0.8696,-6.52,7.92,0.0,26.92
18108,0.3322,-0.0251,0.8658,-6.55,7.91,-0.02,26.93
18118,0.3342,-0.0232,0.8647,-6.49,7.95,-0.06,26.93
18128,0.3334,-0.0225,0.8655,-6.55,7.88,-0.09,26.93
18138,0.3322,-0.0281,0.8646,-6.58,7.82,-0.08,26.94
18148,0.3341,-0.0227,0.863,-6.47,7.85,-0.03,26.93
18158,0.3346,-0.0272,0.8623,-6.46,7.86,-0.11,26.92
18168,0.3313,-0.027,0.8636,-6.49,7.89,-0.11,26.92
18178,0.333,-0.0238,0.8617,-6.5,7.86,-0.03,26.92
18188,0.3357,-0.0239,0.8619,-6.55,7.88,0.02,26.92
18198,0.3351,-0.0206,0.8655,-6.5,7.92,0.02,26.9
18208,0.3328,-0.0214,0.8632,-6.5,7.92,-0.06,26.92
18218,0.3333,-0.0242,0.8654,-6.56,7.89,0.0,26.91
18228,0.3317,-0.0236,0.866,-6.58,7.86,0.0,26.93
18238,0.3354,-0.0229,0.8651,-6.49,7.79,0.0,26.95
18248,0.3342,-0.024,0.8646,-6.49,7.82,-0.05,26.94
18258,0.3365,-0.0193,0.8646,-6.49,7.92,-0.12,26.92
18268,0.3333,-0.0251,0.8619,-6.53,7.83,-0.03,26.94
18278,0.3341,-0.0221,0.8652,-6.44,7.86,-0.03,26.92
18288,0.3351,-0.0237,0.8591,-6.49,7.89,-0.02,26.93
18298,0.334,-0.0229,0.8629,-6.5,7.86,-0.11,26.94
18308,0.3335,-0.0216,0.8657,-6.53,7.85,-0.05,26.94
18318,0.332,-0.0182,0.8647,-6.55,7.89,-0.12,26.92
18328,0.3344,-0.0262,0.8683,-6.5,7.83,-0.08,26.89
18338,0.3313,-0.0234,0.875,-6.6,7.71,-0.03,26.92
18348,0.3373,-0.019,0.8599,-6.58,7.85,-0.03,26.92
18358,0.3285,-0.0234,0.8676,-6.4,7.83,-0.03,26.93
18368,0.3365,-0.0231,0.8633,-6.63,7.79,-0.05,26.92
18378,0.3364,-0.024,0.8632,-6.46,7.79,-0.05,26.96
18388,0.3354,-0.025,0.8618,-6.56,7.79,-0.03,26.9
18398,0.3326,-0.021,0.8622,-6.44,7.88,0.02,26.93
18408,0.3367,-0.0223,0.8636,-6.41,7.82,-0.11,26.92
18418,0.3312,-0.0238,0.8671,-6.44,7.91,-0.06,26.94
18428,0.3337,-0.0229,0.8656,-6.52,7.85,-0.03,26.92
18438,0.3334,-0.024,0.8647,-6.53,7.85,-0.06,26.92
18448,0.3309,-0.0225,0.8688,-6.52,7.88,0.03,26.93
18458,0.3333,-0.0225,0.8646,-6.5,7.88,-0.08,26.92
18468,0.3369,-0.0254,0.8654,-6.58,7.89,0.0,26.93
18478,0.3348,-0.0245,0.8661,-6.49,7.88,-0.03,26.93
18488,0.3361,-0.0231,0.8634,-6.44,7.91,-0.05,26.91
18498,0.3335,-0.021,0.8635,-6.41,7.89,0.03,26.91
18508,0.3339,-0.0227,0.8669,-6.56,7.82,-0.02,26.92
18518,0.3319,-0.0238,0.8635,-6.5,7.85,-0.09,26.9
18528,0.3312,-0.0227,0.8671,-6.52,7.89,-0.03,26.92
18538,0.334,-0.024,0.8621,-6.53,7.92,0.02,26.92
18548,0.3325,-0.0238,0.8635,-6.52,7.85,-0.05,26.92
18558,0.3334,-0.0231,0.8622,-6.5,7.89,-0.11,26.93
18568,0.332,-0.0212,0.8599,-6.44,7.86,-0.06,26.95
18578,0.3328,-0.0226,0.8645,-6.5,7.83,-0.02,26.95
18588,0.3331,-0.0243,0.8655,-6.49,7.88,0.0,26.94
18598,0.3331,-0.0247,0.865,-6.56,7.91,-0.06,26.94
18608,0.3331,-0.0236,0.8636,-6.55,7.91,-0.02,26.96
18618,0.3324,-0.0215,0.8678,-6.52,7.85,-0.05,26.93
18628,0.3346,-0.022,0.8622,-6.6,7.82,-0.06,26.91
18638,0.3335,-0.0226,0.8619,-6.58,7.85,-0.03,26.93
18648,0.335,-0.0223,0.8662,-6.56,7.77,-0.09,26.93
18658,0.3341,-0.0219,0.8668,-6.55,7.85,-0.03,26.93
18668,0.3324,-0.0226,0.8636,-6.44,7.89,0.0,26.92
18678,0.3336,-0.0222,0.8607,-6.56,7.88,-0.03,26.94
18688,0.3309,-0.0248,0.8615,-6.61,7.94,-0.06,26.92
18698,0.3335,-0.0236,0.8613,-6.53,7.88,-0.06,26.94
18708,0.3337,-0.0195,0.8656,-6.61,7.85,-0.03,26.92
18718,0.3325,-0.0243,0.8673,-6.56,7.8,-0.08,26.93
18728,0.3383,-0.0214,0.8667,-6.55,7.8,-0.12,26.93
18738,0.335,-0.024,0.8646,-6.5,7.83,-0.09,26.93
18748,0.3353,-0.0248,0.8673,-6.56,7.86,-0.12,26.94
18758,0.3319,-0.0233,0.866,-6.53,7.92,-0.09,26.94
18768,0.3317,-0.0236,0.8639,-6.47,7.86,-0.15,26.93
18778,0.333,-0.0236,0.8676,-6.46,7.82,-0.05,26.93
18788,0.3359,-0.0247,0.8691,-6.55,7.86,-0.08,26.92
18798,0.3333,-0.0266,0.8629,-6.55,7.82,-0.06,26.92
18808,0.3337,-0.0258,0.8615,-6.43,7.79,0.05,26.93
18818,0.3326,-0.0254,0.8619,-6.5,7.85,0.0,26.94
18828,0.3331,-0.0247,0.8632,-6.5,7.88,-0.02,26.94
18838,0.3324,-0.0238,0.8644,-6.47,7.82,-0.11,26.92
18848,0.3346,-0.0256,0.8678,-6.46,7.88,0.0,26.96
18858,0.333,-0.0247,0.8665,-6.49,7.89,-0.03,26.94
18868,0.3352,-0.0249,0.8646,-6.5,7.89,0.02,26.93
18878,0.3341,-0.0232,0.8621,-6.56,7.95,-0.05,26.95
18888,0.334,-0.0244,0.8647,-6.47,7.85,-0.05,26.92
18898,0.332,-0.0242,0.8687,-6.44,7.79,-0.02,26.95
18908,0.3325,-0.0228,0.8634,-6.58,7.83,-0.06,26.92
18918,0.3325,-0.0265,0.8658,-6.64,7.79,0.0,26.93
18928,0.335,-0.0248,0.8597,-6.49,7.82,-0.09,26.94
18938,0.3323,-0.021,0.8624,-6.53,7.88,-0.05,26.94
18948,0.3347,-0.0203,0.8638,-6.46,7.77,0.02,26.95
18958,0.3347,-0.0225,0.8657,-6.5,7.91,-0.02,26.94
18968,0.333,-0.0216,0.8671,-6.5,7.86,0.03,26.92
18978,0.3322,-0.0236,0.8636,-6.44,7.88,-0.03,26.93
18988,0.3324,-0.024,0.8647,-6.49,7.89,-0.11,26.94
18998,0.3325,-0.0237,0.8635,-6.55,7.88,-0.05,26.93
19008,0.3342,-0.0243,0.8622,-6.63,7.85,-0.03,26.92
19018,0.3329,-0.0236,0.8632,-6.53,7.89,0.0,26.92
19028,0.3337,-0.0249,0.8652,-6.56,7.86,-0.03,26.92
19038,0.3323,-0.0217,0.8658,-6.5,7.86,-0.08,26.93
19048,0.3334,-0.0236,0.8679,-6.5,7.89,-0.14,26.94
19058,0.333,-0.0219,0.868,-6.55,7.82,-0.03,26.95
19068,0.3344,-0.0251,0.861,-6.53,7.82,-0.02,26.92
19078,0.332,-0.0262,0.8644,-6.5,7.88,-0.09,26.93
19088,0.3353,-0.0251,0.8671,-6.5,7.86,-0.05,26.95
19098,0.3347,-0.0223,0.8651,-6.47,7.88,-0.03,26.94
19108,0.3359,-0.0214,0.8655,-6.5,7.89,-0.08,26.94
19118,0.333,-0.0203,0.8636,-6.5,7.79,-0.02,26.94
19128,0.3328,-0.0209,0.8628,-6.52,7.8,-0.14,26.96
19138,0.3326,-0.0216,0.8616,-6.46,7.83,-0.11,26.94
19148,0.3341,-0.0229,0.8634,-6.5,7.85,-0.03,26.94
19158,0.334,-0.0223,0.865,-6.52,7.89,-0.08,26.91
19168,0.3353,-0.0203,0.863,-6.61,7.85,-0.08,26.91
19178,0.3335,-0.0231,0.8657,-6.53,7.85,-0.09,26.94
19188,0.3337,-0.0223,0.8643,-6.58,7.88,-0.08,26.93
19198,0.3345,-0.0229,0.8656,-6.56,7.88,0.0,26.94
19208,0.3361,-0.0204,0.865,-6.47,7.85,0.02,26.93
19218,0.3353,-0.0229,0.8634,-6.49,7.88,-0.14,26.93
19228,0.3324,-0.025,0.8613,-6.49,7.88,-0.05,26.93
19238,0.3311,-0.0233,0.8629,-6.47,7.91,-0.05,26.95
19248,0.3335,-0.0256,0.8632,-6.6,7.88,-0.12,26.94
19258,0.3354,-0.024,0.864,-6.56,7.85,-0.09,26.92
19268,0.3347,-0.0242,0.8666,-6.53,7.82,-0.09,26.92
19278,0.3328,-0.0251,0.8632,-6.43,7.86,-0.03,26.93
19288,0.3315,-0.0237,0.8616,-6.44,7.83,0.02,26.95
19298,0.3352,-0.024,0.8665,-6.52,7.86,-0.05,26.94
19309,0.3351,-0.0225,0.8706,-6.52,7.86,-0.08,26.96
19319,0.3326,-0.0238,0.8674,-6.53,7.89,-0.05,26.93
19329,0.3374,-0.0233,0.864,-6.55,7.82,-0.12,26.93
19339,0.3322,-0.0232,0.8684,-6.56,7.86,-0.05,26.94
19349,0.3333,-0.0237,0.8649,-6.5,7.91,-0.05,26.94
19359,0.3313,-0.0253,0.8667,-6.5,7.89,-0.12,26.94
19369,0.3364,-0.0223,0.8679,-6.52,7.92,0.0,26.95
19379,0.3328,-0.0231,0.8641,-6.55,7.91,-0.06,26.93
19389,0.3319,-0.0226,0.8641,-6.5,7.82,-0.03,26.96
19399,0.3331,-0.0221,0.8655,-6.53,7.86,-0.03,26.93
19409,0.3328,-0.0244,0.8629,-6.5,7.85,-0.09,26.98
19419,0.3353,-0.0217,0.8629,-6.55,7.95,-0.05,26.93
19429,0.3331,-0.0214,0.8646,-6.49,7.79,-0.08,26.94
19439,0.3322,-0.0206,0.8657,-6.44,7.88,-0.09,26.94
19449,0.3306,-0.0233,0.8627,-6.49,7.76,-0.06,26.93
19459,0.3345,-0.0253,0.8645,-6.52,7.86,-0.08,26.93
19469,0.3331,-0.0212,0.8645,-6.56,7.83,-0.08,26.97
19479,0.3331,-0.0217,0.8636,-6.53,7.8,-0.06,26.95
19489,0.3328,-0.0233,0.8646,-6.46,7.89,-0.08,26.94
19499,0.3339,-0.0232,0.8663,-6.53,7.85,-0.03,26.94
19509,0.3367,-0.0251,0.8658,-6.53,7.95,-0.11,26.93
19519,0.332,-0.0249,0.8646,-6.58,7.88,-0.06,26.95
19530,0.3364,-0.02,0.8638,-6.5,7.88,0.05,26.97
19540,0.3334,-0.0199,0.8662,-6.55,7.89,-0.06,26.97
19550,0.3335,-0.0234,0.8605,-6.56,7.83,-0.06,26.94
19560,0.3323,-0.0267,0.8636,-6.5,7.8,0.0,26.94
19570,0.3361,-0.0237,0.8647,-6.5,7.85,-0.09,26.93
19580,0.3357,-0.0232,0.864,-6.53,7.91,-0.03,26.92
19590,0.3306,-0.0219,0.8673,-6.56,7.85,-0.03,26.94
19600,0.3311,-0.0217,0.8627,-6.5,7.89,-0.09,26.94
19610,0.3319,-0.0216,0.8658,-6.49,7.91,-0.05,26.96
19620,0.3337,-0.0227,0.8635,-6.61,7.89,-0.06,26.91
19630,0.334,-0.0238,0.8652,-6.49,7.91,-0.05,26.94
19640,0.3352,-0.0248,0.8638,-6.49,7.83,-0.11,26.96
19650,0.3337,-0.0217,0.8645,-6.43,7.86,-0.14,26.94
19660,0.3357,-0.0222,0.865,-6.46,7.86,-0.12,26.94
19670,0.3334,-0.0221,0.8689,-6.47,7.91,-0.09,26.94
19680,0.3325,-0.0225,0.8657,-6.56,7.88,-0.12,26.95
19690,0.3307,-0.0204,0.8647,-6.58,7.89,-0.09,26.96
19700,0.335,-0.0243,0.8652,-6.4,7.89,0.0,26.96
19710,0.3361,-0.0217,0.8615,-6.47,7.86,-0.02,26.95
19720,0.3324,-0.0221,0.864,-6.55,7.89,-0.08,26.97
19730,0.3337,-0.0239,0.8651,-6.44,7.8,-0.06,26.96
19740,0.3317,-0.0239,0.8673,-6.55,7.91,-0.05,26.92
19750,0.3319,-0.0231,0.8623,-6.58,7.86,-0.11,26.93
19760,0.334,-0.0228,0.8622,-6.55,7.86,-0.06,26.93
19770,0.333,-0.026,0.8622,-6.46,7.86,-0.09,26.95
19780,0.3317,-0.0211,0.865,-6.5,7.83,-0.09,26.95
19790,0.3358,-0.0236,0.8633,-6.52,7.88,-0.06,26.96
19800,0.3341,-0.0226,0.8702,-6.49,7.85,-0.09,26.96
19810,0.3319,-0.0225,0.8646,-6.55,7.86,-0.06,26.93
19820,0.3354,-0.0219,0.8645,-6.5,7.86,0.0,26.95
19830,0.3341,-0.0238,0.8601,-6.55,7.86,-0.03,26.95
19840,0.3344,-0.0238,0.8658,-6.52,7.91,-0.02,26.93
19850,0.334,-0.0232,0.8641,-6.52,7.89,-0.03,26.92
19860,0.3337,-0.021,0.8621,-6.56,7.85,-0.02,26.93
19870,0.3342,-0.0237,0.8611,-6.5,7.85,-0.06,26.95
19880,0.3336,-0.0208,0.8621,-6.64,7.79,-0.08,26.96
19890,0.3356,-0.0219,0.8639,-6.49,7.86,-0.05,26.96
19900,0.3365,-0.0239,0.8628,-6.47,7.88,-0.02,26.97
19910,0.3337,-0.025,0.8615,-6.47,7.86,-0.02,26.95
19920,0.3364,-0.0216,0.8629,-6.53,7.85,0.0,26.94
19930,0.3324,-0.0222,0.8635,-6.49,7.86,0.02,26.96
19940,0.3345,-0.0245,0.8668,-6.52,7.82,-0.06,26.94
19950,0.3344,-0.0243,0.8672,-6.52,7.89,-0.06,26.94
19960,0.3314,-0.0265,0.8635,-6.53,7.85,-0.02,26.94
19970,0.3359,-0.0231,0.863,-6.56,7.88,-0.02,26.92
19980,0.3348,-0.0238,0.8613,-6.52,7.88,-0.03,26.94
19990,0.3329,-0.0227,0.8657,-6.56,7.91,0.06,26.96
20000,0.3318,-0.0238,0.8666,-6.63,7.89,-0.03,26.97
20010,0.335,-0.0234,0.8679,-6.5,7.88,-0.05,26.96
20020,0.3344,-0.0231,0.8638,-6.53,7.89,-0.09,26.97
20030,0.3331,-0.0188,0.8679,-6.56,7.86,-0.08,26.95
20040,0.3318,-0.0228,0.8633,-6.5,7.86,-0.08,26.94
20050,0.3344,-0.0287,0.8632,-6.47,7.86,-0.03,26.98
20060,0.3337,-0.0229,0.8611,-6.56,7.94,-0.03,26.94
20070,0.3317,-0.0232,0.87,-6.58,7.85,-0.06,26.96
20080,0.3342,-0.0216,0.8646,-6.46,7.89,-0.03,26.94
20090,0.3358,-0.0248,0.8645,-6.6,7.82,-0.06,26.94
20100,0.333,-0.024,0.8687,-6.56,7.88,0.0,26.95
20110,0.3331,-0.0234,0.864,-6.46,7.86,-0.05,26.97
20120,0.334,-0.0247,0.864,-6.5,7.85,-0.06,26.93
20130,0.332,-0.0237,0.8638,-6.49,7.83,-0.05,26.94
20140,0.3334,-0.0227,0.8641,-6.56,7.88,0.0,26.94
20150,0.3317,-0.0209,0.8628,-6.52,7.91,-0.05,26.96
20160,0.3337,-0.0236,0.8638,-6.56,7.83,-0.03,26.95
20170,0.3325,-0.0234,0.864,-6.58,7.86,-0.02,26.94
20180,0.3336,-0.0228,0.8651,-6.47,7.91,-0.03,26.95
20190,0.3337,-0.0227,0.861,-6.5,7.86,-0.06,26.97
20200,0.3333,-0.0222,0.8622,-6.43,7.86,-0.02,26.95
20210,0.3359,-0.0215,0.8621,-6.53,7.89,-0.06,26.93
20220,0.3351,-0.0228,0.8676,-6.52,7.82,-0.08,26.97
20230,0.3324,-0.0225,0.8652,-6.52,7.85,-0.03,26.95
20240,0.3333,-0.025,0.8649,-6.53,7.95,-0.06,26.96
20250,0.3323,-0.0242,0.8632,-6.52,7.91,-0.12,26.95
20260,0.3317,-0.0233,0.865,-6.46,7.82,-0.08,26.96
20270,0.3328,-0.0233,0.8647,-6.55,7.88,-0.03,26.95
20280,0.3319,-0.0234,0.8649,-6.58,7.85,-0.03,26.95
20290,0.3329,-0.0237,0.865,-6.52,7.86,-0.03,26.97
20301,0.3341,-0.0229,0.8622,-6.55,7.91,0.0,26.96
20311,0.333,-0.0249,0.8671,-6.6,7.92,-0.11,26.97
20321,0.3341,-0.0237,0.8632,-6.53,7.92,-0.02,26.94
20331,0.3335,-0.0223,0.8585,-6.47,7.82,-0.09,26.96
20341,0.3329,-0.021,0.8607,-6.53,7.92,-0.08,26.95
20351,0.3325,-0.0242,0.8641,-6.52,7.85,-0.06,26.95
20361,0.3319,-0.025,0.8685,-6.6,7.88,-0.03,26.97
20371,0.334,-0.0227,0.8604,-6.58,7.85,-0.05,26.97
20382,0.3324,-0.0222,0.8621,-6.55,7.83,0.0,26.98
20392,0.332,-0.0233,0.8621,-6.52,7.86,-0.05,26.96
20402,0.3348,-0.0201,0.8651,-6.56,7.83,0.02,26.98
20412,0.3346,-0.0222,0.8668,-6.53,7.86,0.02,26.94
20422,0.3348,-0.0237,0.8656,-6.52,7.92,-0.06,26.97
20432,0.3323,-0.0244,0.864,-6.49,7.83,-0.02,26.95
20442,0.3347,-0.0223,0.8644,-6.53,7.85,-0.03,26.95
20452,0.3336,-0.0231,0.8657,-6.5,7.83,-0.05,26.96
20462,0.3345,-0.0236,0.8677,-6.52,7.88,-0.06,26.97
20472,0.3325,-0.0238,0.8656,-6.49,7.92,-0.05,26.97
20482,0.334,-0.0234,0.8646,-6.49,7.88,-0.05,26.97
20492,0.3339,-0.0266,0.8621,-6.49,7.79,0.02,26.98
20502,0.3334,-0.0244,0.8687,-6.47,7.86,-0.05,26.96
20512,0.334,-0.0229,0.8688,-6.44,7.83,0.0,26.95
20522,0.3341,-0.0219,0.8652,-6.49,7.89,-0.11,26.96
20532,0.3364,-0.0204,0.8635,-6.49,7.86,-0.09,26.94
20542,0.3324,-0.0232,0.8652,-6.46,7.88,-0.06,26.97
20552,0.3346,-0.0227,0.8682,-6.52,7.89,-0.09,26.94
20562,0.3345,-0.0231,0.8663,-6.53,7.91,-0.05,26.97
20572,0.3344,-0.0244,0.863,-6.5,7.83,-0.06,26.98
20582,0.3319,-0.0254,0.8656,-6.55,7.94,-0.05,26.97
20592,0.3383,-0.0226,0.8662,-6.52,7.92,-0.06,26.97
20602,0.3344,-0.0255,0.8625,-6.58,7.86,-0.05,26.96
20612,0.3359,-0.025,0.8654,-6.55,7.89,-0.09,26.97
20622,0.3341,-0.0201,0.8639,-6.56,7.83,-0.02,26.97
20632,0.3333,-0.0254,0.8647,-6.6,7.91,-0.03,26.97
20642,0.334,-0.0222,0.8646,-6.52,7.88,-0.03,26.96
20652,0.3333,-0.0219,0.8605,-6.49,7.77,-0.03,26.94
20662,0.3303,-0.0219,0.8625,-6.6,7.86,-0.08,26.96
20672,0.3368,-0.0227,0.8629,-6.55,7.83,-0.06,26.96
20682,0.3315,-0.0223,0.8651,-6.5,7.89,-0.08,26.96
20692,0.3324,-0.022,0.8672,-6.56,7.88,-0.05,26.97
20702,0.3317,-0.0228,0.8634,-6.52,7.91,-0.05,26.95
20712,0.3306,-0.0253,0.8644,-6.56,7.86,-0.02,26.94
20722,0.3333,-0.0225,0.8646,-6.6,7.79,-0.02,26.95
20732,0.3346,-0.024,0.871,-6.47,7.92,-0.09,26.96
20742,0.3334,-0.0238,0.8629,-6.5,7.92,-0.02,26.95
20752,0.3365,-0.0227,0.8625,-6.53,7.85,-0.06,26.97
20762,0.3306,-0.0198,0.864,-6.55,7.86,-0.11,26.97
20772,0.3337,-0.0206,0.8647,-6.52,7.83,0.0,26.97
20782,0.334,-0.0194,0.8683,-6.52,7.89,-0.06,26.97
20792,0.3314,-0.0225,0.8643,-6.52,7.91,-0.05,26.97
20802,0.334,-0.0226,0.859,-6.5,7.97,-0.08,26.98
20812,0.3323,-0.0215,0.8618,-6.53,7.94,-0.05,26.97
20822,0.334,-0.022,0.8641,-6.52,7.85,-0.11,26.98
20832,0.3335,-0.0253,0.8649,-6.47,7.83,-0.09,26.97
20842,0.3363,-0.0244,0.8652,-6.49,7.83,-0.06,26.98
20852,0.3335,-0.0247,0.8649,-6.55,7.85,-0.05,26.95
20862,0.3351,-0.0211,0.8667,-6.46,7.83,-0.03,26.95
20872,0.3348,-0.0201,0.8644,-6.58,7.82,-0.03,26.97
20882,0.3365,-0.0219,0.8651,-6.52,7.86,-0.03,26.97
20892,0.3364,-0.0266,0.8615,-6.61,7.88,-0.12,26.97
20902,0.3339,-0.0243,0.8652,-6.52,7.85,-0.09,26.94
20912,0.3362,-0.0244,0.8654,-6.55,7.86,0.0,26.97
20922,0.3315,-0.0229,0.8677,-6.53,7.83,-0.05,26.97
20932,0.3352,-0.02,0.8643,-6.55,7.83,-0.03,26.97
20942,0.3333,-0.024,0.869,-6.47,7.85,-0.11,26.97
20952,0.3347,-0.0255,0.8666,-6.56,7.86,0.0,26.96
20962,0.3328,-0.0225,0.8633,-6.55,7.88,-0.02,26.98
20972,0.3324,-0.0244,0.8654,-6.5,7.91,-0.02,26.97
20982,0.3357,-0.0223,0.8606,-6.55,7.89,-0.02,26.97
20992,0.3333,-0.0232,0.865,-6.6,7.86,-0.14,26.96
21002,0.3324,-0.0243,0.8644,-6.52,7.88,-0.11,26.95
21012,0.3352,-0.0229,0.8622,-6.58,7.89,-0.08,26.95
21022,0.3328,-0.024,0.8628,-6.52,7.92,0.0,26.96
21032,0.3372,-0.0236,0.8639,-6.49,7.95,0.0,26.96
21042,0.335,-0.0234,0.8616,-6.55,7.83,0.05,26.97
21052,0.3335,-0.0221,0.8657,-6.53,7.86,-0.02,26.97
21062,0.3337,-0.024,0.8654,-6.49,7.92,-0.06,26.97
21072,0.3336,-0.0217,0.8625,-6.47,7.92,-0.03,26.94
21082,0.3352,-0.0231,0.8635,-6.53,7.89,-0.06,26.96
21092,0.3345,-0.0226,0.864,-6.56,7.88,-0.06,26.95
21102,0.3312,-0.0245,0.8638,-6.49,7.94,-0.06,26.97
21112,0.3323,-0.0248,0.8643,-6.52,7.88,-0.12,26.95
21122,0.3337,-0.024,0.8633,-6.5,7.86,-0.08,26.98
21132,0.3346,-0.026,0.8611,-6.5,7.89,-0.05,26.97
21142,0.332,-0.0236,0.8605,-6.52,7.86,-0.09,26.97
21152,0.3335,-0.0228,0.8639,-6.55,7.82,0.03,26.98
21162,0.334,-0.0238,0.8635,-6.55,7.85,-0.11,26.97
21172,0.334,-0.0216,0.8649,-6.5,7.88,-0.08,26.98
21182,0.333,-0.0249,0.8628,-6.5,7.86,0.03,26.96
21192,0.3347,-0.0216,0.8655,-6.53,7.91,-0.05,26.95
21202,0.3342,-0.024,0.8693,-6.46,7.92,-0.05,26.96
21212,0.3328,-0.0249,0.8647,-6.46,7.88,0.0,26.98
21222,0.3334,-0.0249,0.865,-6.56,7.86,0.02,26.97
21232,0.3318,-0.0229,0.8655,-6.55,7.89,0.05,26.97
21242,0.3324,-0.0233,0.863,-6.5,7.88,-0.02,26.96
21252,0.3352,-0.0234,0.8655,-6.41,7.91,0.02,26.96
21262,0.3342,-0.0206,0.8622,-6.58,7.85,-0.05,26.97
21272,0.3339,-0.022,0.8621,-6.44,7.88,-0.05,26.95
21282,0.3331,-0.0204,0.8647,-6.53,7.8,-0.08,26.97
21297,0.3359,-0.0243,0.8641,-6.49,7.88,-0.02,26.97
21307,0.3331,-0.0239,0.8663,-6.56,7.94,-0.09,26.96
21318,0.3322,-0.0203,0.8627,-6.53,7.94,-0.05,26.96
21329,0.3319,-0.0221,0.866,-6.5,7.91,-0.02,26.96
21339,0.3325,-0.0258,0.8616,-6.5,7.94,-0.02,26.97
21349,0.3315,-0.0228,0.8661,-6.46,7.92,-0.02,26.98
21359,0.3323,-0.0245,0.8668,-6.55,7.91,-0.05,26.96
21369,0.3361,-0.0244,0.8644,-6.58,7.94,-0.05,26.97
21379,0.3357,-0.0217,0.8625,-6.49,7.8,-0.09,26.97
21390,0.3351,-0.0226,0.8585,-6.52,7.86,-0.06,27.0
21400,0.3359,-0.022,0.8689,-6.47,7.79,-0.03,26.96
21410,0.3326,-0.0214,0.866,-6.56,7.91,-0.05,26.99
21420,0.3328,-0.0192,0.8665,-6.56,7.98,-0.02,26.97
21430,0.3336,-0.0248,0.866,-6.55,7.89,-0.08,26.97
21440,0.3345,-0.0226,0.8647,-6.5,7.82,-0.05,26.97
21450,0.3319,-0.0221,0.8654,-6.58,7.97,-0.09,26.98
21460,0.3351,-0.0238,0.8674,-6.63,7.89,-0.08,26.96
21470,0.3333,-0.0231,0.8619,-6.49,7.91,-0.02,26.96
21480,0.3331,-0.0222,0.8665,-6.56,7.83,-0.08,26.98
21490,0.333,-0.022,0.8633,-6.61,7.85,-0.09,26.98
21500,0.3334,-0.0243,0.8674,-6.5,7.86,0.03,26.95
21510,0.3361,-0.0212,0.8662,-6.56,7.88,0.03,26.96
21520,0.3347,-0.0247,0.8639,-6.55,7.83,-0.06,26.98
21530,0.3318,-0.0242,0.8641,-6.53,7.83,-0.08,26.95
21540,0.333,-0.0233,0.8623,-6.53,7.88,-0.12,26.98
21550,0.3308,-0.0232,0.8657,-6.55,7.88,-0.06,26.97
21560,0.3346,-0.0227,0.8663,-6.49,7.86,-0.11,26.95
21570,0.3325,-0.021,0.8657,-6.56,7.89,-0.09,26.97
21580,0.3339,-0.0231,0.8673,-6.55,7.86,-0.03,26.95
21590,0.3379,-0.0251,0.8658,-6.5,7.97,0.02,26.94
21600,0.3339,-0.0254,0.8611,-6.52,7.91,-0.05,26.99
21610,0.337,-0.0222,0.8677,-6.55,7.85,-0.06,26.97
21620,0.335,-0.0239,0.8629,-6.55,7.85,-0.02,26.96
21630,0.333,-0.0221,0.864,-6.5,7.94,-0.05,26.97
21640,0.3347,-0.0254,0.8647,-6.46,7.85,-0.05,26.98
21650,0.3331,-0.0227,0.8645,-6.5,7.88,-0.05,26.97
21660,0.3329,-0.022,0.8679,-6.61,7.85,-0.06,26.99
21670,0.3352,-0.0201,0.8654,-6.55,7.88,-0.05,26.96
21680,0.3347,-0.0228,0.8674,-6.5,7.86,-0.06,26.99
21690,0.3334,-0.0223,0.8618,-6.5,7.88,-0.05,26.99
21700,0.3358,-0.0221,0.8674,-6.53,7.92,0.0,26.97
21710,0.3354,-0.0214,0.8666,-6.58,7.83,-0.06,26.97
21720,0.3304,-0.0225,0.8668,-6.55,7.88,-0.02,26.97
21730,0.3336,-0.0244,0.8666,-6.49,7.83,-0.06,26.96
21740,0.3333,-0.0223,0.8617,-6.43,7.85,0.0,26.99
21750,0.3334,-0.0214,0.8647,-6.49,7.91,-0.02,26.96
21760,0.3329,-0.022,0.8622,-6.43,7.89,-0.09,26.96
21770,0.3345,-0.0237,0.8639,-6.58,7.83,-0.14,26.97
21780,0.3369,-0.0265,0.8655,-6.55,7.95,-0.03,26.97
21790,0.3341,-0.0244,0.8635,-6.5,7.83,-0.06,26.96
21800,0.333,-0.0251,0.8667,-6.5,7.88,0.02,26.93
21810,0.3329,-0.0253,0.8616,-6.49,7.91,0.02,26.96
21820,0.3348,-0.0234,0.8625,-6.52,7.8,0.0,26.95
21830,0.3328,-0.0221,0.8633,-6.43,7.91,-0.05,26.97
21840,0.3337,-0.022,0.86,-6.53,7.88,-0.03,27.01
21850,0.3336,-0.0255,0.8616,-6.52,7.86,-0.03,26.99
21860,0.3356,-0.0234,0.8663,-6.55,7.89,-0.09,26.96
21870,0.332,-0.0237,0.8629,-6.49,7.86,-0.02,26.97
21880,0.3347,-0.0212,0.8633,-6.52,7.92,-0.05,26.97
21890,0.3326,-0.0236,0.8611,-6.55,7.88,-0.06,26.98
21900,0.3342,-0.0244,0.864,-6.56,7.86,-0.02,26.98
21910,0.3328,-0.0236,0.8627,-6.46,7.89,-0.06,26.97
21920,0.3344,-0.0227,0.8645,-6.47,7.92,-0.03,26.99
21930,0.3352,-0.0221,0.8679,-6.5,7.83,-0.02,26.97
21941,0.333,-0.0215,0.8667,-6.5,7.86,-0.06,26.99
21951,0.3344,-0.0215,0.8649,-6.52,7.86,-0.08,26.98
21961,0.3368,-0.0236,0.8645,-6.43,7.85,-0.08,26.98
21971,0.3306,-0.0229,0.8657,-6.63,7.89,-0.11,27.01
21981,0.3347,-0.0225,0.863,-6.53,7.86,0.02,26.97
21991,0.3324,-0.0225,0.8651,-6.52,7.85,-0.03,26.98
22001,0.3334,-0.0229,0.8638,-6.6,7.85,-0.11,26.98
22011,0.3361,-0.0233,0.8693,-6.52,7.83,-0.09,26.99
22021,0.3347,-0.0247,0.868,-6.52,7.82,-0.03,26.98
22031,0.333,-0.0212,0.8677,-6.56,7.86,0.02,26.99
22041,0.3317,-0.0243,0.8643,-6.49,7.88,-0.05,26.97
22051,0.3339,-0.0226,0.8651,-6.55,7.92,-0.05,26.98
22062,0.3336,-0.0233,0.8605,-6.53,7.86,0.02,26.97
22072,0.332,-0.0236,0.8632,-6.53,7.89,-0.08,26.99
22082,0.3337,-0.0203,0.8615,-6.63,7.94,-0.02,26.97
22092,0.3303,-0.026,0.8627,-6.53,7.88,-0.02,26.98
22102,0.3333,-0.0229,0.8638,-6.5,7.92,-0.03,26.97
22112,0.335,-0.0243,0.8629,-6.52,7.85,-0.09,27.01
22122,0.3324,-0.0236,0.8605,-6.55,7.77,-0.05,26.97
22132,0.3354,-0.0231,0.8645,-6.53,7.94,-0.06,26.97
22142,0.3359,-0.0239,0.8625,-6.55,7.86,-0.09,26.97
22152,0.3341,-0.0234,0.8645,-6.53,7.88,-0.06,26.95
22162,0.3356,-0.0244,0.8627,-6.53,7.95,0.02,26.97
22172,0.3345,-0.0242,0.866,-6.46,7.86,-0.05,26.98
22182,0.3342,-0.0251,0.8616,-6.53,7.89,-0.02,26.98
22192,0.3368,-0.0233,0.8654,-6.5,7.88,-0.03,26.97
22202,0.3336,-0.0236,0.8651,-6.55,7.88,0.0,26.99
22212,0.3345,-0.0227,0.8649,-6.61,7.85,0.02,26.98
22222,0.3331,-0.0258,0.8685,-6.6,7.88,-0.03,26.96
22232,0.3345,-0.0242,0.8663,-6.58,7.82,0.0,26.94
22242,0.3367,-0.0223,0.8674,-6.58,7.8,-0.06,26.98
22252,0.3356,-0.0253,0.8669,-6.49,7.88,0.0,26.96
22262,0.3319,-0.0282,0.8656,-6.53,7.86,-0.05,26.97
22272,0.3342,-0.0239,0.8633,-6.56,7.86,-0.11,26.93
22282,0.3356,-0.0232,0.8669,-6.56,7.92,-0.11,26.96
22292,0.3322,-0.0209,0.8655,-6.53,7.85,-0.08,26.97
22302,0.3344,-0.0233,0.8671,-6.49,7.89,-0.06,26.97
22312,0.3336,-0.0221,0.8671,-6.53,7.85,-0.02,26.99
22322,0.3347,-0.0204,0.8658,-6.55,7.88,-0.03,26.98
22332,0.3335,-0.0233,0.8641,-6.49,7.8,0.0,26.97
22342,0.3331,-0.0239,0.8668,-6.6,7.79,-0.08,26.96
22352,0.3337,-0.0234,0.8621,-6.52,7.89,0.02,26.95
22362,0.3334,-0.0199,0.8654,-6.58,7.86,-0.05,26.97
22372,0.3336,-0.0221,0.8649,-6.61,7.83,-0.05,26.97
22382,0.3323,-0.0219,0.8657,-6.52,7.86,-0.06,26.98
22392,0.334,-0.0243,0.8662,-6.5,7.91,0.0,26.99
22402,0.332,-0.0231,0.8652,-6.52,7.88,-0.08,26.99
22412,0.3345,-0.024,0.8623,-6.5,7.86,-0.08,26.97
22422,0.3315,-0.025,0.8639,-6.46,7.89,0.03,26.98
22432,0.3334,-0.0225,0.8661,-6.52,7.86,-0.08,26.98
22442,0.3336,-0.0205,0.8595,-6.49,7.83,-0.09,26.99
22452,0.3304,-0.0232,0.8601,-6.5,7.89,0.0,26.99
22462,0.3367,-0.0222,0.8646,-6.61,7.92,-0.03,26.99
22472,0.3346,-0.0259,0.8639,-6.55,7.86,-0.05,26.99
22482,0.3344,-0.022,0.8624,-6.49,7.88,-0.08,26.97
22492,0.3334,-0.0216,0.8647,-6.55,7.83,-0.09,26.97
22502,0.3297,-0.0232,0.8661,-6.5,7.82,-0.05,27.0
22512,0.3352,-0.0269,0.8673,-6.55,7.85,-0.05,26.98
22522,0.3336,-0.0228,0.8636,-6.47,7.88,-0.02,26.97
22532,0.3333,-0.021,0.8641,-6.4,7.94,-0.08,26.97
22542,0.3348,-0.0215,0.8684,-6.47,7.89,0.0,26.98
22553,0.3348,-0.0258,0.8676,-6.46,7.88,-0.05,26.97
22563,0.3344,-0.0201,0.8596,-6.46,7.91,-0.03,26.99
22573,0.3347,-0.0197,0.8654,-6.55,7.91,0.03,26.99
22583,0.3354,-0.0209,0.8689,-6.5,7.8,-0.08,26.98
22593,0.3295,-0.024,0.8656,-6.47,7.91,-0.02,26.97
22603,0.3336,-0.0249,0.8607,-6.52,7.92,-0.05,26.97
22613,0.3344,-0.0249,0.8617,-6.55,7.83,-0.02,26.99
22623,0.3328,-0.0238,0.8639,-6.56,7.91,-0.02,26.98
22633,0.3318,-0.0231,0.8655,-6.52,7.91,-0.03,26.97
22643,0.3333,-0.0244,0.8634,-6.49,7.91,0.02,26.99
22653,0.3364,-0.0253,0.8611,-6.58,7.83,-0.02,27.0
22663,0.3362,-0.0198,0.8617,-6.55,7.88,-0.09,27.0
22673,0.3353,-0.0229,0.8651,-6.49,7.85,-0.03,27.0
22683,0.333,-0.0244,0.8641,-6.52,7.85,-0.03,26.99
22693,0.3364,-0.0259,0.8612,-6.5,7.77,-0.05,26.95
22703,0.3351,-0.0228,0.8643,-6.52,7.86,0.0,26.97
22713,0.3353,-0.0236,0.8644,-6.58,7.88,-0.08,26.99
22723,0.3352,-0.0194,0.864,-6.53,7.85,-0.14,26.99
22733,0.3344,-0.0226,0.8652,-6.49,7.92,-0.03,26.97
22743,0.3335,-0.0192,0.8616,-6.5,7.86,0.0,27.0
22753,0.3326,-0.0249,0.8596,-6.5,7.89,-0.02,27.02
22763,0.3312,-0.0226,0.8613,-6.53,7.92,-0.06,26.99
22773,0.335,-0.0212,0.8644,-6.55,7.79,-0.08,27.0
22783,0.3359,-0.0195,0.865,-6.52,7.88,-0.03,26.99
22793,0.334,-0.0227,0.8597,-6.47,7.88,-0.06,26.99
22803,0.3344,-0.0225,0.8635,-6.56,7.82,-0.03,27.0
22813,0.3333,-0.0225,0.8667,-6.46,7.85,-0.09,26.99
22823,0.3339,-0.0236,0.8635,-6.58,7.88,-0.06,26.98
22833,0.3309,-0.0233,0.8597,-6.58,7.85,-0.08,27.0
22843,0.3322,-0.0228,0.863,-6.5,7.82,-0.08,27.0
22854,0.3328,-0.0238,0.8684,-6.6,7.92,-0.05,27.0
22864,0.3337,-0.0233,0.8662,-6.61,7.85,-0.03,27.01
22874,0.3352,-0.0232,0.8649,-6.58,7.86,0.02,27.0
22884,0.3342,-0.0254,0.8674,-6.6,7.89,-0.11,27.0
22894,0.3358,-0.0236,0.8677,-6.53,7.86,-0.03,26.99
22904,0.3362,-0.0226,0.8647,-6.52,7.82,-0.09,26.99
22914,0.3313,-0.0231,0.8674,-6.46,7.88,-0.02,27.0
22924,0.3365,-0.0247,0.8695,-6.52,7.89,-0.05,26.99
22934,0.3333,-0.0256,0.8624,-6.64,7.91,-0.06,26.98
22944,0.3357,-0.021,0.8651,-6.52,7.89,0.05,27.0
22954,0.333,-0.0226,0.8606,-6.55,7.86,0.0,26.99
22964,0.33,-0.024,0.8646,-6.55,7.88,-0.02,27.04
22974,0.334,-0.0225,0.8644,-6.55,7.86,-0.05,26.98
22984,0.3339,-0.0231,0.8658,-6.46,7.88,-0.08,27.0
22994,0.334,-0.0226,0.8662,-6.58,7.89,0.0,26.99
23004,0.3317,-0.0245,0.8641,-6.52,7.86,0.02,26.97
23014,0.3336,-0.0232,0.8632,-6.56,7.8,-0.09,27.03
23024,0.3326,-0.0247,0.865,-6.56,7.82,-0.03,26.99
23034,0.3319,-0.0245,0.8656,-6.47,7.85,0.03,26.98
23044,0.3322,-0.0232,0.8636,-6.47,7.91,-0.05,27.01
23054,0.3314,-0.0211,0.8632,-6.52,7.86,-0.03,26.99
23064,0.3341,-0.0236,0.8644,-6.53,7.82,-0.06,26.99
23074,0.3335,-0.0205,0.8621,-6.5,7.89,-0.11,26.98
23084,0.3333,-0.0217,0.8655,-6.49,7.95,-0.05,26.97
23094,0.3314,-0.0245,0.8636,-6.41,7.85,-0.08,26.98
23104,0.335,-0.024,0.8628,-6.49,7.83,-0.06,27.01
23114,0.3345,-0.0227,0.8618,-6.55,7.86,-0.05,26.99
23124,0.3319,-0.0239,0.8606,-6.56,7.77,-0.03,27.0
23134,0.335,-0.0221,0.8604,-6.53,7.83,-0.09,26.98
23144,0.3312,-0.0232,0.8644,-6.55,7.92,-0.03,26.98
23154,0.3347,-0.0239,0.8665,-6.46,7.88,-0.03,26.98
23164,0.3342,-0.0234,0.8665,-6.5,7.88,-0.05,26.99
23174,0.3326,-0.0234,0.865,-6.5,7.91,0.0,27.01
23184,0.3287,-0.0212,0.8619,-6.53,7.83,-0.03,27.01
23194,0.3363,-0.0227,0.8655,-6.56,7.88,-0.05,27.01
23204,0.3319,-0.0227,0.8615,-6.52,7.92,-0.03,26.99
23214,0.332,-0.0234,0.8665,-6.6,7.89,-0.03,26.98
23224,0.334,-0.0226,0.865,-6.61,7.88,-0.06,26.99
23234,0.3328,-0.0249,0.8657,-6.5,7.88,-0.02,26.99
23244,0.3312,-0.0231,0.8655,-6.5,7.85,-0.09,27.01
23254,0.3345,-0.0233,0.8629,-6.52,7.85,-0.02,27.01
23264,0.3333,-0.0231,0.8654,-6.47,7.88,-0.11,26.99
23274,0.3322,-0.0232,0.8638,-6.5,7.86,-0.05,27.01
23284,0.3334,-0.0219,0.8643,-6.52,7.82,-0.06,27.02
23294,0.3319,-0.0231,0.8594,-6.5,7.89,-0.09,26.99
23304,0.3353,-0.0205,0.8632,-6.44,7.83,-0.06,27.02
23314,0.3356,-0.0198,0.8645,-6.47,7.85,-0.02,26.99
23324,0.3334,-0.0222,0.8632,-6.44,7.89,-0.08,27.02
23334,0.3317,-0.0267,0.8643,-6.58,7.89,-0.03,26.98
23344,0.3347,-0.0216,0.8636,-6.58,7.83,-0.08,27.02
23354,0.3335,-0.02,0.8612,-6.55,7.91,-0.02,27.0
23364,0.3329,-0.024,0.8643,-6.49,7.85,0.0,26.99
23374,0.3335,-0.0242,0.8641,-6.53,7.88,-0.11,27.0
23384,0.333,-0.0245,0.8627,-6.5,7.8,-0.08,27.0
23394,0.3336,-0.0251,0.8641,-6.49,7.85,-0.03,27.0
23404,0.3333,-0.0221,0.8657,-6.5,7.86,0.03,26.99
23414,0.3341,-0.0236,0.8645,-6.5,7.88,-0.03,27.0
23424,0.3326,-0.022,0.8656,-6.5,7.91,-0.08,27.02
23434,0.3313,-0.0227,0.8632,-6.58,7.89,-0.02,27.01
23444,0.3347,-0.021,0.8657,-6.5,7.92,-0.03,27.02
23454,0.3323,-0.0244,0.8651,-6.5,7.92,-0.02,27.01
23464,0.3348,-0.022,0.8695,-6.52,7.85,-0.02,26.99
23474,0.3348,-0.0226,0.8632,-6.56,7.85,-0.02,27.01
23484,0.3345,-0.0255,0.8684,-6.44,7.88,-0.05,27.01
23494,0.3341,-0.0242,0.8683,-6.46,7.89,0.0,26.98
23504,0.3323,-0.0248,0.8616,-6.49,7.88,0.02,26.99
23514,0.3365,-0.0253,0.8669,-6.5,7.86,-0.05,27.0
23524,0.3317,-0.0223,0.8668,-6.46,7.88,-0.06,27.02
23534,0.3334,-0.0221,0.8676,-6.53,7.82,-0.05,27.02
23544,0.3339,-0.024,0.8647,-6.56,7.85,-0.03,27.02
23554,0.3358,-0.0205,0.8668,-6.49,7.8,-0.08,27.0
23564,0.3328,-0.0214,0.8652,-6.52,7.85,-0.02,26.99
23574,0.3329,-0.0245,0.8658,-6.6,7.89,-0.09,27.01
23584,0.3331,-0.0216,0.863,-6.58,7.86,-0.03,27.0
23594,0.334,-0.0232,0.8638,-6.55,7.88,-0.03,27.01
23604,0.3348,-0.0219,0.8636,-6.67,7.86,-0.02,27.01
23614,0.3337,-0.0227,0.8684,-6.52,7.92,-0.06,27.0
23624,0.3333,-0.0215,0.8629,-6.61,7.83,-0.11,26.99
23634,0.3345,-0.0201,0.8667,-6.49,7.85,0.0,27.01
23644,0.3333,-0.0219,0.8668,-6.49,7.82,-0.05,27.0
23654,0.3357,-0.0223,0.8649,-6.61,7.88,-0.03,27.0
23664,0.3347,-0.024,0.8647,-6.52,7.89,-0.08,26.99
23674,0.3329,-0.0231,0.8649,-6.52,7.86,-0.09,26.99
23684,0.3354,-0.0188,0.8651,-6.52,7.91,-0.02,27.02
23694,0.3336,-0.0255,0.8644,-6.53,7.82,-0.11,27.03
23704,0.3344,-0.0243,0.8636,-6.52,7.89,-0.08,27.03
23714,0.3303,-0.0209,0.8629,-6.56,7.8,-0.06,27.04
23724,0.33,-0.0217,0.8619,-6.52,7.85,-0.11,27.03
23734,0.3333,-0.0231,0.8662,-6.52,7.89,-0.02,26.99
23744,0.3346,-0.0247,0.8627,-6.55,7.86,0.02,26.99
23754,0.3356,-0.0227,0.8678,-6.61,7.89,-0.06,27.01
23764,0.3356,-0.0248,0.8663,-6.53,7.89,-0.08,26.99
23774,0.3313,-0.0255,0.8661,-6.55,7.88,0.02,27.01
23784,0.3324,-0.0248,0.8617,-6.47,7.85,-0.03,27.01
23794,0.3328,-0.0232,0.8628,-6.52,7.86,-0.06,27.0
23804,0.3341,-0.0192,0.865,-6.56,7.85,0.0,26.99
23814,0.3311,-0.0237,0.8629,-6.49,7.89,-0.02,27.01
23824,0.3331,-0.0223,0.8618,-6.52,7.82,-0.11,26.98
23834,0.333,-0.0211,0.8656,-6.52,7.8,-0.11,26.99
23844,0.3342,-0.0225,0.8617,-6.56,7.85,-0.03,27.01
23854,0.3348,-0.0251,0.8649,-6.61,7.89,-0.03,26.99
23864,0.3359,-0.0231,0.8641,-6.6,7.79,0.02,26.99
23874,0.335,-0.0239,0.8676,-6.5,7.83,0.0,26.98
23884,0.3339,-0.0258,0.8654,-6.53,7.85,-0.06,27.02
23894,0.3347,-0.0233,0.8649,-6.5,7.94,-0.05,27.03
23904,0.3308,-0.0229,0.8633,-6.52,7.85,-0.02,27.02
23914,0.3347,-0.0239,0.8623,-6.52,7.85,0.0,27.0
23924,0.3329,-0.0226,0.8621,-6.47,7.86,-0.05,27.0
23934,0.3334,-0.0238,0.861,-6.56,7.85,0.06,26.99
23944,0.333,-0.0254,0.8629,-6.53,7.88,0.0,27.0
23954,0.3342,-0.0227,0.8649,-6.53,7.85,-0.03,26.99
23964,0.334,-0.0251,0.864,-6.56,7.88,-0.03,27.0
23974,0.3341,-0.0245,0.8673,-6.53,7.89,-0.03,27.0
23984,0.3323,-0.0256,0.8676,-6.55,7.91,-0.02,26.98
23994,0.3328,-0.0231,0.868,-6.49,7.91,-0.11,27.03
24004,0.3317,-0.02,0.8621,-6.55,7.88,-0.09,26.99
24014,0.3306,-0.0242,0.8613,-6.47,7.88,-0.09,26.99
24024,0.3328,-0.0239,0.8645,-6.49,7.89,-0.08,26.99
24034,0.3384,-0.0229,0.8656,-6.53,7.91,-0.06,27.01
24044,0.3337,-0.0238,0.8649,-6.53,7.94,0.05,26.98
24054,0.335,-0.0239,0.8669,-6.53,7.83,-0.02,27.0
24064,0.3346,-0.0214,0.8639,-6.53,7.88,-0.02,26.99
24074,0.3312,-0.0237,0.8641,-6.52,7.83,-0.09,27.0
24084,0.3324,-0.0233,0.8685,-6.53,7.95,-0.03,26.99
24094,0.335,-0.0208,0.8622,-6.52,7.83,-0.06,27.01
24104,0.3319,-0.0232,0.8663,-6.55,7.89,-0.06,27.02
24114,0.3351,-0.0236,0.865,-6.55,7.83,-0.03,27.01
24124,0.3351,-0.0198,0.8658,-6.47,7.82,-0.09,26.98
24134,0.3376,-0.0227,0.8663,-6.53,7.79,0.0,27.02
24144,0.3344,-0.0238,0.8634,-6.56,7.89,-0.08,27.01
24154,0.3333,-0.0244,0.8605,-6.52,7.88,0.05,27.02
24164,0.3331,-0.0248,0.864,-6.56,7.83,-0.05,27.01
24174,0.3323,-0.0266,0.8651,-6.47,7.92,-0.12,26.98
24185,0.3326,-0.0226,0.8649,-6.52,7.94,-0.06,27.0
24195,0.3324,-0.0219,0.8693,-6.52,7.92,0.0,27.01
24205,0.3337,-0.0245,0.8619,-6.52,7.89,-0.02,26.99
24215,0.3331,-0.0234,0.8657,-6.5,7.92,-0.08,27.01
24225,0.3357,-0.0233,0.8654,-6.46,7.91,-0.08,27.01
24235,0.3324,-0.0201,0.8646,-6.47,7.88,-0.05,26.99
24245,0.3326,-0.0212,0.8617,-6.5,7.91,0.0,27.0
24255,0.3363,-0.025,0.8618,-6.5,7.88,-0.05,27.0
24265,0.3339,-0.0219,0.8654,-6.53,7.86,-0.03,27.0
24275,0.3348,-0.0227,0.8624,-6.55,7.8,-0.02,27.02
24285,0.3346,-0.0253,0.8638,-6.53,7.88,0.06,27.01
24297,0.3334,-0.0276,0.8677,-6.49,7.88,-0.03,27.01
24307,0.3319,-0.0232,0.8668,-6.49,7.92,-0.12,27.01
24317,0.3298,-0.024,0.8622,-6.5,7.86,-0.09,27.03
24327,0.3346,-0.0243,0.8629,-6.55,7.82,-0.06,27.01
24337,0.3328,-0.022,0.8608,-6.44,7.88,-0.06,26.99
24347,0.3337,-0.0219,0.8667,-6.56,7.91,-0.03,27.0
24357,0.3333,-0.0244,0.8673,-6.6,7.91,-0.05,27.02
24367,0.3345,-0.0228,0.865,-6.47,7.88,-0.05,27.02
24377,0.3329,-0.0232,0.8674,-6.6,7.86,-0.11,27.03
24387,0.3329,-0.021,0.8666,-6.58,7.92,-0.08,27.02
24397,0.3348,-0.0247,0.8638,-6.66,7.86,0.0,27.03
24407,0.3354,-0.0225,0.8639,-6.61,7.83,-0.05,27.0
24417,0.334,-0.0236,0.8643,-6.55,7.92,-0.06,27.01
24427,0.3285,-0.021,0.8628,-6.53,7.77,-0.02,27.0
24437,0.3328,-0.0231,0.8666,-6.52,7.89,-0.08,27.01
24447,0.3361,-0.024,0.8634,-6.58,7.92,-0.02,27.02
24457,0.3331,-0.0237,0.8655,-6.56,7.88,-0.08,27.01
24467,0.3335,-0.0225,0.8641,-6.49,7.88,-0.11,27.04
24477,0.3344,-0.0237,0.8643,-6.52,7.85,-0.08,27.02
24487,0.3312,-0.0233,0.8624,-6.47,7.86,-0.03,27.03
24497,0.3367,-0.0212,0.8628,-6.52,7.91,0.0,27.01
24507,0.3341,-0.022,0.8652,-6.52,7.8,0.0,27.04
24517,0.3353,-0.021,0.8643,-6.5,7.95,0.06,27.01
24527,0.3298,-0.0244,0.8608,-6.56,7.88,-0.05,27.0
24537,0.3334,-0.0242,0.8633,-6.55,7.89,-0.15,26.99
24547,0.3334,-0.0204,0.8589,-6.56,7.89,-0.03,27.01
24557,0.3328,-0.0211,0.8612,-6.5,7.82,-0.02,27.02
24567,0.3336,-0.0242,0.8629,-6.52,7.86,-0.08,27.02
24577,0.332,-0.0216,0.8606,-6.52,7.85,-0.03,27.02
24587,0.3351,-0.0244,0.8665,-6.49,7.89,-0.08,27.02
24597,0.3336,-0.0265,0.8615,-6.47,7.91,-0.06,27.01
24607,0.3344,-0.0219,0.8677,-6.49,7.88,-0.02,27.01
24617,0.3363,-0.0225,0.8627,-6.47,7.86,-0.02,27.02
24627,0.3328,-0.0226,0.8646,-6.56,7.89,-0.08,27.02
24637,0.333,-0.0201,0.8593,-6.58,7.82,-0.02,26.99
24647,0.3328,-0.0226,0.8654,-6.55,7.89,-0.03,27.01
24657,0.3333,-0.0222,0.8669,-6.56,7.89,0.02,27.02
24667,0.3348,-0.0238,0.8647,-6.47,7.86,-0.02,27.0
24677,0.3341,-0.0228,0.864,-6.6,7.86,-0.03,27.04
24687,0.3323,-0.0238,0.864,-6.46,7.91,-0.06,27.04
24697,0.3344,-0.0261,0.8647,-6.58,7.92,0.03,27.01
24707,0.3311,-0.0238,0.8638,-6.53,7.94,0.03,26.99
24717,0.3352,-0.0249,0.8662,-6.53,7.85,-0.05,27.01
24727,0.3352,-0.0242,0.8638,-6.53,7.77,-0.06,27.03
24737,0.3328,-0.0225,0.8668,-6.49,7.82,-0.09,27.0
24747,0.3344,-0.024,0.864,-6.52,7.86,-0.08,27.04
24757,0.3323,-0.0215,0.8663,-6.6,7.83,-0.08,27.02
24767,0.3372,-0.0236,0.8661,-6.53,7.85,-0.05,27.01
24777,0.3348,-0.0221,0.8622,-6.56,7.8,-0.06,27.01
24787,0.334,-0.0206,0.8655,-6.6,7.89,-0.02,27.01
24797,0.3328,-0.0244,0.8624,-6.53,7.92,-0.05,27.01
24807,0.3312,-0.0226,0.8602,-6.52,7.85,-0.06,27.01
24817,0.3354,-0.0222,0.8644,-6.52,7.85,-0.06,26.99
24827,0.3318,-0.0217,0.8638,-6.58,7.89,-0.05,27.01
24837,0.334,-0.0223,0.8635,-6.55,7.89,-0.08,27.02
24847,0.3358,-0.0216,0.8646,-6.53,7.94,-0.05,27.03
24857,0.3333,-0.0223,0.8646,-6.52,7.91,0.02,27.0
24867,0.3337,-0.0234,0.8666,-6.55,7.86,-0.02,27.02
24877,0.3328,-0.0216,0.8677,-6.53,7.86,-0.03,27.02
24888,0.3333,-0.0238,0.8687,-6.52,7.79,-0.03,27.01
24898,0.3352,-0.0233,0.8618,-6.52,7.89,-0.05,27.0
24908,0.3356,-0.0247,0.8663,-6.49,7.94,-0.08,27.02
24918,0.3347,-0.0215,0.8629,-6.49,7.89,-0.02,27.0
24928,0.3318,-0.0216,0.8652,-6.53,7.91,-0.03,27.03
24938,0.333,-0.0262,0.8647,-6.53,7.88,-0.09,27.02
24948,0.3344,-0.0238,0.8667,-6.56,7.94,-0.05,27.04
24958,0.3376,-0.0231,0.8638,-6.49,7.79,-0.02,27.03
24968,0.3363,-0.022,0.8671,-6.53,7.89,-0.02,27.02
24978,0.3358,-0.0225,0.8652,-6.61,7.85,-0.02,27.02
24988,0.3341,-0.0227,0.8656,-6.53,7.89,-0.08,27.02
24998,0.3353,-0.022,0.8632,-6.47,7.86,-0.06,27.01
25008,0.335,-0.0222,0.868,-6.6,7.94,-0.03,27.01
25018,0.3334,-0.0214,0.8621,-6.52,7.88,-0.03,27.02
25028,0.3334,-0.0256,0.8602,-6.58,7.89,-0.11,27.03
25038,0.3318,-0.0237,0.8663,-6.5,7.91,0.02,27.04
25048,0.3319,-0.0228,0.8627,-6.5,7.85,-0.02,27.03
25058,0.3337,-0.0262,0.8621,-6.6,7.83,-0.05,27.02
25068,0.3358,-0.0237,0.8668,-6.53,7.88,-0.09,27.04
25078,0.3329,-0.0249,0.8668,-6.49,7.83,-0.02,27.02
25088,0.3315,-0.0238,0.8691,-6.56,7.91,-0.09,27.03
25098,0.3364,-0.0248,0.8644,-6.5,7.86,-0.08,27.02
25108,0.3336,-0.0201,0.8641,-6.47,7.82,-0.02,27.02
25118,0.3319,-0.022,0.8638,-6.55,7.85,-0.12,27.01
25128,0.3342,-0.0204,0.8644,-6.5,7.89,-0.03,27.04
25138,0.3302,-0.0208,0.8656,-6.56,7.94,-0.02,27.01
25148,0.3336,-0.0233,0.8656,-6.55,7.88,0.02,27.04
25158,0.337,-0.0243,0.8619,-6.64,7.95,-0.06,27.02
25168,0.3329,-0.0229,0.8661,-6.61,7.88,-0.02,27.02
25178,0.3351,-0.021,0.8661,-6.58,7.83,-0.05,27.04
25188,0.3357,-0.0234,0.8606,-6.55,7.85,-0.15,27.03
25198,0.332,-0.0244,0.8636,-6.64,7.86,-0.09,27.02
25208,0.3313,-0.0245,0.8645,-6.55,7.91,-0.09,26.99
25218,0.3318,-0.0229,0.8633,-6.55,7.91,0.0,27.0
25228,0.337,-0.0233,0.8597,-6.53,7.82,-0.03,27.04
25238,0.3339,-0.0233,0.8634,-6.53,7.88,-0.03,27.02
25248,0.3352,-0.0231,0.8632,-6.52,7.79,-0.08,27.01
25258,0.3313,-0.0248,0.8676,-6.58,7.88,0.0,27.01
25268,0.3339,-0.022,0.8632,-6.55,7.89,-0.02,27.04
25278,0.3387,-0.0234,0.8644,-6.46,7.89,-0.05,27.03
25288,0.3353,-0.0254,0.865,-6.56,7.88,-0.06,27.05
25298,0.3326,-0.0229,0.8627,-6.49,7.88,-0.11,27.04
25308,0.3326,-0.0217,0.866,-6.47,7.85,-0.05,27.05
25318,0.3302,-0.0209,0.8671,-6.46,7.89,-0.06,27.03
25328,0.3341,-0.0236,0.8662,-6.56,7.88,0.05,27.03
25338,0.334,-0.0255,0.8643,-6.49,7.83,-0.08,27.02
25348,0.3352,-0.0227,0.865,-6.55,7.85,-0.11,27.02
25358,0.3335,-0.0204,0.8663,-6.56,7.89,0.0,27.01
25368,0.3357,-0.02,0.8652,-6.6,7.85,-0.08,27.04
25378,0.3341,-0.0219,0.8636,-6.52,7.74,-0.06,27.02
25388,0.3345,-0.0254,0.8662,-6.44,7.88,0.0,27.02
25398,0.3333,-0.0239,0.8617,-6.53,7.83,-0.05,27.02
25409,0.3345,-0.0239,0.8613,-6.5,7.85,-0.03,27.04
25419,0.3341,-0.0242,0.863,-6.53,7.91,-0.11,27.02
25429,0.3354,-0.0258,0.8616,-6.5,7.83,-0.09,27.01
25439,0.3341,-0.0244,0.8589,-6.5,7.85,-0.11,27.01
25449,0.333,-0.0239,0.8657,-6.6,7.97,-0.08,27.03
25459,0.3367,-0.0226,0.8634,-6.49,7.89,0.05,27.02
25469,0.3335,-0.0237,0.8668,-6.53,7.85,-0.03,27.03
25479,0.3354,-0.0239,0.8638,-6.5,7.83,-0.03,27.05
25489,0.3322,-0.0228,0.8638,-6.47,7.86,-0.02,27.02
25500,0.3344,-0.0238,0.8654,-6.5,7.82,-0.06,27.02
25510,0.335,-0.0215,0.8679,-6.55,7.83,-0.14,27.03
25520,0.334,-0.0211,0.8665,-6.55,7.8,-0.02,27.02
25530,0.3324,-0.0244,0.8645,-6.55,7.88,-0.06,27.01
25540,0.3336,-0.0232,0.8638,-6.64,7.85,-0.05,27.04
25550,0.3322,-0.0255,0.8662,-6.47,7.88,-0.09,27.01
25560,0.3325,-0.0215,0.8667,-6.46,7.88,-0.05,27.04
25570,0.3339,-0.024,0.864,-6.52,7.92,-0.05,27.02
25580,0.3333,-0.0244,0.8669,-6.43,7.89,-0.08,27.04
25590,0.3319,-0.0232,0.8673,-6.49,7.91,-0.02,27.02
25600,0.3325,-0.0214,0.8634,-6.44,7.86,-0.08,27.02
25610,0.3351,-0.0233,0.866,-6.52,7.91,-0.05,27.03
25620,0.3328,-0.024,0.8655,-6.52,7.91,-0.06,27.04
25630,0.3329,-0.0217,0.8669,-6.5,7.86,-0.06,26.99
25640,0.3356,-0.0221,0.8652,-6.53,7.91,-0.09,27.04
25650,0.3335,-0.0229,0.8662,-6.53,7.88,-0.02,27.04
25660,0.333,-0.0222,0.8647,-6.49,7.94,-0.08,27.04
25670,0.3333,-0.024,0.864,-6.61,7.89,-0.06,27.03
25680,0.3322,-0.0233,0.8588,-6.55,7.85,-0.11,27.04
25690,0.3329,-0.0219,0.8649,-6.53,7.89,-0.08,27.02
25701,0.3356,-0.0239,0.8645,-6.55,7.94,-0.03,27.03
25711,0.3351,-0.0221,0.8654,-6.58,7.88,-0.03,27.03
25721,0.3322,-0.0217,0.8613,-6.46,7.86,-0.08,27.02
25731,0.3326,-0.02,0.8628,-6.4,7.8,-0.05,27.04
25741,0.3348,-0.0251,0.8661,-6.46,7.85,-0.06,27.02
25751,0.3344,-0.0239,0.8641,-6.52,7.86,-0.06,27.02
25761,0.3346,-0.0236,0.8613,-6.55,7.8,-0.02,27.0
25771,0.3335,-0.0245,0.863,-6.63,7.83,0.0,26.99
25781,0.3351,-0.0223,0.8644,-6.5,7.85,-0.08,27.04
25791,0.3324,-0.021,0.861,-6.6,7.92,-0.05,27.02
25802,0.3344,-0.021,0.8643,-6.53,7.89,0.02,27.04
25812,0.3337,-0.0206,0.8627,-6.63,7.86,-0.06,27.02
25822,0.3353,-0.0234,0.864,-6.47,7.91,-0.05,27.03
25832,0.3376,-0.0223,0.8618,-6.49,7.86,-0.02,27.05
25842,0.3352,-0.0239,0.8634,-6.5,7.83,-0.06,27.04
25852,0.3345,-0.0214,0.8669,-6.5,7.85,-0.09,27.04
25862,0.3336,-0.024,0.8618,-6.52,7.89,-0.03,27.01
25872,0.3317,-0.0232,0.8617,-6.6,7.82,-0.06,27.01
25882,0.3317,-0.0258,0.8639,-6.55,7.83,-0.05,27.04
25892,0.3323,-0.0236,0.863,-6.58,7.88,-0.05,27.04
25902,0.3326,-0.0237,0.8687,-6.58,7.85,-0.03,27.03
25912,0.3328,-0.0227,0.8662,-6.5,7.85,0.03,27.01
25922,0.3298,-0.0266,0.8668,-6.58,7.95,-0.08,27.0
25932,0.3326,-0.0215,0.8666,-6.66,7.89,0.0,27.02
25942,0.3342,-0.0204,0.8671,-6.5,7.89,-0.08,27.02
25952,0.3326,-0.022,0.8635,-6.41,7.89,-0.14,27.03
25962,0.3352,-0.0222,0.8632,-6.49,7.85,-0.08,27.04
25972,0.3341,-0.0212,0.866,-6.6,7.85,-0.08,27.04
25982,0.3333,-0.0227,0.8649,-6.47,7.85,-0.03,27.02
25992,0.3319,-0.0228,0.8634,-6.49,7.82,-0.02,27.02
26002,0.3315,-0.0259,0.8645,-6.46,7.92,-0.03,27.0
26012,0.3325,-0.024,0.8655,-6.52,7.94,-0.05,27.03
26022,0.3312,-0.0233,0.8612,-6.52,7.89,-0.02,27.04
26032,0.3337,-0.0242,0.8617,-6.56,7.88,-0.03,27.01
26042,0.3334,-0.0223,0.8634,-6.56,7.88,-0.06,27.04
26052,0.334,-0.0248,0.8616,-6.61,7.91,-0.03,27.04
26062,0.3325,-0.0243,0.8688,-6.56,7.91,-0.03,27.02
26072,0.3345,-0.0229,0.8645,-6.56,7.88,-0.03,27.04
26082,0.3339,-0.0222,0.8668,-6.52,7.82,-0.09,27.05
26092,0.3331,-0.0242,0.8643,-6.55,7.85,-0.12,27.02
26102,0.333,-0.0228,0.8606,-6.56,7.89,-0.06,27.02
26112,0.3322,-0.0225,0.8639,-6.55,7.86,-0.11,27.02
26122,0.3331,-0.0223,0.8671,-6.55,7.83,-0.09,27.06
26132,0.3361,-0.0203,0.8646,-6.6,7.86,-0.06,27.05
26142,0.335,-0.0231,0.863,-6.63,7.82,-0.03,27.05
26152,0.3339,-0.0236,0.865,-6.49,7.86,-0.02,27.02
26162,0.3335,-0.0245,0.8645,-6.5,7.88,-0.02,27.02
26172,0.3339,-0.0238,0.8654,-6.49,7.86,0.02,27.02
26182,0.3324,-0.0216,0.8655,-6.6,7.88,-0.05,27.04
26192,0.3325,-0.024,0.8632,-6.56,7.86,-0.08,27.03
26202,0.3342,-0.0231,0.8615,-6.52,7.88,-0.11,27.02
26212,0.3333,-0.0267,0.8622,-6.53,7.86,-0.03,27.03
26222,0.3356,-0.0239,0.8638,-6.52,7.83,-0.02,27.02
26232,0.3348,-0.022,0.8619,-6.52,7.83,-0.08,27.02
26242,0.3344,-0.0227,0.8656,-6.56,7.89,-0.09,27.05
26252,0.3344,-0.024,0.8645,-6.58,7.83,-0.05,27.03
26262,0.3347,-0.0239,0.8635,-6.55,7.88,-0.05,27.07
26272,0.3363,-0.0236,0.8643,-6.52,7.82,-0.03,27.03
26282,0.3341,-0.021,0.8636,-6.52,7.86,-0.05,27.04
26293,0.3336,-0.0231,0.8654,-6.55,7.89,-0.09,27.01
26304,0.3326,-0.0229,0.8671,-6.53,7.86,0.0,27.02
26314,0.3339,-0.0236,0.8665,-6.53,7.85,-0.03,27.04
26324,0.3303,-0.0203,0.8651,-6.53,7.86,-0.08,27.05
26334,0.3306,-0.022,0.8644,-6.47,7.91,-0.03,27.04
26344,0.3333,-0.0227,0.8628,-6.56,7.88,-0.09,27.02
26354,0.3335,-0.0221,0.865,-6.53,7.89,-0.05,27.02
26364,0.3304,-0.0223,0.8629,-6.63,7.86,-0.06,27.04
26374,0.3356,-0.0231,0.8652,-6.58,7.86,-0.12,27.04
26384,0.3336,-0.0222,0.8644,-6.55,7.85,-0.03,27.04
26394,0.3311,-0.0233,0.8644,-6.6,7.83,-0.06,27.02
26404,0.3361,-0.0234,0.8633,-6.56,7.89,-0.08,27.06
26414,0.3342,-0.026,0.8661,-6.61,7.92,-0.08,27.04
26424,0.3326,-0.0248,0.8643,-6.53,7.95,-0.03,27.07
26434,0.3353,-0.0219,0.8634,-6.52,7.85,0.0,27.03
26444,0.3345,-0.0238,0.8643,-6.56,7.86,-0.05,27.04
26454,0.3325,-0.0212,0.8713,-6.52,7.91,-0.03,27.02
26464,0.3344,-0.0211,0.8658,-6.46,7.89,-0.03,27.06
26474,0.3333,-0.026,0.8644,-6.58,7.89,-0.09,27.03
26484,0.3333,-0.0217,0.8657,-6.55,7.91,-0.11,27.03
26494,0.3298,-0.0211,0.866,-6.52,7.89,-0.08,27.01
26504,0.335,-0.0211,0.8646,-6.61,7.89,-0.05,27.05
26514,0.3312,-0.0256,0.8621,-6.58,7.88,-0.05,27.04
26524,0.3324,-0.0233,0.8655,-6.52,7.88,-0.12,27.02
26534,0.3351,-0.0237,0.8617,-6.46,7.97,-0.03,27.04
26544,0.3311,-0.0228,0.8636,-6.49,7.88,0.03,27.03
26554,0.3345,-0.022,0.8647,-6.55,7.94,-0.08,27.05
26564,0.3315,-0.0226,0.8639,-6.52,7.92,-0.08,27.02
26574,0.3356,-0.0244,0.8636,-6.6,7.92,-0.03,27.04
26584,0.3358,-0.0209,0.8672,-6.5,7.89,-0.06,27.04
26594,0.3329,-0.0243,0.8654,-6.55,7.83,0.0,27.02
26604,0.3341,-0.0232,0.87,-6.56,7.88,-0.09,27.02
26614,0.3333,-0.0232,0.8658,-6.5,7.85,-0.05,27.04
26624,0.3318,-0.0254,0.8656,-6.5,7.89,-0.11,27.06
26634,0.3359,-0.0251,0.8643,-6.5,7.83,-0.05,27.05
26644,0.3362,-0.0233,0.8611,-6.53,7.85,-0.06,27.05
26654,0.3342,-0.0227,0.8657,-6.58,7.86,0.05,27.02
26664,0.3346,-0.0219,0.864,-6.53,7.89,-0.06,27.05
26674,0.3331,-0.0223,0.8632,-6.53,7.91,-0.08,27.08
26684,0.3333,-0.0237,0.8678,-6.5,7.86,0.05,27.04
26694,0.3326,-0.0227,0.8655,-6.55,7.94,-0.17,27.06
26704,0.3333,-0.0225,0.866,-6.56,7.92,-0.06,27.05
26714,0.3335,-0.0242,0.8645,-6.58,7.94,-0.02,27.03
26724,0.3347,-0.0214,0.8685,-6.56,7.89,-0.09,27.06
26734,0.3351,-0.0234,0.863,-6.5,7.88,-0.09,27.04
26744,0.3345,-0.0234,0.8621,-6.55,7.89,-0.03,27.04
26754,0.3347,-0.0251,0.8633,-6.53,7.86,-0.02,27.05
26764,0.3334,-0.0232,0.8679,-6.5,7.89,-0.08,27.05
26774,0.3307,-0.0223,0.8633,-6.52,7.92,-0.09,27.04
26784,0.3336,-0.0258,0.8627,-6.58,7.89,-0.05,27.04
26794,0.3328,-0.0243,0.8617,-6.6,7.85,-0.03,27.03
26804,0.3307,-0.0225,0.8634,-6.49,7.95,-0.06,27.02
26814,0.3341,-0.0226,0.8627,-6.56,7.86,0.0,27.04
26824,0.3322,-0.0238,0.8655,-6.52,7.8,-0.08,27.06
26834,0.3347,-0.024,0.8682,-6.52,7.88,-0.05,27.04
26844,0.334,-0.0232,0.8619,-6.55,7.82,-0.14,27.04
26854,0.3334,-0.0234,0.8621,-6.5,7.86,-0.05,27.03
26864,0.3333,-0.0243,0.8646,-6.6,7.86,-0.06,27.04
26874,0.3335,-0.0245,0.8668,-6.53,7.89,-0.09,27.03
26884,0.3325,-0.0237,0.8652,-6.53,7.92,0.03,27.03
26894,0.3312,-0.0239,0.8623,-6.61,7.88,-0.06,27.03
26904,0.3328,-0.0228,0.8636,-6.64,7.82,0.0,27.04
26914,0.3364,-0.0239,0.8625,-6.49,7.88,-0.03,27.04
26924,0.335,-0.0226,0.8652,-6.53,7.88,-0.09,27.04
26934,0.335,-0.0237,0.859,-6.53,7.94,-0.08,27.02
26944,0.3342,-0.0237,0.8671,-6.47,7.83,-0.06,27.05
26954,0.3325,-0.0255,0.8644,-6.55,7.83,-0.03,27.06
26964,0.3319,-0.0242,0.8635,-6.58,7.94,-0.03,27.05
26974,0.3328,-0.0203,0.8666,-6.52,7.83,-0.05,27.03
26984,0.3339,-0.0221,0.8617,-6.58,7.89,-0.03,27.06
26994,0.3329,-0.0239,0.8629,-6.55,7.92,-0.03,27.04
27004,0.3331,-0.0219,0.8669,-6.63,7.88,-0.02,27.04
27014,0.3344,-0.0228,0.8672,-6.53,7.83,-0.05,27.03
27024,0.3309,-0.0251,0.8649,-6.5,7.92,-0.06,27.05
27034,0.3328,-0.0265,0.8615,-6.58,7.88,-0.02,27.05
27044,0.3336,-0.022,0.8685,-6.6,7.89,-0.03,27.04
27054,0.337,-0.0221,0.8671,-6.58,7.89,-0.08,27.04
27064,0.3329,-0.0225,0.8661,-6.47,7.97,-0.05,27.04
27074,0.3334,-0.0267,0.8646,-6.52,7.8,-0.05,27.05
27084,0.3318,-0.0211,0.8658,-6.55,7.88,-0.08,27.02
27094,0.3336,-0.0211,0.865,-6.55,7.88,-0.06,27.05
27104,0.3337,-0.0239,0.8616,-6.49,7.95,0.0,27.06
27114,0.3361,-0.0211,0.8621,-6.56,7.86,0.03,27.08
27124,0.3317,-0.0242,0.8644,-6.6,7.85,-0.03,27.05
27134,0.3333,-0.0234,0.8625,-6.6,7.88,-0.08,27.02
27144,0.3345,-0.0231,0.8657,-6.44,7.86,-0.03,27.05
27154,0.3346,-0.0231,0.8667,-6.58,7.89,0.0,27.06
27164,0.333,-0.0221,0.8638,-6.55,7.86,-0.02,27.07
27174,0.334,-0.0238,0.8668,-6.53,7.88,-0.03,27.05
27184,0.3323,-0.0256,0.8651,-6.56,7.89,-0.06,27.04
27194,0.3361,-0.0233,0.8668,-6.56,7.86,-0.11,27.05
27204,0.3326,-0.024,0.8634,-6.64,7.88,-0.09,27.06
27214,0.3315,-0.0244,0.8627,-6.49,7.8,-0.05,27.06
27224,0.332,-0.0245,0.8644,-6.53,7.88,-0.09,27.04
27234,0.3315,-0.0234,0.8683,-6.5,7.82,0.02,27.07
27244,0.3337,-0.0223,0.8623,-6.6,7.88,-0.03,27.06
27254,0.3326,-0.0215,0.8618,-6.53,7.85,-0.12,27.04
27264,0.3326,-0.0245,0.8658,-6.5,7.97,-0.06,27.06
27274,0.3326,-0.0221,0.8632,-6.5,7.86,-0.05,27.05
27284,0.3337,-0.0192,0.8677,-6.52,7.92,-0.06,27.06
27305,0.3347,-0.0223,0.8666,-6.53,7.89,-0.15,27.04
27315,0.3325,-0.0229,0.8654,-6.56,7.88,0.0,27.04
27325,0.3334,-0.0232,0.8652,-6.49,7.85,0.0,27.05
27335,0.3306,-0.0197,0.8646,-6.61,7.95,-0.02,27.07
27345,0.333,-0.0189,0.8623,-6.56,7.94,-0.03,27.08
27355,0.3347,-0.022,0.8638,-6.61,7.85,0.0,27.05
27365,0.3323,-0.022,0.8689,-6.58,7.94,-0.03,27.04
27375,0.3309,-0.0223,0.8647,-6.43,7.89,-0.11,27.03
27385,0.335,-0.0243,0.8649,-6.53,7.85,0.0,27.05
27395,0.334,-0.0248,0.8656,-6.56,7.88,0.02,27.04
27405,0.3353,-0.024,0.8628,-6.6,7.85,-0.03,27.06
27415,0.3336,-0.0228,0.8698,-6.49,7.86,-0.08,27.04
