t_ms,accel_x_g,accel_y_g,accel_z_g,gyro_x_dps,gyro_y_dps,gyro_z_dps,imu_temp_c
3285,0.33,-0.027,0.8666,-6.79,7.95,-0.05,30.83
3296,0.328,-0.0271,0.8655,-6.87,8.05,-0.03,30.85
3306,0.3333,-0.0239,0.8679,-6.79,7.94,-0.05,30.84
3316,0.3306,-0.026,0.8634,-6.78,7.98,-0.05,30.85
3326,0.3304,-0.0231,0.8636,-6.81,7.89,-0.02,30.81
3336,0.3298,-0.0233,0.8645,-6.84,7.97,-0.03,30.85
3346,0.3274,-0.0215,0.8645,-6.82,7.92,-0.05,30.84
3356,0.3298,-0.025,0.8665,-6.81,8.05,0.02,30.84
3366,0.3312,-0.0232,0.8646,-6.79,8.06,-0.02,30.84
3376,0.3325,-0.0245,0.8612,-6.79,8.02,-0.06,30.84
3386,0.3318,-0.0243,0.8625,-6.84,8.0,-0.06,30.84
3396,0.3268,-0.0239,0.8615,-6.85,8.0,0.02,30.84
3406,0.329,-0.0228,0.861,-6.87,7.98,-0.03,30.82
3416,0.328,-0.028,0.8634,-6.79,7.95,-0.05,30.84
3426,0.3269,-0.0247,0.8611,-6.82,7.95,-0.06,30.86
3436,0.3311,-0.0275,0.8634,-6.87,8.02,0.0,30.84
3446,0.3286,-0.0276,0.8625,-6.84,7.92,-0.02,30.86
3456,0.3318,-0.0283,0.8678,-6.81,7.94,-0.05,30.85
3466,0.3289,-0.0242,0.8644,-6.79,7.92,-0.08,30.84
3476,0.3317,-0.0251,0.8696,-6.89,7.94,-0.06,30.86
3486,0.3297,-0.0258,0.8693,-6.79,8.0,-0.14,30.86
3496,0.3324,-0.0255,0.8655,-6.79,8.03,-0.02,30.87
3506,0.3351,-0.0253,0.8694,-6.76,8.05,-0.06,30.86
3516,0.3303,-0.0249,0.8646,-6.81,7.97,-0.06,30.85
3526,0.3317,-0.028,0.8647,-6.79,7.97,-0.09,30.84
3536,0.3297,-0.0249,0.8607,-6.81,8.0,-0.03,30.86
3546,0.3312,-0.0278,0.8619,-6.76,7.97,-0.05,30.84
3556,0.3357,-0.0265,0.8624,-6.82,8.06,-0.11,30.85
3566,0.3335,-0.0253,0.8618,-6.78,8.03,-0.09,30.86
3576,0.3319,-0.0272,0.8622,-6.84,8.02,0.02,30.85
3586,0.3319,-0.025,0.8651,-6.76,7.94,-0.09,30.86
3596,0.3326,-0.0221,0.8618,-6.73,7.97,-0.06,30.85
3606,0.3354,-0.0248,0.8701,-6.76,8.03,-0.08,30.86
3616,0.3312,-0.0254,0.8635,-6.84,7.91,-0.03,30.85
3626,0.3326,-0.0286,0.8643,-6.78,7.98,-0.06,30.85
3636,0.3323,-0.0237,0.8627,-6.84,8.03,0.0,30.85
3646,0.3315,-0.0251,0.8671,-6.81,7.97,-0.03,30.87
3656,0.3282,-0.027,0.8646,-6.87,8.0,0.0,30.86
3666,0.3313,-0.0249,0.8635,-6.78,8.06,0.0,30.85
3676,0.3306,-0.0229,0.8621,-6.84,7.98,-0.08,30.88
3686,0.3293,-0.0221,0.8654,-6.79,8.03,-0.03,30.88
3696,0.3297,-0.0249,0.863,-6.81,7.94,0.05,30.88
3706,0.3279,-0.0244,0.8604,-6.79,7.98,-0.03,30.87
3716,0.3276,-0.0271,0.8655,-6.87,8.03,-0.06,30.87
3726,0.3306,-0.0281,0.8665,-6.89,8.0,0.02,30.86
3736,0.3295,-0.0262,0.8704,-6.81,8.02,0.0,30.85
3746,0.3298,-0.0273,0.8654,-6.81,8.02,-0.06,30.87
3756,0.3268,-0.0264,0.8656,-6.75,7.98,0.0,30.87
3766,0.3201,-0.0265,0.8707,-6.82,8.2,0.12,30.87
3776,0.3307,-0.0273,0.8628,-6.81,7.92,-0.03,30.86
3786,0.3301,-0.0259,0.8618,-6.84,7.95,-0.05,30.88
3796,0.3312,-0.0251,0.8673,-6.72,7.89,-0.08,30.87
3806,0.3334,-0.0273,0.8656,-6.75,7.98,-0.05,30.88
3816,0.3324,-0.0244,0.8662,-6.79,8.09,-0.11,30.88
3826,0.3289,-0.0234,0.8643,-6.84,7.98,-0.11,30.88
3836,0.3312,-0.0245,0.8661,-6.82,7.95,-0.08,30.89
3846,0.3311,-0.0243,0.8662,-6.82,7.95,0.0,30.87
3856,0.3314,-0.03,0.8654,-6.81,8.03,-0.03,30.88
3866,0.3325,-0.0247,0.8641,-6.78,8.0,-0.03,30.88
3876,0.3301,-0.0253,0.8688,-6.85,8.03,-0.03,30.88
3886,0.3337,-0.0254,0.8687,-6.85,8.03,-0.05,30.91
3896,0.3325,-0.0261,0.8632,-6.82,7.94,-0.05,30.92
3906,0.3308,-0.028,0.8621,-6.81,8.0,-0.02,30.89
3916,0.3297,-0.0272,0.8611,-6.85,7.97,-0.02,30.87
3926,0.3315,-0.025,0.8666,-6.82,8.0,0.0,30.88
3936,0.3301,-0.0269,0.8636,-6.84,7.97,0.02,30.88
3946,0.3314,-0.0253,0.8666,-6.81,7.94,0.02,30.87
3956,0.3306,-0.0258,0.8619,-6.75,7.92,-0.06,30.9
3966,0.3291,-0.0249,0.8633,-6.79,7.94,-0.05,30.92
3976,0.3306,-0.0276,0.8628,-6.78,8.03,-0.08,30.9
3986,0.3279,-0.0269,0.8645,-6.87,7.94,-0.05,30.91
3996,0.3322,-0.0272,0.8646,-6.78,7.92,-0.05,30.89
4006,0.329,-0.027,0.8646,-6.82,8.0,-0.06,30.9
4016,0.333,-0.0258,0.8657,-6.82,7.98,-0.08,30.9
4026,0.3308,-0.0238,0.8629,-6.73,7.98,-0.05,30.89
4036,0.3291,-0.0251,0.8633,-6.81,7.98,-0.05,30.89
4046,0.3308,-0.0238,0.8677,-6.85,8.06,-0.06,30.88
4056,0.3282,-0.0278,0.8666,-6.84,8.03,-0.03,30.88
4066,0.3315,-0.0261,0.8655,-6.78,8.0,-0.03,30.89
4076,0.3326,-0.0283,0.8655,-6.89,7.98,-0.05,30.91
4086,0.3296,-0.0232,0.8615,-6.81,7.98,-0.11,30.89
4096,0.3314,-0.0258,0.8682,-6.81,8.0,0.0,30.9
4106,0.3328,-0.0239,0.8663,-6.84,7.98,-0.06,30.89
4116,0.3302,-0.0236,0.8617,-6.81,8.0,-0.08,30.92
4126,0.3296,-0.0221,0.8647,-6.84,7.94,-0.02,30.91
4136,0.3306,-0.0249,0.8677,-6.82,7.97,-0.03,30.9
4146,0.3311,-0.0253,0.8667,-6.84,8.03,-0.09,30.91
4156,0.3279,-0.0278,0.8652,-6.87,8.11,-0.03,30.87
4166,0.3282,-0.0248,0.8639,-6.82,8.03,-0.08,30.91
4176,0.3301,-0.025,0.8621,-6.84,8.05,-0.05,30.89
4186,0.3307,-0.0265,0.8627,-6.81,8.0,-0.02,30.92
4196,0.3323,-0.0276,0.8644,-6.81,7.92,0.0,30.92
4206,0.3322,-0.0272,0.8655,-6.81,7.97,0.03,30.89
4216,0.3284,-0.028,0.8657,-6.79,7.97,-0.05,30.88
4226,0.3306,-0.0261,0.8654,-6.81,7.97,-0.06,30.87
4236,0.3285,-0.0259,0.8654,-6.76,7.94,-0.09,30.88
4246,0.3302,-0.0233,0.8633,-6.84,8.03,-0.02,30.87
4256,0.3313,-0.0245,0.8674,-6.92,8.05,-0.06,30.91
4266,0.3322,-0.0231,0.8643,-6.82,8.02,-0.02,30.9
4276,0.3317,-0.0264,0.8638,-6.82,8.0,-0.08,30.91
4287,0.3309,-0.0276,0.8589,-6.89,7.98,-0.06,30.9
4297,0.3281,-0.0244,0.8649,-6.89,7.98,-0.02,30.89
4307,0.3308,-0.0249,0.8654,-6.89,7.98,-0.03,30.9
4317,0.3315,-0.0259,0.8646,-6.85,7.97,-0.02,30.89
4327,0.3292,-0.0243,0.8619,-6.75,8.02,-0.06,30.91
4337,0.3302,-0.0256,0.8622,-6.82,8.03,0.02,30.92
4347,0.33,-0.0261,0.8654,-6.9,8.02,-0.05,30.91
4357,0.3297,-0.0249,0.8629,-6.82,8.06,-0.03,30.89
4367,0.3315,-0.0245,0.8693,-6.82,8.02,-0.02,30.91
4377,0.3293,-0.0253,0.8643,-6.78,7.98,-0.06,30.91
4387,0.3303,-0.0236,0.8627,-6.81,7.95,-0.02,30.91
4397,0.3303,-0.0233,0.8652,-6.78,7.97,-0.03,30.9
4407,0.3284,-0.0253,0.866,-6.81,7.91,-0.02,30.89
4417,0.3293,-0.0255,0.8635,-6.75,7.92,-0.05,30.91
4427,0.3296,-0.0251,0.8634,-6.9,7.95,-0.09,30.9
4437,0.33,-0.0265,0.8665,-6.82,7.98,-0.05,30.93
4447,0.333,-0.0272,0.8605,-6.81,7.85,-0.08,30.92
4457,0.3248,-0.0254,0.8649,-6.89,8.03,0.0,30.89
4467,0.329,-0.0262,0.8612,-6.82,7.91,-0.03,30.91
4477,0.3313,-0.0242,0.8611,-6.82,7.91,-0.05,30.92
4487,0.3313,-0.0244,0.8698,-6.84,8.05,-0.05,30.92
4497,0.3329,-0.0232,0.8696,-6.87,8.05,-0.09,30.91
4507,0.3354,-0.0234,0.8715,-6.85,8.05,-0.06,30.93
4517,0.3352,-0.0232,0.8696,-6.87,8.02,-0.05,30.91
4527,0.3347,-0.0223,0.873,-6.87,8.03,-0.12,30.9
4537,0.3333,-0.0201,0.8701,-6.87,8.06,0.02,30.9
4547,0.3287,-0.022,0.8566,-6.75,8.03,-0.03,30.89
4557,0.3265,-0.025,0.8562,-6.82,8.03,-0.03,30.9
4567,0.3275,-0.0266,0.8508,-6.82,8.03,-0.05,30.91
4577,0.3301,-0.0273,0.8577,-6.82,7.95,0.0,30.9
4587,0.3293,-0.027,0.8612,-6.82,8.02,0.02,30.92
4597,0.3334,-0.0278,0.8704,-6.85,7.91,-0.05,30.9
4607,0.3356,-0.0284,0.8715,-6.92,8.0,-0.02,30.91
4617,0.3356,-0.0239,0.8752,-6.89,7.98,-0.08,30.92
4627,0.3341,-0.0239,0.8666,-6.78,8.08,0.05,30.9
4637,0.3323,-0.0233,0.8676,-6.81,7.98,0.02,30.9
4647,0.3274,-0.0265,0.8627,-6.87,8.0,-0.02,30.92
4657,0.3252,-0.0253,0.8591,-6.78,8.05,-0.02,30.92
4667,0.3263,-0.0251,0.8589,-6.76,7.98,-0.02,30.92
4677,0.3291,-0.0248,0.8611,-6.85,8.0,-0.03,30.93
4687,0.3314,-0.0295,0.8645,-6.82,8.0,-0.09,30.93
4697,0.3291,-0.0266,0.8643,-6.82,7.98,-0.12,30.94
4707,0.3298,-0.0229,0.8599,-6.76,7.92,-0.14,30.94
4717,0.3331,-0.0258,0.8674,-6.78,7.98,-0.05,30.95
4728,0.332,-0.0236,0.865,-6.87,8.02,-0.02,30.93
4738,0.3334,-0.026,0.8665,-6.81,7.95,-0.05,30.92
4748,0.3331,-0.0233,0.8674,-6.82,7.98,-0.03,30.92
4758,0.333,-0.0248,0.8669,-6.95,7.98,-0.06,30.92
4768,0.3307,-0.0256,0.8643,-6.85,8.0,0.0,30.92
4778,0.3323,-0.0243,0.869,-6.85,7.97,0.05,30.92
4788,0.3334,-0.0254,0.864,-6.87,8.02,-0.08,30.92
4798,0.3286,-0.0258,0.865,-6.81,8.0,-0.05,30.94
4808,0.3307,-0.0255,0.8619,-6.81,7.97,-0.05,30.96
4818,0.3285,-0.0249,0.8596,-6.85,7.94,-0.09,30.93
4828,0.3282,-0.0249,0.8618,-6.81,7.98,-0.02,30.94
4838,0.3287,-0.0236,0.866,-6.82,7.95,0.05,30.94
4848,0.3301,-0.0236,0.8661,-6.87,8.0,-0.02,30.95
4858,0.3315,-0.0227,0.8651,-6.82,8.03,0.02,30.93
4868,0.3334,-0.0273,0.8707,-6.79,7.98,-0.03,30.92
4878,0.3311,-0.0265,0.8676,-6.85,7.97,-0.03,30.96
4888,0.3298,-0.0256,0.8674,-6.81,7.97,-0.06,30.93
4898,0.3293,-0.026,0.8671,-6.85,8.03,0.06,30.96
4908,0.3309,-0.028,0.8634,-6.85,7.97,0.0,30.95
4918,0.3282,-0.0284,0.8602,-6.76,7.98,-0.05,30.94
4928,0.3282,-0.0269,0.8618,-6.82,8.06,0.0,30.95
4938,0.3309,-0.0258,0.8602,-6.81,8.0,-0.08,30.96
4948,0.3312,-0.0261,0.8613,-6.78,8.0,-0.06,30.94
4958,0.3297,-0.0253,0.8613,-6.76,7.97,0.03,30.94
4968,0.329,-0.0245,0.8595,-6.85,7.98,-0.05,30.96
4978,0.3301,-0.0243,0.866,-6.78,7.92,-0.05,30.92
4988,0.3301,-0.0225,0.8646,-6.75,7.95,-0.03,30.95
4998,0.332,-0.0258,0.86,-6.81,8.02,-0.03,30.96
5008,0.3318,-0.0289,0.8676,-6.81,7.98,-0.11,30.96
5018,0.3312,-0.0234,0.8669,-6.9,8.06,-0.02,30.95
5028,0.3306,-0.0227,0.8658,-6.82,7.95,-0.06,30.95
5038,0.3329,-0.0249,0.8641,-6.78,8.0,-0.12,30.95
5048,0.3307,-0.0256,0.8641,-6.84,8.03,-0.02,30.95
5058,0.3308,-0.0227,0.8627,-6.84,8.02,-0.05,30.94
5068,0.33,-0.0237,0.8608,-6.82,8.0,-0.06,30.95
5078,0.3326,-0.0238,0.8656,-6.87,7.92,-0.03,30.93
5088,0.3313,-0.0208,0.8622,-6.85,7.97,-0.06,30.93
5098,0.3295,-0.0242,0.8607,-6.89,7.97,-0.06,30.93
5108,0.3317,-0.0269,0.861,-6.85,8.06,-0.11,30.93
5119,0.3318,-0.0258,0.8638,-6.85,8.05,-0.02,30.94
5129,0.3289,-0.0245,0.8662,-6.78,8.0,0.05,30.94
5139,0.3315,-0.0269,0.8668,-6.81,8.05,-0.06,30.97
5149,0.3311,-0.0254,0.866,-6.84,7.95,-0.06,30.96
5159,0.3317,-0.0248,0.8654,-6.81,7.97,0.0,30.97
5169,0.3278,-0.0248,0.8651,-6.92,8.03,0.0,30.94
5179,0.3308,-0.0245,0.864,-6.84,8.05,-0.09,30.93
5189,0.3296,-0.0253,0.8655,-6.82,8.0,-0.02,30.94
5199,0.3314,-0.0233,0.8627,-6.92,8.05,0.0,30.94
5209,0.3312,-0.0243,0.8616,-6.79,8.0,-0.09,30.97
5219,0.3302,-0.0253,0.8593,-6.87,7.98,-0.03,30.97
5229,0.3303,-0.0265,0.8636,-6.76,7.89,-0.02,30.96
5239,0.3311,-0.0276,0.8662,-6.84,7.98,-0.05,30.97
5249,0.3323,-0.0264,0.8629,-6.92,8.0,-0.06,30.96
5259,0.33,-0.0239,0.865,-6.82,7.98,-0.06,30.95
5269,0.3289,-0.0258,0.8652,-6.85,7.98,-0.02,30.94
5279,0.3278,-0.0248,0.8656,-6.9,7.98,-0.02,30.97
5289,0.3296,-0.0223,0.8605,-6.82,8.02,-0.09,30.93
5299,0.3298,-0.0269,0.8683,-6.85,8.05,-0.11,30.96
5309,0.3319,-0.0258,0.8636,-6.84,7.95,-0.02,30.95
5319,0.3307,-0.0265,0.8627,-6.87,8.0,-0.03,30.95
5329,0.3289,-0.0272,0.8647,-6.82,8.03,-0.05,30.95
5339,0.3275,-0.0237,0.8665,-6.9,8.03,0.0,30.95
5349,0.3313,-0.0254,0.8676,-6.85,8.02,-0.03,30.96
5359,0.3295,-0.0234,0.8678,-6.75,8.0,0.0,30.96
5369,0.3302,-0.0265,0.8652,-6.78,8.0,-0.08,30.96
5379,0.3282,-0.026,0.8652,-6.87,8.02,-0.02,30.95
5389,0.3275,-0.0266,0.8617,-6.85,7.98,-0.02,30.96
5399,0.3315,-0.026,0.8636,-6.79,7.98,-0.06,30.94
5409,0.3292,-0.0264,0.8635,-6.85,8.0,-0.05,30.97
5419,0.3322,-0.0264,0.8633,-6.81,7.98,-0.05,30.97
5429,0.3297,-0.0267,0.8673,-6.82,7.98,-0.06,30.96
5439,0.3313,-0.0216,0.866,-6.84,8.02,-0.06,30.97
5449,0.3306,-0.027,0.8658,-6.73,7.98,-0.09,30.97
5459,0.3304,-0.0247,0.864,-6.79,8.0,-0.02,30.98
5469,0.3319,-0.025,0.864,-6.78,8.05,-0.06,30.97
5479,0.3309,-0.0261,0.8618,-6.9,8.03,-0.03,30.98
5489,0.3319,-0.0258,0.8616,-6.79,7.98,-0.17,30.96
5499,0.3331,-0.0244,0.8654,-6.87,8.0,-0.05,30.96
5509,0.328,-0.0266,0.8647,-6.76,8.0,-0.08,30.97
5519,0.3295,-0.0261,0.8644,-6.81,8.02,-0.06,30.96
5529,0.3322,-0.0258,0.8623,-6.87,8.08,-0.05,30.97
5539,0.3268,-0.0266,0.8663,-6.87,8.05,-0.02,30.96
5549,0.3284,-0.0297,0.8639,-6.84,8.0,-0.03,30.96
5559,0.3302,-0.0245,0.8635,-6.84,7.91,-0.12,30.97
5569,0.3319,-0.0271,0.8628,-6.89,7.95,-0.06,30.97
5579,0.3337,-0.0284,0.8685,-6.81,8.05,-0.06,30.97
5589,0.3312,-0.0231,0.8647,-6.78,8.02,0.0,30.99
5599,0.3337,-0.0236,0.8639,-6.82,8.03,-0.03,30.96
5609,0.3282,-0.0259,0.8634,-6.79,7.97,-0.05,30.97
5619,0.3301,-0.0232,0.8655,-6.82,8.03,-0.09,30.97
5629,0.3303,-0.0259,0.8625,-6.84,8.06,-0.11,30.96
5639,0.3314,-0.0237,0.8628,-6.85,8.03,-0.05,30.97
5649,0.3328,-0.0238,0.8661,-6.95,8.0,0.05,30.97
5659,0.3287,-0.0237,0.8649,-6.82,7.97,0.02,30.98
5669,0.3284,-0.022,0.8641,-6.85,7.98,0.02,30.99
5679,0.3302,-0.0223,0.865,-6.81,8.02,-0.08,31.0
5689,0.3273,-0.024,0.8658,-6.9,8.03,-0.03,30.97
5700,0.3279,-0.0238,0.8641,-6.85,8.08,-0.03,30.97
5710,0.328,-0.0247,0.8693,-6.87,8.03,-0.09,30.95
5720,0.33,-0.0259,0.8694,-6.82,7.97,-0.11,30.96
5730,0.3297,-0.0287,0.8628,-6.93,8.0,-0.05,30.96
5740,0.3324,-0.0245,0.8633,-6.82,8.0,-0.02,30.98
5750,0.332,-0.0248,0.8599,-6.79,7.97,-0.06,30.97
5760,0.3315,-0.0258,0.8593,-6.78,8.02,0.05,30.97
5770,0.3295,-0.0251,0.8618,-6.81,7.98,-0.02,30.99
5780,0.3307,-0.021,0.8646,-6.84,8.03,0.05,30.97
5790,0.3315,-0.0254,0.8662,-6.81,8.06,-0.09,30.97
5800,0.3281,-0.0244,0.8668,-6.89,8.0,0.0,30.99
5810,0.3285,-0.024,0.864,-6.87,7.97,0.03,30.96
5820,0.3298,-0.0238,0.8666,-6.81,7.88,-0.05,31.01
5830,0.3309,-0.025,0.8663,-6.87,7.97,-0.11,30.98
5840,0.3301,-0.0267,0.8687,-6.81,7.98,-0.05,30.98
5850,0.3289,-0.0255,0.8641,-6.78,7.94,-0.06,30.98
5860,0.3291,-0.0275,0.8643,-6.78,7.94,0.0,30.97
5870,0.3329,-0.0264,0.8639,-6.78,7.97,-0.08,30.97
5880,0.3302,-0.0243,0.8632,-6.79,8.0,-0.06,30.99
5890,0.3291,-0.0248,0.8636,-6.92,8.0,-0.05,30.99
5900,0.3284,-0.0248,0.8633,-6.84,8.02,-0.11,30.99
5910,0.3279,-0.0264,0.8625,-6.82,8.0,0.0,30.99
5920,0.3311,-0.0248,0.8633,-6.82,8.0,-0.03,31.0
5930,0.3307,-0.0278,0.8652,-6.9,8.02,-0.08,31.01
5940,0.3315,-0.0239,0.868,-6.89,7.98,-0.03,30.98
5950,0.3315,-0.0283,0.8636,-6.79,8.02,-0.06,30.99
5960,0.3303,-0.0253,0.864,-6.84,7.91,-0.03,31.0
5970,0.329,-0.0249,0.8651,-6.76,7.94,-0.11,30.97
5980,0.3301,-0.0253,0.8666,-6.82,7.98,-0.11,30.98
5990,0.326,-0.0243,0.8663,-6.82,7.94,-0.08,30.98
6000,0.329,-0.0283,0.8605,-6.81,7.97,0.02,30.98
6010,0.3289,-0.0243,0.8652,-6.89,7.98,-0.05,31.0
6020,0.3307,-0.0253,0.8685,-6.78,7.89,-0.03,30.99
6030,0.3315,-0.0258,0.864,-6.84,7.98,0.0,31.0
6040,0.3339,-0.0256,0.8687,-6.87,7.98,-0.05,30.98
6050,0.3291,-0.0234,0.8665,-6.78,8.02,-0.06,30.98
6060,0.3307,-0.0265,0.8589,-6.82,7.97,-0.08,30.98
6070,0.3318,-0.0236,0.863,-6.82,8.0,-0.08,31.0
6080,0.3331,-0.0258,0.861,-6.76,8.03,-0.05,30.99
6090,0.3307,-0.0259,0.8668,-6.89,7.98,-0.08,31.01
6100,0.3318,-0.0265,0.8651,-6.81,7.98,-0.05,30.99
6110,0.3284,-0.0258,0.8688,-6.84,8.02,-0.12,30.99
6120,0.3284,-0.025,0.8652,-6.87,7.95,0.02,30.98
6130,0.3287,-0.0262,0.8662,-6.85,7.98,-0.11,30.98
6140,0.3298,-0.0277,0.8636,-6.84,7.98,-0.09,30.99
6150,0.3311,-0.0283,0.8638,-6.81,7.98,-0.06,31.01
6160,0.3329,-0.0265,0.8647,-6.85,7.98,-0.03,31.0
6170,0.3307,-0.0281,0.8666,-6.84,7.95,-0.06,30.99
6180,0.333,-0.0266,0.866,-6.9,8.06,-0.08,31.02
6190,0.3282,-0.0261,0.8662,-6.81,7.92,-0.09,30.99
6200,0.3297,-0.0236,0.864,-6.87,8.02,-0.06,31.01
6210,0.3324,-0.0277,0.8622,-6.87,7.92,0.02,31.01
6220,0.3291,-0.0271,0.8645,-6.85,8.0,-0.06,31.01
6230,0.3304,-0.0256,0.8621,-6.76,8.02,-0.11,30.99
6240,0.3303,-0.0237,0.8628,-6.84,7.95,-0.05,30.99
6250,0.3302,-0.0261,0.8627,-6.78,7.95,-0.06,31.02
6260,0.3302,-0.0231,0.8649,-6.87,8.02,0.03,30.98
6270,0.33,-0.0232,0.868,-6.79,7.95,-0.02,31.0
6280,0.3289,-0.0261,0.863,-6.79,8.0,-0.06,31.01
6290,0.3279,-0.0265,0.8662,-6.76,7.97,-0.06,31.01
6300,0.3287,-0.0255,0.8667,-6.9,8.03,-0.03,30.99
6310,0.3284,-0.0258,0.8639,-6.79,7.95,-0.11,31.02
6320,0.3322,-0.0288,0.8647,-6.85,7.98,-0.03,30.99
6330,0.329,-0.027,0.8629,-6.81,8.0,-0.05,31.0
6340,0.3295,-0.0253,0.8629,-6.75,8.03,-0.11,30.99
6350,0.3279,-0.0277,0.8646,-6.78,8.02,0.02,31.0
6360,0.3301,-0.0273,0.8623,-6.79,7.97,-0.05,30.98
6370,0.3291,-0.0254,0.8657,-6.76,8.0,-0.08,30.99
6383,0.3314,-0.0271,0.8654,-6.84,8.0,-0.03,30.99
6393,0.3298,-0.0277,0.8658,-6.81,7.97,-0.11,30.99
6403,0.3308,-0.0253,0.8663,-6.84,8.0,-0.08,30.98
6413,0.33,-0.0247,0.864,-6.81,8.0,-0.06,30.98
6423,0.3325,-0.0251,0.8666,-6.87,8.0,-0.03,30.99
6433,0.3309,-0.0238,0.8651,-6.99,7.98,-0.09,31.01
6446,0.3356,-0.0269,0.86,-6.7,7.94,-0.73,31.0
6456,0.3303,-0.0226,0.8661,-6.81,7.98,-0.02,31.01
6466,0.3322,-0.0258,0.8589,-6.84,8.02,0.05,31.0
6476,0.3322,-0.0261,0.8634,-6.84,7.94,-0.03,31.01
6486,0.3303,-0.0255,0.8622,-6.79,7.95,-0.08,30.99
6496,0.3293,-0.024,0.8624,-6.81,7.94,-0.05,30.99
6506,0.3287,-0.0275,0.8634,-6.76,7.98,0.02,31.0
6516,0.3317,-0.0276,0.8683,-6.84,8.0,0.02,30.98
6526,0.3313,-0.0256,0.8661,-6.85,8.02,-0.02,31.0
6536,0.3286,-0.0271,0.8666,-6.84,7.94,-0.02,31.02
6547,0.3302,-0.0243,0.8649,-6.82,8.03,-0.08,30.99
6559,0.3318,-0.0244,0.8619,-6.84,7.98,-0.05,31.01
6569,0.3333,-0.0243,0.865,-6.81,7.95,-0.06,31.0
6579,0.3292,-0.0276,0.8652,-6.78,7.97,0.0,31.01
6589,0.33,-0.0245,0.8634,-6.82,7.98,-0.06,31.02
6599,0.3306,-0.0249,0.8654,-6.76,8.02,-0.09,31.02
6609,0.3302,-0.0247,0.864,-6.82,8.05,0.02,31.0
6619,0.3324,-0.0272,0.8647,-6.7,8.0,0.0,31.02
6629,0.329,-0.0289,0.8656,-6.82,7.98,-0.03,31.0
6639,0.3308,-0.0278,0.8611,-6.81,8.03,-0.12,31.02
6649,0.3278,-0.0234,0.8663,-6.82,8.0,-0.02,31.02
6659,0.3314,-0.0261,0.8668,-6.82,7.95,-0.03,31.02
6669,0.3301,-0.0249,0.8651,-6.79,8.0,-0.05,31.01
6679,0.33,-0.0238,0.8638,-6.89,8.02,-0.09,31.03
6689,0.3301,-0.021,0.8619,-6.85,7.97,-0.06,31.02
6699,0.3301,-0.0237,0.8667,-6.87,7.98,-0.06,31.02
6709,0.3315,-0.0239,0.8662,-6.76,7.91,-0.06,31.04
6720,0.3295,-0.0276,0.8663,-6.79,7.97,-0.02,31.01
6730,0.33,-0.0255,0.8677,-6.78,7.97,-0.02,31.01
6740,0.3315,-0.0233,0.8658,-6.82,8.02,0.03,31.02
6750,0.3314,-0.0245,0.8674,-6.82,8.0,-0.11,31.02
6760,0.3304,-0.0238,0.8644,-6.78,8.0,0.0,31.03
6770,0.3326,-0.0226,0.8629,-6.81,8.0,-0.12,31.01
6780,0.3293,-0.0247,0.8693,-6.73,7.98,-0.09,31.01
6790,0.3344,-0.0265,0.8639,-6.84,8.02,-0.12,31.03
6800,0.3295,-0.0232,0.8649,-6.81,8.09,-0.11,31.01
6810,0.33,-0.0237,0.8617,-6.87,7.97,-0.03,31.01
6820,0.3312,-0.0234,0.8654,-6.85,8.02,-0.08,31.02
6830,0.3307,-0.0259,0.8678,-6.78,8.02,-0.06,31.0
6840,0.3306,-0.0266,0.8674,-6.84,8.0,-0.06,31.01
6850,0.3281,-0.0261,0.8671,-6.84,8.02,-0.08,31.01
6860,0.3318,-0.0273,0.863,-6.84,7.97,-0.05,31.03
6870,0.3324,-0.0248,0.8641,-6.81,8.02,0.02,31.0
6880,0.3306,-0.0237,0.8673,-6.78,7.98,-0.05,31.04
6890,0.3276,-0.0237,0.8676,-6.87,7.98,-0.02,31.03
6900,0.3302,-0.0272,0.8632,-6.85,8.06,-0.03,31.02
6910,0.3285,-0.0267,0.8615,-6.79,8.06,-0.02,31.04
6920,0.3313,-0.0271,0.8633,-6.79,7.92,-0.06,31.0
6930,0.3328,-0.0262,0.8673,-6.78,8.06,0.0,31.02
6940,0.3309,-0.0245,0.8639,-6.82,7.89,-0.08,31.02
6950,0.3302,-0.0237,0.8619,-6.81,7.95,0.0,31.01
6960,0.3324,-0.0239,0.8622,-6.79,7.97,-0.12,31.03
6970,0.3329,-0.0254,0.865,-6.87,8.02,-0.05,31.0
6980,0.3319,-0.0261,0.8669,-6.75,7.97,-0.03,31.04
6990,0.3318,-0.0254,0.8691,-6.72,8.02,0.0,31.02
7000,0.3289,-0.027,0.8595,-6.89,8.0,-0.03,31.02
7010,0.3307,-0.0264,0.8647,-6.9,7.98,-0.03,31.02
7020,0.3285,-0.025,0.8651,-6.85,7.98,-0.03,31.02
7030,0.3296,-0.0255,0.8613,-6.89,8.02,-0.09,31.02
7040,0.3295,-0.0255,0.8622,-6.81,8.0,-0.06,31.03
7050,0.329,-0.0237,0.864,-6.87,8.0,0.03,31.02
7060,0.3317,-0.0267,0.8632,-6.81,7.98,-0.03,30.99
7070,0.3302,-0.0256,0.8622,-6.89,8.02,-0.03,31.03
7080,0.333,-0.0245,0.8645,-6.85,7.95,0.02,31.02
7090,0.3306,-0.0249,0.8654,-6.73,7.97,-0.06,31.03
7101,0.3302,-0.0251,0.8658,-6.81,8.08,-0.03,31.03
7111,0.3296,-0.026,0.864,-6.75,8.06,-0.03,31.03
7121,0.3302,-0.0231,0.8657,-6.79,7.98,0.0,31.04
7131,0.3326,-0.0243,0.8629,-6.79,7.98,-0.02,31.02
7141,0.3301,-0.0245,0.8674,-6.82,7.92,-0.06,31.04
7151,0.3301,-0.0243,0.8646,-6.85,8.0,-0.05,31.04
7161,0.3296,-0.0245,0.8658,-6.79,7.97,-0.03,31.03
7171,0.3293,-0.0232,0.8621,-6.79,7.95,-0.02,31.03
7181,0.3309,-0.0242,0.8623,-6.82,8.03,-0.03,31.04
7191,0.3292,-0.0247,0.8629,-6.81,8.0,-0.05,31.06
7201,0.3292,-0.0225,0.8641,-6.85,7.94,-0.06,31.03
7211,0.3293,-0.0262,0.8645,-6.81,8.0,-0.05,31.01
7221,0.3311,-0.0256,0.8613,-6.89,8.02,0.02,31.03
7231,0.3275,-0.0262,0.8655,-6.89,7.98,-0.02,31.03
7241,0.3297,-0.0244,0.8607,-6.87,8.03,0.03,31.02
7251,0.3297,-0.0266,0.8649,-6.78,7.95,0.0,31.03
7261,0.3304,-0.0298,0.8588,-6.89,8.02,-0.03,31.03
7271,0.3304,-0.0248,0.8644,-6.84,8.11,-0.08,31.03
7281,0.3312,-0.0249,0.8677,-6.82,7.94,-0.05,31.05
7291,0.3285,-0.0269,0.8657,-6.84,8.03,0.0,31.04
7301,0.3291,-0.026,0.8649,-6.81,7.95,0.0,31.03
7311,0.3326,-0.0228,0.8644,-6.76,7.98,-0.08,31.04
7321,0.332,-0.0284,0.8605,-6.79,8.06,-0.03,31.02
7331,0.3296,-0.0234,0.865,-6.87,7.98,-0.06,31.03
7341,0.3309,-0.0269,0.8682,-6.82,8.05,0.0,31.03
7351,0.3308,-0.0259,0.8643,-6.87,8.05,-0.11,31.03
7361,0.3315,-0.0256,0.8615,-6.84,8.0,-0.08,31.02
7371,0.3273,-0.0259,0.8613,-6.9,8.08,-0.05,31.03
7381,0.3301,-0.0273,0.8618,-6.93,8.0,0.02,31.02
7391,0.3273,-0.0264,0.8633,-6.76,8.05,-0.08,31.04
7401,0.3306,-0.0248,0.8657,-6.76,7.94,-0.05,31.04
7411,0.3289,-0.0254,0.863,-6.79,7.94,-0.03,31.02
7421,0.3302,-0.0259,0.8673,-6.79,7.97,-0.05,31.04
7431,0.3285,-0.0276,0.8654,-6.82,7.92,-0.03,31.02
7441,0.3308,-0.0244,0.8636,-6.93,8.0,-0.08,31.03
7451,0.3295,-0.024,0.8616,-6.9,7.97,-0.11,31.02
7462,0.3273,-0.0233,0.865,-6.81,7.97,-0.02,31.04
7472,0.3315,-0.0256,0.8602,-6.87,7.94,0.0,31.04
7482,0.3295,-0.0261,0.8662,-6.84,8.02,-0.08,31.04
7492,0.3282,-0.0277,0.8634,-6.84,8.0,-0.03,31.04
7502,0.3281,-0.0276,0.8665,-6.82,8.05,-0.08,31.05
7512,0.3326,-0.025,0.8645,-6.79,8.03,0.02,31.05
7522,0.3292,-0.0256,0.8644,-6.87,8.09,0.0,31.02
7532,0.3317,-0.0267,0.8674,-6.81,8.02,-0.11,31.04
7542,0.3301,-0.0227,0.8638,-6.92,8.05,-0.02,31.02
7552,0.33,-0.0251,0.8655,-6.85,7.97,-0.02,31.03
7562,0.3295,-0.0245,0.8676,-6.82,7.97,-0.08,31.06
7572,0.3304,-0.0249,0.8634,-6.85,8.0,-0.05,31.03
7582,0.3298,-0.0266,0.8623,-6.81,8.03,-0.03,31.03
7592,0.3309,-0.0253,0.8649,-6.78,8.06,-0.02,31.04
7602,0.3308,-0.0265,0.8606,-6.84,7.97,0.0,31.03
7612,0.3309,-0.0249,0.8619,-6.82,8.0,-0.05,31.04
7622,0.3317,-0.0258,0.863,-6.89,7.98,-0.02,31.04
7632,0.3302,-0.0271,0.865,-6.9,8.02,-0.03,31.03
7642,0.3322,-0.0233,0.8676,-6.84,7.98,-0.02,31.01
7652,0.3311,-0.0265,0.8635,-6.82,7.98,-0.14,31.02
7662,0.3306,-0.0254,0.8623,-6.85,7.98,-0.05,31.02
7672,0.3318,-0.0267,0.8623,-6.87,7.95,-0.02,31.02
7682,0.3324,-0.0248,0.8644,-6.85,8.06,-0.08,31.04
7692,0.33,-0.0265,0.8617,-6.89,8.0,-0.03,31.04
7703,0.3306,-0.0256,0.8627,-6.9,7.95,-0.06,31.03
7713,0.3324,-0.0271,0.8654,-6.89,8.0,0.02,31.03
7723,0.3276,-0.0289,0.8672,-6.87,8.0,-0.02,31.06
7733,0.3314,-0.0267,0.8652,-6.81,8.05,-0.06,31.04
7743,0.3278,-0.0261,0.8636,-6.79,7.95,-0.09,31.04
7753,0.3306,-0.0243,0.8671,-6.85,7.97,-0.05,31.05
7763,0.3314,-0.0238,0.8685,-6.89,7.91,-0.09,31.04
7773,0.3337,-0.0255,0.8647,-6.84,7.94,-0.02,31.03
7783,0.3309,-0.0273,0.8647,-6.87,7.92,-0.03,31.06
7793,0.3315,-0.0273,0.8643,-6.87,7.94,-0.06,31.06
7803,0.3303,-0.0258,0.8646,-6.82,7.95,-0.08,31.04
7813,0.3309,-0.025,0.87,-6.85,7.95,-0.08,31.05
7823,0.3291,-0.0244,0.8672,-6.81,7.94,-0.05,31.02
7833,0.3328,-0.0259,0.8644,-6.92,7.94,-0.06,31.04
7843,0.3297,-0.0255,0.8661,-6.79,7.97,0.03,31.04
7853,0.3271,-0.027,0.8621,-6.79,8.06,0.02,31.06
7863,0.3282,-0.025,0.8658,-6.93,7.95,-0.05,31.07
7873,0.3311,-0.026,0.8628,-6.89,7.94,-0.02,31.07
7883,0.3317,-0.0256,0.8634,-6.84,8.02,0.0,31.05
7893,0.3293,-0.026,0.866,-6.81,7.98,-0.06,31.04
7903,0.3303,-0.026,0.8671,-6.84,8.0,-0.06,31.04
7913,0.3281,-0.0237,0.8654,-6.85,8.0,-0.03,31.06
7923,0.33,-0.0253,0.8663,-6.85,8.02,-0.06,31.04
7933,0.3318,-0.0259,0.8651,-6.84,7.97,-0.02,31.06
7943,0.3296,-0.025,0.8676,-6.9,8.02,-0.05,31.06
7953,0.3304,-0.0262,0.8628,-6.82,7.98,0.02,31.04
7963,0.3307,-0.0238,0.8643,-6.81,7.97,-0.05,31.06
7973,0.33,-0.0226,0.8673,-6.82,7.95,0.0,31.03
7983,0.3282,-0.0232,0.865,-6.92,7.95,-0.08,31.04
7993,0.3291,-0.0249,0.8611,-6.89,8.0,-0.03,31.05
8003,0.3279,-0.0254,0.8658,-6.81,8.02,-0.11,31.02
8013,0.3276,-0.0275,0.8638,-6.9,8.02,-0.15,31.07
8023,0.3337,-0.0251,0.8643,-6.82,8.08,-0.06,31.04
8033,0.3285,-0.0286,0.8677,-6.81,7.97,-0.11,31.04
8043,0.3268,-0.0247,0.8677,-6.82,7.95,0.0,31.04
8053,0.3298,-0.0292,0.8666,-6.89,7.92,-0.06,31.02
8063,0.3293,-0.0283,0.861,-6.82,8.08,-0.05,31.03
8073,0.3309,-0.0283,0.8616,-6.89,7.95,-0.03,31.04
8083,0.3315,-0.0265,0.8687,-6.79,7.98,-0.09,31.05
8093,0.3298,-0.0273,0.86,-6.81,7.94,0.0,31.03
8103,0.3295,-0.0265,0.8647,-6.87,7.95,-0.05,31.04
8113,0.3307,-0.0238,0.8654,-6.92,8.03,-0.02,31.07
8123,0.3302,-0.0262,0.8649,-6.95,8.03,-0.08,31.09
8133,0.3281,-0.0258,0.8668,-6.84,7.98,-0.06,31.04
8143,0.33,-0.0222,0.8651,-6.79,7.94,-0.14,31.04
8153,0.3303,-0.0231,0.8639,-6.75,7.97,-0.06,31.03
8163,0.3284,-0.0261,0.8646,-6.79,8.08,-0.11,31.05
8173,0.3276,-0.0262,0.8636,-6.85,7.95,-0.05,31.04
8183,0.3295,-0.0254,0.863,-6.87,8.03,-0.05,31.03
8193,0.3301,-0.0259,0.8665,-6.9,8.0,-0.06,31.06
8203,0.3319,-0.0247,0.8636,-6.85,7.95,0.05,31.06
8213,0.3322,-0.0256,0.8655,-6.85,7.98,-0.03,31.04
8223,0.328,-0.025,0.8602,-6.79,7.94,-0.09,31.03
8233,0.329,-0.025,0.864,-6.85,8.02,-0.05,31.04
8243,0.3297,-0.0277,0.8639,-6.82,7.95,-0.05,31.07
8253,0.3295,-0.0243,0.8652,-6.85,8.05,-0.06,31.07
8263,0.3313,-0.0258,0.8625,-6.85,7.97,-0.05,31.07
8273,0.3292,-0.0242,0.8633,-6.82,7.97,-0.08,31.04
8283,0.3306,-0.027,0.8665,-6.81,7.97,-0.08,31.05
8293,0.3328,-0.0256,0.8643,-6.93,7.92,-0.03,31.06
8303,0.3312,-0.0265,0.8633,-6.89,8.03,-0.09,31.04
8313,0.3301,-0.0232,0.8647,-6.82,7.98,-0.08,31.06
8323,0.3282,-0.0251,0.8676,-6.81,8.05,-0.11,31.06
8333,0.3303,-0.0267,0.8638,-6.87,8.14,-0.05,31.06
8343,0.3324,-0.0253,0.8629,-6.84,7.92,0.08,31.08
8353,0.3282,-0.026,0.8678,-6.79,7.97,0.0,31.06
8363,0.3285,-0.025,0.8629,-6.81,7.97,-0.02,31.07
8373,0.3303,-0.0231,0.8622,-6.82,7.97,-0.08,31.04
8383,0.3315,-0.022,0.866,-6.87,7.94,-0.05,31.05
8393,0.329,-0.0258,0.864,-6.84,7.97,-0.05,31.05
8403,0.33,-0.0264,0.8605,-6.9,7.98,-0.03,31.06
8413,0.3301,-0.0275,0.8689,-6.79,8.03,-0.11,31.07
8423,0.3323,-0.0265,0.8644,-6.95,8.05,0.0,31.04
8433,0.3293,-0.0264,0.8644,-6.9,8.06,-0.06,31.05
8443,0.3297,-0.0264,0.8616,-6.81,7.98,-0.08,31.07
8453,0.3302,-0.0262,0.8649,-6.82,7.97,-0.02,31.04
8463,0.33,-0.0242,0.8647,-6.78,7.97,-0.02,31.04
8473,0.3302,-0.0261,0.8649,-6.79,7.95,-0.08,31.0
8483,0.3336,-0.0265,0.8632,-6.76,7.92,-0.09,31.06
8493,0.3308,-0.0258,0.8615,-6.84,8.0,-0.08,31.08
8503,0.3322,-0.0245,0.8641,-6.87,7.98,-0.12,31.05
8513,0.3323,-0.0262,0.8629,-6.82,8.08,-0.02,31.05
8523,0.3291,-0.0247,0.8623,-6.9,8.05,-0.06,31.07
8533,0.3326,-0.0237,0.865,-6.87,7.97,-0.14,31.08
8543,0.3319,-0.0289,0.8645,-6.85,8.02,0.03,31.05
8553,0.3308,-0.0255,0.864,-6.81,8.09,-0.06,31.06
8563,0.3303,-0.0262,0.8654,-6.84,8.0,-0.08,31.04
8573,0.3287,-0.0253,0.8683,-6.9,7.98,-0.08,31.04
8583,0.33,-0.0266,0.8605,-6.82,7.97,0.0,31.05
8593,0.3318,-0.0278,0.8662,-6.81,8.03,-0.03,31.06
8603,0.3289,-0.0228,0.8624,-6.92,8.0,-0.03,31.05
8613,0.3293,-0.0233,0.8628,-6.85,7.91,-0.06,31.07
8623,0.3304,-0.0245,0.8649,-6.85,8.06,-0.05,31.04
8633,0.332,-0.0262,0.8643,-6.84,8.03,0.02,31.05
8643,0.3291,-0.0287,0.8651,-6.82,7.97,-0.02,31.05
8653,0.3328,-0.0249,0.8666,-6.93,8.08,-0.08,31.05
8663,0.3297,-0.0233,0.8677,-6.82,8.05,-0.08,31.09
8673,0.3306,-0.028,0.8691,-6.85,7.98,-0.05,31.07
8683,0.3313,-0.0267,0.8625,-6.87,8.02,-0.11,31.07
8693,0.3309,-0.027,0.8655,-6.81,7.98,-0.03,31.08
8703,0.3246,-0.0269,0.8657,-6.84,7.97,-0.12,31.07
8713,0.3284,-0.0227,0.8683,-6.75,8.03,-0.06,31.05
8723,0.3301,-0.0255,0.8662,-6.87,7.97,-0.06,31.07
8733,0.3295,-0.0215,0.8685,-6.9,8.0,-0.06,31.06
8743,0.3314,-0.0237,0.8634,-6.89,8.0,0.0,31.07
8753,0.3322,-0.0256,0.8651,-6.82,8.03,-0.06,31.05
8763,0.3295,-0.0233,0.8651,-6.84,7.95,0.0,31.07
8773,0.3313,-0.0251,0.8655,-6.76,8.02,-0.06,31.06
8783,0.3313,-0.0232,0.8639,-6.96,7.98,-0.03,31.06
8793,0.3334,-0.0259,0.8688,-6.89,8.0,-0.08,31.05
8803,0.33,-0.0245,0.8663,-6.87,7.98,-0.03,31.06
8813,0.328,-0.0247,0.8641,-6.92,7.95,-0.11,31.05
8823,0.3314,-0.0236,0.8694,-6.89,7.92,-0.03,31.05
8833,0.3315,-0.0243,0.8693,-6.79,7.97,-0.06,31.08
8843,0.327,-0.0267,0.8663,-6.87,7.98,-0.11,31.06
8853,0.3267,-0.0264,0.8646,-6.87,7.97,0.05,31.06
8863,0.33,-0.0245,0.864,-6.84,8.03,-0.05,31.05
8873,0.3311,-0.0249,0.8617,-6.89,8.02,-0.08,31.08
8883,0.329,-0.025,0.8616,-6.82,8.0,-0.02,31.07
8893,0.3279,-0.0273,0.8618,-6.79,8.02,-0.08,31.02
8903,0.3313,-0.0272,0.8643,-6.9,7.98,-0.08,31.04
8913,0.3295,-0.0222,0.8654,-6.82,8.03,-0.11,31.05
8923,0.3315,-0.0265,0.8641,-6.84,7.95,-0.11,31.03
8933,0.3286,-0.0223,0.8644,-6.84,7.98,-0.06,31.07
8943,0.3309,-0.0236,0.8649,-6.85,7.98,0.05,31.07
8953,0.3301,-0.0244,0.8633,-6.84,8.06,-0.09,31.07
8963,0.3303,-0.0249,0.8605,-6.85,7.97,-0.17,31.07
8973,0.3324,-0.0248,0.8633,-6.9,7.98,-0.14,31.06
8983,0.3311,-0.0269,0.8634,-6.84,7.98,-0.06,31.05
8993,0.3311,-0.0266,0.8644,-6.82,8.03,-0.03,31.05
9003,0.3309,-0.0237,0.8657,-6.85,8.0,-0.12,31.06
9013,0.3308,-0.0258,0.868,-6.82,8.08,-0.09,31.08
9023,0.3306,-0.0227,0.8625,-6.95,8.02,0.0,31.08
9033,0.3296,-0.0244,0.8649,-6.81,7.95,0.0,31.07
9043,0.3292,-0.026,0.8658,-6.9,8.02,-0.05,31.06
9053,0.3296,-0.0239,0.8646,-6.79,8.0,-0.02,31.06
9063,0.3314,-0.025,0.8658,-6.85,7.97,-0.02,31.07
9073,0.3304,-0.0228,0.8671,-6.89,8.0,-0.06,31.07
9083,0.3293,-0.0244,0.8683,-6.87,8.0,0.02,31.08
9093,0.3298,-0.0256,0.8702,-6.84,8.0,-0.12,31.07
9103,0.3325,-0.0267,0.8704,-6.84,8.05,-0.09,31.06
9113,0.3328,-0.0232,0.8702,-6.79,8.05,-0.02,31.06
9123,0.3335,-0.0265,0.8618,-6.84,8.02,-0.05,31.08
9133,0.3309,-0.0234,0.8638,-6.87,7.98,0.02,31.08
9143,0.3313,-0.0262,0.8701,-6.85,7.98,-0.03,31.06
9153,0.3296,-0.024,0.8652,-6.82,7.95,-0.05,31.07
9163,0.3335,-0.0227,0.8651,-6.87,7.95,-0.05,31.08
9173,0.3312,-0.0255,0.8656,-6.75,8.02,-0.03,31.09
9183,0.3303,-0.0267,0.8638,-6.87,7.94,-0.05,31.09
9193,0.3303,-0.025,0.8633,-6.9,8.02,-0.06,31.09
9203,0.3306,-0.0214,0.8641,-6.82,8.0,-0.03,31.08
9213,0.3296,-0.0242,0.8667,-6.79,8.03,-0.03,31.07
9223,0.3312,-0.0278,0.8644,-6.79,8.02,-0.08,31.08
9233,0.3302,-0.0247,0.8673,-6.85,7.91,-0.08,31.09
9243,0.3323,-0.0242,0.8634,-6.82,7.97,-0.05,31.08
9253,0.3282,-0.0259,0.8632,-6.85,8.05,-0.03,31.09
9263,0.3336,-0.0256,0.8619,-6.87,8.0,-0.03,31.07
9273,0.3295,-0.0245,0.8644,-6.81,8.0,0.0,31.05
9283,0.3308,-0.0217,0.8636,-6.76,8.03,-0.03,31.07
9317,0.3318,-0.0237,0.8667,-6.82,7.95,-0.03,31.06
9327,0.3281,-0.0276,0.8667,-6.92,7.95,-0.03,31.08
9338,0.3318,-0.0255,0.863,-6.87,7.98,-0.03,31.1
9348,0.3298,-0.0253,0.8682,-6.84,7.97,-0.03,31.07
9358,0.3308,-0.027,0.8684,-6.93,7.98,-0.09,31.07
9368,0.3289,-0.0254,0.8677,-6.89,8.02,-0.05,31.09
9378,0.3309,-0.0266,0.8661,-6.87,8.0,-0.12,31.09
9388,0.3333,-0.0231,0.8624,-6.85,8.02,-0.14,31.09
9398,0.333,-0.0237,0.8666,-6.81,7.94,-0.03,31.06
9408,0.3308,-0.0262,0.8617,-6.78,8.0,-0.05,31.06
9419,0.3302,-0.0234,0.8677,-6.92,8.0,-0.08,31.09
9429,0.3297,-0.0265,0.8654,-6.9,8.0,-0.06,31.09
9439,0.3324,-0.0283,0.8669,-6.84,7.94,-0.03,31.08
9449,0.3312,-0.0276,0.8672,-6.89,8.03,-0.09,31.09
9459,0.3324,-0.0264,0.8696,-6.95,7.97,-0.06,31.09
9469,0.3307,-0.0265,0.8658,-6.93,8.02,-0.02,31.11
9479,0.3302,-0.0259,0.8641,-6.89,8.08,0.0,31.1
9489,0.3312,-0.0233,0.8641,-6.81,8.08,-0.06,31.08
9499,0.3315,-0.0264,0.8633,-6.82,7.95,-0.06,31.08
9509,0.3304,-0.0251,0.8628,-6.87,8.02,-0.08,31.07
9519,0.3297,-0.0286,0.864,-6.85,8.05,0.03,31.09
9529,0.3331,-0.0242,0.8615,-6.84,7.95,-0.06,31.1
9539,0.3315,-0.0239,0.8663,-6.85,7.92,-0.02,31.11
9549,0.3297,-0.0215,0.8662,-6.92,8.03,-0.02,31.09
9560,0.3304,-0.0262,0.8656,-6.84,8.02,-0.06,31.09
9570,0.3325,-0.0255,0.8665,-6.93,7.94,-0.06,31.12
9580,0.3301,-0.025,0.8654,-6.84,8.0,-0.09,31.09
9590,0.3308,-0.0265,0.8677,-6.81,7.95,0.03,31.1
9600,0.3308,-0.0259,0.8657,-6.82,8.0,-0.06,31.08
9610,0.3303,-0.0244,0.8643,-6.81,8.0,-0.02,31.08
9620,0.329,-0.0256,0.8645,-6.87,8.08,-0.11,31.07
9630,0.3307,-0.0232,0.8644,-6.81,8.06,0.02,31.08
9640,0.333,-0.024,0.8619,-6.89,8.02,0.0,31.07
9650,0.3286,-0.0244,0.8646,-6.9,8.02,-0.09,31.09
9660,0.3298,-0.0253,0.8632,-6.89,8.05,-0.08,31.1
9670,0.3344,-0.027,0.86,-6.84,7.95,-0.06,31.09
9680,0.3302,-0.0251,0.8645,-6.89,7.98,0.05,31.1
9690,0.3314,-0.0261,0.8594,-6.89,7.98,-0.08,31.09
9700,0.3317,-0.0256,0.8633,-6.87,8.02,0.0,31.08
9710,0.3256,-0.0251,0.8656,-6.87,7.95,-0.08,31.07
9720,0.3325,-0.0249,0.8634,-6.84,8.0,-0.02,31.08
9730,0.332,-0.0249,0.8669,-6.85,7.98,-0.03,31.08
9740,0.3309,-0.0262,0.8683,-6.82,7.97,-0.02,31.11
9750,0.3325,-0.0277,0.8624,-6.81,7.95,-0.05,31.09
9760,0.3293,-0.0254,0.8656,-6.84,8.03,-0.08,31.11
9770,0.3297,-0.024,0.8645,-6.82,8.06,0.0,31.09
9780,0.3297,-0.025,0.8656,-6.84,7.95,-0.06,31.09
9790,0.3278,-0.0273,0.8613,-6.82,7.97,-0.09,31.08
9800,0.3324,-0.0244,0.8644,-6.85,7.95,-0.06,31.1
9810,0.3303,-0.0206,0.866,-6.89,7.95,-0.09,31.08
9820,0.3307,-0.0226,0.8677,-6.76,8.02,0.0,31.07
9830,0.33,-0.024,0.863,-6.87,8.02,0.0,31.07
9840,0.3289,-0.0277,0.865,-6.85,8.03,-0.08,31.1
9850,0.3286,-0.0271,0.869,-6.87,8.03,-0.05,31.1
9861,0.3342,-0.0278,0.8636,-6.85,7.97,0.02,31.1
9871,0.3306,-0.0264,0.8677,-6.87,8.06,-0.06,31.11
9881,0.3315,-0.0266,0.8613,-6.84,8.08,-0.08,31.09
9891,0.3314,-0.0226,0.8678,-6.89,8.0,-0.12,31.1
9901,0.33,-0.0251,0.86,-6.9,7.97,-0.03,31.1
9911,0.3333,-0.0272,0.8678,-6.85,7.95,-0.06,31.1
9921,0.3303,-0.0237,0.8617,-6.92,8.02,-0.09,31.09
9931,0.3328,-0.0229,0.8611,-6.85,8.02,0.03,31.13
9942,0.3307,-0.0238,0.8638,-6.85,8.02,-0.02,31.1
9952,0.3325,-0.0233,0.8662,-6.9,8.03,-0.02,31.09
9962,0.3296,-0.0271,0.864,-6.9,8.0,-0.08,31.09
9972,0.3322,-0.0272,0.8623,-6.93,7.97,-0.02,31.11
9982,0.3293,-0.027,0.865,-6.84,8.06,-0.03,31.1
9992,0.3287,-0.0277,0.8635,-6.82,8.06,-0.05,31.09
10002,0.3271,-0.0253,0.8639,-6.87,8.02,-0.06,31.1
10012,0.3279,-0.0237,0.864,-6.84,8.02,-0.06,31.12
10022,0.3293,-0.0254,0.8606,-6.93,8.02,-0.15,31.13
10032,0.3308,-0.0236,0.8619,-6.9,8.06,-0.09,31.09
10042,0.3295,-0.0221,0.8645,-6.87,8.0,-0.11,31.08
10052,0.3287,-0.0245,0.8629,-6.89,8.02,-0.03,31.09
10062,0.3326,-0.0228,0.8636,-6.82,8.0,-0.05,31.11
10072,0.3314,-0.0249,0.8694,-6.81,8.0,-0.08,31.11
10082,0.329,-0.0222,0.8671,-6.89,8.0,-0.06,31.12
10092,0.3293,-0.0247,0.8632,-6.85,7.97,0.0,31.08
10102,0.3309,-0.0295,0.8654,-6.84,7.98,-0.02,31.09
10113,0.3296,-0.0247,0.8638,-6.81,7.95,-0.06,31.14
10123,0.3296,-0.0247,0.8669,-6.89,7.97,0.03,31.1
10133,0.3279,-0.0264,0.8635,-6.85,8.05,0.0,31.1
10143,0.3275,-0.0267,0.8605,-6.9,8.0,-0.05,31.1
10153,0.3282,-0.0288,0.8646,-6.92,7.95,0.0,31.09
10163,0.3308,-0.0276,0.8647,-6.85,7.98,-0.03,31.08
10173,0.3304,-0.0216,0.861,-6.9,8.0,-0.03,31.09
10183,0.3276,-0.0258,0.8662,-6.85,8.02,-0.02,31.09
10193,0.3291,-0.0261,0.8677,-6.82,8.02,-0.11,31.11
10203,0.329,-0.0234,0.8641,-6.87,8.03,-0.03,31.1
10213,0.3318,-0.0253,0.8616,-6.84,8.05,-0.02,31.08
10223,0.3326,-0.0234,0.8663,-6.81,7.94,0.0,31.09
10233,0.3315,-0.0243,0.8639,-6.81,8.02,0.02,31.11
10243,0.3265,-0.0266,0.8649,-6.85,8.03,-0.05,31.09
10253,0.3276,-0.0275,0.868,-6.9,7.97,-0.03,31.11
10263,0.3291,-0.026,0.86,-6.78,8.03,-0.05,31.1
10273,0.3303,-0.0265,0.8636,-6.89,7.97,-0.06,31.12
10283,0.3278,-0.0281,0.8628,-6.89,7.92,-0.08,31.14
10293,0.3293,-0.0237,0.8645,-6.9,8.03,0.03,31.13
10303,0.3295,-0.0272,0.8623,-6.85,8.02,-0.02,31.12
10313,0.3297,-0.0242,0.8594,-6.84,8.02,-0.06,31.09
10323,0.3275,-0.0249,0.8633,-6.87,7.95,-0.09,31.11
10333,0.3291,-0.0264,0.8643,-6.79,7.94,-0.05,31.12
10343,0.328,-0.027,0.8629,-6.84,8.02,-0.02,31.12
10353,0.3318,-0.0239,0.863,-6.85,7.97,-0.06,31.13
10363,0.3282,-0.0247,0.8641,-6.93,8.03,-0.12,31.1
10373,0.3302,-0.0294,0.8632,-6.89,8.05,-0.03,31.12
10383,0.332,-0.0238,0.8657,-6.79,7.97,-0.05,31.12
10393,0.3298,-0.0254,0.8662,-6.89,7.95,-0.02,31.12
10403,0.3273,-0.0258,0.8677,-6.81,7.97,-0.05,31.12
10413,0.3291,-0.027,0.8691,-6.85,8.0,-0.09,31.11
10423,0.3342,-0.0254,0.8668,-6.79,7.89,0.0,31.12
10433,0.3308,-0.0249,0.8632,-6.93,8.0,-0.05,31.11
10443,0.3298,-0.026,0.8625,-6.85,8.03,-0.02,31.1
10453,0.3279,-0.0242,0.8583,-6.92,7.97,-0.02,31.11
10463,0.3318,-0.0217,0.8607,-6.93,7.95,-0.03,31.12
10473,0.333,-0.024,0.8654,-6.85,7.97,-0.08,31.13
10483,0.3309,-0.0222,0.864,-6.81,8.02,-0.05,31.1
10493,0.3302,-0.0245,0.8636,-6.82,8.02,-0.03,31.09
10503,0.3302,-0.0254,0.8624,-6.81,7.97,-0.09,31.12
10513,0.3328,-0.0238,0.8636,-6.81,7.94,-0.02,31.1
10525,0.3286,-0.0262,0.8641,-6.81,7.95,-0.06,31.12
10535,0.3331,-0.0238,0.8629,-6.9,7.95,-0.09,31.12
10545,0.3328,-0.0265,0.8639,-6.95,7.97,-0.11,31.11
10555,0.3312,-0.0251,0.8658,-6.79,8.03,-0.06,31.12
10566,0.3285,-0.0251,0.8656,-6.84,8.05,-0.06,31.14
10576,0.3323,-0.0256,0.8678,-6.78,8.03,0.0,31.12
10586,0.3306,-0.0228,0.865,-6.75,8.0,0.03,31.13
10596,0.3295,-0.0227,0.8625,-6.84,7.94,-0.02,31.1
10606,0.3311,-0.0229,0.8636,-6.92,8.0,-0.11,31.11
10616,0.3309,-0.0259,0.8657,-6.87,8.0,-0.02,31.11
10626,0.3285,-0.0258,0.8668,-6.87,7.94,-0.02,31.11
10636,0.3296,-0.0262,0.8644,-6.92,8.02,-0.08,31.1
10646,0.3298,-0.0288,0.863,-6.93,8.0,-0.03,31.12
10656,0.3286,-0.0293,0.8683,-6.87,7.97,-0.05,31.12
10666,0.3295,-0.028,0.8713,-6.89,7.92,-0.08,31.09
10676,0.33,-0.0276,0.8651,-6.89,7.94,-0.03,31.11
10686,0.3301,-0.0233,0.8701,-6.85,8.02,0.02,31.12
10696,0.3318,-0.0243,0.8625,-6.87,8.02,-0.09,31.1
10706,0.33,-0.0265,0.8687,-6.89,8.05,0.0,31.12
10716,0.3314,-0.0259,0.8657,-6.85,8.03,0.03,31.12
10726,0.3306,-0.026,0.8646,-6.84,8.02,-0.05,31.12
10736,0.3313,-0.0234,0.865,-6.85,8.08,-0.02,31.11
10746,0.3309,-0.0226,0.8605,-6.82,7.89,-0.06,31.12
10756,0.3301,-0.0236,0.8595,-6.85,7.95,0.03,31.13
10766,0.3289,-0.0214,0.8628,-6.82,8.0,-0.02,31.12
10776,0.3313,-0.0231,0.8657,-6.84,8.03,-0.09,31.12
10786,0.329,-0.0255,0.8679,-6.82,8.06,0.02,31.12
10796,0.3326,-0.0256,0.8624,-6.89,8.03,-0.03,31.12
10806,0.3337,-0.0281,0.8593,-6.87,8.05,-0.03,31.12
10816,0.33,-0.0292,0.8654,-6.89,7.95,-0.06,31.14
10826,0.329,-0.0261,0.8678,-6.81,7.95,-0.05,31.13
10836,0.3303,-0.0262,0.863,-6.89,7.95,-0.06,31.13
10846,0.329,-0.0254,0.8633,-6.84,7.95,-0.03,31.11
10856,0.3278,-0.0251,0.8628,-6.81,7.95,-0.05,31.13
10866,0.3297,-0.0273,0.863,-6.9,7.98,-0.12,31.12
10876,0.3301,-0.0251,0.8619,-6.9,7.97,-0.06,31.13
10886,0.3297,-0.0245,0.8651,-6.73,7.98,-0.08,31.13
10896,0.332,-0.0239,0.8656,-6.82,8.09,-0.12,31.12
10906,0.3291,-0.0292,0.8627,-6.89,8.03,-0.08,31.12
10916,0.3309,-0.0261,0.863,-6.84,8.02,0.0,31.14
10926,0.3306,-0.0267,0.8651,-6.92,7.95,-0.17,31.12
10936,0.3326,-0.0259,0.8679,-6.85,8.0,-0.14,31.13
10946,0.3317,-0.0254,0.8669,-6.87,8.08,-0.02,31.14
10956,0.3312,-0.0244,0.8658,-6.89,8.0,0.02,31.11
10966,0.3304,-0.0223,0.8657,-6.84,7.94,-0.03,31.11
10976,0.333,-0.026,0.8616,-6.85,7.98,-0.03,31.12
10986,0.3268,-0.0271,0.864,-6.85,8.03,-0.03,31.14
10996,0.3291,-0.0272,0.8649,-6.84,8.0,0.02,31.13
11006,0.3276,-0.0262,0.8671,-6.84,8.03,0.03,31.13
11016,0.3329,-0.0276,0.8629,-6.82,7.92,-0.08,31.12
11026,0.3314,-0.0262,0.8699,-6.89,8.08,-0.06,31.12
11036,0.3311,-0.0266,0.8704,-6.9,7.94,-0.02,31.12
11046,0.3319,-0.0278,0.8649,-6.84,7.98,-0.08,31.13
11056,0.3324,-0.0238,0.8669,-6.79,8.02,0.0,31.12
11066,0.3304,-0.0254,0.8658,-6.82,7.95,0.02,31.12
11076,0.3282,-0.025,0.8641,-6.82,7.92,-0.05,31.12
11086,0.3337,-0.0248,0.8633,-6.76,8.03,-0.08,31.14
11096,0.3309,-0.0271,0.8672,-6.87,7.97,-0.08,31.14
11106,0.3292,-0.0251,0.8608,-6.82,8.0,-0.06,31.14
11116,0.3295,-0.0278,0.8634,-6.84,8.03,-0.06,31.1
11126,0.3304,-0.026,0.8639,-6.79,8.02,-0.02,31.14
11136,0.3322,-0.0231,0.8643,-6.87,7.97,-0.12,31.14
11146,0.3289,-0.0243,0.8645,-6.92,8.0,-0.03,31.12
11156,0.3304,-0.0234,0.8623,-6.87,7.97,-0.11,31.12
11166,0.3307,-0.0238,0.8693,-6.85,7.91,-0.03,31.11
11176,0.3282,-0.0266,0.865,-6.89,8.03,-0.05,31.14
11186,0.3295,-0.0269,0.8663,-6.9,8.02,-0.11,31.13
11196,0.3336,-0.0256,0.8617,-6.85,7.98,-0.08,31.13
11206,0.3308,-0.0251,0.8652,-6.81,8.0,-0.08,31.15
11216,0.328,-0.0244,0.8582,-6.89,8.03,-0.09,31.15
11226,0.328,-0.0255,0.8654,-6.79,8.08,-0.03,31.14
11236,0.3304,-0.0266,0.8661,-6.9,8.09,-0.05,31.15
11246,0.3295,-0.0261,0.8652,-6.92,8.03,-0.02,31.12
11256,0.3306,-0.0253,0.8644,-6.85,7.98,-0.03,31.13
11266,0.3292,-0.026,0.8635,-6.92,8.06,-0.06,31.12
11276,0.3309,-0.0237,0.8617,-6.79,7.94,-0.02,31.15
11286,0.3311,-0.024,0.8622,-6.87,7.92,-0.05,31.14
11296,0.3311,-0.0254,0.865,-6.87,8.0,0.0,31.14
11306,0.3271,-0.0251,0.861,-6.81,8.02,-0.02,31.13
11316,0.3293,-0.0228,0.8639,-6.81,7.97,0.0,31.12
11326,0.3311,-0.0258,0.8616,-6.9,8.02,-0.06,31.14
11336,0.3324,-0.0242,0.8665,-6.84,8.05,0.02,31.12
11346,0.3281,-0.028,0.8679,-6.82,7.95,-0.03,31.13
11356,0.3276,-0.0262,0.8661,-6.81,8.0,-0.08,31.12
11366,0.3269,-0.0261,0.8627,-6.81,8.02,-0.08,31.16
11376,0.3319,-0.0243,0.8633,-6.82,8.0,0.0,31.14
11386,0.3315,-0.0273,0.8619,-6.84,8.03,-0.06,31.13
11396,0.33,-0.0251,0.8651,-6.78,7.95,0.0,31.16
11406,0.328,-0.0221,0.8662,-6.89,7.92,-0.06,31.14
11416,0.3285,-0.0276,0.8602,-6.9,8.03,-0.12,31.12
11426,0.3289,-0.0256,0.8652,-6.85,8.0,-0.11,31.12
11437,0.3313,-0.0256,0.8613,-6.85,8.03,-0.03,31.14
11447,0.3326,-0.026,0.8662,-6.85,8.0,-0.03,31.14
11459,0.3296,-0.0255,0.8677,-6.9,8.02,-0.12,31.15
11469,0.3302,-0.0248,0.866,-6.82,8.02,-0.03,31.12
11480,0.3312,-0.0242,0.8701,-6.82,7.98,-0.11,31.12
11490,0.329,-0.0239,0.8685,-6.87,8.05,-0.05,31.12
11500,0.3296,-0.027,0.8621,-6.76,7.98,-0.05,31.13
11510,0.3287,-0.026,0.8594,-6.84,7.98,-0.14,31.14
11520,0.3319,-0.0253,0.8655,-6.89,8.0,-0.05,31.12
11530,0.3311,-0.0262,0.8627,-6.82,8.02,-0.02,31.14
11540,0.3292,-0.0249,0.8649,-6.82,8.03,0.0,31.13
11550,0.3333,-0.0228,0.8679,-6.92,7.98,-0.05,31.13
11560,0.333,-0.0271,0.8647,-6.81,7.94,-0.06,31.12
11570,0.3312,-0.0233,0.8685,-6.89,8.05,-0.06,31.12
11580,0.3306,-0.0258,0.8628,-6.85,7.98,-0.03,31.11
11590,0.3348,-0.024,0.8665,-6.79,8.0,-0.09,31.11
11601,0.329,-0.0251,0.8643,-6.82,8.0,-0.05,31.12
11611,0.3289,-0.0262,0.864,-6.82,7.95,0.03,31.13
11621,0.3302,-0.0247,0.8635,-6.81,8.0,-0.06,31.15
11631,0.329,-0.0237,0.8656,-6.89,8.02,0.0,31.13
11641,0.3274,-0.027,0.8649,-6.87,7.97,-0.03,31.14
11651,0.3322,-0.0265,0.8634,-6.82,7.95,-0.02,31.16
11662,0.3323,-0.0248,0.8633,-6.84,7.98,0.03,31.12
11672,0.3313,-0.0259,0.8662,-6.89,7.98,-0.02,31.14
11682,0.3307,-0.024,0.8657,-6.79,8.02,-0.03,31.14
11692,0.3334,-0.0247,0.8684,-6.9,8.02,-0.03,31.15
11702,0.3306,-0.0238,0.8674,-6.81,7.98,-0.05,31.14
11712,0.3304,-0.0262,0.8613,-6.75,8.0,-0.06,31.14
11722,0.3319,-0.0221,0.8652,-6.87,8.0,-0.12,31.12
11732,0.3301,-0.0248,0.8645,-6.87,8.0,-0.06,31.13
11742,0.3324,-0.0275,0.8667,-6.79,8.02,-0.06,31.11
11752,0.3312,-0.025,0.8656,-6.81,8.02,-0.03,31.12
11762,0.3276,-0.0253,0.8655,-6.89,8.09,-0.03,31.14
11772,0.3328,-0.0261,0.8633,-6.92,8.0,-0.06,31.14
11782,0.3281,-0.0271,0.8651,-6.84,8.0,-0.09,31.13
11792,0.3293,-0.026,0.8623,-6.85,7.97,-0.02,31.15
11802,0.3303,-0.0287,0.8644,-6.92,8.03,0.05,31.14
11812,0.3291,-0.0233,0.866,-6.81,8.02,-0.08,31.15
11822,0.3276,-0.0243,0.8668,-6.84,7.95,-0.05,31.14
11832,0.3291,-0.0259,0.8612,-6.92,8.05,0.03,31.13
11843,0.3319,-0.0282,0.8651,-6.89,8.02,0.0,31.11
11853,0.3322,-0.0265,0.8644,-6.85,7.91,0.05,31.12
11863,0.3311,-0.0261,0.8666,-6.96,8.06,-0.12,31.13
11873,0.3301,-0.0232,0.8698,-6.84,8.08,0.05,31.16
11883,0.3275,-0.0271,0.8652,-6.84,7.98,-0.03,31.15
11893,0.3312,-0.0264,0.8625,-6.84,8.02,-0.02,31.14
11903,0.3309,-0.0238,0.8661,-6.89,8.03,-0.05,31.14
11913,0.329,-0.0248,0.8632,-6.75,8.02,-0.05,31.13
11923,0.3275,-0.0238,0.8594,-6.78,7.95,-0.02,31.12
11933,0.3308,-0.0225,0.8641,-6.81,8.02,-0.03,31.13
11943,0.3307,-0.0248,0.8668,-6.85,7.95,0.0,31.13
11953,0.3269,-0.0238,0.8666,-6.81,7.95,-0.08,31.14
11963,0.3303,-0.0236,0.8628,-6.84,7.95,0.0,31.15
11973,0.3285,-0.024,0.861,-6.79,8.03,-0.03,31.14
11983,0.3324,-0.0292,0.8633,-6.84,7.97,-0.08,31.13
11993,0.3315,-0.0266,0.861,-6.84,8.02,0.0,31.15
12003,0.3322,-0.0229,0.8633,-6.85,8.03,-0.05,31.14
12013,0.3317,-0.0227,0.8666,-6.9,7.95,-0.05,31.14
12023,0.3308,-0.0245,0.8639,-6.85,8.03,-0.06,31.14
12033,0.3322,-0.0237,0.8629,-6.79,8.02,-0.03,31.15
12043,0.3318,-0.0277,0.868,-6.87,8.0,-0.02,31.14
12053,0.3286,-0.0281,0.8662,-6.87,7.95,0.02,31.16
12063,0.3271,-0.0277,0.8683,-6.81,8.08,-0.05,31.14
12073,0.3295,-0.0283,0.8649,-6.76,8.06,0.0,31.16
12083,0.329,-0.0261,0.864,-6.82,7.92,-0.09,31.14
12093,0.33,-0.0254,0.8668,-6.9,7.95,-0.11,31.12
12103,0.3323,-0.0261,0.8623,-6.93,7.95,-0.02,31.13
12113,0.3291,-0.0287,0.861,-6.85,7.98,0.02,31.13
12123,0.3317,-0.0204,0.8602,-6.9,7.98,-0.05,31.14
12133,0.3265,-0.0214,0.865,-6.89,8.05,0.02,31.13
12143,0.3286,-0.0231,0.8645,-6.89,7.95,-0.08,31.14
12153,0.3281,-0.0233,0.8647,-6.72,7.92,-0.12,31.15
12163,0.3314,-0.0249,0.8673,-6.87,7.94,-0.06,31.17
12173,0.335,-0.0245,0.8688,-6.89,7.97,-0.09,31.14
12183,0.3333,-0.0245,0.8636,-6.84,8.0,-0.08,31.16
12193,0.3304,-0.0265,0.8688,-6.84,8.06,-0.08,31.16
12203,0.3353,-0.0281,0.8652,-6.78,8.05,-0.09,31.16
12213,0.3322,-0.0278,0.8619,-6.85,8.05,-0.06,31.15
12223,0.3308,-0.0256,0.8662,-6.82,7.98,-0.05,31.13
12233,0.3323,-0.028,0.8646,-6.84,8.03,-0.05,31.11
12243,0.3331,-0.0228,0.863,-6.79,7.97,-0.05,31.13
12253,0.3328,-0.0221,0.8649,-6.85,7.98,-0.11,31.12
12263,0.327,-0.0248,0.8638,-6.79,8.02,-0.09,31.15
12273,0.3308,-0.0282,0.8623,-6.82,8.05,-0.08,31.16
12283,0.33,-0.0249,0.8663,-6.93,7.97,-0.05,31.16
12293,0.3352,-0.0214,0.8729,-6.84,7.98,-0.11,31.14
12303,0.3423,-0.0192,0.8724,-6.85,7.56,-0.06,31.11
12313,0.3134,-0.032,0.8568,-6.82,8.27,0.02,31.13
12323,0.3536,-0.0343,0.8362,-6.87,7.21,0.0,31.14
12333,0.3232,-0.0327,0.8644,-6.79,8.27,-0.08,31.16
12343,0.3169,-0.0228,0.8718,-6.82,8.12,-0.11,31.18
12353,0.3262,-0.0216,0.8582,-6.95,7.89,-0.06,31.16
12363,0.3312,-0.0215,0.8649,-6.84,7.82,-0.02,31.14
12373,0.3369,-0.0204,0.863,-6.92,7.83,-0.06,31.15
12383,0.334,-0.0184,0.8668,-6.85,8.0,-0.12,31.16
12393,0.3334,-0.0229,0.8632,-6.92,8.0,-0.08,31.15
12403,0.3285,-0.0277,0.8662,-6.79,8.02,-0.02,31.15
12413,0.3313,-0.0319,0.8634,-6.85,7.98,-0.03,31.17
12423,0.3326,-0.0332,0.8611,-6.85,8.03,-0.08,31.15
12433,0.3331,-0.0271,0.8623,-6.92,7.97,0.03,31.15
12443,0.3295,-0.0283,0.8612,-6.84,8.02,0.02,31.15
12453,0.3291,-0.0281,0.86,-6.9,8.06,0.05,31.14
12463,0.3275,-0.0225,0.8634,-6.9,8.0,0.02,31.16
12473,0.3304,-0.0199,0.8594,-6.84,8.0,0.02,31.12
12483,0.3258,-0.0225,0.8647,-6.9,7.94,0.03,31.15
12493,0.3286,-0.0244,0.8633,-6.81,7.94,0.0,31.15
12503,0.3287,-0.0258,0.8651,-6.79,7.95,-0.03,31.16
12513,0.3287,-0.025,0.8629,-6.87,7.95,0.0,31.14
12523,0.3298,-0.0294,0.8667,-6.84,7.95,-0.02,31.14
12533,0.3318,-0.0302,0.8656,-6.87,8.0,-0.06,31.14
12543,0.329,-0.0258,0.8647,-6.81,8.06,-0.06,31.16
12553,0.3308,-0.0245,0.8644,-6.82,8.09,-0.11,31.17
12563,0.3293,-0.025,0.865,-6.84,8.06,-0.09,31.15
12573,0.3257,-0.024,0.8601,-6.85,8.05,-0.05,31.17
12583,0.3287,-0.0221,0.8621,-6.85,8.03,-0.05,31.14
12593,0.3318,-0.0243,0.8649,-6.82,8.0,0.03,31.15
12603,0.3337,-0.0258,0.8699,-6.84,8.02,0.0,31.14
12613,0.3298,-0.0271,0.864,-6.92,7.98,-0.05,31.15
12623,0.3341,-0.0276,0.8652,-6.84,8.0,-0.06,31.14
12633,0.3315,-0.0261,0.8619,-6.85,7.97,0.03,31.14
12643,0.3334,-0.0272,0.8657,-6.87,8.02,-0.06,31.13
12653,0.3303,-0.0233,0.8661,-6.82,8.03,-0.03,31.15
12663,0.3302,-0.0266,0.8621,-6.9,7.97,-0.08,31.16
12673,0.3307,-0.0237,0.8632,-6.78,7.94,-0.06,31.15
12683,0.3297,-0.0228,0.8643,-6.89,7.98,-0.02,31.16
12693,0.3302,-0.0259,0.8634,-6.85,7.94,-0.03,31.14
12703,0.3273,-0.025,0.8655,-6.82,7.97,-0.03,31.14
12713,0.3293,-0.0276,0.8673,-6.87,8.05,-0.05,31.17
12723,0.3306,-0.0253,0.8643,-6.87,8.05,-0.12,31.15
12733,0.327,-0.0266,0.8627,-6.93,7.97,-0.06,31.17
12743,0.3295,-0.0265,0.8646,-6.87,7.97,-0.14,31.17
12753,0.327,-0.0243,0.8627,-6.82,8.0,-0.05,31.16
12764,0.3298,-0.027,0.8676,-6.92,7.91,-0.09,31.14
12774,0.3313,-0.025,0.865,-6.85,8.02,-0.12,31.15
12784,0.3333,-0.0259,0.8641,-6.87,7.98,-0.05,31.14
12794,0.3322,-0.0267,0.8627,-6.87,7.98,-0.05,31.14
12804,0.3317,-0.0277,0.866,-6.85,8.0,-0.08,31.16
12814,0.3303,-0.0261,0.8635,-6.87,7.97,-0.06,31.16
12824,0.3285,-0.026,0.865,-6.85,7.97,-0.05,31.16
12834,0.3287,-0.0254,0.8651,-6.84,8.05,-0.08,31.15
12844,0.3298,-0.0276,0.8625,-6.79,8.0,-0.06,31.14
12854,0.3312,-0.0238,0.8632,-6.87,8.02,0.0,31.15
12864,0.3306,-0.0273,0.8655,-6.85,7.97,-0.08,31.16
12874,0.3295,-0.024,0.8661,-6.92,8.0,-0.06,31.17
12884,0.329,-0.0243,0.8678,-6.85,7.95,-0.11,31.17
12894,0.3325,-0.0256,0.8695,-6.9,8.02,-0.06,31.16
12904,0.3303,-0.0248,0.8669,-6.84,8.06,-0.02,31.14
12914,0.3317,-0.024,0.8622,-6.82,8.02,-0.03,31.17
12924,0.3291,-0.0284,0.8668,-6.82,7.97,-0.03,31.14
12934,0.3325,-0.0236,0.863,-6.85,7.95,-0.08,31.16
12944,0.3314,-0.0245,0.8657,-6.81,8.02,-0.03,31.17
12954,0.3326,-0.0251,0.8651,-6.81,7.97,-0.05,31.16
12964,0.3306,-0.0262,0.8629,-6.85,8.0,-0.14,31.16
12974,0.3306,-0.0284,0.8633,-6.98,7.97,-0.06,31.17
12984,0.3302,-0.0251,0.866,-6.92,8.03,-0.09,31.17
12994,0.3323,-0.0234,0.8634,-6.9,7.97,-0.11,31.17
13004,0.3318,-0.0253,0.8677,-6.87,7.98,-0.08,31.16
13014,0.3307,-0.0269,0.8684,-6.85,8.02,-0.09,31.18
13024,0.3298,-0.0253,0.8693,-6.79,8.02,-0.05,31.14
13034,0.3301,-0.0243,0.8687,-6.81,7.98,-0.02,31.16
13044,0.3304,-0.0245,0.8644,-6.84,7.97,-0.03,31.15
13054,0.3284,-0.028,0.8634,-6.82,8.03,-0.05,31.15
13064,0.3292,-0.0238,0.8649,-6.82,8.02,-0.09,31.15
13074,0.3317,-0.0258,0.8606,-6.81,8.02,-0.03,31.16
13084,0.333,-0.0247,0.8645,-6.84,8.08,0.0,31.17
13094,0.3307,-0.026,0.8671,-6.82,8.0,-0.09,31.17
13104,0.3297,-0.0253,0.8639,-6.85,8.02,-0.12,31.16
13114,0.3301,-0.0269,0.864,-6.87,8.06,-0.08,31.16
13124,0.328,-0.0245,0.8622,-6.9,8.03,-0.03,31.15
13134,0.3297,-0.0269,0.8661,-6.82,7.95,-0.05,31.15
13144,0.3308,-0.0261,0.8607,-6.9,8.02,-0.09,31.16
13155,0.3307,-0.0237,0.8652,-6.85,8.0,-0.08,31.16
13165,0.3326,-0.0249,0.8649,-6.9,8.08,-0.06,31.15
13175,0.3293,-0.0243,0.8641,-6.9,8.08,0.0,31.16
13185,0.3293,-0.0255,0.8645,-6.81,8.0,-0.08,31.16
13195,0.3275,-0.0237,0.8644,-6.89,8.11,-0.03,31.15
13205,0.3306,-0.0244,0.8622,-6.87,8.08,-0.03,31.16
13215,0.3295,-0.0237,0.8616,-6.85,7.98,-0.03,31.15
13225,0.3296,-0.0259,0.8647,-6.79,8.03,-0.09,31.16
13235,0.3281,-0.0251,0.8641,-6.89,7.95,0.0,31.17
13245,0.3306,-0.0261,0.8654,-6.81,7.97,0.0,31.15
13255,0.3314,-0.0267,0.8669,-6.87,8.02,-0.03,31.16
13265,0.3322,-0.0249,0.8641,-6.92,7.98,0.03,31.17
13275,0.3324,-0.0233,0.8678,-6.82,7.92,0.03,31.16
13285,0.3297,-0.0249,0.8674,-6.85,8.03,-0.09,31.18
13295,0.3311,-0.0229,0.8673,-6.82,7.98,-0.02,31.16
13305,0.3311,-0.027,0.8646,-6.89,7.97,-0.14,31.14
13315,0.3292,-0.0232,0.8612,-6.84,8.03,-0.08,31.12
13325,0.329,-0.0256,0.8612,-6.9,8.03,-0.05,31.16
13335,0.3307,-0.0226,0.8607,-6.84,8.05,0.02,31.17
13345,0.3313,-0.0249,0.8616,-6.9,7.94,0.0,31.17
13356,0.3298,-0.025,0.8639,-6.82,8.03,-0.06,31.17
13366,0.3308,-0.0275,0.8656,-6.89,7.98,-0.05,31.18
13376,0.33,-0.0264,0.8634,-6.78,7.95,-0.05,31.19
13386,0.3296,-0.0289,0.8669,-6.9,8.03,0.0,31.17
13396,0.3289,-0.0258,0.8627,-6.93,8.02,0.03,31.17
13406,0.3323,-0.0248,0.8644,-6.92,8.02,0.0,31.14
13417,0.3285,-0.0261,0.8665,-6.81,7.94,-0.02,31.15
13427,0.3297,-0.0237,0.8606,-6.89,8.05,-0.02,31.16
13438,0.3322,-0.0242,0.8618,-6.82,8.02,-0.02,31.17
13448,0.3304,-0.0243,0.8661,-6.79,8.06,-0.09,31.18
13458,0.3289,-0.0243,0.8666,-6.84,8.02,-0.05,31.18
13469,0.3317,-0.0245,0.866,-6.87,7.97,-0.02,31.18
13480,0.3345,-0.0243,0.8615,-6.87,8.02,-0.09,31.16
13490,0.3282,-0.0255,0.8655,-6.81,8.03,-0.11,31.17
13500,0.3323,-0.0247,0.865,-6.85,7.89,-0.03,31.18
13510,0.3315,-0.0233,0.8624,-6.9,8.02,-0.06,31.15
13520,0.3303,-0.0259,0.8608,-6.87,8.0,-0.05,31.16
13530,0.3315,-0.025,0.8652,-6.9,8.02,-0.05,31.17
13540,0.3302,-0.0251,0.866,-6.85,8.05,-0.09,31.17
13550,0.3312,-0.0264,0.8627,-6.87,7.95,-0.05,31.16
13560,0.3314,-0.028,0.8623,-6.89,8.0,-0.03,31.18
13570,0.3287,-0.0254,0.8641,-6.84,7.98,-0.02,31.15
13581,0.3263,-0.0249,0.8657,-6.79,8.02,-0.05,31.16
13591,0.3297,-0.0267,0.8624,-6.82,8.02,-0.06,31.16
13601,0.3309,-0.0278,0.8672,-6.79,8.03,-0.02,31.18
13611,0.3268,-0.0273,0.8623,-6.84,8.0,-0.06,31.17
13621,0.3317,-0.0255,0.8663,-6.92,7.97,-0.09,31.17
13631,0.3311,-0.027,0.8665,-6.82,8.02,0.0,31.17
13641,0.3313,-0.0273,0.8602,-6.89,8.02,-0.06,31.17
13651,0.3297,-0.0248,0.868,-6.81,8.02,-0.03,31.16
13661,0.3313,-0.0266,0.8674,-6.89,8.02,-0.02,31.17
13671,0.3339,-0.027,0.8678,-6.85,7.97,0.02,31.16
13681,0.3303,-0.026,0.8667,-6.89,8.03,-0.06,31.16
13691,0.3287,-0.0237,0.866,-6.9,8.02,-0.05,31.17
13701,0.3273,-0.0269,0.869,-6.96,7.98,-0.11,31.17
13711,0.3317,-0.0248,0.8627,-6.87,8.0,-0.05,31.17
13721,0.3309,-0.0275,0.8665,-6.85,8.0,0.0,31.18
13731,0.3295,-0.0276,0.8651,-6.76,8.11,-0.06,31.19
13741,0.3309,-0.024,0.8619,-6.85,7.95,-0.05,31.18
13752,0.3308,-0.0237,0.8635,-6.89,7.98,-0.09,31.18
13762,0.3326,-0.026,0.8634,-6.78,7.94,-0.05,31.17
13772,0.3317,-0.0248,0.8638,-6.93,8.02,-0.14,31.17
13782,0.3281,-0.0278,0.8656,-6.96,8.03,-0.03,31.17
13792,0.3295,-0.0248,0.8676,-6.92,8.03,-0.08,31.18
13802,0.3311,-0.0272,0.8678,-6.79,8.0,-0.03,31.17
13812,0.3279,-0.0286,0.8649,-6.82,8.03,-0.08,31.17
13822,0.3273,-0.0253,0.8657,-6.79,8.03,-0.06,31.16
13832,0.3324,-0.0282,0.8647,-6.82,8.05,-0.09,31.18
13842,0.3313,-0.0237,0.8647,-6.82,7.98,-0.14,31.18
13852,0.3319,-0.0243,0.8688,-6.85,8.0,0.05,31.17
13862,0.3335,-0.0295,0.8647,-6.87,7.98,0.02,31.15
13872,0.3323,-0.0228,0.8625,-6.85,8.02,-0.06,31.16
13882,0.3292,-0.0253,0.8643,-6.9,8.02,-0.09,31.14
13892,0.3314,-0.025,0.8683,-6.87,8.0,-0.08,31.16
13902,0.3306,-0.028,0.8674,-6.85,8.02,0.0,31.19
13912,0.3307,-0.0272,0.8639,-6.89,8.05,-0.09,31.19
13922,0.3295,-0.0277,0.8627,-6.9,8.0,-0.02,31.16
13932,0.3296,-0.0259,0.8658,-6.95,8.08,-0.06,31.19
13942,0.3323,-0.0238,0.8706,-6.87,8.05,-0.06,31.19
13952,0.3318,-0.0247,0.8632,-6.92,8.06,-0.05,31.18
13962,0.3292,-0.0223,0.8612,-6.81,8.0,-0.03,31.18
13972,0.329,-0.0237,0.8635,-6.89,7.98,-0.08,31.18
13982,0.3319,-0.0253,0.864,-6.87,7.89,0.03,31.18
13992,0.3279,-0.026,0.8655,-6.78,8.05,-0.02,31.18
14002,0.3311,-0.0237,0.866,-6.87,7.97,-0.06,31.19
14012,0.3275,-0.0251,0.8654,-6.75,8.03,-0.05,31.17
14022,0.3311,-0.0255,0.8688,-6.85,8.02,-0.03,31.2
14032,0.3301,-0.0245,0.8643,-6.93,7.98,0.02,31.17
14042,0.3323,-0.0248,0.8655,-6.79,7.97,-0.03,31.17
14052,0.3302,-0.0251,0.8651,-6.84,8.08,-0.11,31.19
14062,0.3311,-0.0275,0.8651,-6.9,8.02,-0.08,31.19
14072,0.3324,-0.0254,0.8646,-6.89,8.03,-0.09,31.19
14082,0.3318,-0.0251,0.8652,-6.84,7.98,-0.08,31.19
14092,0.3291,-0.0222,0.8654,-6.87,7.95,-0.05,31.17
14102,0.3308,-0.0223,0.8647,-6.75,8.03,-0.02,31.19
14112,0.3307,-0.0253,0.8633,-6.85,8.02,-0.06,31.18
14122,0.3319,-0.0261,0.8635,-6.82,8.03,-0.09,31.17
14132,0.3309,-0.025,0.8628,-6.87,8.03,-0.02,31.19
14142,0.3304,-0.0259,0.8618,-6.79,8.02,-0.03,31.2
14152,0.3287,-0.0288,0.8634,-6.89,7.97,0.02,31.19
14162,0.329,-0.0266,0.8647,-6.85,8.02,-0.03,31.19
14172,0.3311,-0.0217,0.8641,-6.87,8.02,-0.08,31.17
14182,0.3318,-0.0251,0.8657,-6.85,8.0,-0.09,31.19
14192,0.3311,-0.0262,0.8638,-6.87,8.03,-0.08,31.17
14202,0.3295,-0.025,0.8695,-6.85,8.0,-0.08,31.17
14212,0.3293,-0.0256,0.8665,-6.92,8.02,0.05,31.17
14222,0.3336,-0.0239,0.8638,-6.89,7.97,-0.11,31.17
14232,0.3289,-0.0247,0.8667,-6.84,8.03,-0.02,31.17
14242,0.3315,-0.0251,0.8672,-6.79,8.06,-0.05,31.16
14252,0.3286,-0.0264,0.8658,-6.89,7.98,-0.08,31.16
14262,0.3289,-0.0259,0.8644,-6.79,8.0,-0.05,31.18
14272,0.3291,-0.0282,0.8617,-6.87,8.0,-0.11,31.18
14282,0.3324,-0.0275,0.8621,-6.9,7.94,-0.03,31.16
14357,0.3296,-0.0212,0.8676,-6.79,8.05,-0.06,31.18
14367,0.3311,-0.0271,0.869,-6.89,7.95,-0.03,31.19
14378,0.3287,-0.0267,0.8677,-6.89,7.95,-0.08,31.17
14388,0.3301,-0.0265,0.8639,-6.92,7.97,-0.08,31.18
14398,0.3306,-0.0249,0.8649,-6.89,8.0,-0.11,31.18
14408,0.3301,-0.0229,0.865,-6.79,8.02,-0.12,31.19
14418,0.3304,-0.0245,0.8638,-6.73,8.05,-0.17,31.17
14428,0.3319,-0.0256,0.8661,-6.81,7.95,-0.08,31.17
14439,0.3308,-0.0243,0.8662,-6.87,7.92,-0.08,31.17
14449,0.3302,-0.025,0.8654,-6.92,8.05,-0.03,31.16
14459,0.3291,-0.0258,0.8646,-6.9,8.0,-0.02,31.18
14469,0.3311,-0.0262,0.8624,-6.81,8.0,0.03,31.17
14479,0.329,-0.0272,0.8671,-6.89,7.98,0.0,31.19
14489,0.33,-0.0234,0.8722,-6.87,7.97,-0.05,31.17
14499,0.3317,-0.026,0.8647,-6.84,8.02,-0.05,31.2
14509,0.3304,-0.025,0.8654,-6.81,8.0,-0.05,31.19
14519,0.3298,-0.0258,0.8654,-6.85,8.03,-0.06,31.17
14529,0.3292,-0.0243,0.864,-6.89,8.02,0.02,31.17
14539,0.3287,-0.0245,0.8645,-6.84,8.03,0.0,31.17
14549,0.3318,-0.0234,0.8666,-6.81,8.06,0.0,31.18
14559,0.3317,-0.0275,0.8643,-6.89,8.05,0.0,31.17
14569,0.3317,-0.0254,0.8644,-6.84,8.0,-0.03,31.16
14579,0.3298,-0.024,0.8627,-6.87,7.98,-0.02,31.18
14589,0.3301,-0.0221,0.8679,-6.85,7.98,-0.08,31.19
14599,0.3352,-0.0232,0.8647,-6.82,7.95,-0.08,31.19
14609,0.3301,-0.0269,0.8641,-6.82,7.94,-0.05,31.19
14619,0.3337,-0.0299,0.8617,-6.81,8.03,-0.05,31.2
14629,0.3331,-0.0284,0.8649,-6.84,8.05,-0.05,31.17
14639,0.3297,-0.0259,0.8662,-6.92,8.02,-0.08,31.16
14649,0.3315,-0.0219,0.8623,-6.87,8.02,-0.05,31.2
14659,0.3278,-0.0242,0.8665,-6.84,8.08,-0.02,31.21
14669,0.3297,-0.0258,0.8647,-6.89,8.0,-0.09,31.18
14679,0.3295,-0.0231,0.8651,-6.84,7.95,-0.11,31.18
14689,0.3264,-0.0278,0.8662,-6.89,7.94,-0.11,31.17
14699,0.3315,-0.0255,0.8658,-6.85,8.02,-0.09,31.18
14709,0.3307,-0.0248,0.8652,-6.85,8.0,-0.08,31.19
14719,0.3308,-0.0244,0.8657,-6.85,8.02,-0.02,31.21
14729,0.3306,-0.0254,0.8632,-6.89,8.05,-0.05,31.21
14739,0.33,-0.0273,0.8612,-6.87,8.03,-0.09,31.19
14749,0.3317,-0.0266,0.8618,-6.9,8.06,-0.11,31.19
14759,0.3326,-0.025,0.8652,-6.89,8.02,-0.09,31.18
14769,0.334,-0.0243,0.8645,-6.87,7.97,-0.05,31.17
14779,0.3315,-0.0251,0.8632,-6.85,8.06,-0.05,31.19
14789,0.3303,-0.0276,0.8661,-6.85,7.94,0.05,31.17
14802,0.3314,-0.0259,0.8661,-6.87,8.0,0.05,31.19
14812,0.3303,-0.0242,0.8658,-6.92,8.06,-0.06,31.15
14822,0.3293,-0.027,0.8643,-6.84,7.98,-0.09,31.19
14832,0.3308,-0.0266,0.8635,-6.89,7.98,0.02,31.17
14842,0.3304,-0.0251,0.869,-6.81,8.0,-0.06,31.19
14852,0.3306,-0.025,0.866,-6.89,8.03,-0.05,31.19
14862,0.3284,-0.0239,0.8654,-6.78,7.98,-0.03,31.2
14872,0.3312,-0.0269,0.8683,-6.89,8.02,-0.03,31.2
14882,0.3318,-0.0221,0.8652,-6.9,8.05,-0.08,31.18
14892,0.3278,-0.0239,0.8673,-6.81,7.94,0.03,31.19
14902,0.3286,-0.0284,0.865,-6.89,7.97,0.05,31.18
14912,0.3296,-0.0264,0.8647,-6.81,7.97,-0.02,31.17
14922,0.3334,-0.0275,0.8677,-6.9,7.98,0.02,31.17
14932,0.3293,-0.0251,0.8646,-6.79,7.98,-0.03,31.19
14942,0.3336,-0.027,0.8689,-6.9,7.98,-0.08,31.19
14952,0.33,-0.0283,0.865,-6.82,7.97,-0.06,31.2
14962,0.3301,-0.0215,0.8654,-6.84,7.97,-0.05,31.19
14972,0.3279,-0.0267,0.8688,-6.84,7.98,-0.05,31.2
14982,0.3302,-0.0251,0.8668,-6.89,7.98,-0.02,31.19
14992,0.3278,-0.025,0.8687,-6.89,8.05,-0.05,31.19
15002,0.3297,-0.025,0.8619,-6.85,8.02,-0.03,31.19
15012,0.3304,-0.0266,0.8629,-6.85,8.03,0.05,31.21
15022,0.3292,-0.0247,0.8654,-6.85,7.97,-0.03,31.18
15032,0.3297,-0.025,0.8611,-6.85,8.02,-0.08,31.2
15042,0.3285,-0.0221,0.8694,-6.93,7.98,-0.08,31.19
15052,0.3287,-0.0255,0.8613,-6.85,7.97,0.03,31.2
15062,0.3301,-0.0248,0.8655,-6.9,8.0,-0.11,31.18
15072,0.33,-0.026,0.8627,-6.87,7.98,-0.05,31.19
15082,0.3287,-0.0247,0.8607,-6.87,7.89,-0.05,31.19
15092,0.3314,-0.0239,0.8643,-6.87,8.05,-0.06,31.19
15102,0.3333,-0.0267,0.8667,-6.84,8.02,-0.06,31.2
15112,0.3318,-0.0271,0.8677,-6.85,7.98,-0.08,31.18
15122,0.3295,-0.0249,0.8623,-6.85,8.05,-0.05,31.18
15132,0.33,-0.021,0.8616,-6.89,7.92,-0.05,31.19
15142,0.3297,-0.0251,0.8633,-6.89,7.97,-0.09,31.19
15152,0.3291,-0.0254,0.8641,-6.82,7.98,-0.05,31.2
15162,0.3292,-0.0228,0.863,-6.87,8.03,-0.03,31.19
15172,0.3279,-0.0265,0.8619,-6.85,8.03,-0.06,31.21
15182,0.3328,-0.0262,0.8641,-6.9,7.92,0.0,31.2
15192,0.3304,-0.0269,0.8632,-6.89,8.0,-0.12,31.21
15202,0.3304,-0.0281,0.8669,-6.93,7.97,-0.08,31.2
15212,0.3309,-0.0282,0.8667,-6.92,8.0,0.02,31.22
15222,0.3313,-0.0287,0.8669,-6.82,7.97,-0.09,31.19
15232,0.3311,-0.0221,0.8658,-6.81,7.92,0.0,31.19
15242,0.3301,-0.024,0.8691,-6.84,8.06,-0.06,31.2
15252,0.3306,-0.0262,0.8665,-6.85,8.09,-0.05,31.18
15262,0.3308,-0.0262,0.8617,-6.89,7.95,-0.05,31.2
15272,0.328,-0.0253,0.8613,-6.89,8.03,-0.03,31.19
15282,0.33,-0.0259,0.8651,-6.87,7.95,0.0,31.19
15292,0.3302,-0.0225,0.8652,-6.9,8.06,-0.02,31.2
15302,0.3291,-0.0262,0.8643,-6.87,8.02,-0.03,31.2
15312,0.3289,-0.0272,0.8649,-6.84,8.03,-0.05,31.19
15322,0.3295,-0.0247,0.8644,-6.78,7.98,-0.05,31.2
15332,0.3296,-0.0282,0.8656,-6.84,8.02,-0.05,31.21
15342,0.3298,-0.0281,0.8669,-6.76,7.98,-0.02,31.19
15352,0.3301,-0.0275,0.8685,-6.9,7.94,-0.05,31.2
15362,0.3311,-0.0232,0.8655,-6.95,8.11,0.0,31.2
15372,0.333,-0.0231,0.8647,-6.82,8.0,-0.03,31.19
15382,0.3331,-0.0209,0.8639,-6.82,8.05,0.05,31.2
15392,0.3315,-0.026,0.864,-6.84,7.98,-0.11,31.19
15402,0.334,-0.0251,0.866,-6.9,7.97,-0.03,31.19
15412,0.3291,-0.0264,0.8638,-6.89,7.97,-0.06,31.2
15422,0.3307,-0.0238,0.8694,-6.84,8.05,-0.02,31.2
15432,0.3306,-0.0254,0.8655,-6.87,7.95,-0.03,31.21
15442,0.3292,-0.0283,0.8672,-6.84,8.03,0.0,31.2
15452,0.33,-0.0253,0.8649,-6.84,7.98,0.0,31.22
15462,0.327,-0.0266,0.8685,-6.76,7.94,-0.05,31.2
15472,0.3279,-0.0245,0.8669,-6.9,8.02,0.0,31.17
15482,0.3307,-0.0228,0.8643,-6.9,8.05,-0.02,31.2
15492,0.3298,-0.0242,0.8685,-6.82,8.0,-0.02,31.2
15502,0.3281,-0.0265,0.8647,-6.98,8.0,-0.06,31.2
15512,0.3319,-0.0251,0.8623,-6.87,8.0,-0.05,31.22
15522,0.3314,-0.0243,0.8636,-6.92,8.0,-0.08,31.19
15532,0.3308,-0.0269,0.8629,-6.9,8.03,-0.05,31.18
15542,0.3293,-0.0242,0.8657,-6.84,8.05,-0.03,31.23
15552,0.3297,-0.0255,0.8625,-6.93,7.94,-0.03,31.22
15562,0.3342,-0.0264,0.8649,-6.87,7.98,-0.08,31.2
15572,0.3328,-0.0229,0.8687,-6.87,7.98,-0.02,31.22
15582,0.3319,-0.0265,0.8641,-6.9,7.97,0.02,31.21
15592,0.3293,-0.0254,0.8663,-6.89,7.94,-0.06,31.22
15602,0.3304,-0.0276,0.8625,-6.82,8.03,-0.03,31.19
15612,0.3313,-0.0236,0.8646,-6.84,7.98,-0.03,31.21
15622,0.3287,-0.0264,0.8654,-6.98,8.03,-0.03,31.21
15632,0.3317,-0.0259,0.8655,-6.89,7.98,-0.05,31.21
15642,0.3309,-0.0262,0.8655,-7.01,7.95,0.02,31.19
15652,0.3311,-0.0251,0.8622,-6.89,8.0,0.03,31.19
15662,0.3289,-0.0242,0.8658,-6.89,8.06,-0.08,31.23
15672,0.3273,-0.0239,0.8656,-6.85,7.98,-0.09,31.21
15682,0.329,-0.0264,0.866,-6.87,7.97,-0.05,31.22
15692,0.3311,-0.0277,0.8665,-6.9,7.98,-0.05,31.23
15702,0.3323,-0.026,0.8628,-6.9,8.0,-0.03,31.2
15712,0.3297,-0.0271,0.8628,-6.84,7.98,-0.08,31.2
15722,0.329,-0.0262,0.8666,-6.89,8.03,-0.06,31.2
15732,0.3312,-0.0271,0.8622,-6.82,7.97,-0.08,31.21
15742,0.3314,-0.0245,0.8649,-6.84,7.94,0.06,31.2
15752,0.333,-0.0234,0.8646,-6.81,8.0,-0.03,31.2
15762,0.3323,-0.0239,0.8671,-6.81,7.95,-0.08,31.2
15772,0.3314,-0.0244,0.8651,-6.78,8.0,0.0,31.22
15782,0.3284,-0.0248,0.868,-6.93,8.02,0.0,31.21
15792,0.3291,-0.0243,0.8654,-6.95,7.95,-0.08,31.19
15802,0.3317,-0.0262,0.8597,-6.81,8.02,-0.02,31.23
15812,0.3339,-0.0277,0.8655,-6.84,7.97,-0.12,31.22
15822,0.3285,-0.0275,0.8666,-6.89,8.03,0.0,31.22
15832,0.33,-0.026,0.8676,-6.84,7.95,-0.05,31.23
15842,0.3296,-0.0283,0.866,-6.89,8.02,-0.03,31.2
15852,0.3289,-0.024,0.8674,-6.87,8.02,-0.05,31.21
15862,0.3335,-0.0243,0.8657,-6.87,8.06,0.0,31.2
15872,0.3318,-0.027,0.8629,-6.84,8.03,0.0,31.22
15882,0.3308,-0.0239,0.8628,-6.87,8.06,-0.03,31.23
15892,0.3309,-0.0223,0.8616,-6.85,8.0,-0.02,31.25
15902,0.3309,-0.0203,0.8628,-6.9,7.94,-0.05,31.19
15912,0.3315,-0.0234,0.863,-6.9,8.0,-0.08,31.22
15922,0.3301,-0.0292,0.8595,-6.85,8.05,-0.03,31.21
15932,0.3287,-0.0269,0.8638,-6.84,7.97,-0.03,31.22
15942,0.3286,-0.027,0.8649,-6.84,7.92,-0.06,31.22
15952,0.3295,-0.0271,0.8639,-6.85,7.97,-0.15,31.22
15962,0.3326,-0.0255,0.8636,-6.84,8.03,-0.05,31.25
15972,0.3309,-0.0254,0.8641,-6.84,8.08,-0.05,31.2
15982,0.3319,-0.0258,0.8621,-6.79,8.02,-0.08,31.22
15992,0.3324,-0.026,0.8643,-6.79,8.05,0.02,31.21
16002,0.3308,-0.025,0.8657,-6.93,7.98,-0.02,31.2
16012,0.329,-0.0231,0.8652,-6.84,7.98,-0.09,31.2
16022,0.3309,-0.0259,0.8646,-6.93,7.97,-0.08,31.22
16032,0.3289,-0.0248,0.8618,-6.92,8.0,-0.06,31.21
16042,0.3271,-0.024,0.8676,-6.79,8.02,-0.05,31.2
16052,0.3325,-0.0256,0.8647,-6.82,8.05,-0.05,31.2
16062,0.3336,-0.0238,0.8662,-6.96,8.05,-0.08,31.24
16072,0.3302,-0.0236,0.8661,-6.82,8.03,-0.08,31.21
16082,0.3304,-0.0234,0.868,-6.82,8.08,-0.08,31.22
16092,0.3289,-0.0258,0.8624,-6.9,7.98,-0.05,31.22
16102,0.3274,-0.0265,0.8639,-6.89,8.08,-0.03,31.22
16112,0.33,-0.0266,0.8654,-6.9,8.08,-0.09,31.23
16122,0.3298,-0.0254,0.8672,-6.87,8.03,0.0,31.22
16132,0.3333,-0.0261,0.8683,-6.87,7.95,-0.03,31.22
16142,0.3326,-0.0243,0.8629,-6.85,8.05,-0.12,31.21
16152,0.3309,-0.024,0.8634,-6.84,8.08,0.0,31.23
16162,0.3296,-0.0259,0.8658,-6.73,7.98,-0.02,31.24
16172,0.3298,-0.0253,0.8638,-6.87,7.98,-0.03,31.21
16182,0.3314,-0.0269,0.8636,-6.87,7.98,-0.05,31.24
16192,0.3324,-0.0256,0.864,-6.81,7.95,0.0,31.21
16202,0.3292,-0.0249,0.8625,-6.76,8.0,-0.12,31.24
16212,0.3306,-0.0231,0.8644,-6.87,7.97,-0.11,31.21
16222,0.3324,-0.0247,0.8654,-6.85,8.02,0.02,31.22
16232,0.3282,-0.0261,0.8618,-6.82,8.02,-0.12,31.2
16242,0.3296,-0.0251,0.8669,-6.85,7.97,0.02,31.23
16252,0.3295,-0.0269,0.8639,-6.85,7.97,-0.02,31.24
16262,0.3322,-0.0248,0.8657,-6.84,8.0,-0.05,31.2
16272,0.3322,-0.0261,0.8643,-6.89,8.02,-0.11,31.24
16282,0.3312,-0.0261,0.8656,-6.9,7.97,-0.05,31.22
16292,0.3281,-0.0222,0.8616,-6.85,8.03,-0.05,31.22
16302,0.3307,-0.0221,0.8638,-6.81,8.02,-0.02,31.22
16312,0.3308,-0.0237,0.8678,-6.82,8.03,-0.05,31.22
16322,0.3281,-0.0253,0.8655,-6.92,8.02,0.02,31.24
16332,0.3314,-0.0222,0.8619,-6.85,8.03,-0.03,31.21
16342,0.3297,-0.0251,0.8636,-6.92,8.06,-0.09,31.2
16352,0.3291,-0.0266,0.8674,-6.92,7.94,-0.03,31.22
16362,0.3292,-0.0245,0.8632,-6.84,8.0,-0.11,31.21
16372,0.3302,-0.0225,0.8635,-6.85,7.95,-0.12,31.23
16382,0.33,-0.0231,0.8663,-6.82,8.0,-0.09,31.22
16392,0.3302,-0.0243,0.865,-6.9,8.05,0.0,31.22
16402,0.3303,-0.0255,0.8662,-6.96,8.03,0.0,31.22
16412,0.3296,-0.0259,0.8633,-6.9,8.0,-0.08,31.22
16422,0.3281,-0.0275,0.8662,-6.84,7.95,-0.09,31.21
16432,0.3307,-0.0258,0.8618,-6.89,7.95,-0.11,31.23
16442,0.3293,-0.0243,0.8684,-6.87,8.08,-0.03,31.21
16452,0.3284,-0.0275,0.8687,-6.87,8.0,-0.06,31.23
16462,0.329,-0.0276,0.8625,-6.9,8.0,-0.02,31.21
16472,0.3328,-0.0255,0.8651,-6.79,8.05,0.06,31.23
16482,0.3309,-0.0247,0.863,-6.84,7.98,-0.08,31.22
16492,0.3298,-0.0259,0.8646,-6.87,7.92,-0.06,31.21
16502,0.3303,-0.0229,0.8677,-6.92,7.95,-0.23,31.21
16512,0.3286,-0.022,0.8679,-6.87,7.91,-0.09,31.23
16522,0.3325,-0.0245,0.8645,-6.84,8.03,-0.03,31.2
16532,0.328,-0.0258,0.8623,-6.9,7.97,-0.08,31.23
16542,0.33,-0.0261,0.8649,-6.87,8.03,-0.05,31.23
16552,0.3295,-0.026,0.8656,-6.87,7.95,0.02,31.22
16562,0.3297,-0.0251,0.8654,-6.87,7.94,-0.06,31.26
16572,0.3335,-0.0253,0.8641,-6.78,7.95,-0.08,31.21
16582,0.332,-0.0261,0.868,-6.82,7.95,-0.08,31.22
16592,0.3296,-0.0269,0.8662,-6.87,8.0,-0.08,31.21
16602,0.3306,-0.0271,0.8671,-6.79,8.05,0.03,31.23
16612,0.3308,-0.0254,0.8646,-6.75,7.95,-0.05,31.23
16622,0.3314,-0.0249,0.8638,-6.84,7.98,-0.03,31.22
16632,0.3298,-0.0221,0.8638,-6.81,7.92,-0.06,31.22
16642,0.3323,-0.0238,0.8654,-6.85,8.0,0.02,31.21
16652,0.3308,-0.0245,0.8628,-6.85,8.0,-0.06,31.22
16662,0.3318,-0.0261,0.8665,-6.81,7.92,-0.09,31.22
16672,0.3314,-0.0248,0.865,-6.85,7.95,-0.05,31.23
16682,0.3298,-0.0253,0.8601,-6.82,8.02,-0.06,31.22
16692,0.3308,-0.0276,0.8605,-6.85,7.97,-0.06,31.23
16702,0.3293,-0.0247,0.8668,-6.79,8.05,-0.14,31.21
16712,0.3301,-0.0237,0.868,-6.84,8.08,0.05,31.24
16722,0.3301,-0.0233,0.8673,-6.92,8.06,-0.11,31.2
16732,0.3322,-0.0271,0.8663,-6.81,8.08,0.03,31.22
16742,0.3329,-0.0247,0.8611,-6.84,7.95,-0.03,31.22
16752,0.3296,-0.0256,0.863,-6.85,7.95,0.0,31.22
16762,0.328,-0.0221,0.8676,-6.89,8.06,-0.08,31.23
16772,0.3303,-0.0245,0.8622,-6.81,8.02,0.0,31.21
16782,0.3304,-0.0278,0.861,-6.89,7.94,-0.09,31.25
16792,0.3315,-0.026,0.8633,-6.82,7.98,-0.05,31.25
16802,0.3292,-0.0261,0.8636,-6.89,7.97,-0.06,31.22
16812,0.3313,-0.0281,0.8654,-6.87,7.98,-0.08,31.23
16822,0.3295,-0.0254,0.8632,-6.89,7.97,-0.06,31.19
16832,0.3311,-0.025,0.8685,-6.75,7.98,-0.06,31.22
16842,0.3293,-0.0278,0.8629,-6.89,8.03,-0.09,31.24
16852,0.3291,-0.0256,0.8663,-6.87,7.98,-0.09,31.22
16862,0.3281,-0.0243,0.8636,-6.78,8.02,-0.05,31.24
16872,0.3281,-0.025,0.8695,-6.9,8.03,0.02,31.23
16882,0.3282,-0.0242,0.8647,-6.9,8.05,-0.03,31.25
16892,0.3301,-0.0277,0.8647,-6.78,8.02,-0.06,31.24
16902,0.33,-0.0254,0.8624,-6.87,8.02,-0.14,31.22
16912,0.329,-0.0255,0.8629,-6.89,7.95,-0.02,31.24
16922,0.3313,-0.0247,0.8691,-6.84,8.02,0.06,31.24
16932,0.3317,-0.0253,0.8651,-6.87,7.94,-0.05,31.24
16942,0.3301,-0.0266,0.8656,-6.92,8.0,-0.08,31.24
16952,0.3297,-0.0258,0.8666,-6.9,8.03,-0.09,31.24
16962,0.33,-0.0264,0.8667,-6.84,7.98,-0.06,31.22
16972,0.3312,-0.0255,0.8672,-6.95,7.95,-0.02,31.24
16982,0.3308,-0.0276,0.8685,-6.82,8.0,0.02,31.22
16992,0.3322,-0.0258,0.863,-6.89,7.97,-0.05,31.25
17002,0.3308,-0.0253,0.8633,-6.87,7.97,-0.09,31.25
17012,0.3328,-0.0251,0.8662,-6.82,8.03,-0.05,31.23
17022,0.3304,-0.0209,0.863,-6.9,8.02,-0.09,31.22
17032,0.3324,-0.0256,0.8623,-6.9,8.03,-0.02,31.22
17042,0.3306,-0.025,0.8634,-6.9,8.02,-0.06,31.24
17053,0.332,-0.0284,0.8671,-6.78,8.03,0.0,31.23
17063,0.3311,-0.0265,0.8651,-6.81,8.03,-0.03,31.23
17073,0.3291,-0.0232,0.8667,-6.85,7.98,-0.05,31.22
17083,0.3302,-0.0265,0.8632,-6.84,8.02,-0.06,31.24
17093,0.3293,-0.0262,0.8624,-6.85,7.95,-0.06,31.23
17103,0.3282,-0.0256,0.8621,-6.78,8.03,0.02,31.23
17113,0.3297,-0.0262,0.8652,-6.84,8.06,0.0,31.24
17123,0.3296,-0.0242,0.8679,-6.87,8.0,0.02,31.24
17133,0.3325,-0.0231,0.8643,-6.89,8.0,-0.06,31.25
17143,0.33,-0.0253,0.8586,-6.9,8.05,-0.09,31.22
17153,0.3289,-0.0249,0.8627,-6.87,8.02,-0.06,31.22
17163,0.3304,-0.024,0.8611,-6.9,7.97,-0.05,31.22
17173,0.3318,-0.026,0.8651,-6.85,7.94,0.0,31.24
17183,0.3312,-0.0273,0.8669,-6.81,7.92,-0.09,31.22
17193,0.3325,-0.0266,0.8712,-6.9,8.05,-0.06,31.21
17203,0.3284,-0.0265,0.8699,-6.89,7.98,-0.08,31.23
17213,0.3302,-0.0298,0.8645,-6.81,8.03,0.0,31.24
17223,0.3292,-0.0231,0.8638,-6.92,7.97,-0.02,31.23
17233,0.3301,-0.0258,0.8658,-6.81,8.05,0.02,31.23
17243,0.3281,-0.0253,0.8655,-6.89,7.98,-0.02,31.23
17253,0.3312,-0.025,0.8644,-6.89,7.95,-0.08,31.24
17263,0.3315,-0.0225,0.8657,-6.85,7.98,-0.02,31.26
17273,0.3322,-0.0225,0.8621,-6.89,8.02,-0.02,31.23
17283,0.3319,-0.0262,0.8635,-6.9,8.09,-0.05,31.21
17293,0.3297,-0.0269,0.8644,-6.87,7.97,-0.02,31.23
17303,0.3303,-0.0269,0.8661,-6.96,7.97,0.0,31.24
17313,0.3292,-0.0256,0.8672,-6.82,7.97,-0.03,31.23
17323,0.3285,-0.0253,0.8633,-6.82,8.0,-0.06,31.25
17333,0.328,-0.0239,0.8668,-6.79,8.05,-0.05,31.23
17343,0.3315,-0.027,0.8639,-6.9,8.02,-0.05,31.24
17353,0.3333,-0.0264,0.8704,-6.89,8.0,0.02,31.24
17363,0.3293,-0.0244,0.8645,-6.89,8.05,-0.03,31.24
17373,0.3322,-0.0249,0.8667,-6.9,8.0,-0.03,31.21
17383,0.3323,-0.0289,0.8641,-6.81,7.98,-0.03,31.24
17393,0.3303,-0.0262,0.8695,-6.96,8.03,-0.06,31.24
17403,0.3285,-0.0258,0.8663,-6.79,7.94,-0.11,31.22
17413,0.3307,-0.0258,0.8618,-6.82,8.05,-0.08,31.24
17423,0.3298,-0.0259,0.865,-6.9,8.06,-0.03,31.24
17433,0.3306,-0.0276,0.8645,-6.93,8.0,-0.06,31.22
17443,0.3296,-0.025,0.8635,-6.9,8.05,0.0,31.21
17453,0.3326,-0.027,0.8635,-6.81,8.0,-0.02,31.21
17463,0.3282,-0.0253,0.869,-6.89,8.02,-0.12,31.25
17473,0.3313,-0.0255,0.8657,-6.87,8.03,-0.08,31.21
17483,0.3284,-0.0236,0.8652,-6.82,8.0,0.0,31.24
17493,0.3308,-0.0267,0.863,-6.78,7.98,-0.05,31.26
17503,0.3314,-0.0272,0.8628,-6.81,7.95,-0.05,31.25
17513,0.3306,-0.0272,0.8641,-6.79,8.0,-0.02,31.22
17523,0.3274,-0.0242,0.8667,-6.84,7.98,-0.05,31.24
17533,0.3314,-0.0211,0.8622,-6.87,7.98,-0.02,31.26
17543,0.3308,-0.0248,0.8618,-6.85,8.06,0.0,31.22
17553,0.333,-0.026,0.8673,-6.82,8.03,-0.05,31.25
17563,0.3304,-0.0265,0.8629,-6.85,8.05,-0.08,31.21
17573,0.3282,-0.0219,0.8619,-6.79,8.03,-0.03,31.23
17583,0.3301,-0.0244,0.8604,-6.84,8.0,-0.05,31.23
17593,0.3293,-0.0248,0.8644,-6.95,7.97,-0.05,31.26
17603,0.3292,-0.0249,0.8645,-6.82,7.95,0.03,31.24
17613,0.3295,-0.0264,0.8624,-6.82,8.03,-0.03,31.25
17623,0.3319,-0.0271,0.8618,-6.87,7.98,0.0,31.26
17633,0.3301,-0.0255,0.8665,-6.87,8.0,-0.02,31.23
17643,0.329,-0.0243,0.868,-6.92,7.94,-0.11,31.24
17654,0.332,-0.0234,0.8633,-6.81,8.0,-0.06,31.24
17664,0.3313,-0.0256,0.8655,-6.85,8.0,-0.05,31.23
17674,0.3293,-0.0249,0.8612,-6.84,8.03,-0.03,31.25
17684,0.3297,-0.0227,0.8639,-6.89,8.0,-0.09,31.24
17694,0.3318,-0.0277,0.8645,-6.87,8.02,-0.17,31.23
17704,0.3291,-0.0259,0.8645,-6.93,8.06,-0.09,31.23
17714,0.3302,-0.0251,0.8651,-6.75,7.95,-0.05,31.26
17724,0.3281,-0.0277,0.8671,-6.85,7.98,-0.05,31.26
17734,0.3296,-0.0247,0.8605,-6.96,8.06,-0.11,31.26
17744,0.3325,-0.0291,0.8613,-6.87,8.06,-0.09,31.24
17754,0.3285,-0.027,0.8636,-6.76,8.0,-0.08,31.25
17764,0.3276,-0.0267,0.8683,-6.84,8.0,0.0,31.24
17774,0.3314,-0.0234,0.8678,-6.92,8.0,-0.12,31.24
17784,0.3307,-0.0237,0.8667,-6.84,8.06,-0.12,31.24
17794,0.3324,-0.0262,0.8638,-6.95,8.02,-0.08,31.23
17804,0.3315,-0.0234,0.8647,-6.79,8.03,-0.03,31.25
17814,0.3301,-0.0258,0.8593,-6.87,8.0,-0.02,31.22
17824,0.3291,-0.0267,0.8646,-6.9,7.97,-0.05,31.25
17834,0.332,-0.026,0.8674,-6.87,8.02,-0.05,31.23
17844,0.3315,-0.0255,0.8638,-6.92,8.02,-0.11,31.24
17854,0.3309,-0.0245,0.8635,-6.85,8.02,-0.03,31.25
17864,0.3307,-0.025,0.8687,-6.87,8.05,-0.05,31.24
17874,0.3303,-0.0251,0.8645,-6.84,7.98,-0.06,31.25
17884,0.3278,-0.0247,0.8649,-6.89,7.97,-0.06,31.27
17894,0.3291,-0.0219,0.8646,-6.93,8.05,-0.08,31.24
17904,0.3309,-0.0258,0.8661,-6.87,7.97,-0.08,31.26
17914,0.3312,-0.0248,0.8663,-6.85,8.09,-0.06,31.24
17924,0.3314,-0.0262,0.8635,-6.81,7.98,-0.05,31.23
17934,0.3291,-0.0261,0.865,-6.87,7.97,-0.08,31.24
17944,0.3317,-0.0286,0.8644,-6.81,8.02,0.03,31.25
17954,0.3302,-0.0233,0.8645,-6.87,8.05,-0.03,31.23
17964,0.332,-0.0253,0.863,-6.87,8.03,-0.05,31.25
17974,0.3317,-0.0232,0.8667,-6.89,7.98,-0.06,31.22
17984,0.3323,-0.0222,0.8654,-6.93,7.98,-0.05,31.23
17994,0.3308,-0.0248,0.863,-6.87,7.98,0.0,31.2
18004,0.3287,-0.0267,0.8677,-6.92,7.95,-0.11,31.25
18014,0.3292,-0.0248,0.8634,-6.85,7.95,-0.02,31.25
18024,0.3335,-0.0254,0.865,-6.84,7.92,-0.08,31.22
18034,0.3301,-0.0259,0.8661,-6.78,7.98,-0.03,31.24
18044,0.3282,-0.0238,0.8655,-6.89,8.03,-0.03,31.23
18054,0.329,-0.0272,0.8666,-6.82,7.98,0.0,31.26
18064,0.3296,-0.0248,0.8621,-6.79,7.98,-0.06,31.27
18074,0.3292,-0.0244,0.8654,-6.92,8.05,-0.12,31.27
18084,0.3297,-0.0237,0.8651,-6.87,8.05,0.02,31.24
18094,0.3308,-0.0255,0.8636,-6.92,7.95,-0.03,31.24
18104,0.3314,-0.025,0.8643,-6.85,7.98,0.02,31.22
18114,0.3314,-0.0264,0.8677,-6.84,8.0,-0.08,31.25
18124,0.3304,-0.0255,0.8644,-6.93,7.97,-0.03,31.25
18134,0.3282,-0.0256,0.8652,-6.79,8.08,-0.05,31.24
18144,0.3309,-0.0295,0.866,-6.92,8.08,-0.09,31.25
18154,0.3339,-0.0245,0.8633,-6.82,8.08,-0.06,31.27
18164,0.3318,-0.0234,0.8622,-6.87,8.02,-0.02,31.24
18174,0.3307,-0.0221,0.8622,-6.87,7.92,-0.05,31.25
18184,0.3293,-0.0251,0.864,-6.81,8.0,-0.05,31.25
18194,0.3309,-0.0265,0.8662,-6.84,8.02,-0.08,31.24
18204,0.3281,-0.0253,0.8662,-6.81,8.02,-0.09,31.25
18214,0.3318,-0.0277,0.8682,-6.82,8.0,-0.08,31.22
18224,0.3296,-0.0261,0.8682,-6.87,7.98,-0.05,31.24
18234,0.3319,-0.0275,0.8643,-6.84,8.02,-0.08,31.24
18244,0.3306,-0.024,0.8658,-6.84,8.0,-0.05,31.22
18254,0.3308,-0.026,0.8654,-6.89,8.03,-0.12,31.24
18264,0.3336,-0.0278,0.8635,-6.85,8.03,-0.14,31.25
18274,0.3307,-0.0234,0.8618,-6.84,7.95,-0.06,31.24
18284,0.3325,-0.0253,0.8654,-6.84,8.06,-0.05,31.26
18294,0.3312,-0.0247,0.8633,-6.85,7.97,0.0,31.24
18304,0.3307,-0.0244,0.8596,-6.87,8.03,-0.08,31.24
18314,0.3324,-0.0258,0.8662,-6.75,8.0,-0.08,31.24
18324,0.33,-0.026,0.8651,-6.76,8.0,0.05,31.26
18334,0.3313,-0.0266,0.8656,-6.99,8.0,-0.02,31.23
18344,0.3312,-0.0255,0.866,-6.81,7.97,-0.06,31.26
18354,0.3318,-0.0243,0.8624,-6.84,7.97,0.0,31.26
18365,0.3328,-0.024,0.8655,-6.92,8.0,-0.03,31.27
18375,0.3301,-0.0258,0.8641,-6.87,7.97,0.03,31.23
18385,0.33,-0.026,0.8649,-6.82,8.02,-0.06,31.24
18395,0.3319,-0.0245,0.8608,-6.81,7.94,-0.03,31.25
18405,0.3302,-0.0231,0.8636,-6.85,8.0,0.02,31.24
18415,0.3314,-0.0265,0.8643,-6.87,8.02,-0.09,31.24
18425,0.3324,-0.0244,0.8674,-6.87,7.91,-0.06,31.26
18435,0.3313,-0.0253,0.8662,-6.79,7.92,-0.14,31.25
18445,0.3297,-0.0255,0.8683,-6.84,8.02,-0.03,31.25
18455,0.3276,-0.0282,0.8667,-6.89,8.02,-0.05,31.28
18465,0.3301,-0.0266,0.868,-6.89,8.05,-0.08,31.27
18475,0.3268,-0.0267,0.8657,-6.87,7.95,-0.06,31.25
18485,0.3275,-0.0223,0.864,-6.81,7.98,0.0,31.24
18495,0.3315,-0.0261,0.8604,-6.92,8.05,-0.06,31.23
18505,0.3317,-0.0239,0.8605,-6.9,7.92,-0.02,31.27
18515,0.3306,-0.0254,0.8643,-6.85,7.91,-0.02,31.28
18525,0.3307,-0.0266,0.8617,-6.85,7.97,-0.06,31.26
18535,0.3284,-0.0273,0.8656,-6.93,8.0,-0.03,31.24
18545,0.3237,-0.0233,0.8704,-6.89,8.06,-0.03,31.23
18555,0.3308,-0.0239,0.8652,-6.82,7.97,-0.05,31.25
18565,0.3315,-0.0271,0.8707,-6.9,8.05,-0.08,31.26
18575,0.3309,-0.0293,0.8624,-6.85,7.95,0.02,31.27
18585,0.3309,-0.0251,0.8635,-6.89,8.05,-0.05,31.27
18595,0.3312,-0.0223,0.8652,-6.81,8.06,-0.11,31.23
18605,0.3308,-0.0277,0.8694,-6.79,8.05,-0.08,31.24
18615,0.3328,-0.0266,0.8622,-6.9,7.94,-0.09,31.22
18625,0.3335,-0.0284,0.8596,-6.79,8.06,-0.08,31.25
18636,0.332,-0.0269,0.8651,-6.89,8.08,-0.09,31.23
18646,0.3337,-0.0264,0.8645,-6.9,8.08,-0.09,31.25
18656,0.3312,-0.0255,0.8651,-6.79,8.03,0.0,31.25
18666,0.3303,-0.0225,0.8641,-6.87,7.97,0.0,31.26
18676,0.3307,-0.0238,0.8638,-6.9,7.95,-0.09,31.26
18686,0.3323,-0.0259,0.8685,-6.89,8.03,-0.08,31.26
18696,0.3309,-0.0236,0.8618,-6.87,8.02,0.02,31.24
18706,0.3314,-0.0261,0.863,-6.89,8.02,-0.05,31.27
18716,0.3315,-0.0276,0.8647,-6.84,8.03,-0.06,31.27
18726,0.3317,-0.0266,0.8661,-6.93,8.02,-0.08,31.26
18736,0.3319,-0.0284,0.8683,-6.93,7.98,0.03,31.26
18746,0.3308,-0.025,0.8647,-6.84,7.94,0.02,31.27
18756,0.3282,-0.0259,0.8663,-6.81,8.0,-0.02,31.25
18766,0.3311,-0.0278,0.8623,-6.89,7.91,-0.03,31.25
18776,0.33,-0.026,0.8622,-6.82,7.97,-0.08,31.27
18786,0.3304,-0.0253,0.8625,-6.81,7.98,-0.02,31.27
18796,0.3286,-0.0247,0.8644,-6.93,8.0,-0.12,31.25
18806,0.3322,-0.0254,0.86,-6.84,8.0,0.0,31.25
18816,0.3319,-0.0234,0.8625,-6.9,7.98,-0.02,31.23
18826,0.332,-0.0236,0.8668,-6.89,8.02,-0.03,31.23
18836,0.3308,-0.0225,0.8628,-6.9,8.02,-0.03,31.25
18846,0.3309,-0.0266,0.8601,-6.93,7.95,-0.06,31.23
18856,0.3301,-0.0288,0.8673,-6.93,8.0,-0.08,31.27
18866,0.3303,-0.0253,0.8655,-6.84,8.05,0.06,31.25
18876,0.3335,-0.0253,0.8641,-6.87,7.97,-0.03,31.24
18886,0.3322,-0.0265,0.864,-6.87,7.98,-0.02,31.26
18896,0.3302,-0.0242,0.8638,-6.81,8.02,0.0,31.27
18906,0.3301,-0.0267,0.8627,-6.81,8.09,0.0,31.23
18916,0.3296,-0.0266,0.8632,-6.85,7.94,-0.02,31.26
18926,0.3318,-0.0266,0.8618,-6.82,7.98,0.0,31.29
18936,0.3304,-0.0228,0.8625,-6.89,8.05,-0.08,31.27
18946,0.3306,-0.0251,0.8621,-6.87,7.95,-0.14,31.23
18956,0.3324,-0.026,0.8608,-6.9,7.97,-0.06,31.26
18966,0.3302,-0.0249,0.8645,-6.82,8.02,0.06,31.28
18976,0.3291,-0.0271,0.8639,-6.93,8.03,-0.11,31.26
18986,0.3286,-0.0273,0.863,-6.87,7.98,-0.03,31.27
18996,0.329,-0.0266,0.8676,-6.89,7.92,-0.05,31.25
19006,0.3308,-0.0255,0.8669,-6.85,7.98,-0.03,31.25
19016,0.3308,-0.0229,0.8644,-6.85,7.98,-0.06,31.25
19026,0.3267,-0.0251,0.8634,-6.82,8.0,-0.06,31.27
19036,0.3292,-0.0247,0.8621,-6.89,8.02,-0.08,31.27
19046,0.3307,-0.0227,0.8679,-6.9,8.06,-0.11,31.27
19056,0.3341,-0.026,0.8666,-6.92,8.06,-0.08,31.28
19066,0.3296,-0.0253,0.8645,-6.85,8.02,-0.05,31.27
19076,0.3322,-0.0259,0.8646,-6.92,8.05,-0.05,31.28
19086,0.3307,-0.0297,0.8638,-6.9,8.09,-0.09,31.24
19096,0.3324,-0.0282,0.8599,-6.9,8.05,-0.02,31.25
19106,0.3306,-0.0251,0.8652,-6.82,8.06,-0.06,31.26
19116,0.3346,-0.0248,0.8621,-6.89,8.02,-0.03,31.28
19126,0.3337,-0.0262,0.8644,-6.84,8.12,-0.08,31.27
19136,0.3347,-0.0225,0.8632,-6.79,8.02,-0.08,31.28
19146,0.3334,-0.0225,0.8663,-6.9,7.97,-0.11,31.27
19156,0.3323,-0.0249,0.8647,-6.85,8.02,-0.02,31.27
19166,0.3314,-0.0275,0.8619,-6.84,7.94,-0.05,31.26
19176,0.33,-0.0226,0.8634,-6.9,8.02,-0.03,31.27
19186,0.33,-0.0245,0.8658,-6.84,8.08,0.08,31.26
19196,0.3312,-0.0227,0.8655,-6.92,8.06,-0.08,31.3
19206,0.3292,-0.0253,0.864,-6.82,8.0,-0.02,31.27
19216,0.3311,-0.0249,0.8667,-6.85,8.11,0.03,31.28
19226,0.3303,-0.0238,0.8627,-6.84,8.03,-0.08,31.27
19236,0.3291,-0.0249,0.8682,-6.82,8.05,0.02,31.28
19246,0.3306,-0.0221,0.8645,-6.84,8.0,-0.06,31.25
19256,0.3289,-0.0239,0.8676,-6.89,7.97,-0.06,31.25
19266,0.3262,-0.0232,0.8632,-6.76,7.91,-0.05,31.26
19276,0.327,-0.0267,0.8633,-6.89,7.97,-0.05,31.29
19355,0.3318,-0.0238,0.8634,-6.85,7.98,-0.05,31.27
19365,0.3292,-0.0231,0.8615,-6.9,7.98,-0.03,31.27
19375,0.3293,-0.0238,0.8661,-6.9,8.03,-0.08,31.28
19385,0.3308,-0.0239,0.8629,-6.81,8.02,-0.12,31.25
19395,0.3328,-0.0258,0.8634,-6.84,7.98,-0.02,31.25
19405,0.3302,-0.0282,0.866,-6.87,8.06,-0.03,31.26
19415,0.3323,-0.0278,0.8655,-6.95,8.0,-0.11,31.27
19425,0.3313,-0.0222,0.8673,-6.81,8.03,-0.17,31.27
19435,0.3322,-0.0242,0.8674,-6.78,8.06,-0.05,31.25
19445,0.3281,-0.0233,0.864,-6.9,7.92,-0.02,31.27
19455,0.3304,-0.0242,0.8643,-6.85,7.94,-0.02,31.26
19465,0.3319,-0.0253,0.8657,-6.84,7.95,0.06,31.25
19475,0.3313,-0.0239,0.8635,-6.85,8.05,-0.11,31.29
19485,0.33,-0.0242,0.8644,-6.92,8.05,-0.08,31.27
19495,0.33,-0.0233,0.8627,-6.9,8.08,-0.02,31.29
19505,0.3295,-0.0244,0.8655,-6.79,7.94,0.0,31.26
19515,0.3306,-0.025,0.864,-6.85,8.02,-0.03,31.25
19525,0.3303,-0.0239,0.8682,-6.89,7.98,-0.05,31.24
19535,0.3296,-0.0262,0.8618,-6.84,7.98,0.0,31.25
19545,0.3297,-0.0251,0.8663,-6.89,8.03,0.02,31.25
19555,0.3281,-0.025,0.8655,-6.92,7.92,-0.02,31.29
19566,0.3298,-0.0244,0.8666,-6.87,8.05,-0.08,31.28
19576,0.3296,-0.0249,0.8671,-6.92,8.03,-0.02,31.28
19586,0.3331,-0.0256,0.8662,-6.85,8.03,-0.05,31.29
19596,0.3271,-0.0245,0.8668,-6.92,8.08,-0.05,31.28
19606,0.3306,-0.0243,0.8665,-6.89,8.02,-0.09,31.28
19616,0.3303,-0.026,0.8607,-6.92,8.05,-0.09,31.28
19626,0.3291,-0.0238,0.8633,-6.92,7.95,-0.06,31.29
19636,0.3273,-0.0249,0.8627,-6.93,7.92,-0.12,31.28
19646,0.3302,-0.0238,0.8605,-6.89,8.09,-0.11,31.26
19656,0.3292,-0.0278,0.8658,-6.95,8.0,-0.08,31.32
19666,0.3303,-0.0262,0.8654,-6.89,8.02,-0.05,31.25
19676,0.3322,-0.0233,0.8649,-6.87,8.02,-0.06,31.29
19686,0.3293,-0.0244,0.8702,-6.92,8.03,0.03,31.3
19696,0.3296,-0.0251,0.8684,-6.82,8.08,-0.06,31.29
19706,0.333,-0.0234,0.8661,-6.76,7.95,-0.08,31.28
19716,0.3284,-0.0239,0.8666,-6.75,8.05,-0.02,31.27
19726,0.33,-0.0231,0.8652,-6.87,8.03,-0.03,31.27
19736,0.3284,-0.0248,0.8621,-6.87,8.05,-0.06,31.26
19746,0.3306,-0.0242,0.8623,-6.79,7.97,-0.05,31.25
19756,0.3282,-0.0249,0.8627,-6.92,8.02,-0.03,31.29
19766,0.3289,-0.025,0.8666,-6.93,7.97,-0.06,31.28
19776,0.3314,-0.025,0.8645,-6.78,7.97,-0.03,31.29
19787,0.3317,-0.0256,0.8666,-6.82,7.98,0.0,31.26
19799,0.3328,-0.0283,0.8656,-6.92,7.95,-0.09,31.27
19809,0.3308,-0.0269,0.8673,-6.81,8.0,-0.06,31.27
19822,0.3331,-0.0249,0.8647,-6.84,8.05,-0.05,31.28
19832,0.3326,-0.0229,0.8676,-6.87,8.03,0.0,31.23
19842,0.3286,-0.0242,0.8679,-6.89,8.02,-0.06,31.29
19852,0.3308,-0.0201,0.8625,-6.93,8.02,-0.06,31.29
19862,0.3278,-0.027,0.8651,-6.82,8.02,-0.05,31.25
19872,0.3307,-0.0267,0.8645,-6.84,8.0,-0.08,31.29
19882,0.33,-0.0243,0.8607,-6.9,8.06,-0.08,31.29
19892,0.3304,-0.024,0.8641,-6.79,8.02,0.03,31.29
19902,0.3293,-0.0258,0.8612,-6.95,7.95,-0.05,31.28
19912,0.3274,-0.026,0.8641,-6.85,8.05,0.02,31.24
19922,0.3292,-0.0283,0.8638,-6.78,7.94,-0.08,31.27
19932,0.3301,-0.0234,0.8623,-6.87,7.98,-0.11,31.27
19942,0.329,-0.0243,0.8682,-6.89,8.02,0.02,31.28
19952,0.3303,-0.0256,0.8645,-6.82,7.92,-0.11,31.27
19962,0.3367,-0.0221,0.8579,-6.85,7.91,-0.02,31.27
19972,0.333,-0.027,0.859,-6.79,8.02,0.0,31.26
19982,0.3326,-0.0227,0.8668,-6.89,8.06,-0.08,31.29
19992,0.3303,-0.0253,0.8667,-6.95,8.11,-0.03,31.26
20002,0.3313,-0.0259,0.8666,-6.84,7.98,-0.12,31.29
20012,0.332,-0.0261,0.87,-6.82,8.02,-0.11,31.28
20022,0.3309,-0.0247,0.8619,-6.9,8.09,-0.09,31.28
20032,0.3278,-0.026,0.8618,-6.82,7.97,-0.02,31.29
20042,0.3281,-0.0233,0.8616,-6.92,8.08,-0.11,31.24
20052,0.3253,-0.0236,0.8706,-6.84,8.15,-0.02,31.27
20062,0.3293,-0.0259,0.8583,-6.89,7.89,0.02,31.27
20072,0.3262,-0.0231,0.8691,-6.79,8.0,0.02,31.27
20082,0.3315,-0.0232,0.8668,-6.89,8.05,0.02,31.27
20092,0.3279,-0.0222,0.8684,-6.89,8.0,-0.03,31.29
20102,0.3358,-0.0261,0.8651,-6.81,7.95,-0.05,31.3
20112,0.3337,-0.0255,0.8639,-6.93,8.02,-0.06,31.27
20122,0.3248,-0.0275,0.8656,-6.81,8.11,-0.06,31.29
20132,0.325,-0.0251,0.8651,-6.82,8.0,-0.03,31.27
20142,0.3284,-0.026,0.8622,-6.79,7.94,-0.08,31.28
20152,0.3291,-0.027,0.8619,-6.87,7.92,-0.05,31.27
20162,0.332,-0.0253,0.8618,-6.81,7.94,-0.08,31.27
20172,0.3323,-0.0238,0.8649,-6.82,8.05,-0.03,31.27
20182,0.33,-0.0229,0.8625,-6.82,8.06,-0.11,31.29
20192,0.3297,-0.0271,0.861,-6.84,8.03,-0.08,31.29
20202,0.3302,-0.0237,0.8649,-6.81,7.97,-0.05,31.29
20212,0.3306,-0.0232,0.8662,-6.92,8.03,-0.06,31.27
20222,0.3337,-0.0283,0.8601,-6.87,7.91,0.02,31.27
20232,0.3257,-0.0267,0.8684,-6.82,7.97,-0.03,31.28
20242,0.3301,-0.0261,0.8656,-6.72,7.97,-0.06,31.28
20252,0.3313,-0.0281,0.8649,-6.81,7.95,-0.08,31.29
20262,0.3314,-0.0237,0.863,-6.95,8.02,0.0,31.3
20272,0.3298,-0.0269,0.8624,-6.9,7.97,-0.14,31.28
20282,0.3295,-0.0214,0.8665,-6.81,8.03,-0.12,31.27
20292,0.3315,-0.0254,0.8623,-6.87,7.94,-0.05,31.27
20302,0.3302,-0.0247,0.8588,-6.82,7.95,-0.02,31.26
20312,0.3319,-0.0251,0.8656,-6.85,7.98,-0.02,31.29
20322,0.3295,-0.0272,0.864,-6.9,8.03,-0.14,31.27
20332,0.3292,-0.0284,0.8644,-6.93,7.95,-0.11,31.3
20342,0.3317,-0.0273,0.86,-6.95,8.02,-0.08,31.29
20352,0.3289,-0.0267,0.8618,-6.87,7.94,0.02,31.26
20362,0.3309,-0.0275,0.8633,-6.92,8.0,-0.05,31.28
20372,0.3276,-0.0259,0.865,-6.9,7.95,-0.05,31.29
20382,0.3282,-0.0232,0.8663,-6.82,8.0,-0.09,31.29
20392,0.3295,-0.0248,0.8616,-6.84,7.95,-0.06,31.27
20402,0.332,-0.025,0.864,-6.96,7.95,0.0,31.26
20412,0.329,-0.0256,0.8669,-6.82,8.02,-0.05,31.26
20422,0.3324,-0.0247,0.8622,-6.96,8.0,-0.12,31.28
20432,0.3317,-0.026,0.8632,-6.87,8.05,-0.12,31.28
20442,0.3312,-0.0259,0.8688,-6.9,8.05,-0.08,31.26
20452,0.3292,-0.0289,0.8644,-6.92,8.0,-0.06,31.29
20462,0.3367,-0.0277,0.8624,-6.85,7.95,-0.06,31.3
20472,0.3353,-0.0275,0.8641,-6.84,8.06,0.03,31.29
20482,0.3359,-0.0259,0.863,-6.84,8.03,0.08,31.29
20492,0.3303,-0.0227,0.8608,-6.85,7.95,-0.03,31.29
20502,0.3326,-0.0231,0.8619,-6.92,7.98,0.0,31.27
20512,0.3315,-0.0231,0.8641,-6.85,8.05,-0.03,31.28
20522,0.3291,-0.0276,0.8685,-6.84,8.0,-0.05,31.3
20532,0.3306,-0.0255,0.8624,-6.84,8.08,-0.02,31.29
20542,0.3301,-0.0275,0.8689,-6.82,8.03,-0.03,31.29
20552,0.329,-0.0287,0.864,-6.84,8.06,0.02,31.29
20562,0.3301,-0.0292,0.8651,-6.79,8.08,-0.02,31.29
20572,0.3281,-0.0258,0.8652,-6.79,7.97,0.03,31.3
20582,0.3271,-0.0247,0.8627,-6.75,7.97,-0.05,31.27
20592,0.3284,-0.0219,0.865,-6.79,7.98,-0.02,31.28
20602,0.3262,-0.0219,0.8646,-6.87,8.05,-0.05,31.28
20612,0.3271,-0.0237,0.8627,-6.84,7.91,-0.05,31.29
20622,0.3287,-0.0266,0.8607,-6.84,8.02,-0.05,31.28
20632,0.328,-0.0255,0.8628,-6.73,8.03,-0.08,31.28
20642,0.3336,-0.0254,0.8635,-6.85,8.0,-0.11,31.27
20652,0.3302,-0.0242,0.8645,-6.9,8.05,-0.12,31.3
20662,0.3318,-0.022,0.8643,-6.81,8.05,-0.15,31.27
20672,0.333,-0.0227,0.8639,-6.87,8.08,-0.12,31.28
20682,0.3302,-0.027,0.8673,-6.9,8.02,-0.15,31.25
20692,0.3306,-0.0259,0.8638,-6.89,7.95,-0.15,31.27
20702,0.3306,-0.0284,0.8649,-6.85,7.95,-0.02,31.28
20712,0.3325,-0.0243,0.864,-6.79,7.92,-0.05,31.29
20722,0.3331,-0.0262,0.8628,-6.82,8.02,-0.02,31.27
20732,0.3333,-0.0248,0.8646,-6.9,8.0,-0.06,31.29
20742,0.3341,-0.025,0.861,-6.85,8.0,0.02,31.29
20752,0.3317,-0.026,0.8672,-6.92,8.0,0.03,31.28
20762,0.3329,-0.0226,0.8662,-6.84,8.02,0.06,31.28
20772,0.3334,-0.0245,0.8706,-6.95,7.98,-0.11,31.27
20782,0.3307,-0.027,0.8615,-6.85,7.98,-0.08,31.28
20792,0.3297,-0.0267,0.8656,-6.89,8.02,-0.06,31.29
20802,0.3287,-0.0264,0.8665,-6.9,8.03,0.0,31.28
20812,0.3306,-0.028,0.8634,-6.87,8.02,0.02,31.26
20822,0.3302,-0.0227,0.8667,-6.9,8.03,0.03,31.27
20832,0.3293,-0.025,0.8663,-6.85,7.98,-0.02,31.28
20842,0.3282,-0.0253,0.8663,-6.89,7.92,-0.02,31.29
20852,0.3284,-0.0234,0.8663,-6.93,7.98,-0.02,31.27
20862,0.332,-0.0248,0.8666,-6.84,7.97,-0.06,31.28
20872,0.3318,-0.0222,0.864,-6.78,8.0,-0.06,31.29
20882,0.3281,-0.0242,0.8625,-6.89,8.05,-0.05,31.27
20892,0.3269,-0.026,0.8643,-6.9,8.03,-0.05,31.26
20902,0.3296,-0.0249,0.8669,-6.95,7.98,-0.03,31.27
20912,0.3312,-0.0269,0.8645,-6.93,7.95,-0.05,31.28
20922,0.3361,-0.0254,0.8677,-6.87,8.03,-0.02,31.29
20932,0.3322,-0.0261,0.8698,-6.89,7.97,-0.03,31.31
20942,0.3296,-0.0256,0.8623,-6.9,8.0,-0.02,31.28
20952,0.3319,-0.0239,0.8656,-6.87,7.95,-0.02,31.28
20962,0.3328,-0.0231,0.8652,-6.92,8.02,-0.02,31.29
20972,0.3312,-0.0281,0.8641,-6.82,7.98,-0.03,31.29
20982,0.3284,-0.0261,0.864,-6.93,8.03,-0.12,31.27
20992,0.3298,-0.0261,0.8654,-6.79,8.11,-0.05,31.27
21002,0.3308,-0.0238,0.8619,-6.92,8.02,-0.03,31.29
21012,0.3263,-0.0223,0.8647,-6.85,8.03,-0.03,31.3
21022,0.3286,-0.0247,0.8635,-6.87,7.95,-0.08,31.29
21032,0.3264,-0.0264,0.8661,-6.89,8.02,-0.03,31.28
21042,0.3308,-0.0258,0.866,-6.85,7.98,-0.02,31.3
21052,0.3324,-0.0272,0.8652,-6.87,7.94,-0.03,31.29
21062,0.3282,-0.0269,0.8672,-6.82,8.03,-0.03,31.27
21072,0.3324,-0.0266,0.8676,-6.84,7.95,-0.06,31.31
21082,0.3308,-0.0265,0.8669,-6.81,8.0,-0.05,31.29
21092,0.3295,-0.0248,0.8636,-6.87,8.06,0.0,31.29
21102,0.3284,-0.0242,0.8632,-6.85,7.94,0.0,31.26
21112,0.3274,-0.0277,0.871,-6.78,7.95,-0.02,31.28
21122,0.3297,-0.027,0.8663,-6.84,7.95,-0.08,31.29
21132,0.3293,-0.0248,0.866,-6.82,8.0,0.0,31.3
21142,0.3311,-0.0248,0.8684,-6.87,8.0,0.0,31.29
21152,0.3322,-0.0256,0.8673,-6.84,7.97,-0.05,31.28
21162,0.3344,-0.0294,0.8615,-6.87,8.0,-0.06,31.29
21172,0.332,-0.0256,0.8624,-6.84,8.08,0.05,31.28
21182,0.3297,-0.0256,0.8644,-6.9,7.94,-0.03,31.29
21192,0.3302,-0.0253,0.8636,-6.85,8.05,-0.09,31.3
21202,0.329,-0.0269,0.866,-6.87,7.97,-0.06,31.28
21212,0.33,-0.0223,0.8656,-6.81,8.05,-0.09,31.27
21222,0.3292,-0.0255,0.8646,-6.82,8.0,-0.02,31.28
21232,0.3285,-0.0238,0.8612,-6.95,7.98,-0.05,31.28
21242,0.3292,-0.0225,0.8658,-6.82,7.97,-0.06,31.27
21252,0.3265,-0.0237,0.8636,-6.82,7.89,-0.02,31.3
21262,0.3293,-0.0237,0.8602,-6.9,8.03,-0.02,31.28
21272,0.3259,-0.027,0.8591,-6.98,7.97,-0.09,31.29
21282,0.3295,-0.0227,0.8639,-6.85,7.97,-0.09,31.29
21292,0.328,-0.0264,0.8645,-6.87,8.02,-0.05,31.27
21302,0.3303,-0.0255,0.8662,-6.79,8.0,-0.03,31.29
21312,0.3291,-0.0266,0.8629,-6.89,7.98,-0.06,31.3
21323,0.3284,-0.0254,0.8671,-6.87,8.05,-0.05,31.29
21333,0.3336,-0.0258,0.8673,-6.92,8.05,-0.11,31.27
21343,0.3314,-0.0265,0.8671,-6.81,7.98,-0.05,31.27
21353,0.3275,-0.024,0.8676,-6.85,8.08,0.0,31.28
21363,0.3295,-0.026,0.8625,-6.82,8.02,-0.02,31.28
21373,0.332,-0.0225,0.8627,-6.79,7.97,-0.09,31.29
21383,0.3279,-0.0247,0.8612,-6.84,8.05,0.02,31.29
21393,0.3289,-0.0247,0.8656,-6.93,8.05,0.0,31.28
21403,0.3319,-0.0234,0.865,-6.79,8.02,0.0,31.28
21413,0.3315,-0.03,0.8661,-6.89,8.02,-0.05,31.28
21423,0.3329,-0.0281,0.8625,-6.9,7.98,-0.09,31.29
21433,0.3292,-0.0261,0.8632,-6.87,7.97,-0.03,31.31
21443,0.3289,-0.0264,0.8644,-6.95,8.02,-0.08,31.3
21453,0.3302,-0.0251,0.8654,-6.85,7.98,0.0,31.31
21463,0.3315,-0.024,0.8662,-6.92,7.95,-0.02,31.3
21473,0.33,-0.0249,0.8618,-6.92,7.95,-0.03,31.31
21483,0.3289,-0.0255,0.8625,-6.85,7.97,0.02,31.32
21493,0.3287,-0.0273,0.8652,-6.84,7.94,-0.06,31.3
21503,0.3289,-0.025,0.8639,-6.85,7.98,0.0,31.31
21513,0.3302,-0.0269,0.8619,-6.9,7.98,-0.02,31.33
21523,0.3292,-0.0278,0.8654,-6.89,8.09,-0.02,31.29
21534,0.3302,-0.0273,0.8671,-6.89,8.05,-0.06,31.28
21544,0.3295,-0.0265,0.8623,-6.85,8.0,-0.05,31.29
21554,0.3281,-0.0255,0.8671,-6.78,7.98,-0.02,31.3
21564,0.3314,-0.0244,0.8679,-6.72,8.0,-0.08,31.3
21574,0.3289,-0.0271,0.866,-6.84,8.05,-0.05,31.29
21584,0.3304,-0.0256,0.866,-6.87,7.94,-0.02,31.3
21594,0.3323,-0.026,0.8654,-6.93,7.92,-0.03,31.29
21604,0.3275,-0.0249,0.8666,-6.85,7.95,-0.06,31.31
21614,0.3295,-0.0233,0.8635,-6.85,8.05,-0.06,31.31
21625,0.3314,-0.0249,0.865,-6.84,7.98,0.02,31.29
21635,0.3346,-0.0232,0.8691,-6.9,7.97,-0.03,31.27
21645,0.3325,-0.0256,0.8629,-6.79,7.98,-0.02,31.28
21655,0.3284,-0.0265,0.8613,-6.85,7.94,-0.03,31.29
21665,0.3336,-0.0244,0.8628,-6.89,8.0,0.03,31.29
21675,0.3315,-0.0261,0.8677,-6.87,8.03,-0.11,31.27
21685,0.3282,-0.0264,0.8662,-6.92,7.98,-0.03,31.29
21695,0.3298,-0.025,0.8627,-6.95,7.98,0.02,31.32
21705,0.3351,-0.0266,0.8618,-6.87,8.02,-0.09,31.32
21715,0.3325,-0.0277,0.8617,-6.85,7.94,-0.08,31.32
21725,0.3331,-0.0267,0.8665,-6.87,8.0,-0.02,31.32
21735,0.3306,-0.0256,0.8643,-6.81,8.03,-0.15,31.3
21745,0.3311,-0.0247,0.864,-6.82,8.02,0.0,31.28
21755,0.3308,-0.0237,0.8651,-6.85,8.02,-0.03,31.31
21765,0.3309,-0.0244,0.868,-6.9,7.94,-0.03,31.28
21775,0.332,-0.0239,0.8599,-6.84,7.98,0.02,31.31
21785,0.3315,-0.026,0.8623,-6.84,7.97,-0.02,31.29
21795,0.3281,-0.0231,0.8623,-6.82,7.92,-0.06,31.31
21805,0.329,-0.0249,0.8618,-6.89,7.91,-0.03,31.31
21815,0.3292,-0.0266,0.8639,-6.85,8.03,-0.03,31.3
21825,0.3308,-0.0236,0.8647,-6.85,7.91,-0.02,31.3
21835,0.3295,-0.0245,0.8655,-6.87,7.94,-0.02,31.31
21845,0.3297,-0.0256,0.8644,-6.87,8.05,-0.03,31.31
21855,0.3301,-0.0258,0.8597,-6.84,8.03,-0.06,31.32
21865,0.3292,-0.0264,0.8667,-6.93,7.92,-0.03,31.3
21875,0.3285,-0.0253,0.8661,-6.96,8.0,-0.02,31.3
21885,0.3329,-0.0264,0.8583,-6.84,8.0,-0.11,31.31
21895,0.3304,-0.0248,0.864,-6.87,8.02,-0.03,31.31
21905,0.3306,-0.024,0.8655,-6.87,8.03,-0.02,31.32
21915,0.3298,-0.0233,0.8604,-6.84,8.0,0.0,31.3
21925,0.3286,-0.0236,0.8605,-6.84,7.95,-0.08,31.3
21935,0.3318,-0.0238,0.8662,-6.84,7.95,-0.03,31.31
21945,0.3315,-0.0231,0.8634,-6.82,7.92,0.0,31.3
21955,0.3291,-0.0254,0.865,-6.87,7.98,-0.08,31.29
21965,0.3308,-0.0256,0.8644,-6.78,7.98,-0.02,31.31
21975,0.3302,-0.0264,0.8612,-6.9,8.02,-0.08,31.3
21985,0.3274,-0.0269,0.8628,-6.93,7.95,-0.06,31.31
21995,0.33,-0.0259,0.8661,-6.81,7.97,-0.08,31.31
22005,0.3296,-0.0228,0.8684,-6.76,8.0,-0.02,31.31
22015,0.3275,-0.0267,0.8643,-6.82,8.03,0.0,31.31
22025,0.329,-0.0234,0.871,-6.9,8.02,-0.02,31.3
22035,0.3329,-0.0223,0.8672,-6.82,7.98,-0.06,31.31
22045,0.3309,-0.0249,0.8632,-6.95,7.92,-0.11,31.31
22055,0.3296,-0.0245,0.8611,-6.89,8.05,-0.09,31.32
22065,0.3302,-0.027,0.8633,-6.76,8.0,-0.03,31.33
22075,0.3333,-0.0273,0.8656,-6.79,8.05,0.0,31.32
22086,0.3315,-0.0242,0.8654,-6.81,7.95,0.03,31.31
22096,0.3318,-0.0254,0.8661,-6.89,8.0,0.0,31.31
22106,0.3297,-0.0262,0.8668,-6.89,8.03,-0.03,31.32
22116,0.3298,-0.0248,0.869,-6.89,7.97,-0.05,31.3
22126,0.3336,-0.025,0.8663,-6.87,8.12,0.08,31.29
22137,0.3328,-0.0264,0.8668,-6.84,8.02,-0.02,31.32
22147,0.3309,-0.0275,0.863,-6.82,7.97,0.0,31.31
22157,0.3278,-0.0259,0.8643,-6.85,7.95,-0.02,31.3
22167,0.3279,-0.0232,0.8635,-6.9,8.08,-0.02,31.28
22180,0.3291,-0.0271,0.8607,-6.85,7.98,-0.03,31.33
22190,0.3303,-0.0232,0.8661,-6.76,7.95,-0.08,31.34
22200,0.332,-0.0205,0.8651,-6.87,8.03,0.0,31.32
22210,0.3334,-0.0243,0.8679,-6.79,7.97,0.0,31.32
22222,0.33,-0.0236,0.8679,-6.9,7.95,-0.06,31.32
22232,0.3304,-0.0269,0.8623,-6.79,7.97,-0.02,31.31
22242,0.328,-0.03,0.866,-6.84,8.02,-0.11,31.3
22252,0.3313,-0.031,0.8623,-6.85,7.95,-0.09,31.29
22262,0.3314,-0.0278,0.8688,-6.87,7.97,-0.08,31.29
22272,0.3284,-0.0258,0.8657,-6.87,7.94,-0.14,31.31
22282,0.3323,-0.0243,0.8663,-6.87,8.0,-0.09,31.31
22292,0.3307,-0.0248,0.8673,-6.89,8.02,-0.02,31.32
22302,0.332,-0.0239,0.8661,-6.89,7.97,-0.05,31.3
22312,0.3289,-0.0261,0.859,-6.93,7.95,-0.05,31.34
22322,0.3295,-0.0255,0.8673,-6.87,8.0,-0.09,31.31
22332,0.3295,-0.0258,0.8602,-6.89,8.0,-0.06,31.32
22343,0.3405,-0.0281,0.8552,-6.85,7.97,0.03,31.3
22353,0.3334,-0.0199,0.8639,-6.84,8.29,-0.02,31.32
22363,0.3376,-0.0297,0.859,-6.93,7.95,-0.05,31.29
22373,0.3314,-0.0349,0.8615,-6.81,7.92,0.02,31.32
22383,0.3352,-0.0336,0.8771,-6.82,7.83,-0.09,31.3
22393,0.3292,-0.0238,0.8809,-6.85,8.08,0.05,31.32
22403,0.3267,-0.0238,0.8755,-6.89,8.02,-0.02,31.32
22413,0.3301,-0.0286,0.8661,-6.92,7.98,-0.05,31.32
22423,0.3309,-0.0322,0.8696,-6.92,8.08,0.0,31.32
22433,0.3301,-0.0305,0.8654,-6.75,8.11,-0.08,31.32
22443,0.3224,-0.0265,0.8607,-6.82,8.18,-0.02,31.3
22453,0.3262,-0.0223,0.8506,-6.84,8.09,0.0,31.31
22463,0.3243,-0.0259,0.8545,-6.92,8.0,-0.06,31.33
22473,0.3274,-0.0222,0.859,-6.89,7.86,-0.11,31.32
22483,0.3296,-0.0219,0.8662,-6.98,7.92,-0.06,31.31
22493,0.3325,-0.0212,0.8693,-6.84,7.97,-0.11,31.31
22503,0.3335,-0.0261,0.8684,-6.96,7.98,-0.05,31.31
22513,0.335,-0.0282,0.8649,-6.92,7.97,-0.02,31.32
22523,0.3312,-0.0273,0.8724,-6.87,7.95,-0.09,31.31
22533,0.3368,-0.0255,0.8696,-6.79,7.98,-0.06,31.32
22544,0.3365,-0.0259,0.869,-6.82,8.05,-0.02,31.34
22554,0.3341,-0.0234,0.869,-6.82,8.05,-0.03,31.31
22564,0.3328,-0.0242,0.8669,-6.87,8.11,0.02,31.32
22574,0.3289,-0.0216,0.8652,-6.82,8.05,0.0,31.29
22584,0.325,-0.0221,0.864,-6.92,8.06,-0.05,31.28
22594,0.328,-0.0255,0.8628,-6.96,8.0,-0.02,31.32
22604,0.3276,-0.0292,0.8604,-6.92,8.0,-0.08,31.3
22614,0.3274,-0.0256,0.8585,-6.89,7.97,-0.02,31.32
22624,0.3287,-0.0245,0.8606,-6.82,7.98,0.0,31.32
22634,0.3276,-0.0298,0.8646,-6.89,8.0,-0.05,31.29
22644,0.3303,-0.0259,0.8649,-6.96,7.97,-0.08,31.3
22654,0.3297,-0.0256,0.8652,-6.9,7.94,-0.11,31.33
22664,0.3279,-0.0245,0.8707,-6.87,7.98,-0.06,31.33
22674,0.3304,-0.0258,0.8632,-6.9,7.97,-0.03,31.34
22684,0.3336,-0.0261,0.864,-6.89,7.95,-0.06,31.33
22694,0.3315,-0.0233,0.8638,-6.87,8.02,-0.03,31.33
22704,0.3325,-0.0265,0.865,-6.9,8.05,-0.02,31.31
22714,0.3271,-0.0157,0.8713,-6.95,8.11,-0.06,31.32
22724,0.3265,-0.0217,0.8652,-6.78,8.21,-0.11,31.31
22734,0.3275,-0.0236,0.8605,-6.95,8.0,-0.11,31.34
22744,0.3289,-0.0286,0.8613,-6.76,8.03,-0.09,31.32
22754,0.3329,-0.0248,0.8644,-6.81,7.97,-0.08,31.32
22764,0.3309,-0.0248,0.8682,-6.82,7.98,-0.09,31.33
22774,0.3348,-0.025,0.8663,-6.85,8.02,-0.11,31.32
22784,0.3313,-0.0225,0.866,-6.78,8.03,-0.02,31.31
22794,0.3296,-0.0282,0.8688,-6.84,7.95,0.0,31.31
22804,0.3324,-0.0295,0.8674,-6.89,8.0,-0.06,31.31
22814,0.3322,-0.025,0.8682,-6.81,7.98,-0.05,31.31
22824,0.3337,-0.0259,0.8644,-6.85,8.03,0.06,31.31
22834,0.3314,-0.022,0.8624,-6.85,8.03,-0.09,31.31
22844,0.3297,-0.0237,0.8607,-6.85,8.02,0.0,31.32
22854,0.3275,-0.0261,0.8613,-6.93,7.92,0.05,31.31
22864,0.3301,-0.0253,0.8679,-6.82,8.0,-0.02,31.31
22874,0.3297,-0.0281,0.8669,-6.87,8.02,-0.06,31.32
22884,0.3284,-0.0247,0.8673,-6.81,7.97,0.0,31.3
22894,0.3295,-0.0253,0.865,-6.87,8.06,0.0,31.33
22904,0.3304,-0.0275,0.8619,-6.84,8.02,0.03,31.27
22914,0.33,-0.0249,0.8632,-6.84,7.97,-0.02,31.29
22924,0.3296,-0.0255,0.8636,-6.87,7.97,-0.06,31.31
22934,0.33,-0.0262,0.8629,-6.89,8.05,-0.06,31.31
22944,0.3308,-0.0244,0.8651,-6.89,7.98,-0.08,31.33
22954,0.3273,-0.0249,0.8641,-6.87,7.98,-0.06,31.31
22964,0.3303,-0.0276,0.8655,-6.82,7.95,-0.05,31.32
22974,0.3284,-0.0247,0.8602,-6.9,7.97,-0.05,31.3
22984,0.3318,-0.0242,0.8646,-6.84,8.0,-0.09,31.34
22994,0.3303,-0.0281,0.8652,-6.84,7.92,-0.05,31.32
23004,0.3301,-0.0247,0.8613,-6.87,8.0,-0.09,31.31
23014,0.3285,-0.0261,0.8668,-6.82,7.97,-0.08,31.32
23024,0.3296,-0.0231,0.8666,-6.87,8.08,-0.11,31.34
23034,0.3306,-0.0217,0.8643,-6.89,7.94,-0.06,31.32
23044,0.3308,-0.0229,0.8672,-6.87,7.94,-0.12,31.32
23054,0.3326,-0.0238,0.8662,-6.98,7.91,-0.17,31.33
23064,0.3313,-0.0259,0.864,-6.96,8.02,-0.06,31.32
23074,0.3295,-0.0249,0.8641,-6.85,7.98,-0.09,31.3
23084,0.3309,-0.0271,0.8683,-6.87,8.0,-0.09,31.31
23094,0.3279,-0.0249,0.8685,-6.84,8.05,-0.02,31.29
23104,0.3311,-0.0256,0.8615,-6.9,8.02,-0.06,31.32
23114,0.3268,-0.0275,0.8663,-6.87,8.02,-0.09,31.31
23124,0.33,-0.0239,0.8641,-6.84,7.98,-0.09,31.31
23134,0.3284,-0.0247,0.8674,-6.87,7.97,-0.06,31.31
23144,0.3309,-0.0276,0.8651,-6.89,7.97,0.0,31.31
23155,0.3267,-0.0249,0.8694,-6.93,8.02,0.05,31.32
23165,0.3317,-0.0267,0.8662,-6.82,7.95,-0.03,31.31
23175,0.3326,-0.025,0.8633,-6.9,8.0,0.02,31.32
23185,0.3312,-0.025,0.8712,-6.85,7.95,0.03,31.33
23195,0.3318,-0.0244,0.8618,-6.9,7.92,-0.08,31.33
23205,0.3318,-0.0237,0.8624,-6.87,8.02,-0.09,31.29
23215,0.3298,-0.0237,0.8605,-6.93,7.97,-0.06,31.32
23225,0.3291,-0.022,0.8663,-6.89,8.0,-0.09,31.31
23235,0.3282,-0.0251,0.8645,-6.82,8.03,0.0,31.32
23245,0.3285,-0.0255,0.8633,-6.84,8.02,-0.05,31.32
23255,0.329,-0.0228,0.8643,-6.89,8.02,-0.05,31.33
23265,0.3297,-0.0226,0.8685,-6.87,7.97,-0.06,31.35
23275,0.3311,-0.0256,0.8683,-6.75,7.92,0.05,31.32
23285,0.3286,-0.0266,0.8655,-6.79,8.0,-0.09,31.31
23295,0.33,-0.0305,0.8662,-6.78,8.02,-0.08,31.31
23305,0.3317,-0.0273,0.8654,-6.76,8.0,-0.02,31.31
23315,0.3275,-0.0249,0.8632,-6.82,7.97,-0.08,31.32
23325,0.3309,-0.0238,0.8678,-6.81,8.08,-0.05,31.3
23335,0.3296,-0.0292,0.8645,-6.85,8.0,-0.05,31.31
23345,0.3336,-0.0256,0.8646,-6.85,8.0,-0.06,31.32
23355,0.3341,-0.0256,0.8619,-6.82,8.05,-0.06,31.31
23365,0.3326,-0.0253,0.8619,-6.99,8.03,-0.03,31.32
23375,0.3339,-0.0245,0.8641,-6.84,8.09,0.02,31.32
23385,0.3308,-0.0249,0.866,-6.95,8.05,-0.05,31.32
23395,0.3291,-0.025,0.8668,-6.87,8.02,0.0,31.32
23405,0.33,-0.0255,0.866,-6.81,7.97,-0.11,31.32
23415,0.3292,-0.0251,0.8625,-6.82,8.02,0.02,31.32
23425,0.3292,-0.0284,0.8619,-6.79,8.05,-0.05,31.32
23435,0.328,-0.0238,0.8671,-6.84,8.06,0.0,31.33
23445,0.3281,-0.0245,0.8633,-6.79,7.98,-0.06,31.33
23455,0.3285,-0.0258,0.8618,-6.81,7.94,-0.05,31.32
23466,0.3279,-0.0269,0.8646,-6.81,7.97,-0.09,31.34
23476,0.3308,-0.0264,0.8622,-6.87,7.97,-0.03,31.32
23486,0.3304,-0.0281,0.8671,-6.87,8.0,-0.08,31.34
23496,0.3301,-0.0273,0.8646,-6.85,7.98,-0.08,31.3
23506,0.3314,-0.0248,0.8604,-6.95,8.05,-0.09,31.29
23516,0.3313,-0.0242,0.8645,-6.92,8.0,-0.02,31.32
23526,0.3315,-0.0237,0.8677,-6.82,8.08,-0.02,31.33
23536,0.3298,-0.0251,0.8682,-6.84,8.03,-0.03,31.32
23546,0.3295,-0.0249,0.871,-6.92,8.08,-0.08,31.34
23556,0.3314,-0.027,0.8647,-6.81,8.0,-0.09,31.33
23566,0.3303,-0.0253,0.8657,-6.84,8.0,-0.09,31.31
23576,0.329,-0.0272,0.8638,-6.87,8.03,-0.05,31.33
23586,0.3295,-0.0255,0.8622,-6.82,8.0,-0.05,31.33
23596,0.3286,-0.0236,0.8663,-6.79,7.97,-0.11,31.31
23606,0.3292,-0.0236,0.8647,-6.9,7.94,-0.05,31.32
23616,0.3315,-0.0251,0.8643,-6.89,7.95,-0.09,31.31
23626,0.329,-0.0228,0.8678,-6.98,8.05,-0.06,31.34
23636,0.3298,-0.0244,0.8707,-6.82,8.0,0.05,31.34
23646,0.3304,-0.0249,0.8604,-6.89,8.03,-0.09,31.33
23656,0.3291,-0.0266,0.8661,-6.84,8.03,0.0,31.32
23666,0.3298,-0.0245,0.8658,-6.92,7.98,-0.03,31.32
23676,0.3329,-0.0253,0.8674,-6.85,7.98,-0.08,31.31
23686,0.3328,-0.0271,0.8663,-6.89,8.0,-0.06,31.31
23696,0.3306,-0.0266,0.8667,-6.81,8.05,-0.06,31.31
23706,0.3307,-0.0261,0.8645,-6.79,7.98,-0.02,31.33
23716,0.3286,-0.0261,0.865,-6.84,8.03,-0.03,31.27
23726,0.3348,-0.0259,0.863,-6.87,7.98,0.02,31.32
23736,0.3298,-0.0267,0.8662,-6.9,7.98,-0.05,31.33
23746,0.3293,-0.0256,0.8711,-6.93,8.02,-0.09,31.32
23756,0.3298,-0.0259,0.8706,-6.81,8.03,-0.08,31.32
23766,0.3311,-0.0248,0.8647,-6.87,7.98,-0.03,31.32
23776,0.3318,-0.0237,0.8646,-6.87,7.95,-0.06,31.34
23786,0.3326,-0.0276,0.8634,-7.02,7.98,-0.02,31.34
23796,0.3286,-0.0234,0.863,-6.89,7.98,0.02,31.36
23806,0.3309,-0.0282,0.8616,-6.85,8.03,0.02,31.35
23816,0.33,-0.0271,0.8644,-6.9,8.05,0.03,31.32
23826,0.3289,-0.0242,0.8644,-6.78,8.05,0.02,31.31
23836,0.3303,-0.0256,0.8695,-6.82,7.98,-0.02,31.31
23846,0.3344,-0.0236,0.869,-6.89,7.98,0.02,31.32
23856,0.3326,-0.0259,0.8667,-6.89,7.98,-0.02,31.31
23867,0.3285,-0.0278,0.8655,-6.98,7.91,-0.03,31.34
23880,0.3313,-0.0262,0.8646,-6.9,7.94,-0.05,31.32
23890,0.3302,-0.0233,0.8618,-6.89,7.92,-0.06,31.38
23901,0.3292,-0.0258,0.863,-6.92,8.03,-0.09,31.33
23911,0.3291,-0.0239,0.8622,-6.85,7.95,0.0,31.34
23921,0.3307,-0.0283,0.8643,-6.89,8.05,-0.05,31.32
23931,0.3312,-0.0247,0.8625,-6.87,7.98,-0.14,31.33
23941,0.332,-0.0254,0.8596,-6.89,7.97,-0.06,31.34
23951,0.3298,-0.0253,0.8656,-6.87,7.91,0.05,31.34
23961,0.3263,-0.0265,0.8651,-6.82,8.0,0.08,31.36
23971,0.3285,-0.0271,0.8645,-6.81,7.92,-0.05,31.34
23982,0.3292,-0.0255,0.8634,-6.87,7.97,-0.05,31.34
23992,0.3309,-0.0245,0.8683,-6.82,7.97,-0.06,31.33
24002,0.3333,-0.0234,0.8641,-6.82,8.03,-0.02,31.33
24012,0.3309,-0.0255,0.8643,-6.89,8.0,-0.05,31.35
24022,0.3286,-0.0281,0.8669,-6.84,7.92,0.0,31.31
24032,0.3295,-0.0232,0.8632,-6.84,7.98,-0.09,31.32
24042,0.3303,-0.0251,0.8649,-6.89,8.02,-0.03,31.34
24052,0.3297,-0.0255,0.8655,-6.82,8.03,-0.03,31.35
24062,0.3301,-0.026,0.8656,-6.78,8.05,-0.02,31.37
24072,0.3311,-0.026,0.8635,-6.85,7.95,0.02,31.36
24082,0.3319,-0.0254,0.8672,-6.84,7.98,-0.06,31.32
24092,0.3291,-0.0225,0.8635,-6.85,7.97,-0.08,31.34
24102,0.3293,-0.0259,0.8641,-6.87,8.0,-0.03,31.31
24112,0.3298,-0.0234,0.8655,-6.89,8.0,-0.03,31.33
24122,0.3319,-0.0281,0.8674,-6.9,8.06,-0.02,31.34
24132,0.3301,-0.0226,0.8639,-6.87,7.97,-0.11,31.32
24142,0.329,-0.028,0.8611,-6.89,7.95,-0.05,31.35
24152,0.3273,-0.0284,0.8644,-6.81,7.94,0.03,31.34
24162,0.3293,-0.0243,0.8671,-6.87,7.95,-0.05,31.34
24172,0.3319,-0.024,0.8662,-6.92,7.95,-0.05,31.34
24182,0.3303,-0.0264,0.8643,-6.87,8.03,-0.06,31.32
24192,0.3302,-0.0266,0.8636,-6.87,8.0,-0.14,31.32
24202,0.3293,-0.0287,0.8655,-6.9,8.03,-0.06,31.32
24212,0.3278,-0.0273,0.863,-6.84,7.98,-0.03,31.31
24222,0.3308,-0.0262,0.8623,-6.85,7.97,0.02,31.32
24232,0.3309,-0.0256,0.8641,-6.89,7.97,-0.03,31.33
24242,0.3304,-0.0244,0.8665,-6.9,7.91,0.03,31.33
24252,0.3295,-0.0254,0.8652,-6.9,8.02,0.02,31.3
24262,0.3306,-0.0255,0.8625,-6.87,7.95,-0.06,31.33
24272,0.3301,-0.0242,0.8645,-6.84,8.02,-0.06,31.34
24282,0.3313,-0.0237,0.8654,-6.92,7.95,-0.05,31.33
24358,0.3307,-0.0258,0.8604,-6.85,7.97,-0.06,31.34
24368,0.3303,-0.0249,0.8632,-6.85,7.97,-0.05,31.34
24379,0.3286,-0.0262,0.8666,-6.82,8.02,-0.02,31.36
24389,0.3292,-0.0259,0.8615,-6.85,8.0,-0.14,31.34
24400,0.3308,-0.0236,0.8655,-6.84,8.03,-0.05,31.32
24410,0.3293,-0.0236,0.87,-6.82,7.97,-0.02,31.36
24420,0.3286,-0.024,0.8667,-6.84,7.91,0.0,31.33
24430,0.3308,-0.021,0.8645,-6.89,7.92,-0.09,31.34
24441,0.3331,-0.0264,0.8643,-6.89,8.03,-0.08,31.35
24451,0.3295,-0.0243,0.8597,-6.9,8.02,-0.09,31.34
24461,0.3295,-0.0249,0.8634,-6.93,8.03,-0.05,31.35
24471,0.329,-0.0258,0.8629,-6.78,8.06,0.0,31.34
24481,0.3298,-0.025,0.8684,-6.79,8.02,-0.05,31.36
24491,0.3301,-0.0261,0.8672,-6.82,7.92,-0.03,31.32
24501,0.3328,-0.0259,0.8667,-6.95,7.98,-0.06,31.34
24511,0.3301,-0.0271,0.8679,-6.92,8.03,-0.15,31.34
24521,0.3306,-0.0255,0.8672,-6.85,8.0,-0.02,31.35
24531,0.328,-0.0248,0.8639,-6.87,7.97,-0.05,31.33
24541,0.3302,-0.0275,0.864,-6.84,8.05,-0.06,31.35
24551,0.3303,-0.0264,0.8649,-6.95,8.06,-0.05,31.35
24561,0.3304,-0.0228,0.864,-6.89,7.98,0.0,31.33
24571,0.3298,-0.0251,0.8638,-6.89,7.97,-0.03,31.36
24581,0.3315,-0.0226,0.8673,-6.85,8.02,-0.12,31.34
24591,0.3329,-0.0233,0.8652,-6.92,8.03,-0.08,31.34
24601,0.3339,-0.0237,0.8638,-6.87,7.97,-0.05,31.36
24611,0.3354,-0.0221,0.8623,-6.89,8.0,0.02,31.36
24621,0.3308,-0.024,0.866,-6.85,7.97,0.02,31.36
24631,0.3295,-0.0266,0.8657,-6.82,8.03,-0.06,31.34
24641,0.3289,-0.0231,0.8669,-6.81,8.02,-0.14,31.36
24651,0.3323,-0.0256,0.8662,-6.87,7.98,-0.12,31.34
24661,0.3326,-0.025,0.8645,-6.85,7.94,-0.02,31.33
24671,0.3303,-0.0258,0.8635,-6.82,7.98,0.02,31.34
24681,0.3336,-0.028,0.8638,-6.79,7.98,-0.06,31.35
24691,0.3296,-0.0253,0.8669,-6.87,7.95,0.05,31.34
24702,0.3279,-0.0247,0.8645,-6.92,8.0,-0.09,31.36
24712,0.3313,-0.0261,0.866,-6.84,8.0,-0.05,31.35
24722,0.33,-0.0256,0.8607,-6.84,8.05,-0.05,31.37
24732,0.3289,-0.0211,0.8616,-6.82,8.05,-0.02,31.35
24742,0.3291,-0.0258,0.8677,-6.89,8.06,-0.02,31.32
24752,0.3301,-0.0262,0.8624,-6.81,8.02,-0.06,31.34
24762,0.3302,-0.0245,0.8643,-6.89,7.98,-0.03,31.34
24772,0.3284,-0.0228,0.8674,-6.89,7.97,0.02,31.36
24782,0.3317,-0.0293,0.8638,-6.95,7.97,-0.05,31.35
24792,0.332,-0.0248,0.8654,-6.89,7.94,0.0,31.35
24803,0.3315,-0.0258,0.8645,-6.78,7.98,0.02,31.36
24813,0.33,-0.0258,0.8654,-6.85,8.02,-0.03,31.34
24823,0.3315,-0.0242,0.8622,-6.82,7.98,-0.09,31.34
24833,0.3312,-0.025,0.8657,-6.82,8.05,-0.09,31.34
24843,0.3291,-0.0249,0.8667,-6.87,7.97,-0.14,31.34
24853,0.3303,-0.0251,0.8647,-6.87,7.98,-0.08,31.36
24863,0.3297,-0.0245,0.8669,-6.87,7.98,-0.02,31.37
24873,0.329,-0.0267,0.8617,-6.87,7.95,-0.03,31.36
24883,0.3295,-0.0261,0.8612,-6.92,8.02,-0.02,31.38
24893,0.3292,-0.0251,0.8645,-6.85,7.95,0.03,31.34
24903,0.3306,-0.0262,0.8676,-6.85,8.06,-0.08,31.34
24913,0.3281,-0.0258,0.87,-6.81,7.97,-0.02,31.37
24923,0.326,-0.0251,0.8682,-6.84,7.98,-0.05,31.36
24933,0.3297,-0.0251,0.8656,-6.84,7.98,-0.02,31.34
24943,0.3319,-0.0261,0.8672,-6.93,7.98,-0.03,31.34
24953,0.3312,-0.027,0.8689,-6.9,8.05,-0.08,31.34
24963,0.3308,-0.0247,0.8689,-6.84,8.02,-0.03,31.34
24973,0.332,-0.026,0.8671,-6.82,8.03,-0.08,31.34
24983,0.3312,-0.026,0.8623,-6.81,7.95,-0.11,31.34
24993,0.3315,-0.0243,0.8639,-6.85,7.97,-0.09,31.34
25003,0.3296,-0.0271,0.8666,-6.89,7.92,-0.11,31.35
25013,0.3313,-0.0248,0.8613,-6.85,7.97,-0.02,31.34
25023,0.3282,-0.0277,0.8654,-6.89,8.05,-0.14,31.34
25033,0.3282,-0.0251,0.8645,-6.85,7.98,-0.12,31.34
25043,0.3335,-0.0243,0.863,-6.89,7.98,-0.03,31.35
25053,0.3286,-0.0255,0.8635,-6.84,8.03,-0.05,31.34
25063,0.3307,-0.027,0.8632,-6.89,8.03,-0.05,31.35
25073,0.329,-0.0254,0.8645,-6.98,7.98,-0.02,31.35
25083,0.3314,-0.0242,0.865,-6.85,7.92,-0.03,31.36
25093,0.3313,-0.0245,0.863,-6.84,7.98,-0.06,31.33
25103,0.3315,-0.0242,0.8649,-6.87,7.95,-0.06,31.37
25113,0.3298,-0.0255,0.8627,-6.89,7.95,-0.06,31.35
25123,0.3282,-0.025,0.8651,-6.92,7.97,-0.02,31.33
25133,0.3322,-0.025,0.8652,-6.89,7.95,-0.05,31.35
25143,0.3311,-0.0267,0.8669,-6.92,8.0,-0.06,31.37
25153,0.3284,-0.0248,0.8615,-6.89,7.95,-0.09,31.36
25163,0.3281,-0.0232,0.8589,-6.92,8.02,-0.08,31.37
25173,0.33,-0.0234,0.864,-6.92,8.02,-0.03,31.34
25183,0.3301,-0.0244,0.8636,-6.82,8.05,-0.12,31.33
25193,0.3296,-0.0249,0.8685,-6.84,8.06,-0.09,31.37
25203,0.3286,-0.0255,0.8624,-6.84,8.03,-0.09,31.34
25213,0.3286,-0.0266,0.8654,-6.85,7.95,-0.15,31.35
25223,0.3324,-0.0261,0.8666,-6.79,7.94,-0.08,31.36
25233,0.3287,-0.0255,0.8658,-6.82,7.92,-0.03,31.35
25243,0.33,-0.0256,0.8623,-6.93,7.94,-0.02,31.35
25253,0.33,-0.0267,0.8695,-6.93,7.97,-0.06,31.34
25263,0.3311,-0.0262,0.8671,-6.85,8.08,-0.08,31.34
25273,0.3324,-0.0266,0.8651,-6.89,7.95,-0.11,31.35
25283,0.3308,-0.0255,0.8662,-6.89,8.02,-0.02,31.34
25293,0.333,-0.026,0.8634,-6.92,7.91,-0.02,31.35
25303,0.3286,-0.024,0.8627,-6.82,7.92,-0.03,31.37
25313,0.3284,-0.0251,0.8617,-6.84,8.0,-0.08,31.34
25323,0.3318,-0.0247,0.866,-6.82,7.92,-0.02,31.37
25333,0.3309,-0.0249,0.8674,-6.95,7.95,0.0,31.37
25343,0.332,-0.0253,0.8627,-6.89,8.0,-0.15,31.34
25353,0.3315,-0.0256,0.8652,-6.96,8.0,-0.03,31.35
25363,0.3269,-0.0251,0.8658,-6.85,7.98,-0.06,31.35
25373,0.3281,-0.026,0.8666,-6.85,8.0,-0.03,31.36
25383,0.3271,-0.026,0.8608,-6.81,7.94,-0.09,31.34
25393,0.3323,-0.0239,0.8683,-6.85,8.03,-0.02,31.35
25403,0.3301,-0.0245,0.8628,-6.9,8.0,-0.03,31.34
25413,0.3307,-0.0233,0.8635,-6.81,7.95,-0.12,31.34
25423,0.3273,-0.0272,0.8645,-6.92,8.02,-0.05,31.34
25433,0.329,-0.0273,0.865,-6.93,8.05,-0.11,31.36
25443,0.3311,-0.0251,0.8619,-6.84,7.95,-0.03,31.35
25453,0.3292,-0.0281,0.865,-6.89,8.02,-0.06,31.33
25463,0.3312,-0.0275,0.8645,-6.82,7.97,-0.08,31.35
25473,0.3335,-0.025,0.8655,-6.93,7.98,-0.09,31.35
25483,0.3293,-0.0258,0.8639,-6.9,8.06,-0.11,31.35
25493,0.3292,-0.0264,0.8655,-6.93,8.08,-0.02,31.35
25504,0.3306,-0.0234,0.8667,-6.84,7.95,-0.03,31.36
25515,0.3314,-0.0253,0.8641,-6.87,8.03,0.0,31.36
25525,0.3322,-0.0251,0.865,-6.89,8.05,-0.02,31.34
25535,0.3279,-0.0219,0.8667,-6.92,8.0,-0.02,31.35
25545,0.329,-0.0262,0.8668,-6.89,7.98,-0.08,31.35
25555,0.3313,-0.027,0.8627,-6.81,8.03,-0.08,31.36
25565,0.3308,-0.0253,0.8646,-6.87,8.03,-0.09,31.36
25575,0.3323,-0.0265,0.8656,-6.96,8.08,-0.09,31.35
25585,0.3314,-0.0259,0.8647,-6.87,8.03,0.0,31.37
25595,0.328,-0.0276,0.8639,-6.9,8.0,-0.08,31.38
25605,0.3292,-0.0282,0.8665,-6.82,8.02,-0.03,31.34
25615,0.3292,-0.0254,0.8646,-6.78,8.0,-0.03,31.35
25625,0.328,-0.0259,0.8673,-6.92,7.95,0.0,31.36
25635,0.3322,-0.0233,0.8669,-6.89,7.94,-0.05,31.36
25645,0.334,-0.0254,0.8613,-6.87,7.97,-0.08,31.36
25655,0.3301,-0.0253,0.8656,-6.81,8.03,-0.06,31.36
25665,0.3324,-0.0242,0.8649,-6.92,7.97,-0.09,31.36
25675,0.3287,-0.0219,0.8634,-6.84,8.03,-0.05,31.36
25685,0.3303,-0.0242,0.8605,-6.81,7.95,0.0,31.35
25695,0.3282,-0.0244,0.8667,-6.85,7.95,-0.06,31.34
25705,0.3287,-0.0249,0.865,-6.89,7.92,-0.02,31.39
25715,0.3318,-0.0255,0.8676,-6.87,7.98,-0.02,31.37
25725,0.33,-0.0256,0.865,-6.85,8.0,-0.02,31.35
25735,0.3306,-0.0262,0.8633,-6.81,7.94,-0.03,31.34
25745,0.3292,-0.025,0.8649,-6.87,7.97,-0.15,31.37
25755,0.3304,-0.0249,0.8654,-6.84,8.0,-0.09,31.34
25765,0.3287,-0.0272,0.8667,-6.82,8.05,-0.06,31.35
25775,0.3302,-0.0275,0.8704,-6.76,8.0,-0.05,31.34
25785,0.3319,-0.025,0.8657,-6.9,8.05,-0.05,31.35
25795,0.3274,-0.0251,0.8655,-6.87,7.98,-0.06,31.37
25805,0.3301,-0.0239,0.8624,-6.81,8.03,-0.03,31.35
25815,0.3308,-0.025,0.8645,-6.87,8.02,-0.11,31.35
25825,0.3308,-0.0234,0.8658,-6.84,7.91,0.0,31.36
25836,0.3318,-0.0248,0.8632,-6.84,8.0,-0.11,31.36
25846,0.3309,-0.0236,0.8634,-6.87,7.97,0.02,31.36
25856,0.332,-0.0256,0.8677,-6.99,8.03,-0.02,31.34
25866,0.3322,-0.0262,0.8676,-6.9,8.03,-0.08,31.34
25876,0.3291,-0.0249,0.8661,-6.78,7.94,-0.06,31.36
25886,0.3298,-0.0255,0.8683,-6.92,8.02,-0.05,31.37
25896,0.3312,-0.027,0.865,-6.87,7.95,0.02,31.36
25906,0.3297,-0.0253,0.8644,-6.84,8.0,-0.11,31.37
25916,0.3308,-0.0253,0.8667,-6.87,7.95,-0.11,31.36
25926,0.33,-0.0238,0.8643,-6.92,8.02,-0.08,31.36
25936,0.3323,-0.0251,0.8646,-6.95,8.05,0.03,31.37
25946,0.3304,-0.0219,0.8655,-6.9,7.98,-0.12,31.37
25956,0.3281,-0.0243,0.8657,-6.92,8.03,-0.09,31.34
25966,0.3309,-0.0277,0.8644,-6.9,8.0,0.0,31.35
25976,0.327,-0.0244,0.8655,-6.82,8.0,-0.08,31.37
25986,0.332,-0.0254,0.8665,-6.85,8.02,-0.12,31.36
25996,0.3303,-0.0232,0.8676,-6.9,8.03,-0.06,31.35
26006,0.3307,-0.0229,0.8632,-6.85,7.98,-0.06,31.37
26016,0.3295,-0.0229,0.8671,-6.79,8.0,-0.02,31.35
26026,0.3287,-0.0256,0.8636,-6.78,7.94,-0.03,31.38
26036,0.3295,-0.025,0.8652,-6.89,8.02,-0.03,31.36
26046,0.3301,-0.0226,0.8594,-6.79,8.02,-0.08,31.35
26056,0.3285,-0.0244,0.8629,-6.9,8.0,-0.03,31.35
26066,0.3293,-0.0269,0.8707,-6.84,8.0,-0.03,31.37
26076,0.33,-0.0239,0.8649,-6.81,8.05,-0.08,31.35
26086,0.3322,-0.0259,0.8594,-6.9,7.98,-0.08,31.35
26096,0.3291,-0.0266,0.8658,-6.96,8.02,0.02,31.36
26106,0.3309,-0.0275,0.8702,-6.9,7.97,-0.06,31.36
26116,0.3344,-0.027,0.8651,-6.84,8.0,-0.14,31.35
26126,0.3337,-0.0258,0.8678,-6.81,8.05,0.03,31.37
26136,0.3326,-0.025,0.8651,-6.89,7.98,0.0,31.37
26146,0.3319,-0.0216,0.8676,-6.85,7.94,-0.02,31.39
26156,0.33,-0.0229,0.863,-6.9,7.95,-0.18,31.37
26166,0.3324,-0.0239,0.8652,-6.81,7.98,-0.08,31.36
26176,0.3291,-0.0249,0.8672,-6.85,7.95,-0.03,31.36
26186,0.33,-0.0253,0.8667,-6.85,8.02,-0.03,31.35
26196,0.3323,-0.0273,0.8641,-6.92,8.03,-0.06,31.37
26206,0.3311,-0.0264,0.8641,-6.99,8.03,-0.08,31.35
26216,0.3287,-0.024,0.8651,-6.82,7.98,-0.05,31.39
26226,0.3303,-0.0253,0.8644,-6.9,8.02,-0.12,31.36
26236,0.3284,-0.0221,0.8655,-6.87,8.0,-0.08,31.34
26246,0.3309,-0.0208,0.8632,-6.87,8.05,-0.08,31.36
26256,0.3326,-0.0258,0.8617,-6.85,7.97,-0.05,31.36
26266,0.3296,-0.0277,0.8673,-6.89,7.92,-0.15,31.39
26276,0.3318,-0.0258,0.8671,-6.85,8.03,-0.05,31.36
26286,0.3318,-0.0247,0.8688,-6.82,8.03,0.02,31.37
26296,0.3284,-0.0258,0.863,-6.82,8.02,-0.06,31.36
26306,0.3313,-0.0248,0.866,-6.82,8.03,-0.06,31.37
26316,0.3274,-0.0277,0.8634,-6.85,8.08,-0.05,31.37
26326,0.3292,-0.0221,0.8668,-6.84,7.98,0.0,31.38
26336,0.3293,-0.0228,0.8644,-6.81,7.97,-0.02,31.37
26346,0.3263,-0.027,0.8646,-6.87,8.0,0.03,31.37
26356,0.3318,-0.0259,0.8641,-6.78,8.0,0.02,31.36
26366,0.3291,-0.0234,0.868,-6.82,7.95,-0.05,31.39
26376,0.3328,-0.0231,0.8647,-6.92,8.03,-0.02,31.35
26386,0.3313,-0.0245,0.8679,-6.87,8.03,-0.03,31.35
26396,0.3315,-0.0255,0.8641,-6.89,7.98,-0.12,31.36
26406,0.3341,-0.0259,0.8636,-6.89,7.91,-0.03,31.38
26416,0.3292,-0.0258,0.863,-6.85,7.98,-0.05,31.38
26426,0.3306,-0.025,0.8623,-6.78,8.03,-0.06,31.37
26436,0.3295,-0.0251,0.8628,-6.81,7.94,-0.03,31.36
26446,0.3292,-0.0247,0.8643,-6.79,8.0,-0.05,31.34
26456,0.3315,-0.0254,0.8654,-6.81,7.95,-0.06,31.33
26466,0.3312,-0.0251,0.8655,-6.87,7.94,0.02,31.39
26476,0.3318,-0.0265,0.8662,-6.9,8.0,-0.08,31.37
26486,0.3301,-0.0234,0.8638,-6.82,8.0,0.0,31.37
26496,0.3312,-0.0237,0.8655,-6.82,8.03,0.0,31.38
26506,0.3309,-0.0262,0.8646,-6.84,8.05,-0.05,31.36
26516,0.3292,-0.0253,0.8618,-6.92,8.03,-0.03,31.36
26526,0.3322,-0.0276,0.8652,-6.85,7.97,0.02,31.37
26536,0.3309,-0.0259,0.8638,-6.85,8.0,0.03,31.35
26546,0.3303,-0.0261,0.8617,-6.89,7.97,-0.06,31.38
26556,0.3262,-0.0272,0.8654,-6.87,7.95,-0.09,31.37
26566,0.3292,-0.0267,0.8662,-6.84,7.94,-0.06,31.39
26576,0.3334,-0.0276,0.863,-6.93,7.97,-0.09,31.37
26586,0.3306,-0.0278,0.866,-6.87,7.92,-0.03,31.34
26596,0.327,-0.0255,0.8649,-6.87,7.97,-0.02,31.37
26606,0.3298,-0.0269,0.8679,-6.85,8.03,-0.08,31.35
26617,0.3325,-0.0266,0.8647,-6.9,8.0,-0.03,31.36
26627,0.3325,-0.0243,0.8685,-6.87,8.0,-0.02,31.38
26637,0.3287,-0.026,0.8646,-6.87,8.0,-0.02,31.38
26647,0.3314,-0.0238,0.8643,-6.87,8.06,-0.02,31.37
26660,0.3317,-0.0231,0.8608,-6.82,8.0,-0.03,31.35
26670,0.3312,-0.0259,0.8597,-6.87,7.98,-0.08,31.35
26680,0.3314,-0.0275,0.8622,-6.92,7.98,-0.05,31.36
26690,0.3273,-0.0231,0.864,-6.92,7.91,-0.05,31.39
26700,0.3289,-0.0265,0.8623,-6.84,8.06,-0.05,31.38
26710,0.3297,-0.0278,0.8625,-6.89,8.0,-0.09,31.36
26722,0.3301,-0.0234,0.8661,-6.87,8.0,-0.06,31.36
26732,0.33,-0.0264,0.8608,-6.89,7.97,0.02,31.38
26742,0.3303,-0.0298,0.8691,-6.89,8.09,-0.03,31.38
26752,0.3329,-0.0234,0.8674,-6.87,7.98,-0.06,31.37
26762,0.3309,-0.0251,0.8666,-6.89,8.02,-0.02,31.38
26772,0.3295,-0.0249,0.8668,-6.82,7.97,-0.03,31.38
26782,0.3341,-0.025,0.8644,-6.79,8.03,-0.02,31.37
26792,0.3289,-0.0237,0.8674,-6.81,8.03,-0.06,31.36
26802,0.3317,-0.0234,0.8645,-6.89,8.03,-0.12,31.35
26812,0.3309,-0.025,0.8665,-6.84,8.02,0.03,31.39
26822,0.3307,-0.0264,0.86,-6.85,7.97,-0.08,31.39
26833,0.3313,-0.0248,0.8635,-6.92,8.02,-0.02,31.34
26843,0.3313,-0.026,0.8634,-6.92,8.02,0.03,31.38
26853,0.3322,-0.0276,0.8606,-6.82,8.02,-0.12,31.34
26863,0.3312,-0.0247,0.8671,-6.82,7.98,-0.02,31.36
26873,0.3311,-0.0261,0.8689,-6.82,8.03,-0.02,31.39
26883,0.3307,-0.0276,0.8641,-6.78,8.0,0.0,31.39
26893,0.3284,-0.0253,0.8634,-6.93,8.0,0.0,31.34
26903,0.3285,-0.0234,0.8657,-6.96,8.05,-0.05,31.35
26913,0.3298,-0.0244,0.8645,-6.89,8.03,-0.08,31.36
26923,0.3302,-0.0254,0.8665,-6.85,7.95,-0.03,31.35
26933,0.3296,-0.0262,0.863,-6.92,8.0,0.02,31.35
26943,0.3329,-0.0278,0.8665,-6.82,8.05,-0.06,31.34
26953,0.3291,-0.0243,0.8643,-6.82,8.0,-0.03,31.38
26963,0.3313,-0.0233,0.8688,-6.87,7.98,-0.12,31.37
26973,0.3293,-0.0247,0.8645,-6.82,7.97,-0.09,31.37
26983,0.3319,-0.0236,0.866,-6.82,8.0,-0.09,31.37
26993,0.3289,-0.0267,0.8643,-6.81,7.97,-0.05,31.37
27003,0.3304,-0.0262,0.8672,-6.84,8.09,-0.03,31.38
27013,0.3297,-0.0264,0.8645,-6.82,7.97,0.02,31.37
27023,0.3304,-0.0258,0.865,-6.84,8.0,-0.09,31.36
27033,0.3328,-0.0264,0.8655,-6.95,8.0,-0.12,31.35
27043,0.3293,-0.025,0.8661,-6.78,7.98,-0.11,31.35
27053,0.3315,-0.0229,0.8638,-6.89,7.98,-0.02,31.35
27063,0.333,-0.0244,0.8623,-6.81,8.05,-0.03,31.38
27073,0.3289,-0.0239,0.8649,-6.81,8.09,0.0,31.38
27083,0.3285,-0.0248,0.8621,-6.82,8.03,-0.06,31.35
27093,0.3297,-0.0247,0.8674,-6.9,7.97,0.02,31.37
27103,0.3312,-0.0259,0.8632,-6.89,8.02,-0.02,31.38
27113,0.3311,-0.0271,0.8628,-6.85,7.97,0.02,31.38
27123,0.3311,-0.0236,0.8657,-6.92,8.03,-0.08,31.37
27133,0.3317,-0.0251,0.8674,-6.89,7.97,-0.11,31.38
27143,0.329,-0.0258,0.8638,-6.85,8.05,-0.02,31.39
27153,0.3309,-0.0253,0.863,-6.92,8.06,-0.06,31.36
27163,0.333,-0.0261,0.8662,-6.79,7.97,-0.08,31.38
27173,0.3303,-0.0266,0.8635,-6.87,8.0,-0.02,31.35
27183,0.3315,-0.0267,0.8641,-6.84,7.94,-0.05,31.39
27193,0.3301,-0.0255,0.8677,-6.89,8.02,0.03,31.39
27203,0.3278,-0.0255,0.8636,-6.82,8.03,-0.09,31.37
27213,0.3319,-0.025,0.8624,-6.87,7.95,-0.03,31.37
27223,0.3309,-0.024,0.8661,-6.89,7.98,-0.08,31.37
27233,0.3308,-0.025,0.8625,-6.81,8.0,-0.06,31.37
27243,0.3311,-0.025,0.8645,-6.84,8.0,-0.02,31.38
27253,0.3297,-0.027,0.8661,-6.85,7.98,-0.05,31.37
27263,0.3328,-0.0229,0.8628,-6.82,8.02,-0.03,31.38
27273,0.3306,-0.0244,0.8632,-6.87,7.98,-0.03,31.36
27283,0.33,-0.0247,0.8668,-6.89,8.02,0.0,31.36
27293,0.3291,-0.0275,0.8665,-6.81,8.02,-0.08,31.36
27303,0.3309,-0.0238,0.8678,-6.85,8.02,-0.06,31.36
27313,0.327,-0.0267,0.8647,-6.81,8.05,-0.03,31.38
27323,0.3269,-0.0256,0.8632,-6.87,8.02,-0.06,31.35
27333,0.3268,-0.0242,0.864,-6.87,8.03,-0.05,31.38
27343,0.3292,-0.027,0.8667,-6.81,8.05,-0.05,31.37
27353,0.3303,-0.0267,0.8638,-6.89,8.02,-0.02,31.39
27363,0.3285,-0.0239,0.8602,-6.92,8.03,0.03,31.37
27373,0.3303,-0.0253,0.8643,-6.82,8.03,0.05,31.39
27383,0.3301,-0.0272,0.8639,-6.81,8.06,-0.06,31.39
27393,0.3298,-0.0278,0.8605,-6.89,8.0,-0.06,31.37
27403,0.3324,-0.0253,0.8699,-6.9,8.0,-0.03,31.35
27413,0.3298,-0.0256,0.8651,-6.84,7.98,-0.05,31.35
27423,0.3322,-0.0256,0.8661,-6.84,7.94,-0.11,31.35
27433,0.3308,-0.027,0.8654,-6.84,8.0,-0.11,31.39
27443,0.3295,-0.0251,0.8661,-6.95,8.02,-0.03,31.37
27453,0.3309,-0.0269,0.8625,-6.85,8.03,-0.06,31.39
27463,0.332,-0.025,0.8673,-6.82,8.02,-0.03,31.38
27473,0.3317,-0.025,0.8693,-6.89,7.95,-0.02,31.36
27483,0.3264,-0.0267,0.8656,-6.87,8.02,-0.02,31.39
27493,0.3298,-0.0264,0.8693,-6.82,7.94,-0.02,31.38
27503,0.3293,-0.0258,0.8644,-6.82,8.05,-0.11,31.37
27513,0.3285,-0.0258,0.8628,-6.93,7.97,-0.03,31.37
27523,0.3298,-0.025,0.8673,-6.82,8.03,-0.06,31.37
27534,0.329,-0.028,0.8624,-6.84,8.05,-0.05,31.4
27544,0.3314,-0.0242,0.86,-6.85,7.95,-0.03,31.38
27554,0.3293,-0.0249,0.8647,-6.92,7.98,-0.06,31.38
27564,0.3315,-0.026,0.8674,-6.92,7.97,-0.08,31.39
27574,0.3298,-0.0264,0.8616,-6.9,8.02,0.0,31.38
27584,0.3318,-0.0242,0.866,-6.87,8.0,0.02,31.35
27594,0.3306,-0.0227,0.8665,-6.82,8.02,0.0,31.39
27604,0.3295,-0.0227,0.8665,-6.79,8.0,-0.12,31.37
27614,0.3307,-0.0262,0.8663,-6.79,7.98,-0.08,31.39
27624,0.3337,-0.0249,0.8655,-6.85,7.98,-0.05,31.38
27634,0.3314,-0.0238,0.8645,-6.84,7.94,-0.06,31.39
27644,0.3296,-0.0262,0.8628,-6.82,7.97,0.06,31.4
27654,0.3309,-0.0262,0.8645,-6.82,8.05,0.03,31.38
27664,0.3297,-0.0248,0.8649,-6.85,8.08,-0.02,31.37
