t_ms,accel_x_g,accel_y_g,accel_z_g,gyro_x_dps,gyro_y_dps,gyro_z_dps,imu_temp_c
3288,0.3425,-0.0079,0.8622,-6.38,7.79,-0.05,25.84
3298,0.3406,-0.0087,0.8619,-6.35,7.85,-0.06,25.83
3308,0.3395,-0.0092,0.8633,-6.34,7.85,-0.09,25.84
3318,0.3413,-0.0083,0.8657,-6.4,7.86,-0.03,25.82
3328,0.3424,-0.0101,0.8633,-6.4,7.85,-0.05,25.85
3338,0.3405,-0.0099,0.8627,-6.43,7.85,-0.02,25.84
3348,0.3384,-0.0094,0.8613,-6.43,7.76,-0.03,25.82
3358,0.3409,-0.0106,0.8618,-6.41,7.86,-0.02,25.85
3368,0.3398,-0.0066,0.863,-6.31,7.89,-0.02,25.86
3378,0.3385,-0.0094,0.8662,-6.35,7.83,-0.02,25.82
3388,0.3395,-0.0094,0.8593,-6.44,7.86,0.0,25.84
3398,0.3398,-0.0105,0.8584,-6.44,7.83,-0.06,25.85
3408,0.3405,-0.0089,0.8621,-6.32,7.8,-0.06,25.85
3418,0.3397,-0.0063,0.8629,-6.44,7.86,-0.05,25.84
3428,0.3409,-0.0072,0.8652,-6.37,7.82,-0.06,25.86
3438,0.3417,-0.0076,0.8595,-6.44,7.79,0.11,25.85
3448,0.3407,-0.0107,0.8595,-6.29,7.89,-0.03,25.85
3458,0.3396,-0.0094,0.861,-6.44,7.83,-0.06,25.85
3469,0.3395,-0.0071,0.8635,-6.41,7.83,-0.03,25.84
3479,0.3428,-0.0084,0.861,-6.37,7.88,0.02,25.86
3489,0.3409,-0.0073,0.8632,-6.4,7.91,-0.03,25.84
3499,0.3395,-0.0087,0.8613,-6.46,7.89,0.05,25.87
3509,0.3425,-0.0072,0.8633,-6.37,7.91,-0.02,25.85
3519,0.3402,-0.0078,0.8607,-6.4,7.92,-0.02,25.85
3529,0.3405,-0.009,0.8645,-6.46,7.88,-0.02,25.85
3539,0.342,-0.0079,0.8623,-6.38,7.83,-0.03,25.89
3549,0.3433,-0.0106,0.8629,-6.35,7.88,-0.05,25.86
3559,0.3408,-0.0087,0.8634,-6.38,7.76,-0.08,25.85
3569,0.3401,-0.0074,0.8608,-6.32,7.88,0.0,25.84
3579,0.342,-0.011,0.8651,-6.44,7.85,0.0,25.87
3589,0.3405,-0.009,0.8622,-6.38,7.74,-0.05,25.88
3599,0.3412,-0.0096,0.8638,-6.5,7.82,0.06,25.87
3609,0.3411,-0.0101,0.8608,-6.44,7.8,-0.08,25.88
3619,0.3401,-0.0089,0.86,-6.35,7.85,0.06,25.88
3629,0.3417,-0.0107,0.8628,-6.34,7.86,0.05,25.88
3639,0.3406,-0.0081,0.8616,-6.4,7.86,0.0,25.89
3649,0.34,-0.0089,0.8634,-6.38,7.88,-0.06,25.89
3659,0.3405,-0.0109,0.8624,-6.38,7.88,-0.03,25.87
3669,0.339,-0.011,0.8621,-6.34,7.82,-0.05,25.86
3679,0.3405,-0.0125,0.8638,-6.37,7.77,-0.05,25.89
3690,0.3392,-0.0103,0.8628,-6.43,7.86,-0.03,25.89
3700,0.3379,-0.007,0.8647,-6.4,7.83,0.0,25.87
3710,0.3389,-0.0096,0.8619,-6.35,7.77,0.0,25.87
3720,0.3427,-0.0088,0.8641,-6.35,7.76,-0.05,25.89
3730,0.3385,-0.0082,0.8638,-6.41,7.89,-0.09,25.86
3740,0.3395,-0.0115,0.8608,-6.4,7.85,-0.06,25.87
3750,0.3394,-0.0077,0.8632,-6.4,7.8,0.02,25.89
3760,0.3401,-0.0068,0.8618,-6.35,7.88,-0.03,25.89
3770,0.3418,-0.0074,0.8621,-6.47,7.79,-0.02,25.9
3781,0.3406,-0.0082,0.8601,-6.4,7.83,0.0,25.87
3791,0.3386,-0.0082,0.8616,-6.38,7.76,-0.06,25.89
3801,0.3405,-0.0127,0.8628,-6.35,7.89,-0.08,25.88
3811,0.3408,-0.0093,0.8658,-6.38,7.89,-0.08,25.89
3821,0.3406,-0.0078,0.8654,-6.4,7.8,-0.02,25.88
3831,0.3409,-0.0081,0.8571,-6.37,7.85,-0.03,25.87
3841,0.3412,-0.0081,0.8616,-6.41,7.88,-0.03,25.89
3851,0.3409,-0.0107,0.8572,-6.37,7.77,-0.03,25.86
3861,0.3408,-0.0083,0.861,-6.43,7.83,-0.03,25.89
3871,0.3434,-0.0094,0.8621,-6.37,7.85,-0.02,25.88
3881,0.3422,-0.0112,0.8645,-6.37,7.83,-0.05,25.89
3891,0.3422,-0.0093,0.865,-6.47,7.85,0.05,25.9
3901,0.3398,-0.0093,0.8672,-6.38,7.86,0.03,25.89
3911,0.3401,-0.009,0.866,-6.34,7.85,0.02,25.88
3921,0.3424,-0.0061,0.8656,-6.43,7.8,-0.05,25.87
3931,0.3396,-0.0085,0.86,-6.38,7.85,-0.02,25.87
3941,0.3394,-0.0078,0.8597,-6.4,7.86,0.0,25.89
3951,0.3413,-0.0094,0.8629,-6.38,7.82,-0.05,25.89
3961,0.338,-0.0111,0.863,-6.44,7.82,0.06,25.89
3971,0.3407,-0.0079,0.8632,-6.34,7.83,0.08,25.92
3981,0.3398,-0.0093,0.8618,-6.34,7.8,-0.05,25.88
3991,0.3387,-0.0101,0.8635,-6.29,7.97,-0.09,25.86
4001,0.3397,-0.0128,0.8625,-6.41,7.8,-0.03,25.89
4011,0.3405,-0.0103,0.8606,-6.47,7.83,-0.08,25.91
4021,0.3408,-0.0103,0.8613,-6.43,7.77,-0.05,25.9
4031,0.3407,-0.0118,0.8635,-6.44,7.77,0.0,25.91
4041,0.344,-0.0081,0.8649,-6.35,7.92,0.06,25.9
4051,0.3376,-0.01,0.8663,-6.29,7.91,-0.03,25.88
4061,0.3412,-0.0052,0.8607,-6.46,7.83,-0.05,25.91
4071,0.3378,-0.0083,0.8616,-6.38,7.8,-0.06,25.89
4081,0.3419,-0.0114,0.8657,-6.46,7.85,0.0,25.92
4091,0.3398,-0.0106,0.8613,-6.43,7.82,0.06,25.9
4101,0.3397,-0.01,0.8595,-6.47,7.69,0.11,25.92
4111,0.3425,-0.0082,0.8608,-6.46,7.8,-0.02,25.9
4121,0.34,-0.0111,0.8623,-6.4,7.92,-0.03,25.89
4131,0.3403,-0.0098,0.8599,-6.38,7.82,-0.06,25.88
4141,0.3376,-0.0092,0.8579,-6.4,7.86,0.0,25.9
4151,0.3398,-0.0098,0.8605,-6.52,7.8,-0.03,25.91
4161,0.3417,-0.0089,0.8644,-6.34,7.83,-0.06,25.91
4171,0.3386,-0.0065,0.8612,-6.4,7.82,-0.03,25.89
4181,0.3412,-0.0078,0.861,-6.44,7.86,-0.15,25.92
4191,0.3392,-0.0072,0.8627,-6.41,7.76,-0.11,25.91
4201,0.3396,-0.0115,0.8604,-6.47,7.79,0.02,25.91
4211,0.3401,-0.0071,0.8618,-6.41,7.8,-0.02,25.92
4221,0.3424,-0.0056,0.8615,-6.37,7.77,0.03,25.91
4231,0.3389,-0.0089,0.8636,-6.44,7.86,-0.02,25.93
4241,0.3407,-0.01,0.8607,-6.41,7.79,0.02,25.9
4251,0.3431,-0.0077,0.8611,-6.37,7.79,-0.06,25.92
4261,0.3406,-0.0105,0.8645,-6.52,7.8,0.0,25.91
4271,0.3439,-0.0079,0.865,-6.4,7.76,-0.08,25.92
4281,0.3406,-0.0112,0.8615,-6.41,7.8,-0.03,25.94
4291,0.3387,-0.0059,0.8643,-6.43,7.85,0.02,25.92
4302,0.3384,-0.0089,0.8621,-6.4,7.83,-0.05,25.92
4312,0.3401,-0.012,0.8641,-6.4,7.79,-0.06,25.93
4322,0.338,-0.0079,0.8627,-6.53,7.85,-0.03,25.93
4332,0.3403,-0.0111,0.8619,-6.38,7.82,-0.06,25.92
4342,0.3419,-0.0117,0.8606,-6.37,7.8,0.05,25.91
4352,0.3425,-0.0085,0.8599,-6.37,7.85,0.05,25.91
4362,0.3416,-0.0092,0.8625,-6.4,7.95,0.02,25.91
4372,0.3378,-0.0118,0.8647,-6.34,7.86,-0.08,25.93
4382,0.34,-0.0104,0.8616,-6.46,7.76,-0.03,25.94
4392,0.3397,-0.0089,0.8573,-6.44,7.77,-0.11,25.93
4402,0.3403,-0.0095,0.8624,-6.41,7.88,0.03,25.92
4412,0.3402,-0.0073,0.8645,-6.46,7.85,0.03,25.92
4422,0.3395,-0.0103,0.8617,-6.41,7.82,0.06,25.94
4432,0.3374,-0.0103,0.8617,-6.5,7.85,-0.02,25.9
4442,0.344,-0.0092,0.8644,-6.52,7.85,0.06,25.92
4452,0.3409,-0.0103,0.861,-6.46,7.76,-0.02,25.9
4462,0.3435,-0.0096,0.8628,-6.37,7.82,-0.05,25.92
4472,0.3396,-0.0082,0.8646,-6.46,7.86,0.0,25.92
4482,0.3412,-0.0087,0.864,-6.41,7.8,0.0,25.93
4492,0.3394,-0.0103,0.8639,-6.32,7.86,0.03,25.94
4502,0.3414,-0.0078,0.8624,-6.34,7.77,0.05,25.95
4513,0.3395,-0.0066,0.8607,-6.43,7.77,-0.09,25.94
4523,0.3406,-0.0078,0.8625,-6.34,7.88,-0.03,25.92
4533,0.3405,-0.0063,0.8616,-6.37,7.89,-0.06,25.94
4543,0.3416,-0.0092,0.8644,-6.41,7.77,-0.06,25.92
4553,0.3419,-0.01,0.8627,-6.41,7.85,0.02,25.94
4563,0.3386,-0.0104,0.8622,-6.37,7.8,-0.02,25.94
4573,0.3413,-0.009,0.8633,-6.38,7.82,0.0,25.93
4583,0.3383,-0.0126,0.8615,-6.43,7.83,-0.03,25.93
4593,0.3409,-0.0111,0.8615,-6.44,7.88,-0.06,25.92
4603,0.3406,-0.0089,0.8616,-6.32,7.91,0.03,25.94
4613,0.3392,-0.0083,0.8619,-6.43,7.86,-0.03,25.92
4623,0.3409,-0.0073,0.8639,-6.5,7.88,-0.15,25.93
4633,0.3401,-0.0074,0.8622,-6.38,7.83,-0.06,25.95
4643,0.3394,-0.0094,0.8595,-6.41,7.82,-0.09,25.95
4653,0.3396,-0.0099,0.8666,-6.32,7.89,-0.08,25.95
4663,0.3405,-0.0089,0.8624,-6.46,7.8,-0.09,25.94
4673,0.3416,-0.0095,0.8615,-6.35,7.76,-0.05,25.94
4683,0.3422,-0.0084,0.8645,-6.41,7.88,-0.05,25.94
4693,0.3413,-0.009,0.8597,-6.35,7.79,0.03,25.94
4703,0.3392,-0.0114,0.8623,-6.5,7.85,-0.03,25.94
4713,0.3376,-0.0085,0.8602,-6.52,7.8,-0.06,25.93
4723,0.3389,-0.01,0.8633,-6.49,7.91,-0.03,25.94
4733,0.3398,-0.0122,0.8645,-6.4,7.88,0.03,25.96
4743,0.3397,-0.0121,0.8666,-6.38,7.86,-0.05,25.97
4753,0.3409,-0.0123,0.8644,-6.52,7.83,0.0,25.92
4763,0.3413,-0.0083,0.8657,-6.47,7.86,0.03,25.94
4773,0.3387,-0.0109,0.8616,-6.47,7.79,0.0,25.95
4783,0.3374,-0.0066,0.8608,-6.41,7.83,0.03,25.95
4793,0.3402,-0.0071,0.8607,-6.43,7.89,-0.02,25.97
4803,0.3413,-0.0072,0.8621,-6.4,7.8,-0.03,25.96
4813,0.3422,-0.0095,0.8608,-6.47,7.88,0.0,25.94
4823,0.3403,-0.0098,0.8597,-6.38,7.83,-0.05,25.95
4833,0.338,-0.0068,0.8623,-6.37,7.77,-0.09,25.93
4843,0.3386,-0.0079,0.8652,-6.38,7.86,0.0,25.94
4853,0.3403,-0.0095,0.8665,-6.44,7.91,0.0,25.94
4863,0.342,-0.0094,0.8667,-6.44,7.77,-0.03,25.96
4873,0.3408,-0.011,0.8607,-6.5,7.91,-0.02,25.95
4883,0.3435,-0.0104,0.8618,-6.44,7.85,-0.09,25.95
4893,0.3423,-0.007,0.8608,-6.38,7.77,-0.06,25.97
4903,0.3384,-0.0092,0.8624,-6.41,7.82,-0.05,25.93
4913,0.3438,-0.0101,0.8641,-6.46,7.94,-0.06,25.93
4923,0.3425,-0.0089,0.8625,-6.37,7.89,-0.06,25.96
4933,0.3425,-0.0077,0.8645,-6.43,7.85,-0.03,25.95
4943,0.3411,-0.011,0.8654,-6.46,7.85,0.0,25.98
4953,0.3434,-0.0084,0.8628,-6.35,7.76,-0.05,25.97
4963,0.3424,-0.007,0.8624,-6.47,7.8,-0.05,25.98
4973,0.3402,-0.0085,0.8618,-6.46,7.71,-0.05,25.95
4983,0.337,-0.007,0.8593,-6.37,7.71,-0.12,25.94
4993,0.3431,-0.0107,0.8621,-6.4,7.79,-0.02,25.94
5003,0.3424,-0.01,0.865,-6.46,7.86,-0.06,25.95
5013,0.3409,-0.0087,0.8652,-6.41,7.88,-0.05,25.95
5023,0.3409,-0.0087,0.8646,-6.52,7.86,-0.06,25.95
5033,0.3408,-0.0079,0.8619,-6.32,7.79,-0.08,25.95
5043,0.3419,-0.0077,0.8627,-6.46,7.88,0.02,25.95
5053,0.3408,-0.0088,0.8643,-6.41,7.76,-0.09,25.93
5063,0.3422,-0.0077,0.8622,-6.41,7.82,0.0,25.95
5073,0.3438,-0.0083,0.8634,-6.44,7.82,0.0,25.96
5083,0.3425,-0.0106,0.8638,-6.37,7.82,-0.05,25.97
5093,0.3422,-0.0089,0.8644,-6.41,7.79,-0.05,25.96
5103,0.3403,-0.0081,0.8611,-6.35,7.89,-0.03,25.94
5113,0.3378,-0.0095,0.8611,-6.38,7.85,-0.05,25.97
5123,0.3375,-0.0083,0.8621,-6.46,7.82,-0.05,25.95
5133,0.3408,-0.0115,0.8622,-6.37,7.76,0.03,25.96
5143,0.3409,-0.0104,0.8625,-6.43,7.82,-0.03,25.97
5153,0.3417,-0.0092,0.8651,-6.41,7.86,-0.06,25.96
5163,0.3436,-0.0082,0.8632,-6.41,7.86,-0.06,25.96
5173,0.3436,-0.01,0.8636,-6.5,7.79,-0.02,25.98
5183,0.3434,-0.0095,0.8593,-6.46,7.77,-0.03,25.97
5193,0.3397,-0.0089,0.8635,-6.32,7.76,-0.12,25.97
5203,0.3396,-0.0093,0.8622,-6.4,7.8,0.0,25.99
5213,0.3401,-0.0067,0.8632,-6.46,7.82,-0.06,25.99
5223,0.3405,-0.0057,0.866,-6.35,7.82,-0.03,25.99
5234,0.3411,-0.0107,0.8624,-6.34,7.79,-0.08,25.99
5245,0.3416,-0.0105,0.864,-6.47,7.85,-0.06,25.98
5255,0.3447,-0.0095,0.8605,-6.37,7.8,-0.05,25.97
5265,0.3412,-0.0112,0.8644,-6.46,7.85,-0.02,25.95
5275,0.3387,-0.0083,0.8596,-6.41,7.8,0.0,25.97
5285,0.3413,-0.0101,0.8651,-6.29,7.82,-0.05,25.98
5295,0.3424,-0.01,0.86,-6.55,7.83,-0.05,26.01
5305,0.3407,-0.0095,0.8633,-6.44,7.85,0.08,25.98
5315,0.3379,-0.0092,0.8623,-6.5,7.86,-0.09,25.97
5325,0.3395,-0.0087,0.863,-6.43,7.83,0.0,25.97
5335,0.3392,-0.0056,0.8643,-6.5,7.85,0.0,25.98
5345,0.3428,-0.0066,0.8619,-6.52,7.86,0.11,25.97
5355,0.3477,-0.0094,0.8546,-6.44,7.57,-0.09,25.97
5365,0.3422,-0.0117,0.8639,-6.41,7.66,-0.02,25.96
5375,0.3392,-0.0089,0.8625,-6.47,7.91,-0.05,25.99
5385,0.3417,-0.0081,0.8646,-6.4,7.88,-0.02,25.98
5395,0.3403,-0.0088,0.8613,-6.46,7.74,0.02,25.97
5405,0.3441,-0.0088,0.8596,-6.38,7.83,0.03,25.99
5415,0.3401,-0.0073,0.8636,-6.38,7.83,-0.03,25.98
5425,0.3386,-0.0087,0.864,-6.38,7.86,-0.02,25.97
5435,0.3424,-0.0098,0.8621,-6.46,7.79,-0.02,26.0
5445,0.3383,-0.0085,0.8613,-6.43,7.8,-0.06,25.99
5455,0.3409,-0.0107,0.8623,-6.5,7.86,-0.02,25.98
5465,0.3401,-0.0105,0.8643,-6.43,7.85,-0.05,25.98
5475,0.3418,-0.0111,0.8625,-6.37,7.89,0.0,25.99
5485,0.339,-0.0109,0.8601,-6.41,7.77,-0.03,25.99
5495,0.3411,-0.0109,0.8599,-6.37,7.85,0.03,25.98
5505,0.342,-0.0093,0.8621,-6.46,7.77,-0.11,25.97
5515,0.3398,-0.0084,0.86,-6.44,7.85,-0.09,26.0
5526,0.3412,-0.0115,0.8612,-6.49,7.73,-0.05,25.99
5536,0.3407,-0.0074,0.8589,-6.5,7.77,-0.06,25.99
5546,0.3406,-0.01,0.8632,-6.49,7.85,-0.08,26.0
5557,0.3397,-0.0107,0.8651,-6.47,7.85,-0.03,26.0
5567,0.3396,-0.0074,0.8643,-6.47,7.82,-0.05,26.02
5577,0.3396,-0.0096,0.8621,-6.43,7.83,-0.05,25.98
5587,0.3412,-0.0076,0.8619,-6.41,7.89,-0.05,26.02
5597,0.3401,-0.0092,0.861,-6.46,7.8,-0.12,26.0
5607,0.3362,-0.0079,0.8629,-6.43,7.86,-0.09,26.0
5617,0.3408,-0.0087,0.8629,-6.38,7.71,-0.12,25.98
5627,0.3395,-0.009,0.8582,-6.37,7.88,-0.03,26.0
5637,0.3407,-0.0107,0.8624,-6.4,7.82,-0.02,25.99
5647,0.3401,-0.009,0.8638,-6.46,7.86,-0.08,25.99
5657,0.3405,-0.0085,0.8634,-6.37,7.88,-0.03,26.01
5667,0.3411,-0.011,0.863,-6.37,7.86,-0.02,26.03
5677,0.3376,-0.01,0.8671,-6.41,7.73,-0.09,26.02
5687,0.3406,-0.0077,0.8639,-6.44,7.89,0.02,26.0
5697,0.3381,-0.0073,0.8645,-6.4,7.86,0.02,25.98
5707,0.3401,-0.0078,0.8625,-6.38,7.85,-0.05,25.98
5717,0.344,-0.0104,0.8639,-6.44,7.94,0.03,26.0
5727,0.3367,-0.0093,0.8656,-6.38,7.82,0.02,26.01
5737,0.3413,-0.0073,0.8639,-6.43,7.82,-0.08,26.0
5747,0.3385,-0.012,0.8668,-6.37,7.85,0.06,26.0
5757,0.3418,-0.0098,0.8601,-6.4,7.85,0.09,26.02
5767,0.3369,-0.0092,0.8643,-6.5,7.79,-0.02,25.99
5777,0.3407,-0.01,0.8594,-6.46,7.82,-0.05,26.01
5787,0.3409,-0.01,0.863,-6.47,7.83,0.02,26.0
5797,0.3417,-0.0083,0.8633,-6.4,7.8,0.02,26.0
5807,0.3414,-0.0087,0.8632,-6.49,7.8,-0.05,25.99
5817,0.338,-0.0084,0.8685,-6.44,7.85,-0.02,26.02
5827,0.3373,-0.0131,0.8635,-6.44,7.89,0.0,25.98
5837,0.3378,-0.0104,0.8658,-6.35,7.82,0.03,25.99
5847,0.3384,-0.0079,0.8627,-6.43,7.88,0.0,26.02
5857,0.3395,-0.012,0.8586,-6.37,7.86,0.02,26.02
5867,0.3383,-0.0078,0.8597,-6.35,7.8,-0.05,26.02
5877,0.3391,-0.0098,0.8643,-6.43,7.82,-0.03,25.99
5887,0.338,-0.0092,0.8588,-6.47,7.83,-0.02,25.99
5897,0.3413,-0.0099,0.8682,-6.38,7.85,0.02,26.01
5907,0.3427,-0.0099,0.861,-6.37,7.88,-0.06,26.0
5917,0.3413,-0.0099,0.8623,-6.44,7.79,-0.08,26.01
5927,0.3425,-0.0093,0.8622,-6.38,7.82,0.02,26.0
5937,0.3401,-0.0085,0.8622,-6.46,7.79,-0.08,26.01
5947,0.3391,-0.0092,0.8627,-6.38,7.85,-0.02,26.01
5957,0.3423,-0.0063,0.8622,-6.43,7.83,-0.03,26.02
5967,0.3403,-0.01,0.8591,-6.35,7.89,-0.09,26.0
5977,0.3407,-0.0096,0.8602,-6.43,7.76,-0.02,26.01
5987,0.3391,-0.0116,0.8618,-6.43,7.8,0.0,26.01
5997,0.3389,-0.0067,0.8657,-6.43,7.88,-0.03,25.99
6007,0.3389,-0.0093,0.865,-6.46,7.86,0.08,26.02
6017,0.3402,-0.0078,0.8657,-6.49,7.8,-0.05,26.0
6027,0.3413,-0.0088,0.8673,-6.44,7.8,0.0,26.01
6037,0.3408,-0.0083,0.8599,-6.47,7.89,-0.09,26.0
6047,0.3438,-0.0072,0.864,-6.4,7.8,-0.11,26.02
6057,0.3398,-0.0079,0.8644,-6.47,7.85,-0.12,26.02
6067,0.3434,-0.0114,0.8612,-6.44,7.88,0.08,25.99
6077,0.3401,-0.0082,0.8647,-6.37,7.88,-0.06,26.01
6087,0.3374,-0.0073,0.8613,-6.41,7.86,-0.05,26.02
6097,0.3407,-0.0093,0.8615,-6.34,7.88,-0.03,26.04
6107,0.3389,-0.0087,0.8634,-6.44,7.91,-0.03,26.01
6117,0.3398,-0.0082,0.8611,-6.43,7.83,0.03,26.02
6127,0.3422,-0.0105,0.8639,-6.44,7.83,0.02,26.03
6137,0.3387,-0.0115,0.8619,-6.53,7.85,0.02,26.0
6147,0.3419,-0.0096,0.8621,-6.5,7.89,-0.08,26.01
6157,0.3409,-0.0048,0.8611,-6.29,7.88,0.03,26.02
6167,0.3396,-0.0096,0.8593,-6.5,7.8,-0.08,26.02
6177,0.3427,-0.0082,0.8636,-6.4,7.8,0.05,25.99
6187,0.3381,-0.0098,0.8624,-6.38,7.74,0.0,25.98
6197,0.3385,-0.01,0.8608,-6.43,7.8,-0.09,26.02
6207,0.3431,-0.007,0.8644,-6.47,7.85,-0.08,26.01
6217,0.3412,-0.0071,0.8597,-6.38,7.86,-0.05,26.01
6227,0.3401,-0.0095,0.8618,-6.43,7.8,0.0,26.04
6237,0.3422,-0.0077,0.8651,-6.37,7.85,-0.05,26.01
6247,0.3423,-0.0088,0.8652,-6.4,7.8,0.05,26.02
6257,0.3416,-0.0043,0.8615,-6.41,7.82,0.02,26.04
6267,0.3392,-0.0082,0.8611,-6.4,7.8,0.0,26.0
6277,0.3374,-0.0095,0.861,-6.46,7.83,-0.09,26.02
6287,0.3389,-0.0068,0.8572,-6.46,7.83,-0.06,26.03
6297,0.3396,-0.0089,0.8632,-6.41,7.83,-0.03,26.03
6307,0.3385,-0.0065,0.8601,-6.55,7.91,-0.05,26.02
6317,0.3374,-0.0127,0.863,-6.41,7.74,-0.06,26.04
6327,0.3405,-0.0101,0.8593,-6.38,7.88,-0.03,26.01
6337,0.342,-0.0084,0.8629,-6.43,7.88,-0.06,26.02
6347,0.3391,-0.0087,0.8605,-6.43,7.83,-0.05,26.04
6357,0.3411,-0.0101,0.8601,-6.4,7.8,-0.05,26.03
6367,0.3416,-0.0099,0.8601,-6.35,7.83,0.06,26.04
6377,0.343,-0.0095,0.8619,-6.4,7.83,0.05,26.06
6387,0.3406,-0.0084,0.8632,-6.53,7.94,-0.02,26.02
6397,0.3409,-0.0093,0.8634,-6.43,7.86,-0.09,26.02
6407,0.3455,-0.0093,0.8605,-6.4,7.83,-0.02,26.05
6417,0.3414,-0.0078,0.8591,-6.4,7.83,0.09,26.02
6427,0.3396,-0.0076,0.863,-6.47,7.82,-0.02,26.04
6437,0.3385,-0.0092,0.8667,-6.47,7.83,-0.09,26.02
6447,0.3403,-0.0087,0.8645,-6.47,7.76,0.03,26.04
6457,0.3408,-0.0088,0.86,-6.47,7.79,-0.03,26.06
6467,0.3424,-0.0104,0.86,-6.4,7.85,-0.05,26.03
6477,0.3413,-0.01,0.8623,-6.41,7.76,-0.02,26.03
6487,0.3385,-0.0095,0.8616,-6.44,7.83,-0.08,26.05
6497,0.3402,-0.0115,0.864,-6.43,7.92,-0.14,26.02
6507,0.3409,-0.0074,0.864,-6.38,7.79,-0.06,26.03
6517,0.3394,-0.0084,0.8574,-6.47,7.85,-0.06,26.06
6527,0.3422,-0.0115,0.8634,-6.43,7.82,-0.08,26.06
6537,0.3378,-0.0081,0.8613,-6.4,7.8,0.0,26.05
6548,0.3417,-0.0106,0.8612,-6.41,7.82,0.0,26.05
6558,0.3412,-0.0088,0.8619,-6.52,7.83,-0.03,26.04
6568,0.3406,-0.0094,0.8616,-6.5,7.8,-0.06,26.04
6578,0.3395,-0.0099,0.8636,-6.46,7.83,-0.06,26.04
6589,0.3429,-0.0082,0.8638,-6.49,7.82,-0.02,26.04
6599,0.3379,-0.0092,0.8632,-6.37,7.79,-0.05,26.04
6609,0.3386,-0.0094,0.8646,-6.44,7.82,0.03,26.04
6619,0.3405,-0.0073,0.8617,-6.43,7.89,0.03,26.05
6630,0.3409,-0.0079,0.8627,-6.43,7.86,-0.11,26.06
6640,0.3398,-0.01,0.8615,-6.46,7.79,-0.06,26.04
6650,0.3402,-0.009,0.864,-6.4,7.89,-0.03,26.04
6660,0.3398,-0.0103,0.8605,-6.38,7.86,0.08,26.05
6670,0.3405,-0.0087,0.863,-6.4,7.85,-0.05,26.06
6680,0.3398,-0.0094,0.8616,-6.44,7.86,0.0,26.04
6690,0.3416,-0.0083,0.8633,-6.37,7.82,-0.05,26.05
6700,0.3397,-0.0105,0.8599,-6.49,7.82,-0.03,26.04
6712,0.3429,-0.0074,0.8645,-6.47,7.76,0.0,26.03
6722,0.3417,-0.0098,0.8632,-6.46,7.85,0.03,26.03
6733,0.343,-0.0089,0.8623,-6.58,7.85,0.0,26.04
6743,0.3395,-0.011,0.8671,-6.44,7.86,-0.03,26.07
6753,0.3391,-0.0078,0.8641,-6.38,7.82,-0.02,26.05
6763,0.3372,-0.0078,0.861,-6.46,7.82,0.02,26.05
6773,0.3373,-0.0084,0.8605,-6.37,7.8,-0.08,26.05
6783,0.3414,-0.0092,0.8612,-6.41,7.82,-0.06,26.04
6793,0.3436,-0.0099,0.8616,-6.47,7.88,-0.03,26.05
6803,0.3419,-0.0106,0.8651,-6.41,7.83,0.0,26.04
6813,0.3429,-0.0072,0.8622,-6.41,7.77,0.05,26.06
6823,0.3412,-0.009,0.8612,-6.46,7.91,0.02,26.04
6833,0.3378,-0.0099,0.8638,-6.37,7.77,0.02,26.05
6843,0.3413,-0.0095,0.8599,-6.44,7.86,0.02,26.04
6853,0.3416,-0.0111,0.8628,-6.46,7.86,-0.08,26.05
6863,0.3376,-0.0111,0.8646,-6.38,7.91,-0.02,26.05
6873,0.3379,-0.0084,0.8628,-6.47,7.83,-0.02,26.05
6883,0.3379,-0.0115,0.8635,-6.41,7.82,-0.02,26.06
6893,0.3396,-0.0082,0.866,-6.56,7.89,0.02,26.06
6903,0.3391,-0.0083,0.8627,-6.43,7.88,-0.03,26.06
6913,0.339,-0.0081,0.8673,-6.52,7.82,0.08,26.03
6923,0.3403,-0.0098,0.8641,-6.38,7.82,0.0,26.04
6933,0.3418,-0.0098,0.8647,-6.46,7.86,0.03,26.06
6943,0.3396,-0.0101,0.8615,-6.46,7.83,0.03,26.05
6954,0.3417,-0.0085,0.8594,-6.37,7.91,-0.05,26.04
6964,0.3423,-0.01,0.8608,-6.44,7.79,-0.05,26.05
6974,0.3423,-0.0106,0.8622,-6.35,7.82,-0.03,26.06
6984,0.3394,-0.0094,0.8657,-6.37,7.77,-0.02,26.03
6994,0.3375,-0.0127,0.8618,-6.43,7.74,-0.02,26.04
7004,0.3405,-0.009,0.8622,-6.46,7.8,-0.08,26.04
7014,0.3396,-0.0094,0.8597,-6.44,7.76,0.0,26.04
7024,0.3397,-0.0092,0.865,-6.44,7.79,-0.08,26.03
7034,0.3417,-0.0074,0.8602,-6.52,7.88,-0.06,26.05
7044,0.34,-0.0081,0.8633,-6.37,7.85,-0.08,26.06
7055,0.3406,-0.0085,0.8619,-6.32,7.76,-0.03,26.06
7065,0.3405,-0.0093,0.8665,-6.44,7.82,0.02,26.05
7075,0.3417,-0.0098,0.8628,-6.4,7.79,-0.03,26.07
7085,0.3439,-0.0088,0.865,-6.43,7.82,-0.05,26.06
7095,0.3394,-0.0085,0.8632,-6.44,7.77,-0.08,26.06
7105,0.3396,-0.0092,0.8619,-6.4,7.74,-0.02,26.06
7115,0.3397,-0.0095,0.8638,-6.43,7.79,-0.02,26.09
7126,0.3412,-0.0125,0.8616,-6.47,7.88,0.03,26.07
7136,0.3407,-0.0068,0.8602,-6.44,7.86,0.02,26.06
7146,0.3368,-0.009,0.8618,-6.43,7.91,0.08,26.07
7157,0.3374,-0.0109,0.8665,-6.34,7.8,0.0,26.07
7167,0.3391,-0.0107,0.8605,-6.49,7.92,-0.03,26.05
7177,0.3411,-0.0096,0.8617,-6.41,7.86,0.0,26.06
7187,0.3394,-0.0099,0.8617,-6.5,7.77,0.03,26.05
7197,0.3417,-0.0092,0.86,-6.4,7.91,-0.03,26.06
7207,0.3398,-0.0115,0.863,-6.5,7.82,0.05,26.05
7217,0.3416,-0.0107,0.863,-6.37,7.73,0.03,26.07
7227,0.3395,-0.0071,0.8639,-6.41,7.85,-0.06,26.05
7237,0.3406,-0.0084,0.8605,-6.41,7.94,-0.08,26.04
7247,0.3413,-0.0117,0.8601,-6.43,7.8,0.08,26.07
7257,0.3416,-0.0089,0.8617,-6.32,7.83,-0.05,26.07
7268,0.3425,-0.0082,0.8625,-6.46,7.82,-0.03,26.07
7279,0.3441,-0.0066,0.8612,-6.46,7.85,0.05,26.04
7290,0.3389,-0.0084,0.8589,-6.5,7.86,-0.06,26.05
7300,0.3386,-0.0087,0.8607,-6.44,7.82,-0.08,26.07
7310,0.3396,-0.0066,0.8671,-6.4,7.76,-0.05,26.08
7320,0.3381,-0.011,0.8634,-6.43,7.83,-0.08,26.09
7330,0.339,-0.0092,0.8678,-6.46,7.88,-0.09,26.06
7340,0.3398,-0.0112,0.8628,-6.4,7.86,-0.02,26.05
7350,0.3427,-0.0112,0.8622,-6.49,7.88,-0.05,26.06
7360,0.3417,-0.0088,0.8619,-6.46,7.83,-0.09,26.07
7370,0.3418,-0.01,0.8606,-6.44,7.77,-0.09,26.08
7380,0.3384,-0.0114,0.8622,-6.4,7.8,-0.08,26.07
7390,0.3424,-0.0107,0.8616,-6.5,7.74,-0.11,26.05
7400,0.3405,-0.0099,0.8634,-6.35,7.82,-0.03,26.06
7410,0.3403,-0.0122,0.8599,-6.38,7.86,0.02,26.06
7420,0.3413,-0.0089,0.8623,-6.46,7.83,0.03,26.08
7430,0.339,-0.0106,0.8618,-6.44,7.79,0.0,26.09
7440,0.3394,-0.0106,0.8628,-6.49,7.85,-0.05,26.07
7450,0.3429,-0.0094,0.8645,-6.52,7.86,-0.03,26.09
7461,0.3435,-0.0115,0.8641,-6.43,7.91,-0.02,26.07
7471,0.3409,-0.0095,0.8667,-6.41,7.79,-0.14,26.09
7481,0.3395,-0.0078,0.8613,-6.41,7.89,-0.03,26.09
7491,0.3394,-0.0076,0.8647,-6.43,7.85,0.03,26.07
7501,0.3419,-0.0093,0.858,-6.38,7.8,-0.05,26.07
7511,0.3416,-0.007,0.8597,-6.37,7.86,0.02,26.07
7521,0.3424,-0.0104,0.863,-6.43,7.77,0.03,26.08
7531,0.3422,-0.0089,0.8611,-6.41,7.83,0.0,26.06
7541,0.3394,-0.0092,0.8591,-6.41,7.82,-0.05,26.08
7551,0.3389,-0.0096,0.8671,-6.44,7.82,-0.11,26.08
7562,0.3385,-0.0106,0.8649,-6.43,7.82,-0.03,26.07
7572,0.339,-0.0085,0.8629,-6.47,7.82,-0.06,26.06
7582,0.3412,-0.0103,0.8641,-6.5,7.76,-0.05,26.07
7592,0.3412,-0.0089,0.8599,-6.5,7.85,0.03,26.07
7602,0.3403,-0.0089,0.8616,-6.47,7.89,-0.08,26.06
7612,0.3373,-0.0111,0.86,-6.43,7.86,-0.12,26.05
7622,0.3392,-0.0094,0.8602,-6.43,7.82,0.02,26.07
7632,0.3386,-0.0085,0.8596,-6.34,7.82,-0.02,26.06
7642,0.3408,-0.0094,0.8623,-6.41,7.77,-0.05,26.07
7652,0.338,-0.0109,0.8607,-6.46,7.8,-0.02,26.05
7662,0.3411,-0.0079,0.8652,-6.43,7.85,-0.06,26.08
7672,0.3422,-0.0116,0.8622,-6.43,7.86,-0.08,26.07
7682,0.3425,-0.0089,0.8622,-6.47,7.73,-0.02,26.09
7692,0.342,-0.0078,0.863,-6.47,7.89,0.0,26.07
7702,0.3396,-0.0127,0.8651,-6.37,7.83,-0.06,26.09
7712,0.3384,-0.0095,0.866,-6.31,7.83,-0.06,26.11
7722,0.3424,-0.0082,0.8634,-6.38,7.82,0.06,26.1
7732,0.3409,-0.0077,0.8647,-6.43,7.83,0.0,26.07
7742,0.3414,-0.0089,0.8606,-6.41,7.85,-0.05,26.1
7752,0.3408,-0.01,0.8617,-6.44,7.89,0.06,26.07
7762,0.3372,-0.0103,0.8588,-6.26,7.88,-0.11,26.09
7772,0.3401,-0.0095,0.8655,-6.32,7.82,0.03,26.08
7783,0.3427,-0.0084,0.8616,-6.44,7.82,0.03,26.08
7793,0.3413,-0.0127,0.8624,-6.43,7.8,-0.02,26.07
7803,0.3364,-0.0109,0.8643,-6.47,7.82,-0.02,26.08
7813,0.3419,-0.0095,0.8616,-6.43,7.89,-0.06,26.07
7823,0.3427,-0.0132,0.8596,-6.38,7.88,-0.09,26.09
7833,0.3406,-0.0095,0.8612,-6.37,7.85,-0.09,26.1
7843,0.3396,-0.0112,0.8615,-6.46,7.83,-0.14,26.08
7853,0.3391,-0.0081,0.8641,-6.35,7.85,-0.08,26.06
7863,0.3392,-0.0101,0.8599,-6.47,7.79,-0.06,26.11
7873,0.3427,-0.0095,0.8583,-6.47,7.8,-0.05,26.08
7883,0.3403,-0.0067,0.8635,-6.46,7.85,-0.05,26.08
7893,0.3427,-0.0065,0.8633,-6.46,7.74,0.03,26.05
7903,0.344,-0.0115,0.8638,-6.41,7.86,0.02,26.09
7913,0.3379,-0.0066,0.8593,-6.43,7.73,-0.06,26.11
7923,0.3389,-0.0077,0.8641,-6.41,7.79,-0.03,26.08
7933,0.3403,-0.0085,0.8608,-6.35,7.77,-0.03,26.11
7943,0.3417,-0.0114,0.8625,-6.4,7.83,0.06,26.09
7953,0.3374,-0.0078,0.8619,-6.34,7.91,0.02,26.07
7963,0.3405,-0.009,0.8655,-6.44,7.83,-0.11,26.08
7973,0.3386,-0.011,0.8657,-6.46,7.79,-0.05,26.09
7983,0.339,-0.0098,0.8634,-6.32,7.8,-0.06,26.06
7993,0.3408,-0.0094,0.863,-6.47,7.86,-0.08,26.08
8003,0.3422,-0.0073,0.8649,-6.5,7.79,-0.03,26.09
8013,0.3395,-0.0126,0.8624,-6.43,7.79,-0.03,26.07
8023,0.3391,-0.009,0.8601,-6.49,7.91,-0.06,26.09
8033,0.3405,-0.0104,0.8634,-6.41,7.82,0.02,26.08
8043,0.3435,-0.0114,0.8613,-6.37,7.83,0.02,26.06
8053,0.3408,-0.0106,0.8666,-6.5,7.91,-0.02,26.08
8063,0.3403,-0.0101,0.8658,-6.41,7.86,-0.02,26.07
8074,0.3423,-0.0089,0.8601,-6.41,7.82,-0.05,26.07
8084,0.3417,-0.0085,0.8662,-6.49,7.79,-0.08,26.09
8095,0.3396,-0.0065,0.8665,-6.47,7.8,-0.06,26.08
8105,0.3376,-0.0083,0.8625,-6.46,7.8,-0.08,26.08
8115,0.3378,-0.0094,0.8627,-6.37,7.88,-0.05,26.1
8125,0.3385,-0.0114,0.86,-6.41,7.85,-0.02,26.11
8135,0.3414,-0.0082,0.8633,-6.41,7.79,-0.08,26.11
8145,0.3428,-0.01,0.8632,-6.4,7.77,-0.06,26.1
8155,0.3384,-0.0105,0.861,-6.46,7.8,-0.09,26.09
8165,0.3414,-0.0098,0.8625,-6.4,7.8,0.0,26.11
8175,0.3403,-0.0107,0.863,-6.52,7.85,-0.06,26.1
8185,0.3376,-0.011,0.858,-6.37,7.83,0.03,26.09
8195,0.3395,-0.0089,0.8647,-6.46,7.83,0.03,26.12
8205,0.3395,-0.0076,0.8655,-6.49,7.77,0.0,26.13
8215,0.3394,-0.0068,0.8583,-6.44,7.83,-0.08,26.1
8225,0.3422,-0.0118,0.8618,-6.44,7.77,-0.08,26.09
8235,0.3402,-0.0111,0.8644,-6.43,7.77,-0.03,26.12
8245,0.3395,-0.0106,0.8633,-6.38,7.89,0.0,26.11
8255,0.3416,-0.0109,0.8668,-6.35,7.79,-0.06,26.09
8265,0.3429,-0.0082,0.8644,-6.49,7.85,-0.08,26.08
8275,0.3406,-0.0082,0.8635,-6.43,7.8,-0.03,26.11
8285,0.3427,-0.0098,0.8606,-6.38,7.88,-0.06,26.1
8295,0.3403,-0.0105,0.8643,-6.5,7.8,0.0,26.09
8305,0.3406,-0.0093,0.8676,-6.61,7.86,-0.11,26.09
8315,0.3401,-0.0104,0.8612,-6.52,7.85,-0.06,26.11
8325,0.3423,-0.0107,0.8597,-6.49,7.83,0.05,26.09
8335,0.3423,-0.0088,0.8577,-6.38,7.77,0.03,26.11
8345,0.3376,-0.0099,0.8643,-6.4,7.83,-0.08,26.07
8355,0.34,-0.0109,0.8619,-6.4,7.79,-0.06,26.1
8365,0.3381,-0.0084,0.8606,-6.49,7.76,-0.03,26.1
8376,0.3397,-0.0089,0.8619,-6.32,7.85,-0.09,26.09
8386,0.3423,-0.0084,0.8635,-6.47,7.92,0.0,26.1
8396,0.3413,-0.0076,0.8647,-6.49,7.82,-0.08,26.09
8407,0.34,-0.0098,0.8618,-6.37,7.86,-0.02,26.12
8417,0.3376,-0.0063,0.8656,-6.46,7.83,-0.03,26.09
8427,0.3407,-0.0094,0.8617,-6.49,7.8,-0.02,26.09
8437,0.3405,-0.0081,0.859,-6.49,7.82,0.05,26.1
8447,0.3424,-0.0103,0.8638,-6.47,7.8,-0.05,26.11
8457,0.3395,-0.0073,0.8633,-6.44,7.83,-0.03,26.09
8467,0.3386,-0.0099,0.8674,-6.32,7.89,0.0,26.13
8477,0.3418,-0.0106,0.865,-6.44,7.79,-0.02,26.1
8487,0.3418,-0.01,0.8635,-6.56,7.76,0.06,26.1
8497,0.3412,-0.0105,0.8624,-6.43,7.86,0.02,26.11
8507,0.343,-0.0079,0.8628,-6.41,7.79,0.05,26.1
8517,0.3392,-0.0104,0.8611,-6.41,7.83,0.0,26.09
8527,0.3402,-0.0103,0.8654,-6.5,7.86,-0.02,26.09
8537,0.3403,-0.0087,0.8615,-6.31,7.83,0.02,26.11
8547,0.3392,-0.0092,0.8613,-6.5,7.85,-0.08,26.11
8557,0.3413,-0.0087,0.8617,-6.46,7.77,-0.08,26.1
8567,0.3414,-0.012,0.864,-6.34,7.79,-0.12,26.1
8577,0.3402,-0.0094,0.8618,-6.34,7.83,0.03,26.09
8587,0.3419,-0.0109,0.8627,-6.41,7.8,0.0,26.1
8597,0.3417,-0.0122,0.8606,-6.49,7.77,-0.03,26.09
8607,0.3381,-0.009,0.8605,-6.35,7.91,0.02,26.11
8617,0.3411,-0.0099,0.864,-6.5,7.85,0.03,26.09
8627,0.3403,-0.0101,0.8647,-6.43,7.85,-0.03,26.1
8637,0.3412,-0.0093,0.8643,-6.46,7.86,0.03,26.13
8647,0.3408,-0.0078,0.8633,-6.43,7.85,-0.08,26.12
8657,0.3412,-0.0104,0.8655,-6.29,7.91,0.06,26.09
8667,0.3412,-0.0083,0.8643,-6.41,7.86,0.03,26.12
8677,0.3403,-0.0089,0.8647,-6.32,7.79,-0.05,26.12
8687,0.3422,-0.0067,0.8649,-6.43,7.83,0.0,26.11
8697,0.3417,-0.0114,0.8624,-6.49,7.82,0.03,26.13
8707,0.3416,-0.0104,0.8623,-6.41,7.82,-0.03,26.14
8717,0.342,-0.0096,0.8594,-6.47,7.82,0.03,26.12
8727,0.3418,-0.0098,0.8628,-6.44,7.88,0.06,26.13
8737,0.3395,-0.0115,0.8624,-6.46,7.85,-0.02,26.12
8747,0.3395,-0.0093,0.8602,-6.38,7.88,-0.08,26.12
8757,0.3378,-0.0139,0.8589,-6.52,7.86,0.05,26.14
8767,0.3391,-0.0094,0.8613,-6.44,7.8,0.0,26.11
8777,0.3417,-0.0049,0.8635,-6.43,7.83,-0.05,26.11
8787,0.3406,-0.0072,0.8589,-6.4,7.79,-0.02,26.13
8797,0.3405,-0.0092,0.8627,-6.49,7.89,-0.02,26.13
8807,0.3391,-0.0112,0.8649,-6.44,7.95,-0.02,26.12
8817,0.3401,-0.0107,0.8591,-6.44,7.85,-0.05,26.13
8827,0.3412,-0.007,0.8616,-6.34,7.92,-0.05,26.13
8837,0.3383,-0.0085,0.86,-6.38,7.83,-0.06,26.12
8847,0.3408,-0.0066,0.8632,-6.46,7.86,-0.08,26.1
8857,0.3398,-0.0083,0.8629,-6.47,7.77,-0.08,26.1
8867,0.3397,-0.0094,0.8639,-6.52,7.85,-0.03,26.11
8877,0.342,-0.0094,0.8619,-6.44,7.85,0.0,26.11
8887,0.3407,-0.0085,0.8617,-6.47,7.88,-0.09,26.09
8897,0.34,-0.0079,0.863,-6.49,7.82,0.02,26.11
8907,0.3398,-0.0095,0.8649,-6.35,7.77,0.05,26.11
8917,0.3381,-0.0122,0.8608,-6.41,7.79,-0.06,26.1
8927,0.3394,-0.0106,0.8591,-6.47,7.86,0.0,26.12
8937,0.3397,-0.0095,0.8624,-6.49,7.88,-0.02,26.1
8947,0.3385,-0.0115,0.8649,-6.38,7.86,0.02,26.1
8957,0.3398,-0.0118,0.8641,-6.44,7.88,0.06,26.1
8967,0.3412,-0.0089,0.859,-6.47,7.82,-0.05,26.09
8977,0.3389,-0.0135,0.8632,-6.49,7.77,0.06,26.09
8987,0.3408,-0.0073,0.866,-6.4,7.85,-0.02,26.12
8997,0.3409,-0.0084,0.8646,-6.53,7.86,-0.03,26.13
9007,0.3401,-0.0093,0.8615,-6.44,7.79,0.0,26.09
9017,0.3385,-0.0092,0.8638,-6.55,7.8,0.0,26.1
9027,0.3408,-0.007,0.8655,-6.46,7.82,-0.12,26.09
9037,0.3422,-0.0096,0.8616,-6.49,7.88,-0.02,26.09
9047,0.3387,-0.0074,0.8594,-6.43,7.86,0.06,26.09
9057,0.3405,-0.0081,0.8666,-6.43,7.82,-0.02,26.1
9067,0.3434,-0.007,0.8662,-6.46,7.86,0.05,26.12
9077,0.342,-0.0106,0.8617,-6.49,7.82,-0.03,26.12
9087,0.3416,-0.009,0.8649,-6.41,7.77,-0.11,26.13
9097,0.3394,-0.0096,0.8622,-6.44,7.85,-0.09,26.1
9107,0.3406,-0.009,0.8617,-6.4,7.77,-0.05,26.1
9117,0.3429,-0.0094,0.8621,-6.44,7.86,0.05,26.09
9127,0.342,-0.0114,0.861,-6.55,7.71,-0.08,26.08
9137,0.3387,-0.0087,0.8602,-6.35,7.8,-0.08,26.13
9147,0.3376,-0.0117,0.864,-6.47,7.89,-0.08,26.11
9157,0.3397,-0.0083,0.8678,-6.47,7.77,0.0,26.1
9167,0.3392,-0.0088,0.8636,-6.46,7.86,-0.05,26.09
9177,0.3411,-0.0107,0.8619,-6.46,7.79,0.02,26.12
9187,0.3411,-0.0129,0.8586,-6.46,7.77,-0.05,26.09
9197,0.3386,-0.0072,0.8615,-6.49,7.83,0.03,26.11
9207,0.3402,-0.0099,0.8627,-6.46,7.85,0.02,26.11
9217,0.3417,-0.0095,0.8623,-6.44,7.88,-0.02,26.09
9227,0.3389,-0.0103,0.8583,-6.35,7.79,0.0,26.1
9237,0.3373,-0.0083,0.8602,-6.43,7.83,-0.06,26.1
9247,0.3425,-0.0101,0.8671,-6.44,7.82,0.0,26.12
9257,0.3425,-0.0122,0.8655,-6.38,7.82,-0.05,26.11
9267,0.343,-0.0085,0.8579,-6.55,7.79,-0.05,26.12
9277,0.3411,-0.0079,0.8638,-6.44,7.89,-0.09,26.1
9287,0.342,-0.0082,0.8597,-6.46,7.77,0.03,26.09
9299,0.3397,-0.0109,0.8623,-6.41,7.92,-0.02,26.14
9310,0.3416,-0.0074,0.8616,-6.44,7.77,-0.02,26.14
9320,0.3398,-0.0073,0.8633,-6.41,7.77,-0.03,26.12
9330,0.3414,-0.0116,0.8687,-6.35,7.88,-0.08,26.14
9340,0.3412,-0.0109,0.8636,-6.35,7.76,-0.05,26.11
9350,0.3412,-0.01,0.8612,-6.47,7.86,-0.03,26.14
9360,0.3422,-0.0104,0.8633,-6.43,7.77,0.0,26.13
9370,0.3418,-0.0082,0.865,-6.38,7.77,-0.03,26.1
9380,0.3408,-0.0093,0.8623,-6.47,7.77,0.02,26.11
9390,0.3403,-0.011,0.8599,-6.4,7.89,0.02,26.13
9400,0.3411,-0.0104,0.8605,-6.38,7.76,0.02,26.14
9410,0.3376,-0.007,0.8615,-6.41,7.85,-0.14,26.12
9420,0.3405,-0.0117,0.8623,-6.47,7.83,-0.05,26.12
9432,0.3386,-0.0093,0.8662,-6.34,7.85,-0.08,26.13
9442,0.3409,-0.0093,0.8618,-6.44,7.83,0.02,26.14
9452,0.3434,-0.0074,0.863,-6.44,7.83,-0.11,26.14
9463,0.3407,-0.0116,0.8625,-6.47,7.91,0.06,26.14
9473,0.3423,-0.011,0.8619,-6.41,7.92,-0.05,26.12
9483,0.3398,-0.0083,0.8635,-6.47,7.88,-0.05,26.12
9493,0.34,-0.0088,0.8619,-6.41,7.8,-0.06,26.13
9503,0.3412,-0.0082,0.8661,-6.38,7.8,0.09,26.11
9513,0.3397,-0.0126,0.8604,-6.47,7.79,0.0,26.15
9523,0.3397,-0.0105,0.8641,-6.43,7.83,-0.03,26.14
9533,0.3396,-0.006,0.865,-6.44,7.85,0.0,26.13
9543,0.3416,-0.0079,0.8636,-6.4,7.85,-0.06,26.15
9553,0.3402,-0.0096,0.8663,-6.46,7.74,0.0,26.13
9563,0.3419,-0.011,0.865,-6.43,7.8,0.0,26.11
9573,0.3396,-0.0109,0.8638,-6.47,7.77,0.03,26.11
9583,0.3378,-0.0103,0.8622,-6.43,7.85,-0.03,26.09
9593,0.3396,-0.0068,0.8654,-6.38,7.85,-0.03,26.14
9603,0.343,-0.009,0.8636,-6.38,7.8,0.0,26.14
9613,0.3406,-0.0082,0.8651,-6.44,7.77,0.05,26.14
9623,0.3384,-0.0106,0.866,-6.5,7.74,-0.06,26.11
9633,0.3384,-0.0082,0.8621,-6.43,7.83,0.05,26.13
9643,0.3406,-0.0088,0.8641,-6.47,7.77,-0.03,26.14
9653,0.3396,-0.0106,0.8638,-6.41,7.86,-0.05,26.14
9663,0.3398,-0.0099,0.8645,-6.49,7.79,-0.17,26.15
9673,0.3416,-0.0101,0.8608,-6.47,7.83,-0.02,26.14
9683,0.3405,-0.0079,0.8615,-6.46,7.8,0.05,26.13
9693,0.3385,-0.0117,0.8671,-6.5,7.82,-0.08,26.12
9703,0.34,-0.0112,0.8595,-6.47,7.82,-0.02,26.12
9713,0.3414,-0.0089,0.8582,-6.52,7.86,0.03,26.14
9723,0.338,-0.0084,0.8627,-6.4,7.76,0.0,26.13
9733,0.3407,-0.0117,0.8634,-6.41,7.83,-0.06,26.16
9743,0.3429,-0.0092,0.8586,-6.41,7.77,-0.03,26.13
9753,0.34,-0.007,0.8583,-6.46,7.86,0.03,26.13
9763,0.3381,-0.0059,0.8629,-6.52,7.8,0.02,26.12
9773,0.3401,-0.0074,0.8596,-6.46,7.86,-0.14,26.13
9783,0.3387,-0.0099,0.8613,-6.41,7.91,-0.06,26.14
9793,0.3418,-0.0095,0.8627,-6.46,7.8,0.03,26.11
9804,0.3398,-0.0106,0.8657,-6.46,7.83,-0.03,26.13
9814,0.3414,-0.0098,0.8625,-6.49,7.8,-0.03,26.13
9824,0.3385,-0.0118,0.8606,-6.5,7.83,-0.06,26.13
9835,0.3392,-0.0112,0.8666,-6.44,7.77,0.02,26.15
9845,0.3409,-0.0084,0.8622,-6.46,7.77,-0.06,26.16
9855,0.3392,-0.0083,0.8627,-6.44,7.86,-0.08,26.14
9865,0.3411,-0.0096,0.8627,-6.46,7.83,-0.18,26.14
9875,0.3359,-0.0096,0.8632,-6.5,7.82,-0.03,26.16
9885,0.3394,-0.012,0.863,-6.44,7.76,-0.02,26.15
9895,0.3407,-0.0109,0.8654,-6.6,7.82,-0.03,26.14
9905,0.3424,-0.01,0.8625,-6.37,7.79,-0.08,26.13
9915,0.3386,-0.0094,0.8579,-6.53,7.8,-0.02,26.14
9925,0.3409,-0.0093,0.8619,-6.43,7.83,-0.05,26.14
9935,0.3405,-0.0087,0.8647,-6.49,7.8,-0.08,26.14
9945,0.3419,-0.0088,0.8624,-6.5,7.82,-0.05,26.12
9955,0.3381,-0.0129,0.8639,-6.41,7.85,-0.03,26.14
9965,0.3442,-0.0099,0.8646,-6.44,7.76,0.03,26.14
9975,0.3406,-0.0106,0.8619,-6.43,7.8,-0.05,26.14
9985,0.3397,-0.0084,0.864,-6.43,7.83,0.08,26.15
9995,0.3412,-0.0081,0.8611,-6.38,7.86,0.06,26.13
10005,0.3396,-0.0096,0.864,-6.4,7.82,-0.03,26.16
10015,0.3406,-0.0099,0.8595,-6.44,7.86,-0.09,26.14
10025,0.3376,-0.0093,0.8636,-6.49,7.77,-0.05,26.14
10035,0.3405,-0.0093,0.8658,-6.47,7.82,-0.02,26.12
10045,0.3435,-0.0105,0.8595,-6.34,7.85,0.02,26.15
10055,0.3416,-0.0104,0.8623,-6.41,7.82,-0.05,26.14
10065,0.3408,-0.0078,0.8607,-6.38,7.79,-0.05,26.14
10075,0.3394,-0.0106,0.8633,-6.47,7.73,-0.11,26.1
10085,0.3401,-0.0077,0.8639,-6.5,7.88,0.08,26.14
10095,0.3398,-0.0104,0.8643,-6.53,7.86,-0.02,26.13
10105,0.3403,-0.012,0.8632,-6.41,7.83,-0.03,26.13
10115,0.3416,-0.0107,0.8599,-6.44,7.79,0.0,26.14
10125,0.3376,-0.0101,0.8591,-6.47,7.83,-0.08,26.14
10135,0.3411,-0.0106,0.8665,-6.41,7.79,-0.06,26.14
10145,0.3408,-0.0077,0.864,-6.37,7.88,-0.05,26.15
10155,0.3397,-0.0081,0.8579,-6.32,7.79,-0.02,26.16
10165,0.3374,-0.0081,0.8605,-6.53,7.8,-0.09,26.12
10175,0.3422,-0.0089,0.8607,-6.41,7.92,-0.02,26.14
10185,0.3417,-0.0081,0.8652,-6.52,7.86,0.02,26.15
10195,0.3411,-0.0081,0.8662,-6.4,7.85,-0.05,26.14
10205,0.3418,-0.0067,0.8633,-6.49,7.82,-0.02,26.15
10215,0.3419,-0.0078,0.8633,-6.53,7.88,0.0,26.15
10225,0.3402,-0.0077,0.8619,-6.55,7.76,-0.03,26.16
10235,0.3408,-0.0096,0.8636,-6.53,7.79,-0.09,26.15
10245,0.3413,-0.0067,0.8613,-6.49,7.82,-0.03,26.14
10255,0.3402,-0.0068,0.8613,-6.58,7.76,-0.03,26.13
10265,0.34,-0.0073,0.8608,-6.41,7.85,0.06,26.14
10275,0.3365,-0.0088,0.8666,-6.4,7.82,0.0,26.14
10285,0.3401,-0.0118,0.8627,-6.46,7.89,0.06,26.17
10303,0.3408,-0.0093,0.8639,-6.38,7.86,-0.03,26.15
10313,0.3427,-0.0107,0.8623,-6.53,7.73,-0.03,26.15
10323,0.3392,-0.0092,0.8636,-6.49,7.88,-0.06,26.16
10333,0.3401,-0.0077,0.8641,-6.46,7.83,-0.05,26.16
10343,0.3424,-0.0076,0.8671,-6.5,7.76,-0.09,26.14
10353,0.3424,-0.012,0.8632,-6.43,7.86,-0.05,26.17
10363,0.3414,-0.0103,0.861,-6.43,7.86,0.0,26.16
10373,0.3406,-0.0099,0.8638,-6.46,7.82,-0.03,26.14
10383,0.3406,-0.0045,0.865,-6.37,7.86,-0.03,26.17
10393,0.3398,-0.0093,0.865,-6.41,7.74,-0.02,26.15
10403,0.3406,-0.0063,0.8683,-6.43,7.76,0.0,26.16
10413,0.3408,-0.0085,0.8612,-6.52,7.86,-0.06,26.15
10423,0.3402,-0.0081,0.8658,-6.44,7.91,0.02,26.17
10433,0.34,-0.0112,0.8617,-6.47,7.88,0.08,26.18
10443,0.3412,-0.0074,0.8629,-6.35,7.79,-0.02,26.16
10453,0.3431,-0.012,0.8623,-6.4,7.79,-0.11,26.18
10463,0.3394,-0.0072,0.8647,-6.47,7.86,0.0,26.16
10473,0.3436,-0.0087,0.8647,-6.44,7.83,-0.06,26.18
10483,0.3416,-0.0078,0.863,-6.38,7.85,-0.05,26.16
10493,0.3385,-0.0093,0.8645,-6.38,7.82,0.0,26.16
10503,0.3417,-0.0096,0.8665,-6.52,7.82,-0.03,26.14
10513,0.3375,-0.0117,0.8602,-6.44,7.83,0.05,26.16
10523,0.3417,-0.0092,0.8643,-6.43,7.86,-0.03,26.17
10533,0.3394,-0.0088,0.8601,-6.34,7.83,0.02,26.17
10543,0.3397,-0.0081,0.8658,-6.4,7.83,-0.05,26.14
10553,0.3417,-0.0106,0.8677,-6.41,7.83,0.0,26.17
10563,0.3407,-0.0107,0.8617,-6.41,7.85,0.02,26.15
10573,0.3441,-0.0095,0.8638,-6.44,7.82,0.08,26.17
10583,0.34,-0.0126,0.866,-6.46,7.77,-0.02,26.16
10593,0.3429,-0.0101,0.8617,-6.41,7.79,-0.11,26.19
10603,0.3412,-0.01,0.8646,-6.4,7.77,-0.03,26.16
10613,0.3395,-0.0074,0.8632,-6.37,7.88,-0.08,26.15
10623,0.34,-0.0093,0.8613,-6.4,7.8,-0.08,26.17
10633,0.3392,-0.0083,0.8632,-6.37,7.79,-0.08,26.17
10643,0.3409,-0.0099,0.8641,-6.37,7.82,-0.11,26.14
10653,0.3413,-0.0093,0.8651,-6.41,7.86,-0.05,26.17
10663,0.3406,-0.0056,0.8645,-6.4,7.85,0.02,26.16
10673,0.3417,-0.0068,0.8615,-6.43,7.91,-0.02,26.15
10683,0.3398,-0.0056,0.8654,-6.47,7.79,-0.15,26.15
10693,0.3417,-0.0092,0.8665,-6.38,7.82,-0.11,26.15
10703,0.3375,-0.0094,0.8628,-6.35,7.76,-0.05,26.14
10713,0.3412,-0.0071,0.8657,-6.38,7.8,0.02,26.15
10723,0.3385,-0.0065,0.8655,-6.4,7.85,0.05,26.16
10733,0.3435,-0.0098,0.8596,-6.41,7.77,-0.06,26.15
10743,0.342,-0.0114,0.8643,-6.35,7.85,-0.03,26.15
10753,0.3386,-0.0106,0.8628,-6.38,7.88,0.06,26.15
10763,0.3398,-0.0095,0.8605,-6.46,7.85,0.02,26.17
10773,0.3401,-0.0095,0.8601,-6.49,7.85,-0.06,26.15
10783,0.3424,-0.0093,0.8625,-6.46,7.86,0.05,26.16
10793,0.3402,-0.0115,0.8636,-6.49,7.91,0.0,26.16
10803,0.3386,-0.0088,0.8635,-6.46,7.8,-0.02,26.16
10813,0.3391,-0.0098,0.8628,-6.55,7.88,0.03,26.14
10823,0.3416,-0.011,0.8613,-6.4,7.82,-0.02,26.17
10833,0.3405,-0.0095,0.8628,-6.43,7.86,-0.02,26.14
10843,0.3398,-0.0087,0.8641,-6.38,7.89,-0.02,26.14
10853,0.337,-0.0089,0.859,-6.44,7.83,-0.08,26.15
10863,0.339,-0.007,0.8655,-6.5,7.86,-0.09,26.16
10873,0.3416,-0.009,0.863,-6.5,7.83,-0.03,26.16
10883,0.3395,-0.0104,0.8632,-6.44,7.83,-0.02,26.14
10893,0.3381,-0.0109,0.8676,-6.38,7.85,-0.03,26.19
10903,0.3391,-0.009,0.8634,-6.4,7.85,-0.05,26.15
10913,0.3427,-0.0095,0.8615,-6.52,7.85,-0.09,26.16
10923,0.339,-0.0122,0.8663,-6.46,7.79,-0.02,26.19
10933,0.3406,-0.009,0.8605,-6.4,7.82,-0.06,26.17
10943,0.34,-0.0101,0.8617,-6.44,7.82,-0.03,26.14
10953,0.3408,-0.0103,0.8612,-6.46,7.86,-0.08,26.17
10963,0.3409,-0.0093,0.8611,-6.43,7.79,-0.03,26.17
10973,0.3418,-0.0107,0.8662,-6.44,7.8,-0.05,26.17
10983,0.3409,-0.011,0.8629,-6.38,7.85,-0.03,26.15
10993,0.3394,-0.0059,0.8605,-6.5,7.82,0.0,26.14
11003,0.342,-0.01,0.8641,-6.41,7.79,0.05,26.16
11013,0.3398,-0.0096,0.8618,-6.41,7.83,-0.09,26.16
11023,0.3422,-0.0071,0.8633,-6.46,7.88,0.02,26.18
11033,0.3386,-0.0085,0.8629,-6.43,7.85,0.0,26.15
11043,0.3383,-0.0101,0.86,-6.52,7.88,-0.05,26.17
11053,0.3411,-0.0117,0.8623,-6.5,7.92,-0.09,26.17
11063,0.3413,-0.0117,0.8572,-6.4,7.83,0.02,26.17
11073,0.3384,-0.0107,0.8607,-6.46,7.8,0.02,26.16
11083,0.3413,-0.0093,0.8636,-6.5,7.79,-0.03,26.15
11093,0.3417,-0.0063,0.865,-6.38,7.68,-0.11,26.17
11103,0.3381,-0.0081,0.8672,-6.38,7.83,0.02,26.17
11113,0.3419,-0.0103,0.8645,-6.49,7.79,-0.06,26.17
11123,0.3389,-0.0071,0.8629,-6.47,7.77,0.09,26.17
11133,0.3409,-0.0099,0.8665,-6.44,7.8,-0.09,26.17
11143,0.3384,-0.0114,0.8666,-6.43,7.86,-0.03,26.16
11153,0.3419,-0.0129,0.8613,-6.44,7.8,-0.05,26.18
11163,0.3385,-0.0093,0.8595,-6.47,7.77,-0.05,26.15
11173,0.3438,-0.0123,0.8639,-6.44,7.83,-0.05,26.17
11183,0.3463,-0.0114,0.863,-6.38,7.82,-0.08,26.14
11193,0.3427,-0.0066,0.8622,-6.5,7.89,-0.02,26.17
11203,0.3409,-0.0099,0.8613,-6.37,7.8,-0.02,26.18
11213,0.3391,-0.0096,0.8636,-6.43,7.79,-0.06,26.19
11223,0.3406,-0.009,0.8643,-6.47,7.89,-0.05,26.18
11233,0.3402,-0.0079,0.8654,-6.47,7.86,0.03,26.18
11243,0.3407,-0.0096,0.863,-6.35,7.79,0.06,26.19
11253,0.3401,-0.0074,0.8636,-6.43,7.85,-0.03,26.19
11263,0.3386,-0.009,0.8625,-6.52,7.8,0.0,26.17
11273,0.3411,-0.0094,0.8568,-6.4,7.83,0.0,26.18
11283,0.3411,-0.0104,0.86,-6.44,7.8,0.02,26.16
11293,0.3407,-0.0107,0.8611,-6.41,7.8,0.02,26.18
11303,0.3433,-0.0105,0.8599,-6.37,7.86,0.03,26.19
11313,0.3389,-0.0109,0.8621,-6.43,7.82,-0.03,26.19
11323,0.3418,-0.0093,0.8601,-6.49,7.79,0.02,26.19
11333,0.3418,-0.0082,0.8654,-6.44,7.86,-0.06,26.2
11343,0.3397,-0.0063,0.8629,-6.46,7.79,-0.06,26.18
11353,0.339,-0.0079,0.8635,-6.41,7.79,0.05,26.17
11363,0.3401,-0.0077,0.8632,-6.52,7.82,0.06,26.19
11373,0.3385,-0.0063,0.866,-6.41,7.88,-0.14,26.18
11383,0.3391,-0.0098,0.8616,-6.4,7.82,-0.03,26.19
11393,0.3397,-0.0084,0.8636,-6.52,7.88,0.0,26.18
11403,0.3442,-0.011,0.8636,-6.43,7.82,-0.08,26.2
11413,0.3411,-0.0103,0.8635,-6.43,7.83,-0.02,26.18
11423,0.3394,-0.0073,0.865,-6.49,7.86,-0.03,26.16
11433,0.3392,-0.0095,0.8613,-6.41,7.88,-0.08,26.16
11443,0.3419,-0.0067,0.866,-6.44,7.86,0.0,26.18
11453,0.3394,-0.0076,0.8636,-6.46,7.83,-0.05,26.19
11463,0.3413,-0.0107,0.8621,-6.43,7.91,-0.05,26.19
11473,0.3413,-0.0077,0.8634,-6.43,7.77,-0.06,26.18
11483,0.3417,-0.0083,0.8655,-6.37,7.82,-0.02,26.18
11493,0.3414,-0.01,0.864,-6.41,7.79,-0.05,26.17
11503,0.34,-0.0092,0.8667,-6.41,7.82,-0.02,26.17
11513,0.3383,-0.0085,0.8638,-6.43,7.86,0.02,26.18
11523,0.3407,-0.0052,0.861,-6.4,7.82,-0.12,26.18
11533,0.3411,-0.0099,0.8617,-6.41,7.92,-0.03,26.19
11543,0.3391,-0.0107,0.8611,-6.46,7.83,-0.03,26.16
11553,0.3433,-0.0084,0.8601,-6.46,7.85,-0.08,26.17
11563,0.3406,-0.0125,0.8657,-6.52,7.88,-0.03,26.17
11573,0.3396,-0.0121,0.8623,-6.44,7.89,0.03,26.2
11583,0.338,-0.007,0.8644,-6.41,7.83,-0.06,26.19
11593,0.3395,-0.0074,0.8667,-6.52,7.88,0.02,26.18
11603,0.3391,-0.0114,0.8667,-6.4,7.91,-0.12,26.17
11613,0.3423,-0.0127,0.8647,-6.4,7.91,-0.03,26.19
11623,0.3418,-0.0082,0.8645,-6.37,7.88,-0.08,26.19
11633,0.3423,-0.0107,0.8634,-6.46,7.86,-0.05,26.18
11643,0.3398,-0.0085,0.8647,-6.49,7.89,-0.08,26.18
11653,0.3397,-0.0095,0.8619,-6.49,7.79,-0.02,26.19
11663,0.3405,-0.0103,0.865,-6.46,7.94,-0.05,26.18
11673,0.3398,-0.014,0.8657,-6.43,7.74,-0.05,26.19
11683,0.3389,-0.0106,0.8645,-6.43,7.86,-0.05,26.19
11693,0.3409,-0.0077,0.8617,-6.46,7.92,-0.02,26.22
11703,0.3427,-0.0093,0.8606,-6.53,7.83,0.03,26.19
11713,0.3396,-0.0101,0.8585,-6.46,7.8,-0.02,26.2
11723,0.3395,-0.0121,0.8578,-6.38,7.83,-0.05,26.18
11733,0.3401,-0.01,0.8636,-6.44,7.88,0.03,26.2
11743,0.3431,-0.0085,0.8613,-6.5,7.79,-0.03,26.18
11753,0.3394,-0.0095,0.8597,-6.41,7.8,-0.08,26.19
11763,0.3381,-0.0082,0.8617,-6.53,7.83,0.02,26.22
11773,0.3391,-0.0088,0.8639,-6.46,7.88,0.08,26.19
11783,0.3395,-0.0088,0.8638,-6.4,7.85,0.08,26.17
11793,0.3431,-0.0123,0.8652,-6.52,7.83,-0.08,26.19
11803,0.3402,-0.0093,0.8618,-6.47,7.82,-0.06,26.19
11813,0.3396,-0.0081,0.8652,-6.41,7.86,0.05,26.18
11823,0.3359,-0.0099,0.8611,-6.5,7.83,-0.06,26.19
11833,0.3394,-0.0082,0.864,-6.43,7.82,-0.02,26.19
11844,0.3408,-0.0107,0.8638,-6.41,7.85,-0.02,26.18
11854,0.3374,-0.0116,0.8655,-6.46,7.85,-0.03,26.18
11864,0.3419,-0.0095,0.8583,-6.37,7.91,-0.05,26.2
11874,0.342,-0.0104,0.8622,-6.43,7.85,0.0,26.24
11884,0.3416,-0.0114,0.8646,-6.49,7.8,0.0,26.21
11894,0.3396,-0.0096,0.8596,-6.38,7.77,-0.03,26.21
11904,0.3405,-0.0111,0.8672,-6.34,7.82,-0.03,26.18
11914,0.3413,-0.0094,0.8662,-6.52,7.82,0.03,26.18
11924,0.3389,-0.0101,0.8634,-6.4,7.79,-0.05,26.2
11935,0.3402,-0.0083,0.8654,-6.44,7.76,-0.02,26.21
11945,0.34,-0.0056,0.8595,-6.53,7.79,0.08,26.21
11955,0.3391,-0.0073,0.8673,-6.43,7.88,-0.02,26.17
11965,0.3401,-0.01,0.863,-6.34,7.8,-0.14,26.19
11975,0.3416,-0.0079,0.863,-6.52,7.83,-0.06,26.2
11985,0.3392,-0.0099,0.8634,-6.5,7.8,-0.05,26.17
11995,0.3411,-0.0096,0.863,-6.43,7.8,-0.08,26.2
12005,0.3406,-0.0098,0.8599,-6.44,7.79,0.05,26.22
12015,0.3389,-0.0099,0.8634,-6.5,7.8,0.08,26.21
12025,0.3394,-0.0116,0.8707,-6.4,7.86,0.05,26.19
12035,0.3389,-0.0079,0.866,-6.4,7.82,-0.06,26.2
12045,0.3376,-0.0094,0.8647,-6.38,7.91,-0.03,26.2
12055,0.3392,-0.009,0.8639,-6.49,7.89,0.0,26.2
12065,0.3394,-0.0083,0.8599,-6.5,7.83,-0.06,26.2
12075,0.3391,-0.0084,0.8647,-6.43,7.88,-0.05,26.19
12085,0.3405,-0.0082,0.8599,-6.47,7.85,-0.08,26.2
12095,0.3372,-0.006,0.8624,-6.4,7.79,-0.05,26.19
12105,0.3402,-0.0072,0.8625,-6.44,7.89,-0.06,26.17
12115,0.3411,-0.0094,0.8652,-6.35,7.88,0.0,26.18
12125,0.3423,-0.0098,0.8654,-6.35,7.88,-0.11,26.19
12135,0.3409,-0.0089,0.8606,-6.38,7.82,-0.06,26.2
12145,0.3434,-0.0116,0.8595,-6.37,7.82,-0.03,26.2
12155,0.3408,-0.0107,0.8644,-6.44,7.85,0.02,26.18
12165,0.3407,-0.0099,0.8634,-6.46,7.83,-0.05,26.18
12175,0.3386,-0.0105,0.8618,-6.41,7.85,-0.08,26.21
12185,0.3385,-0.0111,0.8628,-6.41,7.82,-0.11,26.21
12195,0.3416,-0.012,0.8658,-6.49,7.82,0.02,26.19
12205,0.3427,-0.0096,0.8624,-6.49,7.88,0.0,26.19
12215,0.3409,-0.0093,0.8593,-6.44,7.91,-0.02,26.18
12225,0.3363,-0.0077,0.8622,-6.44,7.86,0.06,26.2
12235,0.3394,-0.0079,0.8619,-6.41,7.94,-0.03,26.21
12245,0.3385,-0.0105,0.8641,-6.53,7.85,-0.12,26.23
12255,0.3429,-0.0085,0.8665,-6.43,7.74,-0.03,26.21
12265,0.3395,-0.0105,0.8606,-6.5,7.73,-0.11,26.2
12275,0.3383,-0.0066,0.8619,-6.52,7.76,-0.09,26.21
12285,0.3405,-0.006,0.8628,-6.4,7.86,0.0,26.22
12296,0.3387,-0.0105,0.8652,-6.55,7.82,0.02,26.2
12310,0.3402,-0.009,0.8589,-6.49,7.85,0.0,26.19
12320,0.3398,-0.0073,0.8623,-6.53,7.85,-0.02,26.21
12330,0.3392,-0.0076,0.8612,-6.44,7.85,0.02,26.2
12340,0.3395,-0.009,0.8655,-6.52,7.92,-0.02,26.18
12350,0.34,-0.0093,0.8612,-6.41,7.85,-0.05,26.2
12360,0.3407,-0.0076,0.8611,-6.47,7.79,0.05,26.2
12370,0.3402,-0.0057,0.8629,-6.41,7.76,0.02,26.21
12380,0.3403,-0.0093,0.8624,-6.44,7.89,-0.06,26.23
12390,0.3413,-0.0099,0.8635,-6.49,7.79,-0.02,26.21
12400,0.3422,-0.009,0.8611,-6.46,7.86,-0.06,26.21
12410,0.3403,-0.0098,0.8601,-6.4,7.91,0.0,26.21
12420,0.3412,-0.0106,0.8619,-6.37,7.83,-0.02,26.19
12430,0.3385,-0.0084,0.8625,-6.4,7.92,0.06,26.2
12440,0.3391,-0.0061,0.8628,-6.41,7.89,-0.06,26.18
12450,0.3395,-0.0101,0.8607,-6.38,7.79,0.02,26.21
12460,0.3412,-0.0115,0.8612,-6.47,7.86,0.02,26.22
12470,0.3413,-0.0092,0.8634,-6.43,7.83,-0.11,26.18
12480,0.3402,-0.009,0.8596,-6.41,7.82,-0.03,26.23
12490,0.3402,-0.0101,0.8616,-6.49,7.85,0.02,26.21
12500,0.3409,-0.0084,0.8629,-6.41,7.85,-0.11,26.21
12510,0.34,-0.0109,0.8593,-6.38,7.91,-0.02,26.22
12520,0.3418,-0.0099,0.856,-6.43,7.85,0.02,26.23
12530,0.3419,-0.0125,0.8635,-6.44,7.89,-0.03,26.22
12540,0.3433,-0.0123,0.8669,-6.46,7.86,0.0,26.22
12550,0.3402,-0.0127,0.8634,-6.35,7.86,-0.02,26.21
12560,0.3395,-0.0098,0.8624,-6.44,7.83,0.03,26.19
12570,0.3414,-0.0098,0.8624,-6.47,7.8,-0.02,26.22
12580,0.34,-0.0118,0.8629,-6.44,7.76,-0.06,26.22
12590,0.3412,-0.0065,0.8604,-6.35,7.88,-0.08,26.21
12600,0.3403,-0.0082,0.8665,-6.41,7.79,0.08,26.21
12610,0.3383,-0.0094,0.8615,-6.47,7.82,0.0,26.19
12620,0.3381,-0.0116,0.8656,-6.4,7.82,-0.05,26.22
12630,0.3411,-0.011,0.8635,-6.41,7.73,-0.03,26.23
12640,0.3406,-0.0114,0.8606,-6.5,7.73,-0.09,26.23
12650,0.3408,-0.0095,0.861,-6.43,7.82,0.03,26.22
12660,0.342,-0.0082,0.8621,-6.49,7.82,-0.06,26.21
12670,0.3405,-0.0095,0.861,-6.43,7.86,0.03,26.21
12680,0.3411,-0.0117,0.8639,-6.43,7.86,-0.05,26.23
12690,0.3381,-0.0095,0.8644,-6.5,7.85,-0.08,26.22
12700,0.3428,-0.011,0.8615,-6.44,7.79,0.02,26.24
12710,0.3422,-0.009,0.8615,-6.41,7.82,0.03,26.21
12720,0.3402,-0.0094,0.8612,-6.52,7.89,-0.03,26.21
12730,0.3392,-0.011,0.8628,-6.34,7.79,0.03,26.22
12740,0.3422,-0.0105,0.8647,-6.4,7.8,-0.06,26.2
12750,0.3419,-0.0065,0.8652,-6.34,7.82,-0.05,26.22
12760,0.3439,-0.009,0.8623,-6.49,7.77,-0.02,26.25
12770,0.3376,-0.0121,0.8615,-6.46,7.82,-0.02,26.21
12780,0.339,-0.0112,0.8612,-6.47,7.82,-0.03,26.19
12791,0.3402,-0.0101,0.8644,-6.44,7.8,-0.11,26.2
12801,0.3389,-0.0082,0.8619,-6.47,7.83,-0.05,26.24
12811,0.3408,-0.0095,0.8628,-6.4,7.77,-0.08,26.23
12821,0.339,-0.0081,0.8612,-6.47,7.77,-0.06,26.21
12831,0.3392,-0.009,0.8644,-6.53,7.77,-0.03,26.22
12841,0.3407,-0.0096,0.8619,-6.37,7.83,-0.02,26.19
12851,0.3433,-0.009,0.8591,-6.44,7.88,-0.06,26.21
12861,0.3405,-0.0077,0.8599,-6.44,7.82,0.0,26.18
12871,0.3403,-0.0073,0.8639,-6.43,7.8,-0.03,26.21
12881,0.3389,-0.0118,0.8671,-6.4,7.79,-0.02,26.24
12891,0.3375,-0.0111,0.8593,-6.34,7.79,-0.05,26.21
12901,0.3429,-0.009,0.8639,-6.4,7.83,-0.08,26.22
12911,0.339,-0.0093,0.864,-6.44,7.79,0.02,26.2
12921,0.3445,-0.0098,0.8656,-6.49,7.82,-0.08,26.22
12931,0.3411,-0.0087,0.8655,-6.47,7.79,-0.09,26.21
12941,0.3407,-0.0083,0.8623,-6.49,7.89,-0.06,26.21
12951,0.3425,-0.0083,0.863,-6.46,7.91,0.03,26.23
12961,0.3406,-0.0089,0.8663,-6.46,7.88,-0.02,26.2
12971,0.3411,-0.0089,0.8616,-6.44,7.77,-0.03,26.19
12981,0.3406,-0.0112,0.8584,-6.41,7.88,-0.03,26.19
12991,0.34,-0.0098,0.8633,-6.47,7.85,0.0,26.17
13001,0.3391,-0.0054,0.8647,-6.46,7.77,-0.03,26.21
13011,0.338,-0.0087,0.8646,-6.44,7.8,-0.08,26.23
13021,0.3391,-0.0073,0.8666,-6.49,7.94,-0.05,26.2
13031,0.3427,-0.009,0.8634,-6.41,7.92,-0.05,26.22
13041,0.3381,-0.0089,0.8627,-6.46,7.85,0.0,26.24
13051,0.3385,-0.0065,0.8645,-6.5,7.88,0.02,26.19
13061,0.3398,-0.0096,0.8606,-6.43,7.85,-0.03,26.21
13072,0.3416,-0.0096,0.8639,-6.4,7.88,0.03,26.21
13082,0.3413,-0.0111,0.8652,-6.43,7.85,-0.08,26.22
13092,0.3406,-0.0117,0.8622,-6.4,7.83,0.03,26.2
13102,0.3408,-0.0079,0.8649,-6.43,7.86,-0.06,26.22
13112,0.3384,-0.0079,0.8658,-6.55,7.92,-0.11,26.21
13123,0.3416,-0.0112,0.8645,-6.49,7.89,-0.09,26.22
13133,0.3394,-0.0089,0.8634,-6.46,7.82,0.02,26.22
13143,0.3398,-0.0093,0.8638,-6.55,7.79,0.0,26.22
13153,0.34,-0.0083,0.861,-6.5,7.79,-0.02,26.23
13163,0.3406,-0.0104,0.8657,-6.4,7.79,-0.05,26.23
13173,0.3395,-0.0105,0.8632,-6.5,7.89,0.05,26.23
13183,0.3408,-0.0092,0.8621,-6.41,7.82,0.02,26.21
13193,0.3395,-0.0111,0.8618,-6.49,7.91,-0.02,26.22
13203,0.3416,-0.0083,0.8625,-6.41,7.91,-0.05,26.2
13213,0.3436,-0.0106,0.8654,-6.43,7.82,-0.08,26.21
13223,0.34,-0.0066,0.8641,-6.49,7.83,-0.02,26.22
13233,0.3417,-0.0066,0.8595,-6.44,7.88,-0.05,26.21
13243,0.3417,-0.0056,0.8599,-6.44,7.8,-0.02,26.19
13253,0.3409,-0.0088,0.8645,-6.52,7.89,0.03,26.24
13263,0.3391,-0.0078,0.8645,-6.47,7.85,-0.05,26.22
13273,0.3397,-0.0077,0.8613,-6.41,7.8,-0.08,26.22
13283,0.342,-0.0096,0.8618,-6.53,7.8,-0.09,26.21
13293,0.3403,-0.01,0.8633,-6.44,7.83,-0.03,26.23
13303,0.3417,-0.0107,0.8605,-6.55,7.86,0.0,26.2
13313,0.339,-0.0099,0.8649,-6.43,7.83,-0.02,26.2
13323,0.3414,-0.0065,0.8616,-6.35,7.76,0.03,26.21
13333,0.3401,-0.0103,0.8621,-6.52,7.8,-0.05,26.22
13343,0.3408,-0.0068,0.8633,-6.38,7.73,-0.12,26.22
13353,0.3402,-0.0083,0.8665,-6.53,7.85,0.0,26.19
13363,0.3372,-0.0083,0.8621,-6.37,7.82,0.0,26.21
13373,0.3387,-0.0078,0.861,-6.41,7.83,0.0,26.22
13383,0.3397,-0.0094,0.859,-6.5,7.86,0.03,26.21
13393,0.3416,-0.0071,0.8601,-6.41,7.83,-0.05,26.23
13403,0.3409,-0.0078,0.8625,-6.5,7.76,-0.05,26.22
13413,0.3406,-0.0112,0.8634,-6.47,7.85,-0.08,26.2
13423,0.3389,-0.0062,0.8647,-6.38,7.82,-0.06,26.26
13433,0.3398,-0.0085,0.8577,-6.49,7.85,-0.02,26.23
13443,0.3407,-0.0083,0.8615,-6.46,7.83,-0.03,26.23
13453,0.3414,-0.0094,0.8601,-6.43,7.77,0.02,26.23
13463,0.3409,-0.01,0.8596,-6.43,7.91,-0.05,26.25
13473,0.3394,-0.0093,0.8621,-6.49,7.85,-0.05,26.2
13483,0.3401,-0.0099,0.8611,-6.55,7.86,-0.06,26.24
13493,0.34,-0.0121,0.8625,-6.44,7.79,0.0,26.21
13503,0.3417,-0.006,0.8621,-6.53,7.91,0.0,26.24
13513,0.3428,-0.0092,0.8615,-6.52,7.79,-0.02,26.24
13523,0.343,-0.0105,0.86,-6.46,7.83,0.0,26.24
13533,0.3419,-0.0114,0.8627,-6.44,7.85,0.0,26.24
13543,0.3387,-0.0105,0.8612,-6.41,7.82,-0.03,26.23
13553,0.3383,-0.0112,0.8597,-6.43,7.85,-0.06,26.24
13563,0.3417,-0.0117,0.868,-6.47,7.82,0.05,26.22
13573,0.34,-0.0095,0.865,-6.5,7.83,-0.09,26.25
13583,0.3416,-0.0085,0.8657,-6.52,7.8,-0.06,26.24
13593,0.3391,-0.0081,0.8627,-6.5,7.83,-0.06,26.25
13603,0.3401,-0.009,0.8601,-6.47,7.79,0.0,26.22
13613,0.3408,-0.0093,0.8635,-6.4,7.85,-0.09,26.24
13623,0.3385,-0.0103,0.8667,-6.5,7.8,0.03,26.22
13633,0.3414,-0.0088,0.8612,-6.47,7.79,0.0,26.21
13643,0.3407,-0.0106,0.8599,-6.4,7.8,-0.02,26.22
13653,0.3397,-0.0094,0.8604,-6.41,7.79,-0.08,26.22
13663,0.3397,-0.0104,0.8599,-6.47,7.82,-0.08,26.23
13674,0.34,-0.0095,0.8643,-6.35,7.82,0.0,26.22
13684,0.3395,-0.0079,0.8591,-6.44,7.86,-0.03,26.21
13694,0.3412,-0.0103,0.8589,-6.47,7.97,-0.03,26.22
13705,0.3395,-0.0092,0.8618,-6.52,7.86,-0.02,26.21
13715,0.3397,-0.0085,0.8612,-6.44,7.82,-0.03,26.22
13725,0.3407,-0.0071,0.8612,-6.44,7.86,-0.05,26.22
13735,0.3405,-0.0105,0.8618,-6.46,7.86,-0.02,26.22
13745,0.3395,-0.0107,0.8639,-6.38,7.85,0.0,26.19
13755,0.3387,-0.0096,0.8645,-6.4,7.79,-0.03,26.21
13765,0.3398,-0.0049,0.8629,-6.46,7.76,0.0,26.26
13775,0.3394,-0.0109,0.8629,-6.38,7.79,-0.06,26.24
13785,0.3406,-0.0084,0.8623,-6.49,7.83,-0.05,26.26
13795,0.3414,-0.0099,0.8634,-6.55,7.8,-0.06,26.21
13805,0.3391,-0.01,0.8652,-6.46,7.82,-0.05,26.2
13815,0.3381,-0.012,0.865,-6.4,7.8,0.08,26.24
13825,0.3423,-0.0103,0.8646,-6.47,7.85,-0.09,26.24
13835,0.3391,-0.0099,0.8606,-6.4,7.85,-0.03,26.22
13845,0.3411,-0.0133,0.8628,-6.52,7.8,-0.03,26.24
13855,0.3418,-0.0106,0.8599,-6.47,7.91,-0.02,26.22
13865,0.3389,-0.0073,0.8602,-6.43,7.89,-0.06,26.22
13875,0.3389,-0.0146,0.8651,-6.43,7.89,-0.03,26.22
13885,0.3374,-0.0074,0.8613,-6.37,7.82,-0.03,26.23
13895,0.3403,-0.0106,0.8617,-6.34,7.83,-0.05,26.24
13905,0.3428,-0.0094,0.8625,-6.38,7.71,0.06,26.24
13915,0.3409,-0.0114,0.8629,-6.44,7.79,-0.06,26.22
13925,0.3413,-0.0096,0.865,-6.46,7.79,0.05,26.21
13935,0.342,-0.0105,0.8615,-6.53,7.76,-0.06,26.24
13945,0.3429,-0.0088,0.8651,-6.4,7.86,-0.03,26.23
13955,0.3414,-0.0099,0.8647,-6.49,7.88,0.03,26.24
13965,0.3397,-0.0109,0.8628,-6.41,7.83,-0.06,26.21
13975,0.3401,-0.0092,0.8651,-6.53,7.8,-0.11,26.21
13985,0.3378,-0.0082,0.8644,-6.47,7.86,-0.03,26.23
13995,0.3383,-0.007,0.8625,-6.41,7.89,-0.02,26.23
14005,0.3362,-0.0066,0.8624,-6.43,7.86,-0.09,26.23
14015,0.3395,-0.0074,0.8624,-6.44,7.8,-0.05,26.24
14025,0.3412,-0.0093,0.8629,-6.49,7.83,-0.05,26.22
14035,0.342,-0.0066,0.8606,-6.34,7.89,0.02,26.24
14045,0.339,-0.0078,0.8661,-6.52,7.86,-0.05,26.22
14055,0.3416,-0.0107,0.8586,-6.29,7.85,0.0,26.23
14065,0.3408,-0.0087,0.8655,-6.49,7.85,-0.02,26.23
14075,0.3407,-0.0099,0.8661,-6.43,7.79,-0.06,26.26
14085,0.339,-0.0084,0.863,-6.46,7.85,0.05,26.23
14095,0.3402,-0.0106,0.8661,-6.5,7.89,0.02,26.2
14105,0.3406,-0.0105,0.8649,-6.32,7.69,-0.11,26.22
14115,0.3407,-0.0072,0.8613,-6.47,7.82,-0.03,26.21
14125,0.3389,-0.0094,0.8632,-6.46,7.83,0.03,26.23
14135,0.3419,-0.0095,0.8639,-6.47,7.82,-0.08,26.24
14145,0.342,-0.0103,0.8635,-6.43,7.86,-0.08,26.23
14155,0.3378,-0.0085,0.8638,-6.44,7.88,0.05,26.23
14165,0.3424,-0.0089,0.8635,-6.38,7.85,-0.02,26.25
14175,0.3406,-0.0073,0.8658,-6.41,7.82,0.05,26.25
14185,0.3387,-0.0132,0.8645,-6.4,7.88,0.02,26.28
14195,0.34,-0.0082,0.8628,-6.44,7.79,-0.03,26.28
14205,0.3383,-0.0104,0.8632,-6.47,7.83,-0.02,26.24
14215,0.3397,-0.0101,0.8625,-6.46,7.85,-0.03,26.26
14225,0.3381,-0.0067,0.8577,-6.49,7.85,-0.05,26.25
14235,0.3402,-0.0118,0.8656,-6.5,7.79,-0.05,26.24
14245,0.3408,-0.0059,0.8613,-6.58,7.83,-0.03,26.24
14255,0.3398,-0.0101,0.866,-6.4,7.88,-0.03,26.25
14265,0.3389,-0.0087,0.8639,-6.49,7.82,0.03,26.22
14275,0.3405,-0.01,0.8651,-6.35,7.83,-0.02,26.25
14286,0.3403,-0.0106,0.8623,-6.52,7.79,-0.12,26.23
14296,0.3402,-0.009,0.8619,-6.47,7.68,-0.08,26.23
14306,0.339,-0.0105,0.8696,-6.43,7.77,-0.05,26.23
14316,0.3387,-0.0082,0.864,-6.43,7.8,0.03,26.24
14326,0.3394,-0.0109,0.8639,-6.52,7.91,0.05,26.25
14336,0.342,-0.014,0.8596,-6.38,7.85,-0.03,26.27
14346,0.3402,-0.0117,0.8641,-6.37,7.91,-0.02,26.23
14356,0.3428,-0.0104,0.8619,-6.46,7.85,-0.08,26.25
14366,0.34,-0.0088,0.863,-6.4,7.89,0.02,26.24
14377,0.3412,-0.0094,0.8644,-6.46,7.88,-0.02,26.24
14387,0.3414,-0.0072,0.8661,-6.55,7.88,-0.03,26.24
14397,0.3405,-0.0104,0.8661,-6.52,7.88,0.02,26.27
14407,0.3397,-0.0095,0.863,-6.52,7.85,-0.06,26.26
14417,0.3413,-0.0074,0.8601,-6.38,7.86,-0.05,26.25
14427,0.34,-0.0112,0.8639,-6.43,7.86,-0.02,26.26
14437,0.3401,-0.0092,0.8618,-6.49,7.82,0.03,26.24
14447,0.3412,-0.011,0.8641,-6.53,7.82,-0.05,26.27
14457,0.34,-0.0095,0.8651,-6.41,7.74,-0.05,26.27
14467,0.3423,-0.01,0.8627,-6.44,7.74,-0.06,26.24
14477,0.3416,-0.0118,0.8634,-6.35,7.79,0.02,26.27
14487,0.342,-0.0098,0.8634,-6.46,7.83,-0.09,26.25
14497,0.3389,-0.0103,0.8632,-6.46,7.85,-0.03,26.24
14507,0.3405,-0.01,0.8613,-6.46,7.83,-0.05,26.25
14517,0.3413,-0.0085,0.8629,-6.41,7.77,-0.06,26.24
14527,0.3408,-0.0101,0.8617,-6.37,7.85,0.0,26.23
14537,0.3411,-0.0094,0.8597,-6.47,7.88,0.05,26.26
14547,0.3385,-0.0103,0.8632,-6.47,7.86,0.02,26.27
14557,0.339,-0.0082,0.864,-6.47,7.83,-0.11,26.25
14567,0.3396,-0.0096,0.8625,-6.52,7.73,0.02,26.25
14577,0.3398,-0.0081,0.8662,-6.52,7.86,-0.09,26.26
14587,0.3403,-0.0103,0.8627,-6.44,7.82,-0.05,26.24
14597,0.34,-0.0109,0.8617,-6.4,7.76,-0.06,26.25
14607,0.3405,-0.0095,0.8658,-6.38,7.76,-0.08,26.25
14617,0.3417,-0.0096,0.8643,-6.4,7.79,0.05,26.24
14627,0.3406,-0.0121,0.8651,-6.46,7.91,-0.05,26.24
14637,0.3392,-0.0098,0.8667,-6.46,7.86,0.03,26.24
14647,0.34,-0.0068,0.8607,-6.43,7.77,-0.12,26.24
14657,0.3419,-0.0087,0.8644,-6.43,7.82,0.03,26.23
14667,0.339,-0.0112,0.8621,-6.53,7.8,0.06,26.26
14677,0.3411,-0.0099,0.8663,-6.53,7.83,-0.08,26.24
14687,0.3427,-0.0089,0.8624,-6.49,7.86,-0.03,26.27
14697,0.3397,-0.0101,0.864,-6.44,7.88,-0.06,26.26
14707,0.3395,-0.0101,0.8627,-6.4,7.86,-0.02,26.26
14717,0.3416,-0.01,0.8611,-6.47,7.82,-0.02,26.26
14727,0.3424,-0.0074,0.8635,-6.58,7.8,0.08,26.25
14737,0.343,-0.0085,0.8625,-6.4,7.85,-0.06,26.25
14747,0.3418,-0.0076,0.8599,-6.46,7.8,-0.03,26.27
14757,0.3396,-0.0112,0.8625,-6.4,7.86,-0.02,26.24
14767,0.3397,-0.0101,0.8639,-6.46,7.85,-0.02,26.26
14777,0.3428,-0.0071,0.8649,-6.55,7.88,-0.08,26.26
14787,0.3401,-0.0093,0.86,-6.5,7.88,-0.05,26.27
14797,0.3384,-0.0115,0.8635,-6.4,7.76,-0.09,26.26
14807,0.3397,-0.0079,0.8629,-6.41,7.91,-0.03,26.25
14817,0.3384,-0.0065,0.8636,-6.37,7.91,0.0,26.26
14827,0.3405,-0.0094,0.8613,-6.47,7.8,-0.05,26.24
14837,0.3405,-0.0114,0.8678,-6.49,7.83,-0.03,26.27
14847,0.3409,-0.0089,0.8652,-6.46,7.85,-0.11,26.28
14857,0.342,-0.0096,0.8627,-6.43,7.86,0.0,26.24
14867,0.3424,-0.0095,0.8595,-6.43,7.86,-0.02,26.23
14877,0.3403,-0.0099,0.8624,-6.52,7.94,0.0,26.25
14887,0.3411,-0.0081,0.8624,-6.55,7.77,0.05,26.27
14897,0.3408,-0.0103,0.8643,-6.43,7.8,0.02,26.26
14907,0.3414,-0.0096,0.8615,-6.4,7.86,-0.03,26.25
14917,0.3416,-0.0085,0.8647,-6.49,7.86,0.02,26.27
14927,0.3417,-0.0078,0.8604,-6.47,7.8,0.02,26.26
14937,0.3436,-0.0106,0.8597,-6.52,7.85,-0.05,26.24
14947,0.3407,-0.009,0.8655,-6.49,7.89,-0.02,26.26
14957,0.3405,-0.0104,0.8604,-6.44,7.91,0.11,26.28
14967,0.3411,-0.0083,0.8619,-6.44,7.88,0.08,26.25
14977,0.3409,-0.0073,0.8647,-6.44,7.85,0.09,26.26
14987,0.3405,-0.0105,0.863,-6.44,7.85,-0.03,26.28
14997,0.3407,-0.0107,0.8638,-6.44,7.85,-0.03,26.27
15007,0.3412,-0.0109,0.8624,-6.47,7.83,-0.03,26.27
15017,0.3427,-0.0085,0.8641,-6.35,7.82,-0.05,26.25
15027,0.34,-0.0125,0.8629,-6.35,7.83,0.02,26.24
15037,0.3406,-0.0122,0.8639,-6.46,7.86,0.05,26.25
15047,0.3405,-0.0093,0.8638,-6.5,7.85,0.0,26.24
15057,0.3416,-0.009,0.8621,-6.43,7.74,-0.03,26.27
15067,0.3396,-0.0057,0.8636,-6.46,7.85,-0.08,26.27
15077,0.3412,-0.0061,0.8636,-6.43,7.86,0.0,26.25
15087,0.342,-0.0095,0.8628,-6.46,7.79,-0.03,26.29
15097,0.3409,-0.0104,0.8636,-6.53,7.82,0.02,26.27
15107,0.3403,-0.01,0.8618,-6.44,7.85,-0.06,26.27
15117,0.3407,-0.0118,0.8613,-6.44,7.8,-0.02,26.26
15127,0.3392,-0.0083,0.8608,-6.38,7.88,0.02,26.27
15137,0.34,-0.009,0.8608,-6.47,7.83,0.02,26.26
15147,0.3419,-0.0098,0.8656,-6.41,7.82,-0.05,26.28
15157,0.3384,-0.0093,0.8618,-6.38,7.85,-0.05,26.27
15167,0.3401,-0.0083,0.861,-6.52,7.8,-0.03,26.28
15177,0.3389,-0.0105,0.8607,-6.46,7.88,0.0,26.26
15187,0.3397,-0.0111,0.8616,-6.47,7.83,0.02,26.27
15197,0.3416,-0.0089,0.8621,-6.53,7.88,-0.03,26.29
15207,0.3408,-0.009,0.8624,-6.5,7.85,-0.02,26.3
15217,0.3407,-0.0101,0.8639,-6.49,7.82,-0.06,26.28
15227,0.3407,-0.01,0.8677,-6.4,7.86,0.0,26.26
15237,0.3422,-0.0128,0.8656,-6.47,7.91,0.02,26.26
15247,0.3365,-0.0078,0.8615,-6.4,7.86,-0.08,26.27
15257,0.3434,-0.0092,0.8635,-6.5,7.76,0.02,26.27
15267,0.3429,-0.0074,0.8647,-6.47,7.8,0.02,26.29
15277,0.3406,-0.0057,0.8647,-6.4,7.88,-0.08,26.27
15287,0.3401,-0.0063,0.8624,-6.49,7.79,-0.03,26.29
15297,0.3398,-0.0105,0.8652,-6.38,7.85,-0.03,26.27
15307,0.3376,-0.0098,0.8617,-6.46,7.8,-0.08,26.27
15317,0.3405,-0.01,0.8607,-6.52,7.8,-0.02,26.26
15327,0.3435,-0.0093,0.8638,-6.46,7.74,-0.09,26.24
15337,0.3401,-0.0089,0.8639,-6.34,7.77,-0.08,26.28
15347,0.3411,-0.0111,0.861,-6.43,7.8,0.0,26.28
15357,0.342,-0.0093,0.8588,-6.43,7.77,0.02,26.27
15367,0.339,-0.0116,0.8615,-6.35,7.85,-0.02,26.28
15377,0.3418,-0.0067,0.8635,-6.53,7.85,0.02,26.27
15387,0.3391,-0.0073,0.8654,-6.47,7.85,0.02,26.29
15397,0.338,-0.009,0.8632,-6.49,7.85,-0.06,26.26
15407,0.3392,-0.0106,0.861,-6.53,7.85,-0.05,26.26
15417,0.3383,-0.0088,0.8601,-6.49,7.8,0.03,26.28
15427,0.3417,-0.0101,0.8641,-6.41,7.92,-0.09,26.28
15437,0.3412,-0.0099,0.8612,-6.58,7.86,-0.02,26.26
15447,0.3423,-0.0089,0.8618,-6.46,7.76,0.02,26.27
15457,0.3424,-0.0059,0.8661,-6.52,7.89,-0.05,26.27
15467,0.3413,-0.0076,0.8619,-6.55,7.8,-0.03,26.27
15477,0.3392,-0.0081,0.8617,-6.44,7.77,-0.02,26.28
15487,0.3412,-0.0104,0.8589,-6.47,7.85,0.02,26.27
15497,0.3407,-0.0054,0.8625,-6.46,7.83,-0.03,26.26
15507,0.3409,-0.0093,0.8624,-6.52,7.85,0.03,26.27
15517,0.3391,-0.0077,0.8606,-6.38,7.85,-0.12,26.29
15527,0.3385,-0.0094,0.8658,-6.47,7.85,0.02,26.29
15537,0.3425,-0.0089,0.8615,-6.5,7.8,0.05,26.28
15547,0.3417,-0.0111,0.8628,-6.55,7.8,0.0,26.28
15557,0.3405,-0.0085,0.8623,-6.37,7.8,0.0,26.29
15567,0.3438,-0.0095,0.8646,-6.47,7.79,-0.11,26.28
15577,0.3411,-0.0095,0.8619,-6.49,7.83,-0.14,26.31
15587,0.3385,-0.0114,0.8613,-6.47,7.88,-0.08,26.27
15597,0.3417,-0.0085,0.8645,-6.46,7.82,0.03,26.29
15607,0.3417,-0.0106,0.8635,-6.43,7.85,-0.03,26.27
15617,0.3403,-0.0083,0.8654,-6.43,7.86,-0.02,26.28
15627,0.3424,-0.0078,0.8629,-6.4,7.83,-0.02,26.27
15638,0.339,-0.0076,0.8613,-6.44,7.85,-0.08,26.27
15648,0.3402,-0.0104,0.8627,-6.32,7.82,-0.03,26.27
15658,0.3425,-0.0089,0.8628,-6.47,7.91,0.02,26.27
15669,0.3414,-0.0093,0.8606,-6.55,7.82,0.02,26.29
15679,0.3408,-0.0093,0.8617,-6.43,7.91,-0.02,26.28
15689,0.3416,-0.0081,0.8665,-6.44,7.76,-0.08,26.27
15699,0.3414,-0.0093,0.8601,-6.5,7.85,0.0,26.27
15709,0.3376,-0.0121,0.8601,-6.43,7.8,-0.09,26.3
15719,0.3414,-0.01,0.8633,-6.44,7.76,-0.05,26.27
15729,0.3385,-0.01,0.8607,-6.5,7.85,-0.03,26.27
15739,0.3398,-0.0096,0.8596,-6.47,7.89,-0.06,26.29
15750,0.3398,-0.0145,0.8629,-6.49,7.82,-0.06,26.28
15760,0.3419,-0.0103,0.8661,-6.5,7.8,0.0,26.27
15772,0.3394,-0.0052,0.8612,-6.52,7.8,0.02,26.28
15782,0.3417,-0.0083,0.8611,-6.53,7.86,-0.06,26.28
15792,0.3384,-0.0094,0.8625,-6.41,7.85,-0.02,26.29
15802,0.3397,-0.0099,0.8638,-6.35,7.92,0.05,26.27
15812,0.3381,-0.0083,0.863,-6.47,7.92,-0.03,26.29
15822,0.3403,-0.0076,0.8611,-6.44,7.89,-0.06,26.24
15832,0.3411,-0.0109,0.8612,-6.46,7.8,-0.02,26.28
15842,0.3405,-0.0099,0.8615,-6.47,7.82,0.02,26.29
15852,0.3392,-0.0077,0.8607,-6.49,7.82,0.05,26.28
15862,0.3397,-0.0067,0.8632,-6.43,7.82,0.0,26.3
15872,0.3403,-0.0092,0.8632,-6.43,7.8,-0.03,26.29
15882,0.3425,-0.0074,0.8617,-6.43,7.82,0.02,26.29
15892,0.34,-0.0072,0.8628,-6.44,7.79,-0.08,26.31
15902,0.3385,-0.0109,0.8608,-6.41,7.86,-0.06,26.27
15913,0.3386,-0.0089,0.8638,-6.4,7.83,-0.06,26.3
15923,0.3397,-0.0117,0.8673,-6.47,7.86,-0.09,26.28
15933,0.3416,-0.0089,0.8607,-6.43,7.82,0.0,26.28
15943,0.3396,-0.0065,0.8627,-6.49,7.86,-0.05,26.28
15953,0.3424,-0.0112,0.8612,-6.47,7.77,-0.02,26.29
15963,0.3398,-0.0083,0.8638,-6.49,7.86,-0.03,26.28
15973,0.3409,-0.0112,0.8658,-6.34,7.86,0.0,26.3
15983,0.3416,-0.0081,0.86,-6.47,7.82,0.02,26.28
15993,0.343,-0.0105,0.8625,-6.49,7.83,-0.02,26.29
16003,0.34,-0.0092,0.8623,-6.4,7.88,-0.03,26.28
16013,0.3387,-0.0074,0.8651,-6.43,7.83,-0.06,26.28
16024,0.3407,-0.0079,0.8602,-6.53,7.86,-0.09,26.28
16034,0.3394,-0.0087,0.8593,-6.56,7.85,-0.12,26.27
16044,0.3384,-0.0093,0.8639,-6.53,7.83,0.0,26.27
16054,0.3402,-0.0072,0.8629,-6.49,7.73,-0.17,26.28
16064,0.3381,-0.0111,0.8632,-6.43,7.88,-0.06,26.29
16074,0.3397,-0.0094,0.8646,-6.43,7.83,-0.02,26.27
16084,0.3389,-0.0084,0.8647,-6.52,7.85,0.02,26.3
16094,0.3407,-0.0105,0.8628,-6.41,7.88,0.05,26.28
16104,0.3405,-0.0085,0.8683,-6.46,7.76,-0.08,26.27
16114,0.3403,-0.0098,0.8627,-6.4,7.82,-0.05,26.3
16124,0.3418,-0.0095,0.8646,-6.35,7.82,0.0,26.29
16134,0.3384,-0.0085,0.8635,-6.38,7.88,0.0,26.32
16144,0.3405,-0.0077,0.866,-6.47,7.86,-0.05,26.27
16154,0.34,-0.009,0.8623,-6.46,7.8,-0.08,26.29
16165,0.3386,-0.0095,0.8627,-6.43,7.83,0.12,26.3
16175,0.3391,-0.0126,0.8639,-6.49,7.91,-0.05,26.29
16185,0.3386,-0.0085,0.8623,-6.52,7.89,-0.09,26.28
16195,0.3402,-0.0082,0.8636,-6.44,7.85,-0.06,26.27
16205,0.3436,-0.009,0.8601,-6.49,7.89,-0.02,26.28
16215,0.3401,-0.0085,0.8621,-6.38,7.88,-0.05,26.31
16225,0.3409,-0.0114,0.8661,-6.4,7.77,-0.03,26.29
16235,0.3386,-0.012,0.8641,-6.47,7.88,-0.02,26.27
16245,0.3411,-0.0111,0.8611,-6.46,7.83,0.02,26.29
16255,0.3412,-0.0071,0.8606,-6.35,7.82,-0.03,26.29
16265,0.3418,-0.0099,0.8608,-6.47,7.86,0.0,26.28
16275,0.3381,-0.0109,0.8639,-6.49,7.89,-0.03,26.29
16285,0.3394,-0.0079,0.8641,-6.46,7.85,-0.11,26.3
16295,0.34,-0.0107,0.8647,-6.46,7.73,0.0,26.29
16305,0.3376,-0.0089,0.8639,-6.44,7.88,-0.08,26.27
16315,0.3396,-0.006,0.8662,-6.46,7.88,-0.02,26.28
16326,0.3407,-0.0116,0.8722,-6.55,7.85,0.0,26.28
16336,0.3401,-0.0098,0.8629,-6.46,7.85,-0.03,26.29
16346,0.3405,-0.0105,0.8588,-6.49,7.82,0.0,26.28
16356,0.3397,-0.0114,0.8661,-6.46,7.85,0.03,26.28
16366,0.3422,-0.0133,0.8629,-6.46,7.83,-0.06,26.28
16376,0.3453,-0.0115,0.8644,-6.41,7.86,-0.03,26.29
16386,0.3385,-0.0094,0.8619,-6.47,7.76,-0.11,26.31
16396,0.3373,-0.0084,0.8643,-6.47,7.8,-0.03,26.28
16406,0.3396,-0.0111,0.8599,-6.49,7.89,-0.02,26.28
16417,0.3409,-0.0056,0.8649,-6.43,7.85,-0.06,26.28
16427,0.3365,-0.0089,0.8625,-6.46,7.85,-0.06,26.27
16437,0.3389,-0.0109,0.865,-6.44,7.85,-0.06,26.27
16447,0.3419,-0.01,0.866,-6.5,7.82,-0.09,26.32
16457,0.3412,-0.0092,0.8656,-6.47,7.8,-0.05,26.29
16467,0.3402,-0.0073,0.8656,-6.55,7.97,-0.08,26.29
16477,0.3387,-0.0077,0.8616,-6.47,7.86,-0.06,26.31
16487,0.3405,-0.0084,0.8657,-6.44,7.79,-0.05,26.28
16497,0.3375,-0.0074,0.8635,-6.6,7.82,-0.05,26.3
16507,0.339,-0.0084,0.8636,-6.53,7.8,0.0,26.29
16517,0.3429,-0.0073,0.8641,-6.44,7.79,0.03,26.29
16527,0.3396,-0.0089,0.8643,-6.44,7.89,-0.11,26.31
16537,0.3418,-0.0094,0.8616,-6.43,7.79,-0.06,26.31
16547,0.3407,-0.0089,0.8644,-6.44,7.83,-0.03,26.27
16557,0.339,-0.0071,0.8615,-6.32,7.8,-0.08,26.3
16567,0.3411,-0.01,0.8658,-6.43,7.88,-0.05,26.29
16577,0.3423,-0.0106,0.8644,-6.43,7.79,0.02,26.3
16587,0.3427,-0.0103,0.8633,-6.53,7.82,-0.03,26.29
16597,0.3416,-0.0087,0.863,-6.46,7.89,-0.02,26.3
16607,0.3403,-0.0094,0.8597,-6.55,7.86,0.03,26.29
16617,0.3389,-0.0076,0.864,-6.47,7.74,0.0,26.29
16627,0.3428,-0.0099,0.8649,-6.47,7.85,-0.11,26.27
16637,0.338,-0.0093,0.8593,-6.46,7.86,-0.05,26.29
16647,0.34,-0.0057,0.8647,-6.41,7.83,-0.05,26.27
16657,0.3422,-0.0099,0.8627,-6.44,7.76,0.05,26.31
16667,0.34,-0.0093,0.8632,-6.46,7.98,0.05,26.3
16677,0.3405,-0.0098,0.8636,-6.37,7.91,-0.06,26.28
16687,0.3395,-0.0123,0.8625,-6.47,7.83,0.06,26.27
16697,0.3416,-0.0087,0.8611,-6.52,7.89,0.02,26.31
16707,0.3389,-0.0077,0.866,-6.46,7.82,-0.02,26.31
16717,0.3381,-0.0068,0.8619,-6.5,7.92,-0.05,26.32
16727,0.3395,-0.0087,0.8669,-6.37,7.82,-0.12,26.28
16737,0.342,-0.0106,0.8617,-6.38,7.92,-0.08,26.29
16747,0.3427,-0.0095,0.8619,-6.46,7.91,-0.06,26.3
16757,0.3419,-0.0095,0.86,-6.53,7.89,-0.09,26.29
16767,0.3407,-0.0074,0.8604,-6.4,7.86,-0.02,26.27
16777,0.3411,-0.0099,0.8602,-6.44,7.85,0.06,26.31
16787,0.3397,-0.0059,0.8607,-6.44,7.91,-0.06,26.29
16797,0.3412,-0.0087,0.8654,-6.4,7.82,-0.08,26.31
16807,0.3397,-0.0079,0.8649,-6.49,7.83,0.03,26.32
16817,0.3407,-0.0082,0.8632,-6.41,7.85,0.02,26.3
16827,0.3406,-0.0062,0.8601,-6.43,7.86,-0.06,26.28
16837,0.3395,-0.0099,0.8622,-6.49,7.85,-0.15,26.3
16847,0.3416,-0.0104,0.8623,-6.44,7.83,-0.06,26.31
16857,0.3411,-0.0114,0.8628,-6.5,7.83,0.0,26.31
16867,0.3373,-0.0088,0.861,-6.44,7.91,-0.03,26.28
16877,0.3396,-0.0085,0.8636,-6.44,7.86,-0.05,26.29
16887,0.3413,-0.0118,0.8605,-6.43,7.82,-0.06,26.31
16897,0.3385,-0.0073,0.8622,-6.49,7.83,-0.06,26.31
16907,0.3389,-0.0072,0.8634,-6.5,7.82,-0.05,26.31
16917,0.3384,-0.0081,0.8666,-6.41,7.92,-0.11,26.29
16927,0.3402,-0.0099,0.8618,-6.37,7.82,0.02,26.27
16938,0.3402,-0.0076,0.8574,-6.5,7.85,-0.03,26.3
16948,0.3397,-0.0096,0.8639,-6.47,7.91,-0.06,26.3
16958,0.3418,-0.0112,0.8656,-6.44,7.88,-0.06,26.3
16969,0.345,-0.0079,0.8615,-6.44,7.74,-0.03,26.31
16979,0.3412,-0.0073,0.8633,-6.38,7.85,-0.06,26.28
16989,0.3409,-0.0081,0.863,-6.46,7.82,-0.06,26.31
16999,0.3417,-0.0084,0.8619,-6.47,7.88,-0.02,26.32
17009,0.3411,-0.011,0.8656,-6.43,7.8,0.02,26.3
17019,0.3409,-0.0095,0.8649,-6.49,7.94,-0.05,26.31
17029,0.3401,-0.0111,0.8588,-6.46,7.88,-0.03,26.3
17039,0.343,-0.0085,0.8591,-6.41,7.83,0.0,26.31
17051,0.3406,-0.0099,0.8636,-6.5,7.83,-0.06,26.27
17061,0.3375,-0.0078,0.8645,-6.49,7.89,-0.08,26.32
17071,0.3373,-0.0071,0.8635,-6.41,7.88,-0.02,26.31
17081,0.3396,-0.0084,0.865,-6.46,7.83,0.03,26.28
17091,0.3386,-0.0081,0.8644,-6.47,7.82,-0.03,26.31
17101,0.3381,-0.0076,0.8612,-6.38,7.8,0.03,26.3
17111,0.3401,-0.0079,0.8644,-6.46,7.79,-0.02,26.31
17121,0.3381,-0.006,0.8672,-6.47,7.89,-0.06,26.31
17131,0.34,-0.009,0.8605,-6.37,7.92,-0.03,26.28
17142,0.34,-0.0085,0.8624,-6.53,7.89,-0.06,26.32
17154,0.3387,-0.0076,0.8611,-6.53,7.77,-0.09,26.3
17164,0.3417,-0.0094,0.8615,-6.49,7.82,-0.03,26.28
17174,0.3427,-0.0062,0.8652,-6.43,7.82,0.0,26.31
17184,0.3387,-0.009,0.8621,-6.44,7.89,-0.08,26.32
17194,0.3412,-0.0094,0.8635,-6.52,7.83,-0.09,26.31
17204,0.3392,-0.0118,0.8611,-6.41,7.82,-0.05,26.32
17214,0.3418,-0.01,0.8618,-6.49,7.86,-0.02,26.28
17224,0.3405,-0.0077,0.8617,-6.41,7.82,-0.02,26.3
17234,0.3417,-0.0084,0.8617,-6.4,7.79,-0.02,26.31
17244,0.3405,-0.0092,0.8625,-6.5,7.85,-0.05,26.31
17254,0.3419,-0.0095,0.8635,-6.5,7.76,-0.03,26.27
17264,0.3401,-0.0048,0.865,-6.4,7.76,0.05,26.32
17274,0.3408,-0.0095,0.8593,-6.38,7.8,-0.03,26.29
17284,0.3409,-0.0109,0.8627,-6.49,7.86,-0.08,26.31
17329,0.3385,-0.0085,0.8633,-6.41,7.8,-0.11,26.3
17339,0.34,-0.0093,0.863,-6.38,7.77,-0.09,26.3
17350,0.3391,-0.009,0.8619,-6.35,7.77,-0.03,26.33
17360,0.3425,-0.0092,0.8621,-6.49,7.89,0.0,26.31
17370,0.343,-0.0077,0.8621,-6.41,7.79,-0.03,26.32
17380,0.3418,-0.0092,0.8611,-6.43,7.86,-0.05,26.33
17390,0.3398,-0.0094,0.8607,-6.4,7.88,-0.03,26.31
17401,0.3405,-0.0085,0.8601,-6.49,7.88,0.05,26.32
17411,0.3394,-0.0065,0.8627,-6.38,7.82,0.03,26.3
17421,0.3392,-0.0071,0.8636,-6.44,7.85,-0.05,26.32
17431,0.3408,-0.0111,0.8647,-6.49,7.79,-0.06,26.3
17441,0.34,-0.012,0.8623,-6.44,7.86,-0.14,26.33
17451,0.3405,-0.0088,0.8612,-6.44,7.86,0.03,26.34
17461,0.3413,-0.01,0.8611,-6.47,7.86,0.03,26.34
17471,0.3438,-0.0085,0.8624,-6.41,7.88,-0.03,26.32
17481,0.3411,-0.0093,0.8623,-6.38,7.86,-0.09,26.33
17491,0.3397,-0.0104,0.864,-6.34,7.83,-0.02,26.32
17501,0.34,-0.0117,0.8622,-6.47,7.83,0.0,26.32
17512,0.3395,-0.0096,0.8625,-6.49,7.92,-0.02,26.32
17522,0.3416,-0.0079,0.8655,-6.46,7.85,-0.02,26.31
17532,0.342,-0.0083,0.8672,-6.55,7.8,-0.08,26.33
17542,0.3428,-0.0093,0.8643,-6.44,7.86,0.02,26.31
17552,0.3409,-0.01,0.8623,-6.47,7.73,-0.03,26.32
17562,0.3412,-0.0079,0.8643,-6.32,7.8,-0.02,26.32
17572,0.3397,-0.0104,0.8605,-6.43,7.8,0.02,26.32
17582,0.3423,-0.0101,0.8591,-6.38,7.79,-0.02,26.3
17593,0.3383,-0.0112,0.8602,-6.52,7.83,-0.05,26.31
17603,0.3428,-0.0082,0.8682,-6.41,7.83,-0.09,26.31
17613,0.3403,-0.0096,0.8639,-6.43,7.85,0.11,26.32
17623,0.3395,-0.0062,0.8645,-6.41,7.89,0.08,26.31
17633,0.3417,-0.0055,0.8615,-6.43,7.86,-0.06,26.34
17643,0.3405,-0.0092,0.8654,-6.52,7.74,-0.08,26.32
17653,0.3398,-0.0085,0.8658,-6.58,7.8,-0.05,26.32
17663,0.3405,-0.0088,0.8621,-6.43,7.83,-0.02,26.33
17673,0.3396,-0.0094,0.8636,-6.27,7.89,-0.03,26.32
17683,0.3386,-0.0078,0.8629,-6.44,7.98,0.03,26.32
17693,0.343,-0.0105,0.8624,-6.37,7.89,-0.05,26.32
17703,0.3428,-0.0076,0.8618,-6.5,7.89,-0.05,26.32
17713,0.3411,-0.0092,0.8618,-6.43,7.86,-0.02,26.32
17723,0.3379,-0.0084,0.8635,-6.43,7.83,0.02,26.3
17733,0.3395,-0.0103,0.8611,-6.41,7.8,0.0,26.32
17743,0.3416,-0.0105,0.8673,-6.44,7.95,0.06,26.33
17753,0.3408,-0.0092,0.8611,-6.47,7.8,-0.02,26.3
17763,0.3414,-0.0105,0.8635,-6.44,7.85,0.03,26.33
17773,0.3389,-0.0104,0.863,-6.43,7.91,-0.02,26.34
17783,0.3431,-0.0104,0.8599,-6.4,7.89,0.02,26.3
17793,0.3411,-0.0089,0.8647,-6.38,7.77,-0.03,26.31
17803,0.3378,-0.0067,0.8676,-6.47,7.76,-0.09,26.32
17813,0.3375,-0.0107,0.8657,-6.41,7.86,0.05,26.31
17823,0.3412,-0.0088,0.8589,-6.44,7.83,0.03,26.31
17833,0.3409,-0.0095,0.8641,-6.49,7.8,-0.02,26.33
17843,0.3405,-0.0103,0.8652,-6.5,7.85,-0.11,26.33
17853,0.3409,-0.0096,0.8623,-6.44,7.8,-0.08,26.34
17863,0.3403,-0.0079,0.8613,-6.43,7.76,0.06,26.32
17873,0.3385,-0.0107,0.8639,-6.38,7.88,-0.05,26.34
17883,0.3396,-0.0101,0.8646,-6.44,7.85,0.02,26.33
17893,0.3416,-0.0093,0.8627,-6.44,7.83,-0.02,26.34
17903,0.3408,-0.0104,0.8641,-6.47,7.83,0.02,26.32
17913,0.3378,-0.0104,0.8612,-6.38,7.88,-0.03,26.34
17923,0.3435,-0.0122,0.8629,-6.43,7.77,-0.06,26.35
17933,0.3379,-0.0103,0.8622,-6.32,7.91,-0.06,26.34
17943,0.3412,-0.0106,0.8623,-6.53,7.82,-0.03,26.34
17953,0.3423,-0.0089,0.8636,-6.41,7.8,-0.08,26.34
17963,0.3396,-0.0087,0.8651,-6.49,7.8,-0.08,26.32
17973,0.3419,-0.0055,0.8629,-6.4,7.82,0.02,26.32
17983,0.3383,-0.0099,0.8651,-6.37,7.83,-0.11,26.31
17993,0.3397,-0.0111,0.864,-6.34,7.86,-0.03,26.33
18003,0.3419,-0.0096,0.8668,-6.44,7.85,-0.02,26.33
18013,0.3386,-0.0106,0.8645,-6.55,7.86,-0.05,26.34
18023,0.3397,-0.0087,0.8638,-6.41,7.8,0.03,26.33
18033,0.3418,-0.0112,0.8627,-6.4,7.77,-0.02,26.31
18043,0.3414,-0.0077,0.8613,-6.43,7.88,-0.08,26.35
18053,0.3413,-0.0066,0.8594,-6.44,7.83,0.0,26.33
18063,0.3384,-0.0063,0.8628,-6.4,7.8,-0.09,26.3
18073,0.3405,-0.0101,0.8646,-6.52,7.85,0.0,26.33
18083,0.3391,-0.0098,0.8702,-6.5,7.86,-0.06,26.31
18093,0.3396,-0.0074,0.8647,-6.46,7.77,-0.05,26.35
18103,0.3379,-0.0066,0.8632,-6.29,7.88,-0.08,26.32
18113,0.3414,-0.0089,0.8619,-6.5,7.95,-0.02,26.32
18123,0.3397,-0.007,0.8679,-6.49,7.83,-0.06,26.34
18133,0.3397,-0.0066,0.8617,-6.38,7.8,0.02,26.32
18143,0.3397,-0.0088,0.863,-6.44,7.86,0.02,26.32
18153,0.3422,-0.0098,0.8599,-6.44,7.89,-0.09,26.31
18163,0.3422,-0.007,0.8641,-6.52,7.91,-0.03,26.31
18173,0.3412,-0.0094,0.8634,-6.49,7.92,0.0,26.33
18183,0.3409,-0.0093,0.8613,-6.47,7.79,0.03,26.34
18193,0.3395,-0.0088,0.8608,-6.44,7.89,0.0,26.32
18203,0.3395,-0.0115,0.8649,-6.34,7.85,-0.02,26.32
18213,0.3389,-0.0098,0.8628,-6.52,7.91,-0.05,26.31
18223,0.3407,-0.0133,0.8623,-6.47,7.83,0.03,26.32
18233,0.3431,-0.0082,0.864,-6.41,7.8,-0.06,26.34
18243,0.3392,-0.0099,0.8605,-6.46,7.83,-0.02,26.34
18253,0.3417,-0.0087,0.8594,-6.5,7.86,0.0,26.33
18263,0.3401,-0.0089,0.8655,-6.43,7.89,-0.02,26.33
18273,0.3401,-0.0085,0.866,-6.5,7.79,-0.02,26.34
18283,0.3407,-0.0092,0.8638,-6.47,7.89,0.05,26.33
18293,0.3407,-0.01,0.8612,-6.5,7.8,-0.15,26.31
18303,0.3425,-0.0096,0.8661,-6.49,7.83,0.0,26.33
18313,0.3419,-0.0072,0.8591,-6.53,7.83,0.05,26.33
18323,0.3427,-0.0081,0.859,-6.41,7.8,-0.02,26.32
18333,0.3402,-0.0089,0.8619,-6.53,7.86,0.02,26.33
18343,0.3395,-0.0095,0.8635,-6.53,7.92,-0.06,26.32
18353,0.3389,-0.0085,0.8632,-6.31,7.88,-0.05,26.32
18363,0.3398,-0.0116,0.8645,-6.44,7.83,-0.03,26.34
18373,0.3397,-0.0083,0.8654,-6.44,7.82,-0.02,26.33
18383,0.339,-0.007,0.8654,-6.38,7.83,-0.06,26.34
18393,0.3397,-0.0087,0.8596,-6.47,7.86,-0.06,26.35
18403,0.3395,-0.0101,0.8634,-6.52,7.8,-0.06,26.33
18413,0.3417,-0.0103,0.8601,-6.43,7.86,-0.09,26.33
18423,0.3395,-0.0107,0.8618,-6.49,7.76,0.03,26.34
18433,0.3422,-0.0071,0.86,-6.46,7.69,-0.03,26.35
18443,0.3389,-0.0092,0.8625,-6.49,7.85,-0.02,26.3
18453,0.3387,-0.0081,0.8627,-6.56,7.83,-0.03,26.35
18463,0.3406,-0.0083,0.8689,-6.44,7.86,-0.02,26.33
18473,0.3413,-0.0088,0.8652,-6.43,7.85,-0.05,26.33
18483,0.343,-0.0087,0.8583,-6.43,7.86,-0.05,26.34
18493,0.3386,-0.0105,0.8629,-6.55,7.89,-0.03,26.31
18503,0.34,-0.0105,0.8636,-6.49,7.85,-0.03,26.32
18513,0.3392,-0.0094,0.8629,-6.47,7.86,0.0,26.34
18523,0.3396,-0.0085,0.8621,-6.44,7.8,-0.03,26.33
18533,0.3428,-0.0088,0.8618,-6.44,7.74,-0.05,26.32
18543,0.3395,-0.0072,0.8645,-6.46,7.83,0.03,26.35
18553,0.3378,-0.006,0.8633,-6.49,7.85,-0.02,26.35
18563,0.3416,-0.0082,0.8639,-6.53,7.8,-0.09,26.35
18573,0.3397,-0.0087,0.8572,-6.46,7.8,0.02,26.34
18583,0.3423,-0.0088,0.8618,-6.4,7.85,-0.11,26.32
18593,0.344,-0.0109,0.8641,-6.41,7.86,-0.08,26.33
18603,0.3411,-0.011,0.8611,-6.41,7.86,-0.05,26.34
18613,0.3405,-0.0083,0.863,-6.55,7.83,-0.05,26.34
18623,0.3398,-0.0084,0.8649,-6.47,7.77,-0.06,26.34
18633,0.3396,-0.009,0.8649,-6.47,7.91,0.03,26.34
18643,0.3414,-0.0079,0.8611,-6.52,7.8,-0.08,26.34
18653,0.3405,-0.0083,0.8627,-6.4,7.82,-0.03,26.34
18663,0.3417,-0.009,0.8628,-6.56,7.73,-0.15,26.32
18673,0.3395,-0.0089,0.8633,-6.52,7.86,0.03,26.35
18683,0.3391,-0.012,0.8641,-6.47,7.86,0.05,26.36
18693,0.3402,-0.0071,0.8649,-6.46,7.91,-0.05,26.35
18703,0.3409,-0.0111,0.8616,-6.44,7.77,-0.03,26.34
18713,0.3394,-0.0098,0.8599,-6.4,7.8,-0.03,26.34
18723,0.3376,-0.0084,0.8654,-6.47,7.82,-0.02,26.34
18733,0.3376,-0.01,0.8624,-6.41,7.85,-0.02,26.35
18743,0.3425,-0.0087,0.8663,-6.49,7.86,-0.06,26.32
18753,0.3385,-0.0096,0.8627,-6.49,7.82,-0.02,26.33
18763,0.3409,-0.0101,0.8583,-6.49,7.86,-0.09,26.34
18774,0.338,-0.0111,0.8617,-6.44,7.82,-0.08,26.35
18784,0.3394,-0.011,0.8602,-6.47,7.83,0.06,26.36
18794,0.3414,-0.0133,0.8639,-6.47,7.89,0.0,26.34
18805,0.3406,-0.0083,0.8633,-6.47,7.82,-0.05,26.36
18815,0.3405,-0.0116,0.8657,-6.49,7.85,-0.02,26.36
18825,0.3394,-0.0098,0.8611,-6.47,7.88,-0.06,26.34
18835,0.3422,-0.0087,0.8615,-6.46,7.91,-0.02,26.32
18845,0.3373,-0.0099,0.8647,-6.49,7.82,-0.09,26.33
18855,0.3409,-0.0109,0.8618,-6.46,7.88,-0.03,26.36
18865,0.3397,-0.0104,0.8625,-6.53,7.85,-0.15,26.34
18875,0.3427,-0.0096,0.8638,-6.44,7.85,-0.05,26.34
18885,0.3389,-0.0114,0.863,-6.46,7.82,-0.05,26.35
18895,0.3414,-0.0094,0.8618,-6.46,7.83,-0.02,26.35
18905,0.3407,-0.0103,0.8624,-6.38,7.86,-0.03,26.33
18915,0.3412,-0.0089,0.8644,-6.5,7.77,0.05,26.35
18925,0.339,-0.0082,0.8625,-6.41,7.86,-0.05,26.34
18935,0.3431,-0.0105,0.8618,-6.47,7.82,0.05,26.34
18945,0.3407,-0.0101,0.86,-6.41,7.74,-0.03,26.35
18955,0.3398,-0.0073,0.8622,-6.46,7.8,-0.08,26.36
18965,0.3409,-0.0107,0.8606,-6.49,7.82,-0.02,26.34
18975,0.3395,-0.007,0.8599,-6.47,7.89,-0.02,26.34
18985,0.3385,-0.009,0.8645,-6.41,7.88,-0.03,26.36
18995,0.3396,-0.0084,0.8619,-6.49,7.85,0.05,26.36
19005,0.3398,-0.0089,0.864,-6.41,7.82,-0.05,26.37
19015,0.3396,-0.0098,0.8662,-6.52,7.88,-0.05,26.35
19025,0.3396,-0.0092,0.8612,-6.55,7.83,-0.06,26.37
19035,0.3398,-0.0079,0.8608,-6.37,7.85,-0.05,26.33
19045,0.3416,-0.0081,0.8627,-6.49,7.82,-0.11,26.34
19055,0.3424,-0.0111,0.8627,-6.49,7.8,-0.08,26.36
19065,0.34,-0.0104,0.8613,-6.44,7.83,-0.06,26.34
19075,0.3389,-0.0107,0.8647,-6.46,7.92,-0.05,26.35
19085,0.3428,-0.0092,0.865,-6.53,7.86,0.02,26.35
19095,0.3419,-0.0077,0.8647,-6.5,7.83,-0.06,26.35
19105,0.3402,-0.0083,0.8656,-6.44,7.85,-0.02,26.33
19115,0.3425,-0.0089,0.864,-6.4,7.82,-0.03,26.34
19125,0.3409,-0.0082,0.8625,-6.46,7.85,-0.08,26.36
19135,0.3414,-0.0081,0.8625,-6.53,7.8,0.0,26.36
19145,0.3387,-0.009,0.8658,-6.43,7.85,-0.02,26.33
19155,0.3407,-0.0111,0.8647,-6.5,7.74,-0.06,26.34
19165,0.3429,-0.0071,0.8578,-6.55,7.86,-0.03,26.35
19175,0.3405,-0.0088,0.8618,-6.47,7.85,-0.09,26.37
19185,0.3391,-0.0093,0.8641,-6.46,7.8,-0.05,26.33
19195,0.3403,-0.0115,0.8638,-6.47,7.86,0.0,26.33
19205,0.34,-0.0109,0.8593,-6.44,7.85,0.0,26.35
19215,0.3414,-0.0099,0.8612,-6.55,7.76,-0.08,26.34
19225,0.3413,-0.0107,0.8625,-6.55,7.86,-0.09,26.35
19235,0.3396,-0.0081,0.8688,-6.52,7.77,-0.21,26.35
19245,0.339,-0.0066,0.8656,-6.47,7.8,-0.02,26.37
19255,0.3385,-0.0092,0.8638,-6.46,7.77,0.02,26.35
19265,0.3385,-0.0073,0.8579,-6.46,7.92,-0.06,26.36
19275,0.3402,-0.0089,0.8586,-6.34,7.95,-0.05,26.34
19285,0.3386,-0.0089,0.8628,-6.49,7.79,0.02,26.37
19295,0.3413,-0.0063,0.8633,-6.5,7.83,-0.03,26.35
19305,0.3405,-0.0076,0.8634,-6.47,7.86,-0.05,26.32
19315,0.34,-0.0085,0.8665,-6.5,7.79,-0.05,26.33
19325,0.3401,-0.0094,0.8636,-6.38,7.85,-0.08,26.34
19335,0.3435,-0.0099,0.8621,-6.41,7.88,-0.03,26.37
19345,0.3409,-0.0139,0.8639,-6.52,7.83,0.02,26.35
19355,0.3424,-0.0088,0.8633,-6.49,7.85,-0.03,26.35
19365,0.3409,-0.0093,0.8632,-6.47,7.8,0.0,26.34
19375,0.3392,-0.0089,0.8619,-6.41,7.83,-0.05,26.34
19386,0.3401,-0.0067,0.8657,-6.4,7.85,-0.06,26.34
19396,0.3416,-0.0115,0.8654,-6.64,7.82,-0.02,26.36
19406,0.338,-0.0078,0.8628,-6.46,7.82,-0.02,26.37
19416,0.3384,-0.0071,0.8608,-6.44,7.91,0.0,26.36
19426,0.3422,-0.009,0.8611,-6.53,7.79,-0.08,26.37
19436,0.3419,-0.0125,0.8618,-6.4,7.85,-0.08,26.37
19446,0.3412,-0.009,0.863,-6.47,7.88,-0.08,26.34
19456,0.3413,-0.0081,0.8652,-6.47,7.76,-0.08,26.37
19466,0.339,-0.0068,0.8621,-6.49,7.86,0.02,26.36
19476,0.3406,-0.0095,0.8608,-6.5,7.88,-0.03,26.34
19486,0.3406,-0.0085,0.8615,-6.49,7.82,0.0,26.35
19496,0.3384,-0.0085,0.8647,-6.47,7.85,-0.08,26.35
19506,0.3402,-0.0089,0.8615,-6.44,7.83,-0.03,26.36
19516,0.34,-0.0103,0.864,-6.5,7.85,-0.11,26.33
19526,0.3362,-0.0059,0.8668,-6.47,7.88,0.0,26.35
19536,0.3405,-0.0076,0.8639,-6.55,7.86,-0.02,26.36
19546,0.3392,-0.01,0.8655,-6.41,7.88,0.03,26.36
19556,0.3383,-0.0118,0.861,-6.4,7.85,0.02,26.36
19566,0.3411,-0.0073,0.8645,-6.52,7.85,-0.06,26.33
19576,0.343,-0.0107,0.8627,-6.41,7.88,-0.11,26.35
19587,0.3376,-0.0067,0.8596,-6.41,7.95,-0.06,26.35
19597,0.3373,-0.0093,0.8607,-6.43,7.8,-0.09,26.36
19607,0.3391,-0.0104,0.8643,-6.37,7.77,-0.06,26.36
19617,0.3365,-0.0098,0.8646,-6.38,7.8,0.0,26.37
19627,0.3417,-0.0083,0.8616,-6.44,7.77,0.0,26.33
19637,0.3402,-0.0106,0.863,-6.38,7.82,-0.03,26.37
19647,0.3414,-0.0095,0.8606,-6.43,7.82,0.02,26.35
19657,0.3413,-0.0094,0.8563,-6.4,7.86,-0.05,26.37
19667,0.3376,-0.009,0.8627,-6.38,7.8,-0.03,26.37
19677,0.34,-0.0106,0.8634,-6.47,7.88,-0.03,26.36
19687,0.3401,-0.0072,0.8632,-6.4,7.83,-0.09,26.34
19697,0.3419,-0.0095,0.8623,-6.49,7.88,-0.06,26.36
19707,0.3391,-0.0092,0.863,-6.41,7.79,0.05,26.37
19717,0.3427,-0.0098,0.8633,-6.43,7.83,-0.03,26.39
19727,0.3394,-0.0082,0.8594,-6.41,7.8,0.0,26.36
19737,0.3429,-0.0106,0.8602,-6.47,7.82,0.02,26.36
19747,0.3408,-0.0067,0.8597,-6.46,7.86,-0.11,26.34
19757,0.343,-0.0093,0.8665,-6.4,7.73,-0.03,26.35
19767,0.3425,-0.0089,0.8646,-6.38,7.79,-0.02,26.36
19777,0.3436,-0.0092,0.8639,-6.43,7.86,-0.02,26.37
19788,0.3431,-0.0104,0.8634,-6.43,7.85,-0.05,26.38
19798,0.339,-0.0067,0.8583,-6.49,7.82,0.0,26.34
19809,0.3387,-0.0085,0.8604,-6.49,7.79,0.0,26.35
19819,0.3376,-0.0107,0.8612,-6.47,7.85,-0.05,26.34
19829,0.3403,-0.0088,0.8632,-6.38,7.83,0.0,26.35
19839,0.3413,-0.009,0.8618,-6.4,7.8,-0.02,26.34
19849,0.3407,-0.0092,0.8665,-6.4,7.85,-0.02,26.35
19859,0.3408,-0.0093,0.8599,-6.46,7.77,0.05,26.37
19870,0.342,-0.0104,0.8638,-6.49,7.89,0.03,26.37
19880,0.3413,-0.0118,0.8641,-6.52,7.92,0.0,26.38
19890,0.3402,-0.0073,0.8638,-6.44,7.82,0.02,26.37
19900,0.3428,-0.0087,0.8651,-6.46,7.83,0.0,26.35
19910,0.3397,-0.0096,0.8593,-6.4,7.89,0.05,26.34
19920,0.3428,-0.0083,0.858,-6.32,7.89,-0.11,26.34
19931,0.3389,-0.0087,0.8647,-6.41,7.86,-0.05,26.36
19941,0.3384,-0.0067,0.8636,-6.52,7.89,0.02,26.35
19951,0.3398,-0.012,0.8633,-6.46,7.88,-0.08,26.38
19961,0.3418,-0.0118,0.8634,-6.4,7.76,-0.03,26.36
19971,0.3381,-0.0093,0.8654,-6.52,7.83,-0.03,26.36
19981,0.3406,-0.0129,0.8621,-6.46,7.85,-0.06,26.37
19991,0.3409,-0.012,0.8654,-6.35,7.85,0.06,26.37
20001,0.3418,-0.0085,0.8588,-6.38,7.8,0.02,26.38
20011,0.3396,-0.0078,0.8629,-6.47,7.92,0.0,26.36
20021,0.3412,-0.007,0.8612,-6.44,7.88,-0.02,26.35
20031,0.3442,-0.0092,0.8613,-6.41,7.92,0.0,26.36
20041,0.3431,-0.01,0.866,-6.44,7.92,-0.05,26.35
20051,0.3428,-0.0078,0.8672,-6.32,7.83,-0.05,26.36
20061,0.3373,-0.0077,0.8622,-6.52,7.83,0.05,26.35
20071,0.343,-0.0084,0.8633,-6.43,7.85,-0.02,26.37
20081,0.338,-0.0088,0.858,-6.5,7.85,-0.03,26.37
20091,0.3395,-0.0107,0.8599,-6.5,7.79,0.03,26.34
20101,0.3391,-0.01,0.86,-6.46,7.82,-0.05,26.36
20111,0.3396,-0.0089,0.8606,-6.53,7.86,0.0,26.36
20121,0.3403,-0.0088,0.8586,-6.47,7.79,-0.08,26.36
20131,0.3383,-0.0068,0.8629,-6.44,7.74,0.02,26.34
20141,0.3409,-0.0088,0.8643,-6.4,7.85,-0.11,26.37
20151,0.3422,-0.0112,0.8628,-6.46,7.83,-0.03,26.36
20161,0.3433,-0.0089,0.8601,-6.44,7.76,0.0,26.37
20171,0.3396,-0.0106,0.8641,-6.35,7.92,-0.12,26.36
20181,0.3383,-0.0084,0.8635,-6.43,7.88,-0.09,26.37
20191,0.3413,-0.0089,0.863,-6.5,7.91,-0.12,26.37
20201,0.3397,-0.0072,0.856,-6.49,7.91,-0.06,26.35
20211,0.3414,-0.0114,0.8594,-6.5,7.91,-0.03,26.35
20221,0.3417,-0.0076,0.859,-6.46,7.82,-0.05,26.35
20231,0.337,-0.0088,0.861,-6.43,7.85,-0.05,26.35
20241,0.3386,-0.0131,0.8633,-6.5,7.77,0.05,26.38
20251,0.3392,-0.0118,0.8622,-6.43,7.86,0.05,26.38
20261,0.3413,-0.0093,0.8616,-6.46,7.83,-0.03,26.36
20271,0.3403,-0.0122,0.8619,-6.53,7.8,-0.14,26.39
20281,0.3392,-0.0098,0.8622,-6.41,7.83,-0.02,26.38
20291,0.3419,-0.0092,0.8615,-6.4,7.91,0.02,26.37
20301,0.3403,-0.0084,0.8616,-6.44,7.86,-0.05,26.34
20311,0.3405,-0.0095,0.8678,-6.44,7.88,0.0,26.37
20321,0.3394,-0.0093,0.8641,-6.38,7.83,-0.06,26.38
20331,0.3406,-0.0072,0.8617,-6.52,7.8,0.05,26.38
20341,0.3406,-0.0087,0.8634,-6.41,7.8,-0.02,26.36
20351,0.344,-0.0078,0.8628,-6.53,7.8,-0.05,26.33
20361,0.338,-0.0084,0.8599,-6.44,7.8,-0.06,26.38
20371,0.3397,-0.0087,0.8643,-6.5,7.89,-0.11,26.37
20381,0.3394,-0.0115,0.8622,-6.47,7.83,-0.06,26.37
20391,0.3392,-0.0076,0.8615,-6.49,7.89,0.0,26.37
20401,0.3406,-0.0082,0.8638,-6.43,7.8,-0.06,26.36
20411,0.3414,-0.0081,0.8623,-6.43,7.83,-0.02,26.39
20421,0.34,-0.0106,0.8643,-6.46,7.83,0.0,26.37
20431,0.3378,-0.0117,0.864,-6.38,7.82,-0.09,26.36
20441,0.3411,-0.0123,0.8615,-6.47,7.94,-0.06,26.36
20451,0.3402,-0.0129,0.8643,-6.4,7.94,0.02,26.36
20461,0.3392,-0.0073,0.8647,-6.41,7.86,-0.02,26.35
20471,0.3433,-0.0107,0.8646,-6.35,7.83,-0.03,26.37
20481,0.3401,-0.0079,0.8634,-6.4,7.88,-0.02,26.35
20491,0.3391,-0.0121,0.8613,-6.43,7.77,0.06,26.36
20501,0.3398,-0.0092,0.8585,-6.44,7.82,-0.08,26.36
20511,0.3409,-0.0073,0.8623,-6.43,7.79,0.03,26.37
20521,0.3394,-0.0082,0.8629,-6.49,7.92,-0.09,26.37
20531,0.3389,-0.0067,0.8669,-6.46,7.8,-0.08,26.37
20541,0.3413,-0.0056,0.8574,-6.5,7.91,-0.09,26.37
20551,0.3402,-0.0093,0.8627,-6.46,7.86,-0.03,26.39
20561,0.3407,-0.0107,0.8612,-6.44,7.86,0.0,26.36
20571,0.3401,-0.0068,0.8644,-6.46,7.86,0.0,26.36
20581,0.3412,-0.0088,0.8667,-6.46,7.88,0.0,26.35
20591,0.3406,-0.011,0.8618,-6.4,7.77,-0.08,26.37
20601,0.3423,-0.0094,0.865,-6.4,7.8,-0.02,26.37
20611,0.3387,-0.0109,0.8647,-6.37,7.88,-0.09,26.38
20621,0.342,-0.0105,0.8629,-6.31,7.89,-0.02,26.37
20631,0.3407,-0.0099,0.8611,-6.44,7.83,0.02,26.37
20641,0.3442,-0.0083,0.8633,-6.46,7.85,-0.02,26.37
20651,0.3369,-0.0107,0.8611,-6.4,7.8,0.0,26.37
20661,0.3408,-0.0087,0.8625,-6.52,7.85,-0.02,26.39
20671,0.3397,-0.0096,0.8629,-6.41,7.83,0.02,26.37
20681,0.3397,-0.0093,0.8641,-6.53,7.88,-0.05,26.39
20691,0.3427,-0.0083,0.8663,-6.49,7.86,-0.05,26.38
20701,0.342,-0.0068,0.8632,-6.5,7.8,-0.02,26.39
20711,0.3434,-0.0076,0.8596,-6.46,7.79,-0.09,26.39
20721,0.3406,-0.0106,0.8654,-6.43,7.8,0.06,26.37
20731,0.3411,-0.0089,0.8618,-6.35,7.8,-0.03,26.37
20741,0.339,-0.0079,0.8635,-6.46,7.82,-0.05,26.37
20751,0.3403,-0.0084,0.8597,-6.5,7.82,-0.06,26.4
20761,0.3438,-0.0092,0.866,-6.46,7.82,-0.05,26.36
20771,0.3403,-0.0087,0.861,-6.47,7.83,0.05,26.38
20781,0.3396,-0.0077,0.8595,-6.41,7.8,0.0,26.39
20791,0.3414,-0.0088,0.8619,-6.47,7.8,-0.06,26.37
20801,0.3416,-0.0078,0.8624,-6.4,7.89,-0.02,26.37
20811,0.3373,-0.0095,0.8656,-6.4,7.79,-0.15,26.38
20821,0.3411,-0.0096,0.8673,-6.47,7.85,-0.06,26.37
20831,0.3384,-0.0112,0.8635,-6.43,7.8,-0.02,26.37
20841,0.3412,-0.0093,0.8607,-6.41,7.86,-0.05,26.38
20851,0.34,-0.0109,0.8611,-6.43,7.85,-0.06,26.37
20861,0.3411,-0.0083,0.8611,-6.52,7.82,-0.02,26.37
20871,0.3417,-0.0092,0.8645,-6.43,7.88,-0.06,26.36
20881,0.34,-0.007,0.8639,-6.44,7.77,0.03,26.35
20891,0.3411,-0.0088,0.8661,-6.4,7.77,-0.06,26.39
20901,0.3423,-0.0104,0.8599,-6.5,7.85,-0.02,26.34
20911,0.3397,-0.0081,0.8583,-6.46,7.86,-0.02,26.35
20921,0.3419,-0.0095,0.8608,-6.43,7.68,0.08,26.37
20931,0.3396,-0.0106,0.8658,-6.56,7.89,-0.03,26.37
20941,0.3424,-0.0103,0.8632,-6.49,7.82,-0.09,26.36
20951,0.34,-0.0095,0.8638,-6.46,7.88,-0.05,26.37
20961,0.3418,-0.01,0.8644,-6.37,7.85,-0.02,26.36
20971,0.3387,-0.0079,0.861,-6.44,7.8,0.05,26.38
20981,0.34,-0.0076,0.8584,-6.49,7.76,-0.03,26.36
20991,0.3363,-0.01,0.861,-6.44,7.85,0.03,26.37
21001,0.3407,-0.0104,0.8619,-6.53,7.71,-0.03,26.39
21011,0.3403,-0.0095,0.8641,-6.46,7.8,-0.05,26.38
21021,0.3358,-0.009,0.8635,-6.38,7.88,-0.02,26.37
21031,0.3416,-0.0094,0.8628,-6.38,7.82,0.0,26.39
21041,0.3418,-0.0074,0.8634,-6.46,7.85,0.02,26.38
21051,0.3402,-0.0082,0.8617,-6.43,7.86,-0.02,26.4
21061,0.3389,-0.0088,0.8647,-6.49,7.8,-0.05,26.39
21071,0.3407,-0.0092,0.865,-6.56,7.83,0.05,26.38
21081,0.339,-0.0115,0.859,-6.47,7.85,-0.02,26.36
21091,0.3407,-0.0085,0.8584,-6.55,7.88,-0.03,26.38
21101,0.34,-0.0094,0.8645,-6.47,7.79,-0.02,26.38
21111,0.3411,-0.0103,0.8618,-6.52,7.89,-0.02,26.37
21121,0.3387,-0.0133,0.8641,-6.52,7.83,-0.05,26.38
21131,0.3406,-0.0098,0.8641,-6.49,7.82,-0.06,26.38
21141,0.3403,-0.0114,0.8633,-6.41,7.85,-0.02,26.38
21151,0.3401,-0.0084,0.8623,-6.38,7.95,-0.05,26.38
21161,0.3416,-0.0065,0.864,-6.46,7.82,-0.11,26.35
21171,0.3409,-0.0105,0.8667,-6.44,7.83,-0.06,26.36
21181,0.3413,-0.0099,0.8655,-6.49,7.86,-0.03,26.38
21191,0.3402,-0.0098,0.8651,-6.41,7.74,-0.03,26.37
21201,0.3407,-0.0109,0.8569,-6.41,7.73,-0.11,26.37
21211,0.3385,-0.0117,0.8654,-6.43,7.85,0.09,26.36
21221,0.3405,-0.0107,0.8657,-6.46,7.85,-0.02,26.37
21231,0.3418,-0.0107,0.8621,-6.43,7.8,0.03,26.36
21241,0.3419,-0.0109,0.8623,-6.46,7.85,0.0,26.36
21251,0.3413,-0.0129,0.8613,-6.44,7.83,0.02,26.37
21261,0.3412,-0.0103,0.8646,-6.44,7.85,0.02,26.39
21271,0.3414,-0.0089,0.8656,-6.52,7.82,0.02,26.38
21281,0.3411,-0.01,0.864,-6.43,7.83,-0.05,26.37
21291,0.3384,-0.0073,0.8663,-6.43,7.89,0.0,26.38
21301,0.3412,-0.0107,0.8636,-6.46,7.74,0.0,26.38
21311,0.3401,-0.0085,0.8623,-6.47,7.85,0.0,26.37
21321,0.3397,-0.0081,0.8645,-6.43,7.8,0.0,26.4
21331,0.3398,-0.0111,0.8623,-6.43,7.8,0.06,26.39
21341,0.3412,-0.0095,0.864,-6.38,7.89,-0.02,26.4
21351,0.3413,-0.0078,0.8627,-6.43,7.88,-0.11,26.39
21361,0.3402,-0.0085,0.8634,-6.47,7.86,0.02,26.36
21371,0.3422,-0.005,0.8677,-6.52,7.88,-0.05,26.37
21381,0.3397,-0.0094,0.8625,-6.5,7.91,0.02,26.37
21391,0.34,-0.0081,0.8635,-6.49,7.83,-0.05,26.38
21401,0.3407,-0.0098,0.864,-6.53,7.8,-0.05,26.4
21411,0.3409,-0.0078,0.8585,-6.4,7.88,-0.08,26.39
21422,0.3375,-0.0076,0.8616,-6.41,7.83,-0.12,26.37
21432,0.3368,-0.0094,0.8606,-6.4,7.77,-0.03,26.4
21442,0.344,-0.0104,0.8658,-6.43,7.86,-0.03,26.39
21452,0.3424,-0.0074,0.8647,-6.43,7.85,-0.03,26.39
21463,0.3397,-0.0082,0.8625,-6.43,7.83,-0.09,26.39
21473,0.3401,-0.0101,0.8591,-6.52,7.83,0.03,26.39
21483,0.3408,-0.0078,0.864,-6.47,7.76,-0.05,26.38
21493,0.3394,-0.0088,0.8612,-6.47,7.79,-0.05,26.39
21503,0.3438,-0.0118,0.8607,-6.5,7.8,-0.08,26.38
21513,0.3396,-0.0095,0.8645,-6.5,7.79,0.03,26.38
21523,0.3386,-0.0094,0.8666,-6.47,7.82,-0.02,26.39
21533,0.3398,-0.0083,0.864,-6.53,7.8,0.0,26.41
21543,0.3392,-0.0094,0.8656,-6.52,7.83,-0.11,26.4
21553,0.3417,-0.0093,0.8594,-6.52,7.89,-0.03,26.42
21563,0.3409,-0.0077,0.8612,-6.41,7.76,-0.03,26.41
21573,0.3406,-0.0074,0.8624,-6.47,7.91,0.05,26.37
21583,0.3438,-0.0101,0.8646,-6.43,7.71,-0.02,26.38
21593,0.3385,-0.0081,0.8601,-6.37,7.86,-0.08,26.37
21603,0.3381,-0.0094,0.863,-6.5,7.83,-0.09,26.42
21613,0.34,-0.0109,0.8652,-6.46,7.74,0.0,26.38
21623,0.3418,-0.0092,0.8685,-6.41,7.92,0.0,26.39
21633,0.3386,-0.01,0.8604,-6.5,7.89,0.02,26.38
21643,0.3402,-0.009,0.8677,-6.56,7.88,-0.03,26.4
21653,0.3389,-0.0099,0.8617,-6.49,7.82,-0.03,26.4
21663,0.3396,-0.0105,0.8657,-6.43,7.85,-0.02,26.41
21673,0.3398,-0.0104,0.864,-6.46,7.83,-0.11,26.38
21683,0.342,-0.0107,0.8612,-6.35,7.85,-0.02,26.38
21693,0.3409,-0.0079,0.8645,-6.44,7.88,-0.05,26.42
21703,0.3401,-0.0081,0.8621,-6.46,7.88,-0.03,26.41
21713,0.3407,-0.0122,0.8629,-6.47,7.86,-0.03,26.39
21723,0.3436,-0.0096,0.8627,-6.49,7.86,-0.06,26.4
21733,0.34,-0.0077,0.8591,-6.47,7.86,-0.06,26.41
21743,0.3398,-0.0085,0.8629,-6.43,7.88,0.0,26.4
21753,0.3405,-0.0076,0.8654,-6.5,7.82,-0.02,26.37
21763,0.3425,-0.0092,0.8619,-6.34,7.83,0.0,26.38
21773,0.3403,-0.0067,0.8613,-6.46,7.79,0.0,26.39
21783,0.3411,-0.0106,0.8643,-6.44,7.83,-0.09,26.39
21793,0.3408,-0.0088,0.8602,-6.49,7.8,-0.05,26.42
21803,0.3409,-0.0103,0.8606,-6.4,7.89,-0.03,26.4
21813,0.3444,-0.0088,0.8578,-6.4,7.88,-0.11,26.41
21823,0.3407,-0.01,0.8613,-6.35,7.86,-0.12,26.4
21833,0.3395,-0.0096,0.8628,-6.44,7.79,0.0,26.41
21843,0.3391,-0.0105,0.8624,-6.46,7.8,-0.11,26.4
21853,0.3398,-0.0105,0.8624,-6.43,7.88,0.05,26.38
21863,0.3428,-0.009,0.8629,-6.41,7.85,-0.02,26.4
21873,0.3417,-0.0074,0.8645,-6.44,7.89,-0.11,26.39
21883,0.3411,-0.0104,0.8633,-6.34,7.94,-0.05,26.39
21893,0.3422,-0.0083,0.8677,-6.4,7.88,0.0,26.4
21903,0.3392,-0.0094,0.8613,-6.44,7.8,-0.05,26.37
21913,0.3402,-0.0074,0.8632,-6.47,7.89,-0.03,26.42
21923,0.3378,-0.0099,0.8621,-6.49,7.82,0.02,26.41
21933,0.3411,-0.0118,0.8635,-6.46,7.8,-0.03,26.37
21943,0.3422,-0.0088,0.8641,-6.44,7.79,0.02,26.39
21953,0.3401,-0.0072,0.863,-6.4,7.86,-0.05,26.38
21963,0.3418,-0.0088,0.8611,-6.52,7.83,0.0,26.39
21973,0.3425,-0.0083,0.8643,-6.41,7.82,0.06,26.39
21983,0.3414,-0.0042,0.8649,-6.31,7.82,0.0,26.39
21993,0.3403,-0.009,0.8617,-6.53,7.83,-0.03,26.39
22003,0.3386,-0.01,0.8638,-6.49,7.79,0.05,26.4
22013,0.3394,-0.0061,0.8597,-6.41,7.8,0.0,26.4
22023,0.3401,-0.0082,0.8632,-6.4,7.82,0.08,26.39
22033,0.3427,-0.0099,0.8604,-6.37,7.85,0.02,26.42
22043,0.3413,-0.0093,0.865,-6.47,7.77,0.02,26.39
22053,0.3411,-0.0111,0.8596,-6.35,7.89,0.02,26.39
22063,0.3418,-0.0073,0.8579,-6.41,7.89,-0.02,26.38
22073,0.34,-0.0099,0.8607,-6.4,7.91,0.0,26.38
22083,0.3405,-0.0095,0.8651,-6.44,7.86,-0.05,26.38
22093,0.3418,-0.0082,0.8634,-6.29,7.82,-0.02,26.41
22103,0.3435,-0.009,0.8635,-6.44,7.82,0.02,26.39
22113,0.3387,-0.0073,0.8655,-6.46,7.76,0.0,26.4
22123,0.3433,-0.0081,0.8641,-6.34,7.82,-0.06,26.4
22133,0.3406,-0.01,0.8643,-6.47,7.83,-0.02,26.39
22143,0.3412,-0.0107,0.8619,-6.44,7.82,0.02,26.39
22153,0.3367,-0.0076,0.8618,-6.49,7.82,-0.02,26.37
22163,0.3409,-0.0115,0.8624,-6.37,7.85,-0.09,26.37
22173,0.3407,-0.0104,0.8655,-6.5,7.89,-0.08,26.39
22183,0.3434,-0.0107,0.8619,-6.41,7.82,0.0,26.39
22193,0.3374,-0.0084,0.8621,-6.44,7.86,0.0,26.4
22203,0.3386,-0.0087,0.8599,-6.46,7.82,-0.05,26.41
22213,0.3403,-0.0101,0.864,-6.4,7.8,-0.02,26.42
22223,0.3411,-0.0096,0.8619,-6.43,7.83,-0.08,26.4
22233,0.3391,-0.0109,0.8632,-6.4,7.79,0.05,26.4
22243,0.3425,-0.0083,0.8617,-6.47,7.86,-0.11,26.4
22253,0.3397,-0.0092,0.8632,-6.47,7.83,-0.12,26.38
22263,0.3414,-0.0083,0.8605,-6.44,7.8,0.02,26.41
22273,0.3427,-0.0099,0.8608,-6.38,7.88,0.0,26.42
22283,0.3439,-0.0062,0.8656,-6.43,7.74,0.05,26.39
22293,0.3392,-0.0082,0.864,-6.4,7.82,0.03,26.41
22303,0.3413,-0.012,0.8602,-6.44,7.91,-0.06,26.41
22313,0.3428,-0.0106,0.8634,-6.52,7.76,-0.08,26.4
22323,0.3423,-0.0082,0.8655,-6.44,7.77,-0.08,26.39
22333,0.3412,-0.0082,0.8657,-6.37,7.88,-0.03,26.39
22343,0.3424,-0.0099,0.8671,-6.37,7.8,-0.03,26.42
22353,0.3441,-0.0115,0.8619,-6.38,7.76,-0.03,26.41
22363,0.3412,-0.0114,0.866,-6.38,7.83,-0.08,26.39
22373,0.3414,-0.0076,0.8633,-6.49,7.82,-0.06,26.38
22383,0.3438,-0.0088,0.8676,-6.41,7.82,-0.02,26.4
22393,0.3416,-0.009,0.8656,-6.44,7.76,0.0,26.4
22403,0.3386,-0.0095,0.861,-6.53,7.85,-0.05,26.39
22413,0.3403,-0.0085,0.8617,-6.5,7.85,-0.03,26.41
22423,0.3402,-0.0106,0.8616,-6.5,7.85,-0.05,26.43
22433,0.3413,-0.0106,0.8654,-6.46,7.8,-0.05,26.43
22443,0.3383,-0.012,0.8647,-6.41,7.91,0.0,26.43
22453,0.3422,-0.0081,0.8645,-6.53,7.85,-0.08,26.4
22463,0.3386,-0.0101,0.8616,-6.44,7.89,-0.09,26.42
22473,0.3397,-0.0106,0.8622,-6.35,7.86,0.0,26.42
22483,0.3401,-0.0079,0.8607,-6.49,7.8,-0.05,26.41
22493,0.3401,-0.0083,0.8671,-6.4,7.91,0.0,26.4
22503,0.3394,-0.0071,0.8628,-6.43,7.86,0.0,26.4
22513,0.3411,-0.0093,0.863,-6.41,7.88,0.0,26.43
22523,0.3403,-0.0095,0.8621,-6.52,7.77,-0.02,26.42
22533,0.3413,-0.0099,0.8611,-6.43,7.79,-0.02,26.42
22543,0.3381,-0.0081,0.8608,-6.5,7.79,-0.06,26.41
22553,0.3431,-0.0117,0.8619,-6.4,7.79,-0.02,26.4
22563,0.3418,-0.0089,0.86,-6.4,7.94,0.05,26.4
22573,0.339,-0.0072,0.8654,-6.49,7.86,0.02,26.4
22583,0.3398,-0.0094,0.863,-6.37,7.82,-0.02,26.42
22593,0.3435,-0.0104,0.8602,-6.37,7.85,0.05,26.38
22603,0.3425,-0.0105,0.8597,-6.4,7.88,-0.06,26.41
22613,0.3392,-0.0094,0.8636,-6.37,7.91,-0.06,26.39
22623,0.3408,-0.0092,0.8654,-6.43,7.8,0.02,26.39
22633,0.3419,-0.0066,0.8623,-6.49,7.8,-0.05,26.37
22643,0.3428,-0.0078,0.8636,-6.41,7.88,-0.06,26.4
22653,0.3411,-0.0098,0.8606,-6.46,7.8,-0.08,26.4
22663,0.3403,-0.0104,0.8647,-6.4,7.8,-0.06,26.41
22673,0.3418,-0.0114,0.8629,-6.5,7.79,-0.09,26.41
22683,0.3397,-0.0081,0.8635,-6.43,7.83,-0.06,26.42
22693,0.3402,-0.0094,0.8632,-6.5,7.85,-0.05,26.41
22703,0.3408,-0.0111,0.8662,-6.61,7.8,0.0,26.42
22713,0.3383,-0.0096,0.8628,-6.5,7.79,-0.03,26.4
22723,0.34,-0.0083,0.8644,-6.41,7.88,-0.05,26.42
22733,0.3403,-0.0104,0.868,-6.52,7.83,0.05,26.39
22743,0.3435,-0.0109,0.8644,-6.52,7.8,-0.02,26.39
22753,0.3389,-0.0082,0.8615,-6.5,7.89,0.02,26.4
22763,0.3433,-0.0103,0.8619,-6.43,7.86,-0.09,26.39
22773,0.3434,-0.0087,0.8617,-6.41,7.77,-0.05,26.41
22783,0.3385,-0.0072,0.8621,-6.5,7.8,0.02,26.42
22793,0.3387,-0.0094,0.8621,-6.46,7.82,-0.06,26.43
22803,0.3387,-0.0103,0.863,-6.44,7.76,-0.02,26.42
22813,0.3389,-0.0104,0.8623,-6.5,7.83,-0.11,26.39
22823,0.3425,-0.0071,0.8662,-6.52,7.92,-0.06,26.41
22833,0.3405,-0.007,0.8634,-6.49,7.82,0.0,26.41
22843,0.3428,-0.01,0.8633,-6.53,7.88,-0.06,26.4
22853,0.3417,-0.0089,0.865,-6.49,7.85,-0.08,26.44
22863,0.3425,-0.0078,0.8654,-6.46,7.89,-0.02,26.41
22873,0.342,-0.0085,0.8646,-6.55,7.85,-0.03,26.41
22883,0.3407,-0.0106,0.8607,-6.46,7.85,-0.06,26.42
22893,0.3379,-0.0094,0.8629,-6.41,7.88,-0.06,26.41
22903,0.3418,-0.007,0.8629,-6.46,7.82,-0.06,26.4
22913,0.3385,-0.0079,0.8665,-6.44,7.83,-0.06,26.4
22923,0.3433,-0.0089,0.8655,-6.35,7.89,-0.06,26.41
22933,0.3406,-0.0083,0.8591,-6.41,7.8,-0.05,26.41
22943,0.3411,-0.0077,0.8663,-6.46,7.94,-0.06,26.44
22954,0.3394,-0.0104,0.8638,-6.49,7.79,0.0,26.41
22964,0.3385,-0.0092,0.8649,-6.47,7.85,-0.03,26.39
22975,0.3408,-0.01,0.8625,-6.43,7.91,-0.02,26.41
22985,0.3396,-0.0095,0.8663,-6.5,7.86,-0.03,26.43
22995,0.3411,-0.0076,0.8582,-6.37,7.86,0.02,26.41
23005,0.3423,-0.0099,0.8622,-6.47,7.79,0.08,26.41
23015,0.3408,-0.01,0.8617,-6.44,7.77,-0.02,26.42
23025,0.3402,-0.01,0.8633,-6.49,7.8,0.0,26.4
23035,0.3386,-0.0089,0.8634,-6.5,7.85,-0.03,26.41
23045,0.3408,-0.0088,0.8617,-6.47,7.73,-0.05,26.41
23055,0.3424,-0.0093,0.8629,-6.47,7.89,-0.11,26.44
23065,0.3403,-0.0095,0.8643,-6.52,7.88,-0.05,26.41
23075,0.3422,-0.0082,0.8639,-6.47,7.85,0.0,26.4
23085,0.3402,-0.0118,0.8615,-6.52,7.79,-0.03,26.42
23095,0.3424,-0.01,0.8623,-6.53,7.82,0.03,26.42
23105,0.3414,-0.01,0.8608,-6.47,7.8,-0.05,26.41
23115,0.3422,-0.0078,0.8643,-6.47,7.89,-0.06,26.42
23125,0.34,-0.0093,0.8622,-6.46,7.82,0.0,26.42
23135,0.3424,-0.0089,0.8611,-6.5,7.88,-0.05,26.44
23145,0.3422,-0.0078,0.8624,-6.5,7.82,-0.03,26.42
23155,0.3385,-0.0074,0.8624,-6.5,7.94,-0.09,26.41
23165,0.3397,-0.009,0.8622,-6.41,7.92,-0.12,26.4
23175,0.3414,-0.011,0.8663,-6.44,7.74,0.02,26.41
23185,0.3389,-0.0109,0.8655,-6.46,7.82,-0.06,26.41
23195,0.3428,-0.0074,0.8634,-6.46,7.86,-0.03,26.4
23205,0.3392,-0.0085,0.8622,-6.41,7.8,0.06,26.42
23215,0.3403,-0.0093,0.8604,-6.44,7.82,0.03,26.41
23225,0.3385,-0.0083,0.8621,-6.5,7.88,-0.05,26.4
23235,0.3392,-0.0073,0.8679,-6.47,7.83,0.02,26.4
23245,0.3403,-0.0094,0.8658,-6.56,7.86,-0.08,26.42
23256,0.3414,-0.0104,0.8635,-6.49,7.91,-0.02,26.42
23266,0.3413,-0.01,0.8602,-6.43,7.89,-0.05,26.42
23276,0.3401,-0.0096,0.8635,-6.52,7.82,-0.08,26.42
23286,0.3406,-0.0083,0.8654,-6.38,7.8,-0.11,26.4
23296,0.3409,-0.0074,0.8638,-6.47,7.83,-0.03,26.41
23306,0.3422,-0.0084,0.8638,-6.43,7.79,-0.09,26.43
23316,0.3409,-0.0073,0.8646,-6.46,7.77,0.03,26.44
23326,0.3379,-0.0094,0.8619,-6.46,7.91,0.0,26.41
23336,0.3402,-0.0059,0.863,-6.55,7.77,0.0,26.41
23347,0.3396,-0.0077,0.8651,-6.55,7.8,-0.09,26.4
23357,0.3403,-0.0106,0.8661,-6.41,7.82,-0.11,26.42
23367,0.3405,-0.01,0.8649,-6.43,7.92,-0.03,26.42
23377,0.3414,-0.0081,0.8617,-6.49,7.74,-0.02,26.42
23387,0.3402,-0.0098,0.863,-6.49,7.91,0.09,26.42
23397,0.3428,-0.0109,0.8638,-6.38,7.82,-0.08,26.4
23407,0.3394,-0.0083,0.8635,-6.46,7.85,-0.08,26.42
23417,0.34,-0.0101,0.8649,-6.41,7.89,-0.05,26.43
23427,0.3406,-0.0115,0.8644,-6.47,7.92,-0.03,26.43
23437,0.3407,-0.0109,0.8629,-6.43,7.85,-0.02,26.44
23447,0.3398,-0.0095,0.86,-6.49,7.91,-0.03,26.42
23457,0.3422,-0.0122,0.866,-6.4,7.88,-0.05,26.42
23467,0.3381,-0.0103,0.8619,-6.43,7.86,-0.12,26.41
23477,0.3424,-0.0092,0.8666,-6.47,7.85,-0.02,26.41
23487,0.3395,-0.0088,0.8613,-6.5,7.82,-0.06,26.41
23497,0.3401,-0.0083,0.8605,-6.5,7.8,-0.06,26.39
23507,0.3425,-0.0073,0.8627,-6.47,7.79,0.06,26.43
23517,0.3391,-0.0078,0.8612,-6.53,7.79,0.0,26.45
23527,0.3409,-0.0096,0.8616,-6.47,7.85,-0.12,26.42
23537,0.3385,-0.0084,0.8635,-6.52,7.85,-0.05,26.41
23547,0.3401,-0.0074,0.8612,-6.43,7.8,-0.08,26.42
23557,0.3412,-0.0116,0.8595,-6.44,7.85,-0.02,26.42
23567,0.3427,-0.0099,0.8647,-6.41,7.86,-0.06,26.4
23577,0.3425,-0.0082,0.8612,-6.43,7.82,-0.03,26.42
23587,0.3383,-0.0092,0.865,-6.43,7.89,0.0,26.42
23597,0.3408,-0.0079,0.8669,-6.43,7.91,-0.02,26.42
23607,0.3381,-0.0087,0.8597,-6.53,7.8,-0.09,26.44
23617,0.3385,-0.0082,0.8644,-6.43,7.8,-0.02,26.42
23627,0.34,-0.0088,0.86,-6.4,7.82,0.02,26.43
23637,0.3401,-0.0073,0.8635,-6.47,7.83,0.02,26.41
23647,0.3418,-0.0112,0.8621,-6.41,7.82,-0.06,26.42
23657,0.3409,-0.0093,0.8678,-6.41,7.86,0.02,26.42
23667,0.34,-0.0088,0.865,-6.46,7.79,-0.03,26.42
23677,0.3411,-0.0083,0.8629,-6.46,7.92,-0.02,26.42
23687,0.3407,-0.0096,0.8615,-6.49,7.86,-0.03,26.42
23697,0.3414,-0.0082,0.865,-6.46,7.77,0.0,26.4
23707,0.3419,-0.0087,0.8654,-6.49,7.88,-0.08,26.43
23717,0.3431,-0.0066,0.8644,-6.43,7.73,-0.06,26.42
23727,0.3409,-0.0096,0.8622,-6.53,7.85,0.02,26.42
23737,0.34,-0.0077,0.8616,-6.49,7.83,-0.03,26.44
23747,0.3405,-0.0103,0.8635,-6.41,7.8,-0.12,26.42
23757,0.3408,-0.0092,0.8593,-6.43,7.88,-0.09,26.41
23767,0.3423,-0.0071,0.8636,-6.58,7.83,-0.06,26.43
23777,0.3398,-0.0107,0.8678,-6.37,7.88,-0.08,26.41
23787,0.3408,-0.0096,0.861,-6.38,7.85,-0.06,26.4
23797,0.3417,-0.0101,0.8606,-6.53,7.88,-0.03,26.43
23807,0.3411,-0.0065,0.8611,-6.46,7.8,-0.05,26.43
23817,0.3411,-0.0114,0.8646,-6.4,7.89,-0.08,26.44
23827,0.3439,-0.0094,0.8601,-6.47,7.85,-0.08,26.4
23837,0.3414,-0.0089,0.8624,-6.49,7.85,0.06,26.41
23847,0.3383,-0.0087,0.8627,-6.43,7.89,0.03,26.42
23857,0.3381,-0.0096,0.8611,-6.44,7.8,0.0,26.44
23867,0.3406,-0.0088,0.8602,-6.49,7.83,-0.02,26.43
23877,0.3406,-0.0085,0.8641,-6.55,7.83,0.0,26.44
23887,0.3413,-0.0057,0.8613,-6.44,7.76,-0.03,26.44
23897,0.3417,-0.0096,0.8612,-6.46,7.85,-0.05,26.43
23907,0.3397,-0.0085,0.8634,-6.47,7.88,0.0,26.43
23917,0.3411,-0.01,0.8625,-6.43,7.83,-0.08,26.43
23927,0.3406,-0.0079,0.8625,-6.41,7.8,-0.06,26.44
23937,0.3452,-0.0084,0.8588,-6.49,7.83,-0.03,26.42
23947,0.3385,-0.0107,0.8589,-6.5,7.79,-0.06,26.44
23957,0.3434,-0.007,0.8601,-6.49,7.82,-0.03,26.4
23967,0.3365,-0.0084,0.8594,-6.52,7.88,-0.03,26.43
23977,0.3389,-0.009,0.8617,-6.43,7.85,-0.08,26.44
23987,0.3406,-0.0089,0.8605,-6.43,7.88,0.03,26.42
23997,0.3397,-0.0071,0.8639,-6.4,7.86,-0.02,26.43
24007,0.3346,-0.0074,0.8632,-6.46,7.88,-0.05,26.42
24017,0.3389,-0.0088,0.8665,-6.47,7.8,-0.02,26.42
24027,0.3387,-0.0081,0.8647,-6.44,7.89,-0.06,26.41
24037,0.3391,-0.0096,0.8662,-6.4,7.89,-0.05,26.43
24047,0.3423,-0.0089,0.8589,-6.4,7.82,0.02,26.42
24057,0.3409,-0.0076,0.8604,-6.4,7.79,-0.06,26.42
24067,0.34,-0.0068,0.8625,-6.43,7.8,-0.06,26.42
24077,0.3412,-0.0098,0.8643,-6.44,7.82,0.0,26.4
24087,0.343,-0.0078,0.8628,-6.44,7.74,0.0,26.41
24097,0.3411,-0.009,0.8656,-6.38,7.85,-0.03,26.43
24107,0.3394,-0.0104,0.8618,-6.46,7.79,0.03,26.42
24117,0.339,-0.009,0.8605,-6.46,7.83,0.02,26.4
24127,0.3401,-0.0125,0.8624,-6.41,7.89,-0.03,26.43
24137,0.3411,-0.0089,0.8595,-6.47,7.88,-0.05,26.42
24147,0.3392,-0.009,0.8602,-6.47,7.83,-0.06,26.44
24157,0.3419,-0.0068,0.8636,-6.47,7.91,-0.02,26.42
24167,0.3395,-0.0087,0.8628,-6.52,7.83,-0.09,26.44
24177,0.3384,-0.0106,0.8617,-6.46,7.8,-0.02,26.43
24187,0.3405,-0.0095,0.8643,-6.46,7.82,0.05,26.43
24197,0.3403,-0.0103,0.8662,-6.46,7.91,0.03,26.42
24207,0.3398,-0.0074,0.8612,-6.35,7.8,0.02,26.43
24217,0.3424,-0.0071,0.8615,-6.38,7.85,0.03,26.43
24227,0.339,-0.0111,0.8602,-6.46,7.8,-0.05,26.44
24237,0.3402,-0.0103,0.8619,-6.49,7.8,-0.12,26.43
24247,0.343,-0.0111,0.8622,-6.44,7.85,-0.12,26.42
24257,0.3409,-0.0088,0.8595,-6.46,7.86,0.06,26.45
24267,0.3428,-0.0067,0.8594,-6.47,7.8,-0.02,26.42
24277,0.3412,-0.0081,0.8636,-6.38,7.89,-0.17,26.45
24287,0.34,-0.01,0.8624,-6.43,7.86,0.02,26.45
24297,0.3418,-0.0084,0.8622,-6.4,7.8,-0.05,26.43
24307,0.3406,-0.0072,0.8641,-6.47,7.85,-0.06,26.44
24317,0.3413,-0.0095,0.8618,-6.53,7.86,-0.03,26.43
24327,0.3401,-0.0049,0.8645,-6.43,7.86,-0.06,26.41
24337,0.3396,-0.0076,0.8658,-6.43,7.8,-0.05,26.42
24347,0.3386,-0.007,0.8661,-6.41,7.85,-0.08,26.44
24357,0.3405,-0.0095,0.8633,-6.47,7.8,0.09,26.44
24367,0.3396,-0.0088,0.8628,-6.52,7.79,-0.02,26.42
24377,0.3431,-0.0089,0.859,-6.41,7.8,-0.05,26.42
24387,0.3397,-0.0093,0.8652,-6.46,7.8,-0.02,26.42
24397,0.3417,-0.0071,0.8655,-6.52,7.85,-0.03,26.44
24407,0.3411,-0.0074,0.8619,-6.5,7.8,-0.03,26.43
24417,0.3438,-0.0078,0.8621,-6.49,7.86,-0.02,26.44
24427,0.3417,-0.0092,0.8644,-6.4,7.83,-0.08,26.42
24437,0.3435,-0.0107,0.8651,-6.53,7.83,-0.03,26.43
24447,0.3368,-0.0105,0.8665,-6.46,7.88,-0.05,26.44
24457,0.34,-0.0094,0.8638,-6.44,7.76,-0.05,26.43
24467,0.3429,-0.0076,0.8606,-6.44,7.77,-0.03,26.45
24477,0.3387,-0.0074,0.8633,-6.49,7.82,-0.09,26.46
24487,0.3396,-0.0099,0.8583,-6.5,7.86,-0.05,26.44
24497,0.3436,-0.0109,0.8622,-6.46,7.85,-0.02,26.47
24507,0.3422,-0.0084,0.8646,-6.41,7.82,-0.08,26.44
24517,0.3411,-0.0093,0.8635,-6.38,7.86,-0.08,26.42
24527,0.3397,-0.0111,0.8636,-6.49,7.89,0.02,26.47
24537,0.3398,-0.0104,0.8605,-6.4,7.86,-0.08,26.45
24547,0.3422,-0.0066,0.8634,-6.4,7.82,-0.02,26.44
24557,0.3395,-0.0084,0.8641,-6.47,7.85,-0.05,26.44
24567,0.3397,-0.0088,0.8621,-6.5,7.8,-0.05,26.44
24577,0.3428,-0.0092,0.8634,-6.55,7.82,-0.03,26.45
24587,0.3403,-0.0092,0.8632,-6.46,7.79,-0.06,26.44
24597,0.34,-0.0101,0.86,-6.37,7.89,0.02,26.43
24607,0.3409,-0.0089,0.8586,-6.47,7.86,0.02,26.43
24617,0.3387,-0.0061,0.865,-6.44,7.86,-0.11,26.45
24627,0.3422,-0.0094,0.8661,-6.56,7.88,-0.05,26.44
24637,0.34,-0.0117,0.8646,-6.43,7.85,-0.06,26.44
24647,0.3398,-0.0082,0.8647,-6.44,7.82,0.0,26.41
24657,0.342,-0.0087,0.8599,-6.37,7.8,-0.05,26.42
24667,0.3389,-0.0082,0.8583,-6.53,7.83,0.05,26.42
24677,0.3408,-0.0083,0.8623,-6.44,7.79,0.0,26.45
24687,0.3414,-0.0095,0.8613,-6.43,7.94,0.0,26.45
24697,0.3383,-0.0089,0.8613,-6.4,7.83,-0.05,26.47
24707,0.3408,-0.0101,0.8643,-6.44,7.8,0.02,26.43
24717,0.3408,-0.0096,0.865,-6.5,7.89,0.0,26.46
24727,0.3384,-0.0106,0.8655,-6.46,7.8,0.0,26.44
24737,0.3398,-0.0099,0.8638,-6.55,7.86,-0.02,26.46
24747,0.3418,-0.011,0.8635,-6.5,7.89,0.02,26.45
24757,0.3416,-0.0093,0.8666,-6.44,7.77,-0.06,26.43
24767,0.3405,-0.0095,0.8638,-6.44,7.69,-0.03,26.43
24777,0.3392,-0.0103,0.8639,-6.44,7.8,0.0,26.43
24787,0.3406,-0.0105,0.861,-6.49,7.85,-0.05,26.45
24797,0.3417,-0.0096,0.8612,-6.53,7.79,0.05,26.44
24807,0.338,-0.0083,0.8632,-6.52,7.79,-0.11,26.44
24817,0.3416,-0.0095,0.8663,-6.44,7.79,0.0,26.46
24827,0.3409,-0.0096,0.8656,-6.44,7.8,-0.08,26.45
24837,0.3422,-0.0087,0.8647,-6.55,7.82,-0.03,26.45
24847,0.3434,-0.0094,0.8665,-6.44,7.68,0.02,26.45
24857,0.3409,-0.0077,0.8584,-6.5,7.8,0.0,26.45
24867,0.3407,-0.0085,0.8625,-6.58,7.86,-0.02,26.44
24877,0.3413,-0.0107,0.8655,-6.46,7.85,-0.02,26.42
24888,0.3412,-0.0098,0.8567,-6.5,7.85,-0.06,26.45
24898,0.3417,-0.0106,0.8607,-6.37,7.77,-0.08,26.45
24911,0.337,-0.0095,0.8672,-6.34,7.83,0.02,26.44
24921,0.3414,-0.0132,0.8645,-6.44,7.85,-0.06,26.44
24931,0.3412,-0.0073,0.8634,-6.4,7.89,-0.05,26.45
24941,0.3446,-0.0101,0.8623,-6.4,7.91,-0.03,26.44
24951,0.3403,-0.0092,0.8632,-6.49,7.85,0.0,26.46
24961,0.3411,-0.0137,0.868,-6.44,7.85,-0.05,26.45
24971,0.3407,-0.0089,0.8629,-6.46,7.89,0.06,26.45
24981,0.3396,-0.0073,0.8652,-6.47,7.89,-0.05,26.45
24991,0.3385,-0.0096,0.8604,-6.44,7.88,0.05,26.42
25001,0.339,-0.01,0.8646,-6.53,7.92,0.06,26.43
25011,0.3376,-0.0118,0.8629,-6.58,7.77,-0.02,26.45
25021,0.3395,-0.009,0.8654,-6.47,7.88,0.0,26.44
25031,0.3405,-0.0095,0.8621,-6.43,7.88,0.03,26.44
25041,0.3389,-0.0104,0.8656,-6.55,7.82,-0.08,26.45
25051,0.3413,-0.0107,0.86,-6.41,7.88,0.02,26.46
25061,0.34,-0.0114,0.8635,-6.56,7.89,-0.05,26.46
25071,0.338,-0.0079,0.8563,-6.49,7.83,-0.03,26.46
25081,0.3395,-0.0088,0.8634,-6.47,7.82,-0.12,26.46
25091,0.3401,-0.0067,0.8607,-6.5,7.82,-0.02,26.46
25101,0.3418,-0.007,0.8612,-6.52,7.91,-0.08,26.44
25111,0.3398,-0.0089,0.8615,-6.47,7.85,-0.05,26.44
25121,0.343,-0.0077,0.8667,-6.56,7.83,0.03,26.47
25131,0.3401,-0.0076,0.8606,-6.46,7.79,-0.08,26.43
25141,0.3376,-0.01,0.8616,-6.49,7.8,-0.03,26.43
25151,0.3414,-0.0085,0.8607,-6.35,7.85,-0.17,26.44
25161,0.3408,-0.0104,0.8649,-6.44,7.77,-0.03,26.44
25171,0.3409,-0.0096,0.863,-6.37,7.92,-0.12,26.43
25181,0.3375,-0.0082,0.8623,-6.37,7.86,-0.05,26.42
25191,0.3411,-0.0079,0.8628,-6.37,7.83,0.03,26.43
25201,0.3364,-0.0085,0.8651,-6.38,7.82,0.03,26.45
25211,0.3386,-0.0057,0.8617,-6.43,7.82,-0.03,26.46
25221,0.3419,-0.006,0.8632,-6.47,7.79,-0.02,26.45
25231,0.3411,-0.0066,0.8597,-6.49,7.77,-0.08,26.45
25241,0.3416,-0.0083,0.8656,-6.5,7.83,-0.05,26.46
25251,0.3435,-0.0087,0.8611,-6.47,7.79,-0.03,26.45
25261,0.3408,-0.0112,0.8646,-6.53,7.85,0.02,26.45
25271,0.3397,-0.0129,0.8649,-6.43,7.82,0.0,26.46
25281,0.3391,-0.0115,0.8632,-6.47,7.88,0.02,26.45
25291,0.3409,-0.0112,0.8645,-6.5,7.82,-0.05,26.45
