t_ms,accel_x_g,accel_y_g,accel_z_g,gyro_x_dps,gyro_y_dps,gyro_z_dps,imu_temp_c
3273,0.2223,-0.0516,0.8888,-6.08,8.98,-0.03,23.94
3283,0.2372,-0.0483,0.8806,-6.12,6.81,-0.05,23.94
3293,0.2131,-0.0469,0.905,-6.09,8.73,-0.05,23.94
3303,0.2384,-0.0438,0.8724,-6.11,8.35,-0.08,23.92
3313,0.2374,-0.0431,0.88,-6.17,6.46,-0.05,23.95
3323,0.2195,-0.0533,0.9044,-6.17,7.27,-0.05,23.91
3333,0.2452,-0.0448,0.8781,-6.11,8.64,-0.11,23.95
3343,0.2465,-0.0486,0.869,-6.15,6.78,-0.08,23.95
3353,0.226,-0.0505,0.8859,-6.17,7.59,-0.02,23.96
3363,0.225,-0.0525,0.8864,-6.24,8.76,0.06,23.94
3373,0.2401,-0.0463,0.8756,-6.14,8.21,-0.09,23.97
3383,0.244,-0.0464,0.8676,-6.15,7.97,0.02,23.95
3393,0.2296,-0.0435,0.8815,-6.15,6.9,-0.09,23.94
3403,0.2322,-0.0433,0.882,-6.12,7.88,-0.11,23.98
3413,0.241,-0.0389,0.8732,-6.14,7.08,-0.03,23.95
3423,0.2412,-0.0386,0.8793,-6.2,7.01,-0.06,23.95
3433,0.2417,-0.0433,0.8805,-6.11,7.4,-0.05,23.94
3443,0.2329,-0.0393,0.8881,-6.18,7.24,-0.06,23.99
3453,0.2285,-0.0443,0.892,-6.11,8.49,-0.06,23.98
3463,0.2382,-0.0408,0.8774,-6.29,8.08,-0.14,23.96
3473,0.2388,-0.0448,0.8854,-6.18,7.56,-0.06,23.97
3484,0.2385,-0.0413,0.8873,-6.18,7.77,-0.08,23.94
3494,0.2347,-0.0424,0.8892,-6.2,8.18,0.0,23.95
3504,0.2396,-0.0493,0.8813,-6.21,8.41,0.02,23.98
3515,0.2498,-0.0503,0.8759,-6.14,7.8,-0.05,23.96
3525,0.2404,-0.0521,0.8771,-6.12,7.05,-0.02,23.99
3535,0.225,-0.0526,0.8978,-6.2,8.24,-0.09,23.96
3545,0.2351,-0.0531,0.887,-6.21,8.73,-0.05,23.96
3555,0.2466,-0.0496,0.8724,-6.11,7.54,-0.08,23.98
3565,0.2471,-0.046,0.8719,-6.12,6.7,-0.05,23.97
3575,0.2212,-0.049,0.8899,-6.15,7.74,-0.06,23.98
3585,0.226,-0.0477,0.8895,-6.12,8.95,0.02,23.96
3595,0.2506,-0.0457,0.8667,-6.18,7.19,-0.06,23.98
3605,0.2362,-0.0457,0.8845,-6.18,6.6,-0.12,23.97
3615,0.226,-0.046,0.8937,-6.21,7.77,-0.11,24.0
3625,0.2175,-0.0543,0.8964,-6.18,8.82,-0.14,23.97
3635,0.2347,-0.0503,0.8859,-6.24,8.73,-0.12,23.99
3645,0.244,-0.046,0.8792,-6.18,7.51,-0.17,23.97
3655,0.2361,-0.0482,0.8846,-6.23,7.44,-0.08,23.96
3665,0.2336,-0.0476,0.884,-6.23,8.18,-0.09,23.96
3675,0.2391,-0.0464,0.8818,-6.12,7.98,-0.11,23.97
3685,0.2388,-0.0521,0.8715,-6.2,7.8,-0.09,23.97
3695,0.2317,-0.0546,0.879,-6.09,8.09,-0.06,23.98
3705,0.2374,-0.0492,0.8738,-6.03,7.66,-0.14,23.99
3715,0.2422,-0.049,0.8586,-6.02,7.21,0.0,23.97
3725,0.2301,-0.0396,0.8726,-6.11,6.69,0.0,23.96
3735,0.234,-0.0355,0.8883,-6.08,8.11,-0.11,23.95
3745,0.2542,-0.0345,0.8823,-6.15,7.18,-0.12,23.97
3755,0.2555,-0.0364,0.8668,-6.32,6.6,-0.03,23.99
3765,0.2131,-0.0481,0.908,-6.23,8.03,0.0,23.98
3775,0.2378,-0.0531,0.8892,-6.21,8.6,-0.03,23.98
3785,0.2384,-0.0549,0.8832,-6.21,7.51,0.02,24.0
3795,0.2278,-0.0557,0.8922,-6.09,8.17,-0.12,23.98
3805,0.2302,-0.0573,0.8795,-6.14,8.5,-0.06,23.99
3815,0.2384,-0.051,0.8644,-6.03,7.51,0.03,23.99
3825,0.2344,-0.0474,0.8729,-6.14,7.13,0.03,23.99
3835,0.2273,-0.0416,0.8832,-6.15,7.73,-0.02,23.97
3845,0.2289,-0.0457,0.8802,-6.23,8.09,-0.06,23.98
3855,0.2395,-0.0472,0.8722,-6.14,7.36,-0.08,24.0
3865,0.2325,-0.0466,0.8794,-6.14,7.24,-0.03,23.99
3875,0.2281,-0.0452,0.8889,-6.15,7.83,-0.08,23.97
3885,0.2333,-0.0454,0.8801,-6.18,8.18,-0.06,24.0
3895,0.2416,-0.0439,0.8767,-6.18,7.57,-0.08,23.98
3905,0.2355,-0.043,0.8914,-6.18,7.48,-0.05,23.99
3915,0.23,-0.0458,0.8942,-6.2,7.74,-0.12,23.97
3925,0.2268,-0.0488,0.8867,-6.18,8.06,-0.08,23.97
3935,0.23,-0.0498,0.8904,-6.27,8.24,-0.06,24.0
3945,0.2426,-0.0507,0.8835,-6.11,7.86,-0.09,23.99
3955,0.2313,-0.0521,0.8934,-6.2,7.5,-0.06,23.99
3965,0.2234,-0.0503,0.8916,-6.08,9.21,-0.05,23.98
3975,0.2571,-0.0507,0.8586,-6.12,7.45,-0.08,23.97
3985,0.2354,-0.049,0.8776,-6.08,6.21,-0.05,23.99
3995,0.2211,-0.0497,0.8934,-6.05,7.28,-0.02,23.99
4005,0.2343,-0.0452,0.8658,-6.17,8.6,-0.05,23.98
4015,0.2356,-0.0404,0.8707,-6.17,7.21,-0.02,24.0
4025,0.2303,-0.0348,0.88,-6.26,7.4,-0.02,23.97
4035,0.2389,-0.0354,0.8784,-6.15,7.34,-0.15,23.98
4045,0.2378,-0.0336,0.8989,-6.2,6.79,-0.15,24.01
4055,0.2239,-0.0404,0.9166,-6.29,8.34,-0.09,23.99
4065,0.2354,-0.0533,0.8951,-6.24,9.37,-0.14,23.98
4075,0.2465,-0.053,0.8827,-6.14,8.78,-0.05,23.99
4085,0.2323,-0.0597,0.8757,-6.03,6.63,-0.12,23.97
4095,0.2305,-0.0614,0.8728,-6.09,7.56,-0.03,23.97
4105,0.2242,-0.0538,0.87,-6.06,8.0,0.0,23.98
4115,0.2291,-0.0433,0.871,-6.08,8.05,0.0,24.0
4125,0.2433,-0.0308,0.8619,-6.14,7.97,-0.03,24.01
4135,0.2579,-0.03,0.8623,-6.24,5.69,-0.06,23.98
4145,0.2185,-0.0334,0.9113,-6.27,7.01,-0.03,24.01
4155,0.2198,-0.045,0.917,-6.26,10.5,-0.05,24.01
4165,0.2599,-0.0519,0.868,-6.27,7.8,-0.12,24.01
4175,0.2362,-0.0569,0.8955,-6.17,7.37,-0.12,24.0
4185,0.2335,-0.0585,0.8823,-6.11,8.31,-0.09,24.0
4195,0.2356,-0.0562,0.8706,-6.09,8.29,-0.03,24.0
4205,0.2377,-0.0497,0.864,-6.05,7.42,-0.08,24.0
4215,0.229,-0.0455,0.8643,-6.06,6.93,-0.12,23.99
4225,0.217,-0.04,0.8879,-6.12,8.37,-0.12,23.98
4235,0.2479,-0.0376,0.8661,-6.06,7.85,-0.09,23.99
4245,0.2516,-0.0398,0.8718,-6.21,5.5,-0.08,23.99
4255,0.2084,-0.0475,0.9103,-6.21,7.82,-0.06,23.99
4265,0.2291,-0.047,0.9023,-6.24,8.9,0.0,24.0
4275,0.2338,-0.0442,0.8989,-6.26,8.41,-0.09,23.99
4285,0.2396,-0.0509,0.8938,-6.23,8.92,0.03,24.0
4295,0.2433,-0.0525,0.8763,-6.17,7.5,-0.06,23.99
4305,0.2391,-0.0535,0.8723,-6.11,7.63,-0.09,24.02
4315,0.2385,-0.0488,0.8668,-6.15,7.25,-0.08,23.99
4325,0.212,-0.0421,0.8911,-6.2,8.92,-0.08,24.0
4335,0.2448,-0.0413,0.858,-6.12,8.35,0.0,23.99
4345,0.2444,-0.0355,0.8706,-6.2,6.26,-0.08,23.98
4355,0.2292,-0.042,0.8921,-6.15,7.66,-0.08,23.98
4365,0.2377,-0.0435,0.892,-6.23,7.65,-0.08,24.01
4375,0.2319,-0.0526,0.8984,-6.17,7.63,-0.02,24.01
4385,0.2303,-0.0541,0.9001,-6.15,8.11,-0.06,23.99
4395,0.2313,-0.0579,0.8936,-6.11,8.03,-0.11,23.98
4405,0.2214,-0.0553,0.8894,-6.14,8.52,-0.08,24.01
4415,0.2343,-0.0552,0.8699,-6.09,8.55,-0.08,23.98
4425,0.2405,-0.0504,0.8605,-6.12,7.13,-0.03,24.02
4435,0.2261,-0.0464,0.8848,-6.12,7.31,-0.05,24.01
4445,0.2198,-0.0414,0.8945,-6.27,8.79,-0.06,24.02
4455,0.2456,-0.0438,0.8793,-6.26,7.95,-0.11,24.01
4465,0.2572,-0.0479,0.8647,-6.15,5.83,-0.08,23.99
4475,0.2118,-0.0581,0.9119,-6.14,7.59,-0.06,24.01
4485,0.2252,-0.0575,0.8944,-6.12,10.03,0.05,24.0
4495,0.2671,-0.0581,0.85,-6.08,6.29,0.0,24.0
4505,0.2164,-0.0542,0.8932,-6.09,5.86,0.0,24.04
4515,0.2062,-0.0439,0.9131,-6.2,10.69,-0.03,24.02
4525,0.2622,-0.0394,0.8628,-6.2,7.88,-0.09,24.01
4535,0.25,-0.045,0.8717,-6.18,5.02,-0.09,24.01
4545,0.1932,-0.048,0.9175,-6.31,9.51,-0.17,24.0
4555,0.2454,-0.049,0.8661,-6.2,9.54,-0.11,24.0
4565,0.2612,-0.052,0.8575,-6.23,5.22,-0.06,24.0
4575,0.2125,-0.0513,0.9092,-6.17,7.53,-0.11,24.01
4585,0.2329,-0.0466,0.8894,-6.23,9.88,-0.03,24.02
4595,0.2701,-0.0487,0.8567,-6.17,5.74,-0.02,24.01
4605,0.2152,-0.0524,0.9053,-6.12,6.78,-0.02,23.99
4615,0.2225,-0.0481,0.895,-6.21,10.6,-0.03,24.02
4625,0.2755,-0.052,0.8433,-6.17,5.69,0.0,24.0
4635,0.2125,-0.0468,0.8956,-6.21,6.79,0.0,23.98
4645,0.2206,-0.0431,0.8998,-6.23,10.72,0.06,23.98
4655,0.2765,-0.0449,0.8463,-6.15,5.44,-0.05,24.01
4665,0.2094,-0.0472,0.9103,-6.24,7.36,-0.08,23.99
4675,0.2308,-0.0448,0.8922,-6.14,10.67,-0.08,24.01
4685,0.2686,-0.0499,0.849,-6.15,5.89,-0.18,24.01
4695,0.2126,-0.0503,0.9028,-6.2,7.01,-0.06,24.0
4705,0.2229,-0.0475,0.8993,-6.2,10.35,-0.06,23.98
4715,0.2555,-0.0453,0.8644,-6.15,8.43,-0.09,24.03
4725,0.2084,-0.0488,0.899,-6.2,7.57,-0.11,24.04
4735,0.2268,-0.0524,0.8855,-6.15,10.24,-0.02,24.04
4745,0.2609,-0.051,0.8602,-6.15,6.18,-0.06,24.04
4755,0.2109,-0.0509,0.9067,-6.21,7.91,-0.17,24.04
4765,0.2056,-0.0464,0.9087,-6.14,10.24,-0.02,24.02
4775,0.2593,-0.047,0.8591,-6.12,5.97,-0.14,24.01
4785,0.238,-0.0479,0.8743,-6.18,5.82,-0.05,24.02
4795,0.2065,-0.0491,0.9078,-6.17,9.21,-0.05,24.01
4805,0.2478,-0.0439,0.8658,-6.08,8.75,-0.06,24.02
4815,0.2455,-0.048,0.8662,-6.15,5.36,-0.03,24.04
4825,0.1975,-0.0457,0.9148,-6.21,9.27,-0.08,24.04
4835,0.2542,-0.0452,0.8643,-6.15,8.61,-0.09,24.03
4845,0.2427,-0.0466,0.8749,-6.17,5.4,-0.14,24.03
4855,0.1969,-0.0488,0.9182,-6.18,10.06,-0.06,24.04
4865,0.2563,-0.0463,0.8535,-6.23,8.24,-0.08,24.02
4875,0.2395,-0.0474,0.8757,-6.14,5.25,-0.11,24.02
4885,0.2001,-0.0416,0.9175,-6.24,9.86,0.0,24.01
4895,0.2584,-0.0477,0.868,-6.17,8.81,0.02,24.02
4905,0.2451,-0.0497,0.8743,-6.24,5.24,-0.09,24.01
4915,0.2007,-0.0454,0.9113,-6.14,9.5,-0.03,24.01
4925,0.2566,-0.0513,0.8552,-6.12,8.06,-0.05,24.01
4935,0.2369,-0.0525,0.8812,-6.17,5.05,-0.09,24.03
4945,0.2001,-0.0414,0.921,-6.23,10.55,-0.03,24.03
4955,0.281,-0.0488,0.8359,-6.18,6.55,-0.03,24.02
4965,0.2053,-0.0455,0.9023,-6.18,6.18,-0.05,24.03
4975,0.2206,-0.0499,0.8931,-6.24,10.99,-0.02,24.02
4985,0.2617,-0.0515,0.8516,-6.11,6.2,-0.06,24.02
4995,0.2173,-0.051,0.9012,-6.12,6.66,-0.02,24.03
5005,0.2068,-0.0459,0.9073,-6.24,10.79,-0.06,24.04
5015,0.2427,-0.0457,0.8738,-6.17,9.54,-0.11,24.02
5025,0.2266,-0.0442,0.8842,-6.18,5.92,-0.06,24.0
5035,0.2068,-0.0433,0.908,-6.23,10.23,-0.06,24.02
5045,0.2611,-0.048,0.8505,-6.14,7.48,-0.02,24.01
5055,0.2234,-0.0514,0.8934,-6.26,5.95,-0.05,24.03
5065,0.2007,-0.0436,0.9149,-6.32,10.52,0.02,24.0
5075,0.2424,-0.0356,0.8748,-6.24,9.57,0.0,24.04
5085,0.2528,-0.0516,0.8564,-6.17,5.59,0.0,24.01
5095,0.1976,-0.05,0.9098,-6.31,9.13,0.0,24.03
5105,0.2699,-0.0524,0.8386,-6.12,8.23,0.0,24.02
5115,0.2114,-0.0465,0.8928,-6.35,5.02,0.08,24.04
5125,0.2141,-0.0475,0.9033,-6.38,11.76,0.03,24.02
5135,0.2695,-0.0375,0.8572,-6.27,6.2,0.02,24.02
5145,0.226,-0.0485,0.8893,-6.27,5.47,0.08,24.0
5155,0.2081,-0.0422,0.9027,-6.44,10.76,0.05,24.04
5165,0.2805,-0.0527,0.8351,-6.03,6.17,0.05,24.03
5175,0.2122,-0.0498,0.9092,-6.32,6.14,-0.05,24.03
5185,0.2286,-0.0448,0.9003,-6.32,10.53,0.02,24.05
5195,0.2762,-0.051,0.8481,-6.2,5.62,0.05,24.04
5205,0.2214,-0.0538,0.8983,-6.23,6.61,0.02,24.06
5215,0.2191,-0.0551,0.8932,-6.18,10.11,0.09,24.05
5225,0.2644,-0.0513,0.8525,-6.14,6.89,0.03,24.04
5235,0.2362,-0.0552,0.8777,-6.2,5.51,0.0,24.05
5245,0.2058,-0.0524,0.9146,-6.21,9.33,-0.03,24.03
5255,0.2604,-0.0458,0.8622,-6.2,8.55,-0.03,24.02
5265,0.2495,-0.0485,0.8685,-6.21,4.78,-0.06,24.02
5275,0.202,-0.0497,0.91,-6.23,9.13,-0.05,24.08
5285,0.2494,-0.0471,0.8665,-6.11,9.36,-0.09,24.04
5295,0.2537,-0.0514,0.853,-6.14,4.23,-0.08,24.05
5305,0.2034,-0.0502,0.9144,-6.27,9.16,-0.09,24.04
5315,0.2155,-0.0541,0.9082,-6.2,10.43,-0.08,24.04
5325,0.2617,-0.0526,0.8577,-6.12,6.02,-0.09,24.03
5335,0.2122,-0.0502,0.8949,-6.21,7.05,-0.09,24.03
5345,0.2113,-0.0424,0.8947,-6.17,10.2,0.0,24.04
5355,0.2517,-0.0376,0.8685,-6.14,7.73,0.03,24.03
5365,0.2279,-0.0442,0.8917,-6.18,6.31,0.03,24.03
5375,0.1958,-0.0394,0.9167,-6.29,10.49,0.03,24.05
5385,0.2656,-0.0381,0.86,-6.17,8.05,0.02,24.04
5395,0.2466,-0.0438,0.8766,-6.18,5.07,-0.11,24.02
5405,0.214,-0.0503,0.9094,-6.18,7.07,-0.06,24.05
5415,0.2571,-0.0454,0.8619,-6.14,8.76,-0.12,24.04
5425,0.2684,-0.0503,0.8489,-6.05,7.22,0.0,24.06
5435,0.2286,-0.0475,0.8906,-6.26,5.56,-0.08,24.04
5445,0.2091,-0.0513,0.9189,-6.23,11.54,0.02,24.03
5455,0.2716,-0.0459,0.8555,-6.21,6.66,0.08,24.04
5465,0.2273,-0.0518,0.875,-6.18,6.11,0.06,24.04
5475,0.2054,-0.0518,0.907,-6.27,9.25,0.08,24.05
5485,0.2379,-0.0515,0.876,-6.08,9.22,0.05,24.06
5495,0.2544,-0.0427,0.8702,-6.21,6.49,-0.06,24.04
5505,0.2257,-0.0433,0.8862,-6.12,7.82,-0.02,24.05
5515,0.2252,-0.0403,0.8915,-6.14,9.34,-0.02,24.03
5525,0.2581,-0.036,0.8683,-6.18,7.57,-0.03,24.06
5535,0.2474,-0.0441,0.8834,-6.18,6.46,0.03,24.04
5545,0.2206,-0.0474,0.8971,-6.29,8.43,-0.03,24.04
5555,0.2411,-0.0515,0.8743,-6.24,9.01,-0.02,24.04
5565,0.2592,-0.051,0.8477,-6.12,5.33,0.0,24.04
5575,0.2067,-0.0504,0.9064,-6.12,7.71,-0.06,24.03
5585,0.2336,-0.0421,0.8865,-6.15,9.34,-0.02,24.04
5595,0.2659,-0.0411,0.8628,-6.11,6.03,-0.09,24.07
5605,0.2261,-0.0471,0.89,-6.11,6.17,-0.05,24.05
5615,0.2097,-0.0499,0.9054,-6.2,9.39,-0.05,24.06
5625,0.2507,-0.052,0.8621,-6.15,8.81,-0.05,24.07
5635,0.2618,-0.0502,0.8573,-6.11,4.96,0.02,24.04
5645,0.2064,-0.0476,0.9083,-6.15,7.85,-0.06,24.05
5655,0.2268,-0.048,0.8923,-6.18,9.47,-0.12,24.03
5665,0.2565,-0.0503,0.8594,-6.15,7.4,-0.09,24.06
5675,0.2432,-0.0505,0.8788,-6.14,5.83,-0.2,24.06
5685,0.2001,-0.0542,0.9124,-6.12,9.25,-0.09,24.07
5695,0.2391,-0.0521,0.8749,-6.26,9.48,-0.12,24.05
5705,0.2523,-0.0524,0.8649,-6.21,6.53,-0.11,24.04
5715,0.2195,-0.0499,0.8973,-6.21,7.5,-0.12,24.07
5725,0.2178,-0.0443,0.9023,-6.21,9.92,-0.09,24.05
5735,0.2644,-0.041,0.8596,-6.14,7.62,-0.12,24.05
5745,0.2394,-0.0442,0.8809,-6.17,5.82,-0.12,24.06
5755,0.2074,-0.0441,0.9103,-6.17,9.24,-0.11,24.04
5765,0.2423,-0.0406,0.8724,-6.12,9.01,-0.06,24.06
5775,0.257,-0.0435,0.8535,-6.03,6.14,0.0,24.06
5785,0.2264,-0.0452,0.8879,-6.18,6.26,-0.12,24.04
5795,0.2135,-0.0387,0.9069,-6.15,9.21,0.0,24.03
5805,0.255,-0.0371,0.8726,-6.27,8.49,-0.03,24.03
5815,0.2577,-0.0448,0.8612,-6.14,5.18,-0.06,24.04
5825,0.2058,-0.0482,0.9053,-6.2,8.06,-0.02,24.04
5835,0.2333,-0.0464,0.887,-6.18,9.79,-0.09,24.06
5845,0.2675,-0.0439,0.8574,-6.23,6.2,-0.11,24.05
5855,0.2534,-0.0471,0.869,-6.27,5.88,0.0,24.04
5865,0.2108,-0.0476,0.9059,-6.24,9.18,0.0,24.05
5875,0.2383,-0.0509,0.885,-6.24,9.83,0.0,24.06
5885,0.2662,-0.0493,0.8529,-6.27,5.5,-0.05,24.05
5895,0.2023,-0.0559,0.9136,-6.2,8.5,-0.03,24.06
5905,0.2407,-0.058,0.863,-6.02,9.69,0.0,24.06
5915,0.2557,-0.0565,0.8507,-6.12,7.62,0.0,24.04
5925,0.2053,-0.0563,0.8967,-6.12,7.79,-0.06,24.07
5935,0.2214,-0.0452,0.8938,-6.27,9.31,-0.05,24.08
5945,0.2476,-0.0449,0.8821,-6.21,7.98,-0.06,24.06
5955,0.2504,-0.0477,0.8695,-6.29,6.35,-0.06,24.06
5965,0.2164,-0.0542,0.8999,-6.2,7.45,-0.03,24.06
5975,0.2086,-0.0557,0.9069,-6.21,8.73,-0.15,24.07
5985,0.249,-0.0537,0.865,-6.08,7.56,-0.05,24.07
5995,0.2336,-0.0503,0.8833,-6.09,7.44,-0.11,24.07
6005,0.2384,-0.0471,0.8749,-6.12,7.66,-0.05,24.07
6015,0.2225,-0.042,0.8945,-6.24,7.76,-0.09,24.05
6025,0.2292,-0.0372,0.8888,-6.14,8.95,-0.09,24.04
6035,0.2402,-0.0389,0.8779,-6.23,7.33,-0.06,24.07
6045,0.2216,-0.0477,0.8954,-6.14,7.77,-0.11,24.04
6055,0.2247,-0.0514,0.8865,-6.11,7.04,-0.08,24.04
6065,0.2219,-0.0515,0.8934,-6.17,9.68,-0.08,24.03
6075,0.2561,-0.0507,0.8511,-6.05,7.08,-0.15,24.06
6085,0.2469,-0.0479,0.8606,-6.02,6.2,-0.12,24.06
6095,0.2094,-0.0476,0.9023,-6.06,8.38,-0.11,24.06
6105,0.2405,-0.0458,0.8798,-6.21,8.4,-0.09,24.06
6115,0.2378,-0.0372,0.8876,-6.24,6.87,-0.05,24.06
6125,0.2186,-0.0413,0.9039,-6.18,8.69,0.05,24.07
6136,0.2244,-0.0447,0.8911,-6.2,8.95,-0.05,24.07
6146,0.2383,-0.0459,0.8853,-6.29,7.86,-0.11,24.05
6156,0.2451,-0.0481,0.881,-6.12,7.48,-0.08,24.07
6167,0.2506,-0.0508,0.8728,-6.15,7.04,-0.11,24.07
6177,0.2205,-0.0547,0.8961,-6.17,7.94,-0.06,24.05
6187,0.2341,-0.0535,0.8751,-6.08,9.1,-0.08,24.03
6197,0.2563,-0.0524,0.8593,-6.06,6.27,-0.09,24.04
6207,0.2185,-0.047,0.8906,-6.09,6.9,-0.15,24.05
6217,0.2174,-0.0444,0.8988,-6.18,9.71,-0.02,24.07
6227,0.2572,-0.0442,0.8601,-6.2,7.39,-0.02,24.05
6237,0.2385,-0.043,0.8821,-6.11,6.2,-0.08,24.04
6247,0.2167,-0.0438,0.9033,-6.11,8.32,-0.06,24.06
6257,0.236,-0.0482,0.8933,-6.23,8.78,-0.09,24.04
6267,0.2513,-0.0459,0.8811,-6.21,7.13,-0.09,24.05
6277,0.2274,-0.0549,0.8967,-6.08,7.24,-0.11,24.06
6287,0.2174,-0.0549,0.901,-6.09,9.15,0.06,24.07
6297,0.243,-0.0541,0.8652,-6.09,8.21,-0.06,24.05
6307,0.2413,-0.0515,0.8689,-6.06,6.46,-0.06,24.03
6317,0.2179,-0.0455,0.8864,-6.06,7.83,-0.03,24.08
6327,0.2292,-0.0414,0.8793,-6.05,8.41,0.0,24.05
6337,0.2473,-0.0367,0.8634,-6.15,6.9,-0.03,24.07
6347,0.2485,-0.0382,0.8729,-6.11,6.82,0.05,24.07
6357,0.2297,-0.0439,0.8889,-6.24,7.4,-0.02,24.06
6367,0.2275,-0.0511,0.8896,-6.18,8.06,-0.03,24.06
6377,0.236,-0.0497,0.881,-6.17,7.98,-0.02,24.06
6387,0.2338,-0.0497,0.8875,-6.17,7.8,0.05,24.06
6397,0.2406,-0.0511,0.8773,-6.15,7.8,-0.03,24.06
6407,0.2389,-0.0466,0.8796,-6.23,7.42,-0.09,24.06
6417,0.2404,-0.0399,0.8793,-6.15,7.82,-0.02,24.08
6427,0.2397,-0.0436,0.8794,-6.2,6.9,-0.05,24.07
6437,0.219,-0.0439,0.9012,-6.24,7.74,-0.05,24.07
6447,0.2322,-0.046,0.8961,-6.35,9.82,0.27,24.05
6457,0.264,-0.0475,0.8546,-6.17,6.73,-0.03,24.07
6467,0.2286,-0.0521,0.8906,-6.17,7.01,-0.09,24.05
6477,0.2207,-0.0522,0.8879,-6.21,9.13,-0.05,24.04
6487,0.2452,-0.0485,0.8672,-6.05,8.0,-0.06,24.07
6497,0.238,-0.048,0.8694,-6.18,7.25,-0.05,24.07
6507,0.2384,-0.0474,0.8721,-6.09,7.44,-0.09,24.06
6517,0.2323,-0.0381,0.8871,-6.21,7.62,-0.02,24.06
6527,0.2322,-0.0408,0.8822,-6.18,8.02,-0.12,24.07
6537,0.2366,-0.0399,0.887,-6.29,7.69,-0.09,24.04
6548,0.2373,-0.0408,0.8829,-6.18,7.53,-0.15,24.06
6558,0.236,-0.0452,0.8894,-6.23,6.99,-0.12,24.08
6568,0.2209,-0.0452,0.8988,-6.26,8.55,-0.15,24.07
6578,0.2419,-0.0477,0.8898,-6.26,8.79,-0.03,24.05
6588,0.252,-0.0468,0.8768,-6.24,6.75,-0.09,24.08
6598,0.2247,-0.0477,0.9056,-6.23,7.82,-0.08,24.07
6608,0.2283,-0.0497,0.8989,-6.21,9.44,-0.03,24.08
6618,0.2507,-0.0521,0.8701,-6.08,7.69,-0.02,24.09
6628,0.2349,-0.0565,0.8795,-6.11,6.7,-0.09,24.08
6638,0.214,-0.0549,0.8973,-6.17,8.89,0.0,24.08
6648,0.2345,-0.056,0.8732,-6.14,8.81,0.02,24.09
6658,0.2417,-0.0569,0.863,-6.11,7.19,0.03,24.07
6668,0.217,-0.0513,0.8912,-6.2,7.71,0.0,24.07
6678,0.2238,-0.0498,0.8896,-6.17,9.59,0.06,24.08
6688,0.2502,-0.0454,0.8595,-6.23,7.62,0.0,24.07
6698,0.2363,-0.0502,0.874,-6.09,5.94,-0.09,24.08
6708,0.2046,-0.045,0.9077,-6.14,8.67,-0.06,24.07
6718,0.2401,-0.041,0.8849,-6.2,9.54,-0.06,24.07
6728,0.259,-0.0431,0.8655,-6.21,6.17,-0.17,24.07
6738,0.2369,-0.0443,0.8823,-6.18,6.4,-0.09,24.08
6748,0.2136,-0.0507,0.9058,-6.14,9.02,-0.08,24.08
6758,0.2468,-0.0488,0.8766,-6.29,8.38,-0.06,24.05
6768,0.2354,-0.0516,0.885,-6.15,7.85,-0.11,24.07
6779,0.2324,-0.0509,0.8784,-6.17,8.58,-0.08,24.07
6789,0.241,-0.0531,0.8702,-6.02,7.8,-0.03,24.07
6799,0.2301,-0.048,0.8788,-6.12,7.31,-0.18,24.07
6809,0.2291,-0.046,0.8773,-6.11,8.5,-0.05,24.07
6819,0.2366,-0.0453,0.8668,-6.11,7.22,-0.09,24.06
6829,0.2186,-0.0414,0.8767,-6.12,7.44,-0.05,24.05
6839,0.2297,-0.035,0.8805,-6.11,8.17,-0.02,24.06
6849,0.252,-0.0359,0.8661,-6.27,6.46,-0.09,24.07
6859,0.2233,-0.0461,0.8993,-6.21,7.27,-0.11,24.09
6869,0.2292,-0.0505,0.894,-6.21,8.78,-0.08,24.07
6879,0.2472,-0.0513,0.8822,-6.2,7.79,-0.12,24.08
6889,0.241,-0.0494,0.8888,-6.29,7.19,-0.05,24.1
6899,0.2302,-0.0527,0.8895,-6.2,8.37,0.0,24.09
6909,0.2379,-0.051,0.8826,-6.23,7.98,-0.02,24.08
6919,0.2349,-0.0521,0.8839,-6.2,8.03,-0.03,24.08
6929,0.2394,-0.0477,0.8788,-6.2,7.85,-0.09,24.08
6942,0.2318,-0.0432,0.8898,-6.17,7.86,0.02,24.05
6952,0.2367,-0.0383,0.8816,-6.24,7.86,-0.09,24.05
6962,0.2391,-0.0436,0.8796,-6.2,7.6,-0.11,24.08
6972,0.2415,-0.0448,0.8799,-6.21,6.96,-0.14,24.05
6982,0.2347,-0.0477,0.8876,-6.21,7.48,-0.12,24.07
6992,0.2321,-0.0455,0.8918,-6.21,7.62,-0.09,24.07
7002,0.231,-0.0455,0.8928,-6.12,7.89,-0.17,24.09
7012,0.2349,-0.053,0.8845,-6.18,7.82,-0.05,24.07
7022,0.2299,-0.0555,0.891,-6.12,7.73,-0.05,24.07
7032,0.23,-0.0536,0.8844,-6.14,8.34,-0.12,24.09
7042,0.2314,-0.0552,0.881,-6.18,8.11,-0.12,24.06
7052,0.229,-0.053,0.8822,-6.12,8.2,-0.06,24.08
7062,0.2301,-0.0485,0.88,-6.21,7.74,-0.05,24.07
7072,0.229,-0.0453,0.8807,-6.15,8.2,-0.11,24.09
7082,0.2354,-0.0448,0.8746,-6.24,7.68,-0.05,24.07
7092,0.2316,-0.0408,0.8796,-6.24,7.8,-0.05,24.07
7102,0.241,-0.0459,0.8815,-6.18,8.08,-0.02,24.07
7112,0.2446,-0.0476,0.8739,-6.08,7.11,-0.08,24.07
7122,0.2328,-0.0477,0.8896,-6.23,7.54,-0.12,24.07
7132,0.233,-0.0482,0.8865,-6.12,8.06,-0.06,24.06
7142,0.2416,-0.0497,0.881,-6.14,8.17,0.0,24.08
7152,0.2466,-0.045,0.8727,-6.18,7.21,-0.06,24.09
7162,0.2281,-0.0457,0.8889,-6.17,8.32,-0.09,24.05
7172,0.2444,-0.0509,0.8673,-6.23,7.68,-0.03,24.04
7182,0.2386,-0.0546,0.8744,-6.08,6.98,-0.05,24.08
7193,0.2351,-0.0461,0.874,-6.12,7.11,-0.08,24.1
7203,0.2262,-0.048,0.8862,-6.11,8.14,-0.08,24.09
7213,0.238,-0.0474,0.876,-6.23,8.2,-0.02,24.08
7223,0.2429,-0.0411,0.881,-6.11,7.4,-0.14,24.07
7233,0.2437,-0.0432,0.8809,-6.17,7.02,-0.14,24.09
7243,0.225,-0.0486,0.9065,-6.27,7.83,-0.05,24.09
7253,0.2167,-0.0459,0.9089,-6.24,8.99,-0.06,24.12
7263,0.255,-0.0579,0.8694,-6.2,7.48,-0.05,24.1
7273,0.2332,-0.0552,0.8765,-6.17,6.84,-0.05,24.07
7283,0.2155,-0.0563,0.891,-6.12,8.95,0.02,24.09
7293,0.241,-0.0515,0.864,-6.11,8.11,0.05,24.08
7303,0.2386,-0.0461,0.8779,-6.08,6.82,0.0,24.08
7313,0.2277,-0.0454,0.8839,-6.14,7.56,0.06,24.07
7323,0.234,-0.0413,0.8752,-6.21,7.97,-0.02,24.07
7333,0.2401,-0.0424,0.8765,-6.21,7.24,0.02,24.08
7343,0.2314,-0.0479,0.8881,-6.21,7.31,0.0,24.06
7353,0.2322,-0.0492,0.8889,-6.11,7.69,-0.03,24.05
7363,0.2327,-0.0518,0.8895,-6.2,8.05,0.02,24.08
7373,0.239,-0.0503,0.8761,-6.15,7.8,0.02,24.07
7383,0.2339,-0.0443,0.8851,-6.15,7.76,-0.02,24.08
7393,0.2374,-0.0406,0.8832,-6.14,7.91,-0.11,24.07
7403,0.2404,-0.0435,0.8767,-6.18,7.98,-0.02,24.07
7413,0.2386,-0.0367,0.8843,-6.14,7.22,-0.09,24.09
7423,0.2263,-0.0399,0.8896,-6.15,8.41,0.0,24.07
7433,0.249,-0.0461,0.88,-6.23,7.6,-0.05,24.09
7443,0.2363,-0.0494,0.8928,-6.24,6.93,-0.11,24.1
7453,0.2218,-0.0515,0.9,-6.18,8.67,-0.11,24.08
7463,0.241,-0.0527,0.8777,-6.2,8.41,-0.08,24.08
7473,0.2445,-0.0562,0.8783,-6.17,7.4,-0.03,24.11
7483,0.2313,-0.0524,0.8866,-6.15,7.83,-0.06,24.11
7493,0.2325,-0.0496,0.8784,-6.06,8.41,-0.03,24.11
7503,0.2445,-0.0485,0.8547,-6.05,7.16,-0.14,24.1
7513,0.2399,-0.0444,0.8667,-6.06,6.23,-0.09,24.08
7523,0.231,-0.0408,0.8745,-6.11,7.19,-0.09,24.1
7533,0.2349,-0.0404,0.8855,-6.17,7.36,-0.09,24.11
7543,0.236,-0.0439,0.8881,-6.2,7.65,-0.05,24.1
7553,0.2306,-0.0507,0.896,-6.15,7.69,-0.08,24.12
7563,0.2288,-0.0499,0.9006,-6.2,8.67,-0.05,24.07
7573,0.2451,-0.0491,0.8857,-6.17,8.7,-0.09,24.1
7583,0.2524,-0.0553,0.8749,-6.2,6.92,-0.15,24.08
7593,0.2288,-0.0547,0.8799,-6.12,7.74,-0.06,24.09
7603,0.2346,-0.0519,0.8802,-6.18,7.8,-0.12,24.08
7613,0.2374,-0.0449,0.8828,-6.06,7.19,-0.17,24.08
7623,0.224,-0.047,0.8969,-6.17,8.21,-0.12,24.09
7633,0.2356,-0.0471,0.8732,-6.23,8.34,-0.08,24.1
7643,0.2411,-0.0449,0.8717,-6.12,7.45,-0.03,24.08
7653,0.2393,-0.0437,0.8724,-6.12,7.04,-0.12,24.12
7663,0.2401,-0.0444,0.8844,-6.12,7.34,-0.06,24.09
7673,0.2323,-0.0466,0.8864,-6.26,7.21,-0.11,24.11
7683,0.2161,-0.0486,0.8944,-6.15,8.37,-0.08,24.13
7693,0.2366,-0.0493,0.8832,-6.17,8.21,-0.09,24.12
7703,0.2374,-0.0443,0.8818,-6.2,7.24,-0.03,24.09
7713,0.2216,-0.0444,0.8895,-6.17,8.27,-0.06,24.1
7723,0.2385,-0.0453,0.8773,-6.15,7.83,-0.08,24.08
7733,0.2327,-0.0465,0.8895,-6.18,7.6,-0.11,24.09
7743,0.2297,-0.0449,0.8889,-6.24,7.85,-0.08,24.11
7753,0.2261,-0.0458,0.8978,-6.21,8.49,-0.12,24.09
7763,0.2504,-0.0516,0.8813,-6.2,8.24,-0.03,24.1
7773,0.2437,-0.0529,0.8765,-6.26,6.55,-0.05,24.13
7783,0.2133,-0.0529,0.8949,-6.08,9.13,0.0,24.09
7793,0.2506,-0.0559,0.8577,-6.14,8.47,0.06,24.08
7803,0.2461,-0.0537,0.8611,-6.08,5.68,-0.06,24.1
7813,0.2039,-0.0465,0.8989,-6.23,7.94,-0.03,24.1
7823,0.2294,-0.0414,0.8844,-6.2,9.51,0.03,24.1
7833,0.2571,-0.0338,0.8646,-6.29,6.56,-0.08,24.1
7843,0.2308,-0.0406,0.8959,-6.24,7.04,-0.08,24.07
7853,0.2301,-0.0447,0.8937,-6.23,8.4,-0.06,24.09
7863,0.2401,-0.0498,0.89,-6.27,8.24,-0.09,24.09
7873,0.2423,-0.0548,0.8831,-6.26,7.82,-0.12,24.1
7883,0.2356,-0.0588,0.8892,-6.12,7.79,-0.11,24.11
7893,0.2349,-0.0537,0.8779,-6.2,8.21,-0.14,24.12
7903,0.2434,-0.0511,0.8751,-6.05,7.54,-0.08,24.1
7913,0.2463,-0.0492,0.8744,-6.11,7.28,-0.09,24.09
7923,0.2244,-0.0463,0.8795,-6.14,8.09,-0.03,24.1
7933,0.2297,-0.0475,0.873,-6.18,7.68,0.02,24.08
7946,0.2361,-0.0549,0.8831,-6.2,7.88,0.0,24.1
7956,0.2333,-0.0492,0.8768,-6.15,8.21,-0.06,24.11
7966,0.2455,-0.0483,0.8578,-6.05,7.27,-0.02,24.09
7976,0.2344,-0.0469,0.8656,-6.15,6.05,-0.05,24.1
7986,0.2142,-0.0422,0.895,-6.21,8.03,-0.14,24.1
7996,0.2391,-0.041,0.8945,-6.26,8.72,-0.11,24.09
8006,0.2582,-0.0435,0.8772,-6.34,6.7,-0.11,24.1
8016,0.2241,-0.0435,0.8951,-6.21,7.27,-0.08,24.11
8026,0.2281,-0.0488,0.8992,-6.23,8.82,-0.06,24.1
8036,0.261,-0.0537,0.8756,-6.24,7.68,-0.08,24.11
8046,0.2368,-0.0516,0.8796,-6.21,6.58,-0.03,24.1
8057,0.2405,-0.0554,0.8778,-6.18,6.9,-0.03,24.12
8067,0.2245,-0.0508,0.8784,-6.09,8.41,0.02,24.12
8077,0.2278,-0.046,0.8851,-6.18,8.17,0.02,24.12
8087,0.2439,-0.0391,0.8771,-6.12,8.38,0.03,24.09
8097,0.2622,-0.04,0.8583,-6.15,6.11,-0.05,24.1
8107,0.2224,-0.0426,0.8842,-6.23,6.26,0.0,24.09
8117,0.2162,-0.0428,0.9004,-6.14,9.5,-0.03,24.1
8127,0.2582,-0.0425,0.871,-6.18,7.62,-0.11,24.12
8137,0.2461,-0.0542,0.874,-6.14,5.68,-0.08,24.11
8147,0.2081,-0.0551,0.9005,-6.17,8.69,-0.03,24.12
8157,0.2349,-0.0537,0.8728,-6.09,9.34,-0.08,24.11
8167,0.2594,-0.0455,0.8583,-6.06,6.03,-0.08,24.1
8177,0.2228,-0.0432,0.9059,-6.2,7.01,-0.08,24.09
8187,0.2261,-0.0376,0.906,-6.27,9.6,-0.11,24.12
8197,0.2594,-0.0483,0.8641,-6.15,7.4,-0.08,24.09
8207,0.2234,-0.0558,0.8877,-6.15,6.61,-0.08,24.09
8217,0.2076,-0.0558,0.8981,-6.15,10.31,-0.02,24.09
8227,0.2556,-0.0573,0.8519,-6.08,7.28,-0.15,24.11
8237,0.2222,-0.0469,0.895,-6.29,5.91,-0.06,24.11
8247,0.2151,-0.0428,0.923,-6.15,10.85,-0.06,24.08
8257,0.2727,-0.0406,0.8596,-6.27,6.84,-0.02,24.08
8267,0.2218,-0.0508,0.894,-6.21,6.78,-0.02,24.11
8282,0.2177,-0.0397,0.9092,-6.27,10.81,-0.11,24.09
8292,0.2568,-0.0493,0.8654,-6.17,4.96,-0.11,24.12
8302,0.2008,-0.0454,0.917,-6.11,9.39,-0.09,24.1
8312,0.2457,-0.0474,0.8657,-6.12,9.48,-0.06,24.12
8322,0.2639,-0.0463,0.8524,-6.12,4.96,-0.06,24.11
8332,0.2046,-0.0525,0.9111,-6.14,7.65,-0.11,24.12
8342,0.2294,-0.0459,0.8929,-6.31,10.14,0.02,24.1
8352,0.275,-0.0479,0.8517,-6.06,5.76,0.03,24.09
8362,0.2139,-0.0531,0.8977,-6.17,6.53,0.0,24.11
8372,0.2119,-0.051,0.8909,-6.15,10.61,0.05,24.1
8382,0.2618,-0.0513,0.8545,-6.0,6.41,-0.02,24.09
8392,0.2113,-0.0439,0.907,-6.21,6.93,-0.05,24.1
8402,0.2242,-0.0459,0.9004,-6.15,10.64,0.03,24.11
8412,0.2626,-0.045,0.8586,-6.37,6.4,-0.03,24.09
8422,0.2168,-0.0476,0.8992,-6.12,7.19,-0.03,24.08
8432,0.2255,-0.0486,0.8834,-6.14,9.74,0.06,24.1
8442,0.2565,-0.0526,0.8655,-6.09,6.72,-0.05,24.11
8453,0.2382,-0.05,0.8759,-6.09,5.68,-0.11,24.1
8463,0.1946,-0.0459,0.9215,-6.26,9.86,-0.08,24.13
8473,0.2609,-0.0446,0.8649,-6.12,8.82,-0.05,24.11
8483,0.2455,-0.0493,0.8733,-6.27,5.31,-0.11,24.1
8493,0.1935,-0.0525,0.9159,-6.26,10.35,-0.06,24.11
8503,0.2615,-0.0557,0.8495,-6.18,8.0,-0.05,24.1
8513,0.2435,-0.0541,0.8744,-6.23,5.02,-0.06,24.11
8523,0.2034,-0.0504,0.9161,-6.17,9.62,0.02,24.09
8533,0.2615,-0.0481,0.8625,-6.12,8.63,-0.06,24.11
8543,0.2561,-0.0524,0.8701,-6.11,4.98,-0.06,24.1
8553,0.201,-0.0465,0.9146,-6.27,8.82,0.02,24.11
8563,0.2446,-0.0477,0.8685,-6.18,9.74,-0.02,24.09
8573,0.2623,-0.0469,0.855,-6.12,5.04,0.0,24.12
8583,0.1996,-0.0417,0.9165,-6.18,8.21,-0.02,24.1
8593,0.2418,-0.0386,0.8771,-6.2,10.06,-0.05,24.12
8603,0.2621,-0.0385,0.8644,-6.23,4.81,-0.14,24.1
8613,0.2058,-0.0433,0.9121,-6.2,8.76,-0.09,24.1
8623,0.2477,-0.0426,0.8661,-6.12,9.31,-0.09,24.11
8633,0.2786,-0.042,0.8384,-6.11,6.49,-0.09,24.1
8643,0.2028,-0.0497,0.9149,-6.2,8.02,-0.12,24.11
8653,0.2345,-0.042,0.8901,-6.35,9.73,-0.06,24.11
8663,0.2662,-0.0463,0.8572,-6.15,5.37,-0.05,24.12
8673,0.2025,-0.0487,0.9078,-6.31,7.66,-0.14,24.1
8683,0.2017,-0.0494,0.9098,-6.17,9.94,-0.08,24.13
8694,0.2355,-0.0416,0.8748,-6.09,10.06,0.03,24.12
8704,0.2656,-0.0485,0.8433,-6.08,5.3,0.0,24.09
8714,0.1943,-0.0428,0.9209,-6.32,10.05,0.0,24.11
8724,0.2667,-0.0437,0.8627,-6.24,8.79,0.02,24.13
8734,0.2368,-0.0465,0.8818,-6.26,4.84,-0.03,24.12
8744,0.1969,-0.0499,0.9167,-6.2,8.23,-0.14,24.1
8754,0.2297,-0.0496,0.8854,-6.27,10.5,-0.05,24.1
8765,0.257,-0.0532,0.8577,-6.09,8.4,-0.03,24.11
8775,0.2399,-0.0566,0.869,-6.18,5.91,-0.09,24.1
8785,0.2136,-0.0485,0.9045,-6.18,8.98,-0.03,24.12
8795,0.2482,-0.047,0.8708,-6.21,8.82,-0.06,24.12
8805,0.2568,-0.0475,0.8726,-6.09,5.6,-0.11,24.13
8815,0.2195,-0.0477,0.9019,-6.18,7.31,-0.11,24.11
8825,0.2186,-0.052,0.8904,-6.17,9.66,0.02,24.09
8835,0.2542,-0.0524,0.8492,-6.14,7.48,-0.11,24.11
8845,0.2382,-0.0507,0.8718,-6.12,5.05,-0.11,24.1
8855,0.2057,-0.0446,0.9203,-6.21,9.36,-0.11,24.1
8865,0.249,-0.0414,0.8805,-6.24,8.93,-0.11,24.1
8875,0.2509,-0.0475,0.8739,-6.4,6.38,-0.09,24.12
8885,0.2122,-0.0535,0.8898,-6.12,8.09,-0.06,24.12
8895,0.2241,-0.0482,0.8873,-6.12,9.85,-0.06,24.12
8905,0.2596,-0.0508,0.8541,-6.06,7.25,-0.09,24.1
8915,0.2397,-0.0505,0.8763,-6.15,5.8,-0.12,24.12
8925,0.2014,-0.0447,0.9187,-6.24,9.6,-0.11,24.14
8935,0.252,-0.0391,0.8762,-6.24,8.87,-0.11,24.11
8945,0.255,-0.0448,0.8683,-6.2,5.8,-0.09,24.1
8955,0.2079,-0.0571,0.905,-6.2,8.32,-0.08,24.1
8965,0.2251,-0.0555,0.8761,-6.15,9.44,-0.05,24.12
8975,0.2422,-0.0527,0.8657,-6.17,7.19,0.02,24.13
8985,0.2378,-0.0444,0.8719,-6.15,7.34,-0.03,24.12
8995,0.235,-0.0443,0.8928,-6.24,7.57,-0.06,24.1
9005,0.2365,-0.0394,0.8948,-6.21,7.66,-0.06,24.11
9015,0.2327,-0.0409,0.8894,-6.29,7.77,-0.05,24.09
9025,0.241,-0.0522,0.8854,-6.24,7.98,-0.06,24.11
9035,0.2445,-0.0541,0.8727,-6.11,7.74,-0.03,24.11
9045,0.2394,-0.0576,0.8652,-6.09,6.95,0.02,24.12
9055,0.2214,-0.0565,0.879,-6.08,7.4,-0.05,24.12
9065,0.2241,-0.0494,0.891,-6.12,8.23,-0.17,24.13
9075,0.2471,-0.0455,0.8726,-6.15,7.85,-0.12,24.11
9085,0.2382,-0.0444,0.8792,-6.21,7.01,-0.11,24.1
9095,0.228,-0.0474,0.8894,-6.18,8.08,-0.05,24.11
9105,0.2388,-0.0471,0.8804,-6.24,8.2,0.05,24.12
9115,0.2458,-0.0477,0.8787,-6.27,7.04,-0.05,24.12
9125,0.225,-0.0509,0.9011,-6.23,7.98,-0.06,24.12
9135,0.2372,-0.0498,0.8867,-6.17,8.55,0.0,24.13
9145,0.2428,-0.051,0.8822,-6.26,7.28,0.0,24.12
9155,0.2258,-0.0535,0.8833,-6.11,8.21,-0.05,24.12
9165,0.2303,-0.0486,0.8793,-6.08,7.97,0.0,24.13
9175,0.2321,-0.0479,0.8824,-6.03,7.86,-0.09,24.14
9185,0.2253,-0.0459,0.8848,-6.09,7.88,-0.05,24.15
9195,0.2263,-0.0457,0.8708,-6.17,8.82,-0.02,24.14
9205,0.2429,-0.0392,0.8673,-6.14,7.39,-0.06,24.12
9215,0.2339,-0.0406,0.8895,-6.23,6.93,-0.08,24.1
9225,0.2271,-0.0448,0.8999,-6.29,8.15,-0.11,24.12
9235,0.2286,-0.0471,0.894,-6.27,8.78,-0.09,24.12
9245,0.2474,-0.0453,0.8723,-6.24,7.91,-0.11,24.12
9255,0.2411,-0.046,0.8904,-6.23,7.08,-0.11,24.15
9265,0.2372,-0.0482,0.8981,-6.17,8.32,-0.03,24.12
9275,0.2423,-0.0463,0.8894,-6.27,8.0,-0.03,24.13
9285,0.2402,-0.0459,0.8879,-6.2,8.29,0.02,24.11
9295,0.2533,-0.0457,0.8716,-6.15,6.82,0.06,24.13
9305,0.2296,-0.0515,0.8895,-6.12,7.37,-0.08,24.12
9315,0.2268,-0.0507,0.8831,-6.14,8.34,-0.08,24.14
9325,0.2394,-0.0522,0.8658,-6.14,7.86,-0.05,24.15
9335,0.24,-0.0525,0.873,-5.97,6.69,-0.02,24.12
9345,0.2246,-0.0482,0.8898,-6.14,7.44,-0.11,24.12
9355,0.2289,-0.0483,0.8845,-6.11,8.34,-0.12,24.11
9365,0.2379,-0.0475,0.8773,-6.17,7.74,-0.05,24.12
9375,0.2323,-0.0496,0.8778,-6.17,7.74,-0.05,24.12
9385,0.2399,-0.0527,0.8734,-6.2,7.56,0.0,24.14
9395,0.2412,-0.0492,0.8771,-6.12,7.11,-0.15,24.16
9405,0.2266,-0.0491,0.892,-6.26,7.74,-0.03,24.12
9415,0.226,-0.047,0.8936,-6.2,8.58,-0.09,24.16
9425,0.2401,-0.0475,0.8794,-6.26,8.26,-0.14,24.12
9435,0.2443,-0.0477,0.8735,-6.11,7.5,-0.05,24.14
9445,0.2339,-0.0463,0.8789,-6.26,6.84,-0.08,24.14
9455,0.2161,-0.0488,0.895,-6.18,8.64,-0.02,24.13
9465,0.2394,-0.0469,0.8679,-6.2,8.32,-0.02,24.11
9475,0.2406,-0.046,0.8687,-6.05,6.93,-0.05,24.12
9485,0.2319,-0.0472,0.8833,-6.31,7.33,-0.08,24.12
9495,0.224,-0.0487,0.8926,-6.15,8.38,0.0,24.14
9505,0.2354,-0.0443,0.873,-6.24,7.92,-0.12,24.12
9515,0.2344,-0.05,0.8894,-6.15,7.6,-0.06,24.1
9525,0.2377,-0.0479,0.8792,-6.18,7.62,-0.14,24.12
9535,0.2306,-0.051,0.8901,-6.11,7.73,-0.02,24.12
9545,0.2286,-0.052,0.8856,-6.14,7.82,-0.02,24.12
9555,0.2295,-0.0514,0.8923,-6.17,8.29,0.03,24.13
9565,0.2382,-0.0499,0.8788,-6.23,8.08,0.02,24.14
9575,0.2345,-0.0529,0.8812,-6.11,7.65,0.02,24.11
9585,0.2284,-0.0493,0.886,-6.17,7.69,-0.03,24.15
9595,0.2249,-0.051,0.8931,-6.08,9.04,-0.06,24.13
9606,0.2349,-0.0502,0.8811,-6.12,9.21,-0.05,24.12
9616,0.2505,-0.0498,0.8696,-6.14,6.89,-0.08,24.14
9626,0.2239,-0.0497,0.8859,-6.14,7.44,-0.11,24.12
9636,0.2296,-0.0525,0.8888,-6.17,8.18,-0.03,24.13
9646,0.23,-0.0558,0.8813,-6.23,8.08,-0.11,24.14
9656,0.2362,-0.0514,0.8743,-6.08,8.09,-0.03,24.12
9666,0.2415,-0.054,0.8707,-6.12,6.96,-0.05,24.11
9676,0.2249,-0.0518,0.894,-6.06,7.77,-0.06,24.13
9686,0.2303,-0.0503,0.8829,-6.09,8.15,-0.05,24.11
9696,0.24,-0.046,0.8702,-6.11,7.5,-0.08,24.14
9706,0.2388,-0.0443,0.8778,-6.18,6.66,-0.08,24.14
9716,0.2292,-0.0415,0.891,-6.27,7.94,-0.09,24.13
9726,0.2375,-0.0424,0.8829,-6.26,8.64,-0.08,24.14
9736,0.2556,-0.0479,0.8633,-6.37,6.64,-0.12,24.13
9746,0.2208,-0.0485,0.8979,-6.23,7.33,-0.06,24.12
9756,0.2302,-0.0499,0.8887,-6.14,9.04,-0.03,24.12
9766,0.2534,-0.0486,0.8647,-6.12,7.51,0.0,24.14
9776,0.2366,-0.0435,0.8909,-6.17,6.37,-0.09,24.12
9786,0.2366,-0.0457,0.8933,-6.15,7.91,-0.09,24.13
9796,0.228,-0.0388,0.8921,-6.27,7.19,-0.09,24.15
9806,0.2278,-0.0488,0.8867,-6.14,9.21,-0.03,24.16
9816,0.245,-0.0461,0.8693,-6.18,6.63,-0.06,24.12
9826,0.2209,-0.0498,0.8965,-6.12,8.75,-0.05,24.12
9836,0.2733,-0.0507,0.8464,-6.11,6.9,-0.2,24.12
9846,0.2316,-0.058,0.8933,-6.15,6.18,-0.2,24.14
9856,0.2261,-0.0527,0.8892,-6.15,8.72,-0.06,24.13
9866,0.2311,-0.0522,0.887,-6.17,8.35,-0.02,24.14
9876,0.234,-0.0548,0.8818,-6.15,8.55,-0.03,24.12
9886,0.2512,-0.0532,0.8694,-6.2,7.11,-0.03,24.12
9896,0.231,-0.0553,0.8832,-6.12,6.76,-0.08,24.13
9906,0.2183,-0.054,0.899,-6.06,8.93,-0.05,24.13
9916,0.2371,-0.0472,0.8754,-6.2,8.73,-0.03,24.13
9926,0.2495,-0.0463,0.8741,-6.17,7.27,-0.05,24.12
9936,0.2323,-0.0431,0.8839,-6.17,7.3,0.03,24.12
9946,0.2269,-0.0415,0.8944,-6.23,8.66,-0.06,24.13
9956,0.2435,-0.041,0.8766,-6.17,8.53,-0.09,24.14
9966,0.2517,-0.0433,0.865,-6.15,6.78,-0.02,24.13
9976,0.2289,-0.045,0.8812,-6.14,7.05,-0.17,24.15
9986,0.2219,-0.0463,0.8849,-6.17,8.47,-0.03,24.13
9996,0.2352,-0.0432,0.8684,-6.15,7.74,-0.11,24.13
10007,0.2274,-0.0542,0.8792,-6.08,7.94,-0.05,24.14
10017,0.2264,-0.0492,0.8799,-6.09,8.11,-0.08,24.16
10027,0.2411,-0.0479,0.8783,-6.06,7.56,-0.06,24.14
10037,0.226,-0.0482,0.8907,-6.15,7.74,-0.06,24.13
10047,0.2299,-0.0496,0.8857,-6.15,8.67,-0.03,24.12
10057,0.2417,-0.0497,0.8726,-6.11,7.65,0.02,24.12
10067,0.2446,-0.0469,0.875,-6.11,7.1,0.02,24.13
10077,0.2277,-0.0483,0.8788,-6.21,7.19,0.02,24.14
10087,0.2219,-0.0436,0.8878,-6.23,8.53,0.0,24.14
10097,0.2441,-0.0402,0.8721,-6.14,8.02,-0.08,24.15
10107,0.2412,-0.0382,0.8711,-6.23,6.64,-0.06,24.15
10117,0.2202,-0.0369,0.8917,-6.12,8.08,-0.02,24.13
10127,0.2338,-0.0374,0.881,-6.24,8.43,-0.17,24.13
10137,0.2478,-0.0437,0.8745,-6.24,7.76,-0.08,24.12
10147,0.2454,-0.0457,0.8763,-6.2,6.93,-0.11,24.13
10157,0.2292,-0.047,0.8914,-6.21,7.74,-0.08,24.12
10167,0.2352,-0.0466,0.8918,-6.23,8.5,-0.06,24.15
10177,0.2511,-0.0444,0.8781,-6.15,7.68,-0.06,24.16
10187,0.243,-0.0421,0.8735,-6.17,6.82,-0.11,24.12
10197,0.2219,-0.0459,0.9023,-6.2,8.08,-0.06,24.15
10207,0.2372,-0.045,0.8859,-6.31,9.04,-0.08,24.13
10217,0.252,-0.0466,0.8624,-6.24,7.15,-0.03,24.13
10227,0.2327,-0.0488,0.879,-6.15,7.16,-0.03,24.14
10237,0.2266,-0.0452,0.8881,-6.23,8.35,-0.05,24.14
10247,0.2336,-0.0483,0.8801,-6.18,8.35,-0.02,24.12
10257,0.2476,-0.0466,0.8634,-6.17,7.16,-0.05,24.12
10267,0.2363,-0.043,0.8834,-6.17,6.44,-0.12,24.12
10278,0.2288,-0.0482,0.8853,-6.12,6.73,-0.06,24.14
10288,0.2234,-0.0527,0.8983,-6.26,8.46,-0.11,24.14
10298,0.2333,-0.0515,0.8885,-6.18,8.35,-0.12,24.15
10308,0.2385,-0.0474,0.8918,-6.18,8.29,-0.02,24.13
10318,0.2509,-0.0487,0.881,-6.24,7.44,-0.06,24.14
10328,0.2426,-0.0513,0.885,-6.23,7.07,-0.06,24.14
10338,0.2314,-0.0507,0.8851,-6.15,7.8,-0.02,24.14
10348,0.2244,-0.0557,0.8802,-6.2,8.61,-0.02,24.15
10358,0.2383,-0.0532,0.865,-6.11,7.8,-0.06,24.15
10368,0.2365,-0.0486,0.8611,-6.14,7.39,-0.02,24.12
10378,0.2269,-0.0449,0.8799,-6.23,7.39,-0.06,24.13
10388,0.2256,-0.0411,0.8827,-6.17,8.23,-0.11,24.14
10398,0.2406,-0.0375,0.8788,-6.27,7.8,-0.08,24.15
10408,0.2455,-0.041,0.8883,-6.24,7.5,-0.11,24.14
10418,0.2426,-0.0452,0.89,-6.21,7.51,-0.08,24.13
10428,0.2379,-0.0519,0.896,-6.29,7.36,-0.08,24.13
10438,0.2261,-0.0558,0.9064,-6.2,9.04,-0.08,24.14
10448,0.2397,-0.0535,0.8778,-6.26,9.54,-0.06,24.14
10458,0.2493,-0.0526,0.8544,-6.12,7.13,0.02,24.14
10468,0.2365,-0.0499,0.8716,-6.0,6.64,-0.09,24.15
10478,0.2244,-0.0422,0.8834,-6.14,7.63,-0.06,24.13
10488,0.228,-0.0424,0.8777,-6.12,8.4,-0.12,24.11
10498,0.2297,-0.0471,0.875,-6.29,7.47,-0.14,24.16
10508,0.2278,-0.0411,0.8785,-6.15,7.88,-0.14,24.15
10518,0.2367,-0.0441,0.873,-6.18,7.82,-0.08,24.18
10528,0.2301,-0.0461,0.8921,-6.2,7.3,-0.11,24.16
10538,0.2345,-0.0437,0.8894,-6.34,8.31,-0.05,24.15
10548,0.2478,-0.0436,0.8867,-6.26,7.27,-0.06,24.11
10558,0.2272,-0.0494,0.9058,-6.23,8.06,-0.06,24.17
10568,0.2294,-0.0555,0.8971,-6.2,9.63,0.0,24.15
10578,0.2559,-0.0598,0.8549,-6.0,7.62,0.03,24.15
10588,0.2323,-0.0562,0.8601,-5.95,5.98,0.03,24.14
10598,0.1982,-0.049,0.8871,-6.09,8.82,0.0,24.15
10608,0.2301,-0.0416,0.8719,-6.15,8.73,-0.03,24.15
10618,0.2446,-0.0394,0.8691,-6.2,7.77,-0.05,24.14
10628,0.2373,-0.0323,0.8972,-6.29,6.96,-0.12,24.14
10638,0.2341,-0.0419,0.902,-6.27,8.08,-0.08,24.16
10649,0.2317,-0.0474,0.8995,-6.18,8.03,-0.08,24.16
10659,0.2314,-0.058,0.8988,-6.15,8.61,-0.03,24.18
10669,0.2438,-0.0627,0.8723,-6.17,8.56,0.0,24.17
10679,0.2515,-0.0679,0.8607,-6.11,7.76,-0.06,24.14
10689,0.2328,-0.0598,0.8704,-6.14,6.55,0.05,24.18
10699,0.2181,-0.0483,0.895,-6.15,8.5,-0.02,24.15
10709,0.2426,-0.0339,0.8837,-6.24,8.53,-0.06,24.15
10719,0.2445,-0.0317,0.8765,-6.29,7.22,-0.05,24.15
10729,0.2319,-0.037,0.882,-6.21,7.77,-0.06,24.16
10739,0.2286,-0.0458,0.884,-6.15,8.06,-0.05,24.16
10749,0.2339,-0.0507,0.8831,-6.14,7.83,-0.12,24.12
10759,0.2308,-0.0548,0.8862,-6.17,8.55,-0.17,24.15
10769,0.2418,-0.0516,0.8615,-6.11,7.77,-0.06,24.14
10779,0.2361,-0.0475,0.869,-6.15,7.01,-0.05,24.14
10789,0.2223,-0.0447,0.8958,-6.18,7.37,-0.06,24.13
10799,0.2271,-0.0388,0.9031,-6.15,9.05,-0.05,24.16
10809,0.2645,-0.0435,0.8615,-6.23,7.39,-0.08,24.16
10819,0.2344,-0.0493,0.8838,-6.18,6.37,-0.05,24.16
10829,0.2106,-0.0538,0.8947,-6.14,9.83,-0.03,24.15
10839,0.255,-0.0491,0.8579,-6.21,7.31,0.02,24.15
10849,0.2329,-0.041,0.8929,-6.18,6.18,0.02,24.16
10859,0.2262,-0.035,0.9115,-6.37,8.7,-0.05,24.16
10869,0.2532,-0.0435,0.8733,-6.26,8.41,-0.09,24.15
10879,0.2336,-0.0532,0.865,-6.17,5.89,-0.15,24.16
10889,0.199,-0.0514,0.905,-6.05,9.15,-0.03,24.14
10899,0.25,-0.0497,0.8643,-6.08,8.17,-0.06,24.14
10909,0.2389,-0.0471,0.8857,-6.18,6.15,-0.05,24.14
10919,0.2063,-0.0444,0.9182,-6.24,10.05,-0.06,24.14
10929,0.2665,-0.0499,0.8563,-6.18,7.66,-0.09,24.17
10939,0.2374,-0.0514,0.8929,-6.31,5.59,-0.08,24.16
10949,0.2097,-0.0571,0.9047,-6.26,10.78,-0.02,24.14
10959,0.2714,-0.0604,0.8396,-6.23,6.82,0.0,24.13
10969,0.2202,-0.057,0.886,-6.12,5.76,-0.02,24.14
10979,0.2094,-0.0443,0.918,-6.17,10.35,-0.06,24.14
10989,0.2758,-0.038,0.8628,-6.15,7.71,-0.02,24.14
10999,0.2373,-0.0437,0.8898,-6.26,5.51,-0.08,24.13
11009,0.2012,-0.047,0.9034,-6.24,10.15,-0.11,24.13
11019,0.2552,-0.0515,0.8507,-6.14,8.49,-0.17,24.14
11029,0.2421,-0.0514,0.8645,-6.09,4.89,-0.21,24.14
11039,0.1959,-0.0486,0.9208,-6.24,9.53,-0.15,24.14
11049,0.2483,-0.0442,0.8748,-6.34,9.31,-0.17,24.18
11059,0.2612,-0.0531,0.8641,-6.18,5.13,-0.17,24.16
11069,0.2043,-0.0562,0.9084,-6.15,8.27,-0.11,24.16
11079,0.2288,-0.0525,0.8794,-6.15,10.23,-0.08,24.16
11089,0.271,-0.053,0.8424,-6.03,5.27,-0.12,24.16
11099,0.2086,-0.0454,0.9077,-6.29,6.92,-0.03,24.16
11109,0.2257,-0.0427,0.9012,-6.26,11.15,0.11,24.16
11119,0.272,-0.0385,0.8448,-6.18,5.19,-0.05,24.15
11129,0.2062,-0.0387,0.9122,-6.27,7.8,-0.03,24.14
11139,0.223,-0.042,0.8969,-6.18,10.7,-0.06,24.18
11149,0.2664,-0.0493,0.8541,-6.08,7.13,0.03,24.15
11159,0.2333,-0.0521,0.8717,-6.2,5.08,0.0,24.17
11169,0.1985,-0.0441,0.9105,-6.14,9.66,-0.06,24.18
11179,0.2474,-0.0397,0.8801,-6.27,9.13,-0.08,24.12
11189,0.2596,-0.045,0.8718,-6.18,5.63,-0.14,24.14
11199,0.1984,-0.0536,0.9099,-6.2,8.35,-0.12,24.14
11209,0.2278,-0.0537,0.8771,-6.11,10.26,-0.05,24.14
11219,0.2703,-0.0551,0.8391,-6.08,5.66,-0.03,24.18
11229,0.2502,-0.0547,0.8613,-6.11,4.9,0.02,24.18
11239,0.2091,-0.0461,0.9141,-6.29,10.69,-0.06,24.16
11249,0.2792,-0.0413,0.8591,-6.24,7.05,0.02,24.16
11259,0.2427,-0.0448,0.8834,-6.23,5.62,-0.03,24.17
11269,0.2034,-0.0513,0.9067,-6.21,9.57,-0.03,24.14
11279,0.2469,-0.0525,0.8625,-6.15,9.19,-0.06,24.15
11289,0.259,-0.0486,0.8514,-6.14,5.56,-0.03,24.18
11299,0.2128,-0.0458,0.9041,-6.14,7.22,-0.11,24.16
11309,0.1954,-0.0468,0.9169,-6.14,9.47,-0.03,24.17
11319,0.2726,-0.0378,0.8634,-6.2,6.93,0.0,24.16
11329,0.2664,-0.0402,0.8685,-6.15,5.88,-0.05,24.14
11339,0.2013,-0.0492,0.9055,-6.26,9.69,-0.05,24.17
11349,0.2211,-0.0548,0.8821,-6.26,10.44,-0.06,24.14
11359,0.2562,-0.0564,0.8429,-6.18,6.43,-0.06,24.16
11369,0.2255,-0.0522,0.8839,-6.08,6.52,-0.05,24.15
11379,0.2186,-0.0454,0.9022,-6.27,8.84,-0.02,24.15
11389,0.2423,-0.0405,0.8793,-6.24,8.11,-0.08,24.14
11399,0.2413,-0.0388,0.8856,-6.21,7.3,-0.09,24.18
11409,0.2426,-0.0427,0.8818,-6.12,7.85,-0.02,24.17
11419,0.249,-0.0488,0.8772,-6.21,6.82,0.06,24.15
11429,0.2216,-0.0546,0.8912,-6.17,8.14,-0.03,24.14
11439,0.2361,-0.0502,0.8671,-6.08,8.75,0.0,24.17
11449,0.2465,-0.046,0.8551,-6.02,6.12,-0.03,24.18
11459,0.214,-0.038,0.9062,-6.17,7.3,-0.03,24.16
11469,0.2334,-0.0305,0.9052,-6.26,9.85,-0.11,24.17
11479,0.2733,-0.0343,0.8606,-6.26,6.06,-0.14,24.16
11489,0.2173,-0.0485,0.903,-6.2,7.4,-0.15,24.17
11499,0.2178,-0.0575,0.8888,-6.23,9.95,0.0,24.16
11509,0.2595,-0.0625,0.8477,-6.09,6.58,-0.02,24.17
11519,0.2268,-0.0563,0.8795,-6.14,6.38,-0.02,24.17
11529,0.2157,-0.0513,0.8928,-6.08,8.67,0.03,24.15
11539,0.241,-0.0446,0.8771,-6.17,7.76,-0.05,24.17
11549,0.2379,-0.0364,0.8892,-6.24,7.42,-0.03,24.18
11559,0.248,-0.0397,0.8906,-6.27,8.02,0.0,24.15
11569,0.2438,-0.0458,0.8826,-6.26,7.02,-0.05,24.17
11579,0.2251,-0.0565,0.8784,-6.14,7.95,0.0,24.15
11589,0.2317,-0.0525,0.8783,-6.17,7.5,-0.06,24.16
11599,0.2407,-0.0408,0.884,-6.21,7.51,-0.06,24.15
11609,0.251,-0.0465,0.8748,-6.2,7.42,-0.09,24.16
11619,0.2361,-0.0411,0.8698,-6.23,7.36,-0.18,24.17
11629,0.241,-0.0399,0.8707,-6.12,6.61,-0.18,24.16
11639,0.2357,-0.0392,0.8779,-6.15,6.32,-0.14,24.17
11649,0.236,-0.0448,0.8937,-6.27,9.44,-0.15,24.18
11659,0.2535,-0.0499,0.866,-6.37,6.08,-0.09,24.18
11669,0.2255,-0.0575,0.8959,-6.14,7.95,-0.02,24.16
11679,0.2385,-0.0548,0.8877,-6.21,8.03,-0.06,24.14
11689,0.2302,-0.0563,0.8881,-6.17,8.24,-0.06,24.15
11699,0.236,-0.0542,0.8682,-6.24,8.2,-0.06,24.18
11709,0.2314,-0.0454,0.8691,-6.15,7.48,-0.05,24.17
11719,0.2238,-0.0394,0.8896,-6.15,8.2,-0.08,24.18
11729,0.249,-0.0333,0.8777,-6.21,8.0,-0.05,24.17
11739,0.2421,-0.0316,0.8871,-6.27,7.1,-0.11,24.16
11749,0.2296,-0.0399,0.8993,-6.2,7.88,-0.12,24.16
11759,0.2341,-0.0449,0.8931,-6.26,8.44,-0.14,24.15
11769,0.2428,-0.0538,0.8861,-6.17,8.08,-0.03,24.14
11779,0.2426,-0.0546,0.8761,-6.12,7.31,-0.05,24.18
11789,0.2346,-0.0562,0.8759,-6.14,7.6,-0.08,24.18
11799,0.2321,-0.0557,0.8678,-6.2,6.95,-0.02,24.17
11809,0.2131,-0.0487,0.8896,-6.11,8.18,-0.02,24.16
11819,0.2454,-0.0409,0.8741,-6.11,8.31,-0.06,24.17
11829,0.2535,-0.0428,0.8722,-6.12,5.57,-0.12,24.15
11839,0.2134,-0.0455,0.9177,-6.14,7.71,-0.11,24.15
11849,0.2341,-0.0535,0.9097,-6.2,9.44,-0.08,24.14
11859,0.2534,-0.0618,0.8805,-6.24,7.66,-0.02,24.14
11869,0.2336,-0.0623,0.8898,-6.12,7.1,0.06,24.16
11879,0.2224,-0.066,0.8845,-6.09,9.27,0.06,24.16
11889,0.2531,-0.0546,0.8495,-6.02,7.16,0.02,24.17
11899,0.2233,-0.0464,0.8766,-6.0,6.5,0.03,24.16
11909,0.2113,-0.0406,0.8816,-6.02,7.92,-0.06,24.16
11919,0.2489,-0.0271,0.8645,-6.11,7.53,-0.17,24.15
11929,0.2511,-0.0361,0.8739,-6.18,5.8,-0.14,24.19
11939,0.2256,-0.0377,0.897,-6.24,7.13,-0.15,24.14
11949,0.2153,-0.0507,0.9088,-6.34,9.16,-0.08,24.16
11959,0.2483,-0.0537,0.8792,-6.23,8.43,-0.09,24.16
11969,0.2426,-0.0627,0.8838,-6.27,7.33,-0.03,24.15
11979,0.2327,-0.059,0.8866,-6.15,8.41,0.0,24.15
11989,0.2374,-0.0529,0.8719,-6.05,7.82,0.02,24.16
11999,0.2375,-0.0466,0.8789,-6.03,7.15,-0.03,24.17
12009,0.2247,-0.0406,0.8829,-6.06,8.11,-0.03,24.16
12019,0.2338,-0.0399,0.8851,-6.05,8.12,0.03,24.17
12029,0.2477,-0.0378,0.87,-6.15,7.56,-0.05,24.18
12039,0.2343,-0.0427,0.8921,-6.23,6.84,-0.08,24.18
12050,0.223,-0.0449,0.8949,-6.26,7.54,-0.09,24.17
12060,0.2264,-0.0441,0.8923,-6.26,8.23,-0.15,24.16
12070,0.2452,-0.0491,0.882,-6.15,7.86,-0.09,24.17
12080,0.2418,-0.0525,0.8896,-6.18,7.02,-0.14,24.18
12090,0.22,-0.0563,0.9052,-6.18,8.76,-0.06,24.17
12101,0.2258,-0.0575,0.9026,-6.17,9.31,-0.06,24.17
12111,0.2549,-0.0582,0.8688,-6.14,7.79,-0.03,24.19
12121,0.2437,-0.0579,0.8738,-6.12,6.66,-0.14,24.18
12131,0.231,-0.0555,0.8849,-6.05,7.6,-0.12,24.17
12141,0.2292,-0.0504,0.8748,-6.17,7.94,-0.09,24.17
12151,0.2273,-0.047,0.8812,-6.09,7.94,-0.08,24.15
12162,0.222,-0.0469,0.8799,-6.12,8.44,-0.02,24.16
12172,0.2454,-0.0436,0.8667,-6.15,7.57,-0.02,24.14
12182,0.2346,-0.0416,0.8777,-6.11,7.01,-0.03,24.16
12192,0.2305,-0.0422,0.8812,-6.18,7.79,-0.03,24.19
12202,0.2372,-0.0474,0.8734,-6.18,6.69,-0.08,24.17
12212,0.2147,-0.0437,0.8982,-6.15,8.18,-0.06,24.16
12222,0.2374,-0.0388,0.8844,-6.24,8.89,-0.05,24.17
12232,0.2465,-0.0428,0.8713,-6.31,6.82,-0.09,24.18
12242,0.224,-0.0408,0.89,-6.23,7.36,-0.08,24.18
12252,0.2152,-0.0394,0.908,-6.31,9.22,-0.05,24.17
12262,0.2489,-0.043,0.869,-6.17,9.07,0.02,24.17
12272,0.262,-0.0472,0.8635,-6.31,5.44,-0.15,24.17
12282,0.2146,-0.0452,0.9097,-6.2,7.83,-0.09,24.18
12293,0.2303,-0.0447,0.8923,-6.23,8.5,0.02,24.17
12303,0.2533,-0.0492,0.8722,-6.21,7.65,-0.08,24.18
12313,0.2478,-0.0481,0.8661,-6.23,5.98,0.0,24.17
12323,0.2249,-0.05,0.9015,-6.24,7.73,0.02,24.18
12333,0.2323,-0.0402,0.89,-6.26,8.79,0.05,24.16
12343,0.2477,-0.0442,0.8724,-6.15,7.76,-0.06,24.16
12353,0.2623,-0.0435,0.8574,-6.15,6.34,-0.09,24.17
12363,0.2084,-0.0471,0.9061,-6.18,8.56,0.0,24.18
12373,0.2272,-0.0444,0.8909,-6.26,9.34,-0.03,24.17
12383,0.2421,-0.0526,0.8668,-6.12,7.53,-0.05,24.17
12393,0.2318,-0.0503,0.8773,-6.14,7.01,-0.14,24.16
12403,0.22,-0.0486,0.8932,-6.11,8.63,-0.06,24.18
12413,0.2273,-0.051,0.8848,-6.09,9.02,-0.05,24.19
12423,0.2423,-0.0502,0.8816,-6.23,6.47,-0.02,24.17
12433,0.2211,-0.0463,0.9056,-6.24,8.37,-0.02,24.17
12443,0.2407,-0.0432,0.8861,-6.31,8.67,0.03,24.16
12454,0.2471,-0.0435,0.8811,-6.24,8.15,-0.06,24.15
12464,0.2393,-0.0442,0.8829,-6.24,7.51,-0.06,24.18
12474,0.23,-0.0442,0.8947,-6.2,8.18,0.03,24.19
12484,0.2393,-0.0433,0.8895,-6.23,8.47,0.0,24.19
12494,0.2479,-0.0439,0.8778,-6.11,7.68,-0.09,24.17
12504,0.2489,-0.0417,0.8818,-6.14,6.89,-0.08,24.15
12514,0.2367,-0.0486,0.8911,-6.2,7.56,-0.14,24.19
12524,0.2412,-0.0525,0.8798,-6.09,7.79,-0.09,24.16
12534,0.2294,-0.0577,0.8817,-6.12,7.51,-0.09,24.17
12545,0.2212,-0.0607,0.8878,-6.12,8.06,-0.06,24.18
12555,0.2368,-0.0594,0.8777,-6.14,8.31,-0.03,24.19
12565,0.2429,-0.0616,0.8749,-6.12,7.04,-0.08,24.19
12575,0.2303,-0.0549,0.8854,-6.12,7.51,-0.05,24.16
12585,0.2267,-0.049,0.8934,-6.17,8.17,-0.05,24.18
12595,0.2415,-0.0435,0.8779,-6.18,7.85,-0.08,24.19
12605,0.2413,-0.0461,0.8759,-6.18,7.37,-0.08,24.17
12615,0.2274,-0.0468,0.891,-6.18,8.12,0.02,24.17
12625,0.2373,-0.0447,0.8855,-6.2,8.08,-0.05,24.17
12635,0.2339,-0.0472,0.8848,-6.23,7.24,-0.15,24.21
12645,0.2301,-0.0483,0.885,-6.15,7.18,-0.23,24.18
12655,0.2284,-0.0507,0.8859,-6.11,7.47,-0.11,24.19
12665,0.2244,-0.0521,0.8955,-6.14,8.31,-0.17,24.19
12675,0.235,-0.0475,0.8811,-6.08,8.32,-0.2,24.19
12685,0.2307,-0.0499,0.8749,-6.14,7.51,-0.06,24.2
12695,0.2271,-0.048,0.8778,-6.17,7.71,-0.11,24.19
12705,0.2235,-0.0461,0.8831,-6.15,8.05,0.0,24.17
12715,0.2288,-0.0461,0.8834,-6.26,8.29,0.08,24.19
12725,0.2405,-0.0482,0.8776,-6.14,7.62,-0.06,24.15
12735,0.2311,-0.0476,0.8806,-6.11,7.08,0.0,24.19
12745,0.2218,-0.0454,0.8899,-6.15,8.18,-0.03,24.2
12755,0.2358,-0.0437,0.8892,-6.15,8.4,0.05,24.21
12765,0.2396,-0.0452,0.8829,-6.21,7.56,-0.03,24.17
12775,0.2303,-0.0494,0.8812,-6.2,7.47,-0.02,24.18
12785,0.2251,-0.0514,0.8833,-6.21,8.02,-0.03,24.19
12795,0.2322,-0.0536,0.8784,-6.12,8.46,-0.03,24.18
12805,0.2421,-0.0475,0.8795,-6.21,7.59,-0.06,24.18
12815,0.2365,-0.0444,0.8884,-6.24,7.62,-0.05,24.19
12825,0.2397,-0.0466,0.8809,-6.24,7.56,-0.11,24.17
12835,0.2351,-0.0518,0.8942,-6.23,7.77,-0.09,24.16
12845,0.233,-0.0531,0.8925,-6.24,8.02,-0.15,24.17
12855,0.2307,-0.054,0.896,-6.23,8.81,-0.11,24.18
12865,0.2445,-0.0566,0.8723,-6.26,8.06,-0.05,24.18
12875,0.2441,-0.0563,0.8682,-6.18,7.05,-0.02,24.19
12885,0.2286,-0.0516,0.8757,-6.12,7.45,-0.03,24.18
12895,0.2202,-0.0571,0.8845,-6.15,8.15,-0.05,24.18
12905,0.2339,-0.0472,0.8699,-6.06,8.41,-0.06,24.17
12915,0.2483,-0.0382,0.8644,-6.06,6.58,-0.06,24.18
12925,0.234,-0.0431,0.8839,-6.18,6.72,-0.12,24.16
12935,0.2261,-0.046,0.8881,-6.18,7.27,-0.17,24.19
12945,0.2115,-0.0483,0.9032,-6.24,8.95,-0.05,24.18
12955,0.249,-0.0448,0.8796,-6.2,8.31,0.0,24.16
12965,0.2545,-0.0413,0.8706,-6.15,7.33,-0.15,24.19
12975,0.2231,-0.0465,0.9042,-6.29,8.02,-0.11,24.2
12985,0.2365,-0.0479,0.889,-6.17,8.6,-0.08,24.18
12995,0.2494,-0.0457,0.8734,-6.18,7.56,-0.06,24.17
13005,0.2477,-0.0464,0.8799,-6.14,6.55,-0.14,24.2
13015,0.2194,-0.0503,0.8982,-6.17,8.38,-0.12,24.18
13025,0.2345,-0.0508,0.8778,-6.24,9.01,0.03,24.16
13035,0.246,-0.0524,0.8625,-6.12,7.1,0.05,24.18
13045,0.2338,-0.0474,0.8787,-6.15,6.95,0.03,24.18
13055,0.2305,-0.0531,0.8872,-6.06,7.83,-0.12,24.18
13065,0.2289,-0.0504,0.8784,-6.17,7.89,0.02,24.18
13075,0.2201,-0.0388,0.8938,-6.08,8.34,-0.11,24.18
13085,0.2366,-0.0564,0.8674,-6.03,8.34,-0.02,24.2
13095,0.2456,-0.0509,0.8817,-6.12,6.35,-0.09,24.19
13105,0.2158,-0.0485,0.9042,-6.12,8.81,-0.03,24.19
13115,0.2427,-0.0394,0.885,-6.23,8.43,-0.06,24.2
13125,0.25,-0.0387,0.8859,-6.17,7.02,-0.06,24.17
13135,0.2323,-0.0427,0.9027,-6.27,7.8,-0.03,24.16
13145,0.2296,-0.0471,0.8922,-6.21,9.31,-0.09,24.18
13155,0.2496,-0.0558,0.8646,-6.05,7.66,-0.18,24.19
13165,0.2362,-0.0623,0.8667,-6.05,6.98,-0.09,24.15
13175,0.2303,-0.0538,0.8674,-6.08,7.28,-0.12,24.16
13185,0.2164,-0.0536,0.8744,-6.09,7.74,-0.05,24.18
13195,0.2318,-0.0356,0.8878,-6.2,8.6,-0.05,24.17
13205,0.2645,-0.0332,0.8746,-6.24,6.9,0.0,24.18
13215,0.2466,-0.0355,0.8983,-6.35,5.86,-0.11,24.18
13226,0.2272,-0.0411,0.9106,-6.31,7.07,-0.08,24.19
13236,0.2197,-0.0515,0.9064,-6.29,9.42,-0.11,24.17
13246,0.2341,-0.0604,0.8892,-6.11,8.93,0.03,24.18
13256,0.2506,-0.0549,0.8679,-6.08,8.09,-0.08,24.17
13266,0.2462,-0.0538,0.861,-6.11,5.94,-0.08,24.15
13276,0.2123,-0.0463,0.8994,-6.18,8.03,0.0,24.17
13286,0.2208,-0.0471,0.887,-6.08,8.5,-0.09,24.19
13296,0.2368,-0.0358,0.8771,-6.23,7.01,-0.05,24.19
13306,0.2286,-0.0394,0.8926,-6.29,7.74,-0.11,24.2
13316,0.2397,-0.043,0.8816,-6.29,7.95,-0.05,24.19
13326,0.2256,-0.0511,0.8911,-6.24,7.62,-0.06,24.18
13336,0.2198,-0.0522,0.8983,-6.34,8.24,-0.06,24.2
13346,0.2384,-0.0515,0.9001,-6.18,8.41,-0.11,24.18
13356,0.2488,-0.0543,0.8861,-6.09,8.05,-0.03,24.17
13366,0.2274,-0.0551,0.8812,-6.14,7.25,-0.05,24.18
13376,0.21,-0.0522,0.8912,-6.05,9.97,0.0,24.16
13386,0.2582,-0.0522,0.8472,-6.06,7.16,-0.14,24.16
13396,0.2253,-0.0363,0.8915,-6.27,6.6,-0.12,24.17
13406,0.2286,-0.0392,0.8868,-6.17,9.16,-0.05,24.17
13416,0.249,-0.0364,0.8682,-6.24,6.14,-0.17,24.17
13427,0.2198,-0.0416,0.9059,-6.26,6.79,-0.12,24.2
13437,0.2306,-0.0411,0.8988,-6.29,9.54,-0.05,24.19
13447,0.2516,-0.0583,0.8726,-6.18,7.15,-0.12,24.19
13457,0.2231,-0.0603,0.8868,-6.23,7.73,-0.08,24.18
13467,0.2189,-0.0602,0.8823,-6.08,8.84,-0.05,24.17
13477,0.2391,-0.049,0.8707,-6.15,6.76,-0.12,24.17
13487,0.2261,-0.0422,0.897,-6.24,7.98,0.06,24.19
13497,0.236,-0.037,0.8917,-6.21,8.46,-0.02,24.19
13507,0.2478,-0.0367,0.875,-6.24,7.3,-0.05,24.18
13517,0.2306,-0.043,0.8881,-6.23,7.28,-0.02,24.2
13527,0.2222,-0.0522,0.8937,-6.21,8.84,-0.05,24.18
13537,0.2373,-0.054,0.8722,-6.18,9.02,-0.02,24.19
13547,0.2445,-0.0524,0.86,-6.03,6.87,-0.02,24.21
13557,0.2284,-0.048,0.8826,-6.14,6.85,-0.05,24.19
13567,0.2249,-0.038,0.9014,-6.26,8.82,-0.12,24.21
13577,0.2593,-0.0393,0.8721,-6.2,7.89,-0.06,24.17
13587,0.241,-0.0457,0.8817,-6.24,5.95,-0.09,24.2
13597,0.1989,-0.0543,0.9108,-6.26,9.86,-0.11,24.19
13607,0.2446,-0.0559,0.8623,-6.15,9.05,-0.08,24.18
13617,0.2545,-0.0568,0.8676,-6.15,5.71,-0.09,24.21
13627,0.2192,-0.0504,0.9,-6.18,7.73,-0.08,24.19
13637,0.2312,-0.0461,0.8965,-6.18,9.21,-0.08,24.19
13647,0.2579,-0.049,0.8586,-6.17,7.25,-0.02,24.19
13657,0.2211,-0.0525,0.8915,-6.2,6.6,-0.06,24.19
13667,0.2163,-0.0469,0.8962,-6.24,10.92,0.0,24.2
13677,0.282,-0.0449,0.8279,-6.08,5.39,-0.05,24.21
13687,0.2092,-0.0491,0.9059,-6.09,6.2,-0.06,24.21
13697,0.2133,-0.0389,0.916,-6.29,10.78,0.0,24.22
13707,0.2722,-0.0428,0.8612,-6.17,7.05,-0.03,24.21
13717,0.2294,-0.0493,0.886,-6.15,5.83,-0.15,24.2
13727,0.2021,-0.0513,0.9011,-6.17,9.85,-0.08,24.17
13737,0.2672,-0.0493,0.8439,-6.11,7.54,-0.11,24.17
13747,0.236,-0.0483,0.8765,-6.12,4.64,-0.08,24.22
13757,0.2032,-0.0465,0.9226,-6.26,9.77,-0.06,24.18
13767,0.2644,-0.0424,0.8687,-6.21,8.69,-0.03,24.18
13777,0.2726,-0.0409,0.8512,-6.23,6.15,-0.05,24.18
13787,0.203,-0.0482,0.9155,-6.2,9.34,-0.03,24.2
13797,0.2374,-0.0557,0.8735,-6.21,9.56,-0.02,24.17
13807,0.2612,-0.054,0.8462,-6.17,5.5,0.02,24.2
13817,0.2042,-0.0519,0.9109,-6.14,7.11,-0.06,24.22
13827,0.2228,-0.0436,0.9044,-6.18,10.82,-0.02,24.18
13837,0.2792,-0.0427,0.8496,-6.09,5.77,-0.14,24.18
13847,0.203,-0.0494,0.8975,-6.31,7.21,-0.09,24.18
13857,0.2191,-0.0542,0.88,-6.12,10.32,-0.06,24.21
13867,0.2589,-0.05,0.8495,-6.0,5.66,-0.05,24.19
13877,0.2124,-0.0472,0.91,-6.2,6.64,-0.05,24.2
13887,0.2142,-0.0441,0.9113,-6.21,10.56,-0.09,24.2
13897,0.2593,-0.0476,0.8643,-6.11,7.77,-0.08,24.2
13907,0.2654,-0.046,0.8586,-6.2,5.69,-0.09,24.22
13917,0.1973,-0.053,0.9213,-6.15,10.21,-0.03,24.21
13927,0.2484,-0.0513,0.8728,-6.23,9.33,-0.05,24.19
13937,0.2585,-0.0555,0.8551,-6.17,6.09,0.0,24.21
13947,0.2122,-0.0503,0.8995,-6.27,6.93,-0.02,24.2
13957,0.2289,-0.0449,0.8943,-6.12,10.6,-0.03,24.19
13967,0.2697,-0.0419,0.8652,-6.18,8.12,-0.03,24.21
13977,0.2069,-0.0419,0.9056,-6.15,7.66,-0.03,24.21
13987,0.2224,-0.0426,0.8818,-6.18,10.55,0.03,24.21
13997,0.25,-0.0463,0.8578,-6.14,8.58,-0.02,24.22
14007,0.2528,-0.0472,0.8616,-6.06,5.48,0.0,24.21
14017,0.2144,-0.0447,0.9043,-6.21,7.15,-0.08,24.18
14027,0.2195,-0.0452,0.9015,-6.26,10.03,-0.06,24.21
14037,0.2609,-0.0452,0.8658,-6.15,7.65,-0.18,24.18
14047,0.2468,-0.047,0.8784,-6.11,5.6,-0.21,24.19
14057,0.2086,-0.0504,0.9059,-6.2,9.05,-0.09,24.22
14067,0.2499,-0.052,0.863,-6.17,8.75,-0.02,24.2
14077,0.2477,-0.0471,0.8674,-6.24,5.4,-0.08,24.21
14087,0.1938,-0.0392,0.916,-6.34,8.96,-0.02,24.17
14097,0.2466,-0.0388,0.8724,-6.2,10.09,-0.09,24.2
14107,0.2582,-0.0452,0.8527,-6.11,4.81,-0.11,24.19
14117,0.2073,-0.0465,0.9119,-6.18,8.06,-0.14,24.19
14127,0.2269,-0.0466,0.8921,-6.27,10.29,-0.14,24.22
14137,0.2664,-0.046,0.8513,-6.18,6.6,-0.06,24.2
14147,0.2241,-0.0529,0.8895,-6.17,6.14,-0.06,24.21
14157,0.2183,-0.0447,0.9052,-6.31,8.99,-0.03,24.21
14167,0.249,-0.0457,0.8798,-6.26,8.24,-0.11,24.2
14177,0.256,-0.0496,0.8718,-6.24,6.34,-0.12,24.18
14187,0.2133,-0.0597,0.8942,-6.15,7.63,-0.08,24.21
14197,0.2107,-0.0583,0.8873,-6.11,9.73,-0.02,24.21
14207,0.2554,-0.0582,0.8472,-6.02,7.45,-0.09,24.2
14217,0.2354,-0.0428,0.8804,-6.21,5.47,0.02,24.21
14227,0.2125,-0.0406,0.9149,-6.29,9.21,-0.06,24.21
14237,0.2423,-0.0415,0.8895,-6.34,8.93,-0.11,24.22
14247,0.2471,-0.045,0.8793,-6.24,7.28,-0.05,24.2
14257,0.2401,-0.0519,0.8868,-6.17,7.1,-0.03,24.19
14267,0.2185,-0.0577,0.9122,-6.24,8.6,-0.11,24.19
14277,0.2159,-0.0549,0.9135,-6.2,9.94,-0.11,24.19
14287,0.2501,-0.0612,0.8511,-6.05,6.93,-0.06,24.21
14297,0.2271,-0.0515,0.8713,-6.06,6.87,-0.06,24.23
14307,0.2194,-0.0448,0.8855,-6.12,8.52,-0.05,24.22
14317,0.25,-0.0366,0.8715,-6.24,7.89,-0.03,24.18
14327,0.2537,-0.0334,0.8899,-6.37,6.5,-0.06,24.22
14337,0.2345,-0.0433,0.8982,-6.29,7.71,-0.12,24.2
14347,0.2272,-0.0538,0.8879,-6.2,8.52,-0.05,24.2
14357,0.2322,-0.0613,0.8782,-6.02,8.05,-0.08,24.19
14367,0.2468,-0.0596,0.8625,-6.05,6.92,0.03,24.2
14377,0.2239,-0.0541,0.8773,-6.03,6.78,0.03,24.2
14387,0.2112,-0.0421,0.8795,-6.12,8.69,0.05,24.16
14397,0.233,-0.0323,0.8756,-6.12,8.03,-0.02,24.19
14407,0.2419,-0.0284,0.8779,-6.21,6.87,-0.05,24.19
14417,0.2386,-0.0328,0.8942,-6.34,7.24,-0.09,24.19
14427,0.2222,-0.0452,0.905,-6.32,8.29,-0.06,24.2
14437,0.2456,-0.0562,0.879,-6.23,8.27,-0.02,24.19
14447,0.2351,-0.0614,0.8923,-6.2,7.37,-0.09,24.2
14457,0.2318,-0.0551,0.8993,-6.12,8.89,-0.09,24.2
14467,0.2544,-0.0553,0.8712,-6.17,7.86,-0.09,24.19
14477,0.2338,-0.0543,0.8741,-6.2,6.64,0.02,24.23
14488,0.2217,-0.0565,0.8748,-6.0,7.15,0.0,24.2
14498,0.2169,-0.0494,0.881,-6.11,8.7,0.03,24.18
14508,0.2473,-0.0402,0.8601,-6.06,7.5,-0.02,24.2
14518,0.2335,-0.0372,0.8849,-6.21,6.81,-0.05,24.18
14528,0.2285,-0.0388,0.8895,-6.21,7.88,-0.12,24.18
14538,0.2365,-0.0442,0.8901,-6.24,7.24,-0.14,24.2
14548,0.2299,-0.0454,0.9104,-6.38,7.92,-0.09,24.2
14558,0.2308,-0.0571,0.9069,-6.27,9.28,-0.11,24.2
14568,0.2446,-0.0577,0.8788,-6.27,7.97,-0.06,24.19
14578,0.2355,-0.0607,0.8834,-6.06,7.89,-0.09,24.19
14588,0.2372,-0.057,0.8846,-6.12,7.42,-0.05,24.21
14598,0.2258,-0.0515,0.8905,-6.05,7.83,-0.15,24.2
14608,0.2216,-0.047,0.8784,-6.08,9.24,-0.08,24.19
14618,0.2513,-0.0477,0.8413,-6.12,7.18,-0.09,24.19
14628,0.2468,-0.0511,0.8506,-6.06,6.27,0.05,24.22
14638,0.2111,-0.0409,0.8956,-6.12,8.72,0.02,24.2
14648,0.2502,-0.0421,0.8629,-6.17,7.69,-0.02,24.21
14658,0.2374,-0.042,0.8739,-6.2,5.28,-0.08,24.23
14668,0.2164,-0.0425,0.8895,-6.23,6.79,-0.05,24.16
14678,0.2144,-0.0432,0.8933,-6.08,9.13,-0.03,24.19
14688,0.2456,-0.0398,0.874,-6.14,7.68,0.0,24.19
14698,0.2405,-0.0404,0.8834,-6.21,6.73,-0.03,24.18
14708,0.222,-0.0435,0.9005,-6.24,8.11,0.0,24.21
14718,0.2325,-0.0422,0.8887,-6.18,8.93,-0.08,24.19
14728,0.248,-0.0405,0.8807,-6.32,7.79,-0.09,24.22
14738,0.2493,-0.0409,0.8853,-6.37,7.08,-0.08,24.22
14748,0.2341,-0.0483,0.8979,-6.27,7.65,-0.11,24.22
14758,0.2327,-0.0527,0.8971,-6.24,8.4,-0.08,24.21
14768,0.2419,-0.0548,0.8761,-6.17,8.34,-0.03,24.22
14778,0.2443,-0.0563,0.8729,-6.11,6.9,-0.06,24.22
14788,0.2285,-0.0532,0.8857,-6.15,7.59,0.0,24.19
14798,0.2319,-0.0491,0.8824,-6.14,7.88,0.0,24.2
14808,0.2372,-0.0475,0.8689,-6.21,7.44,-0.05,24.19
14819,0.2365,-0.0483,0.876,-6.15,7.18,-0.15,24.2
14829,0.2289,-0.0439,0.8818,-6.14,7.62,-0.11,24.22
14839,0.2343,-0.0385,0.8928,-6.23,8.09,-0.05,24.19
14849,0.2451,-0.0416,0.8854,-6.29,7.3,-0.08,24.19
14859,0.2217,-0.046,0.8986,-6.35,7.54,-0.17,24.2
14869,0.2161,-0.0535,0.8998,-6.18,9.25,-0.09,24.19
14879,0.2407,-0.0498,0.8752,-6.2,8.15,-0.11,24.21
14889,0.229,-0.0491,0.895,-6.23,7.63,-0.12,24.18
14899,0.2328,-0.0472,0.8876,-6.21,8.78,-0.05,24.21
14909,0.2426,-0.0536,0.871,-6.17,7.56,-0.06,24.2
14919,0.2274,-0.0529,0.8798,-6.14,7.51,-0.08,24.22
14929,0.2251,-0.0496,0.8884,-6.18,8.49,-0.11,24.22
14939,0.2325,-0.0496,0.8887,-6.17,8.43,-0.08,24.21
14949,0.2393,-0.0485,0.8792,-6.21,7.85,0.0,24.19
14959,0.2316,-0.0524,0.8817,-6.17,7.68,-0.03,24.23
14969,0.2272,-0.0508,0.8846,-6.11,8.56,0.05,24.21
14979,0.2445,-0.0532,0.8756,-6.2,7.51,-0.03,24.2
14989,0.2283,-0.0521,0.891,-6.08,7.33,-0.03,24.22
14999,0.2205,-0.0518,0.896,-6.21,7.98,0.0,24.22
15009,0.2433,-0.0496,0.8597,-6.14,8.08,-0.02,24.2
15019,0.2396,-0.0524,0.8718,-6.12,6.66,-0.06,24.19
15029,0.2173,-0.051,0.8879,-6.14,7.85,-0.14,24.2
15039,0.2289,-0.0493,0.8793,-6.2,8.93,-0.11,24.2
15049,0.2533,-0.0464,0.8617,-6.24,6.9,-0.17,24.21
15059,0.2469,-0.0521,0.866,-6.14,6.73,-0.05,24.22
15069,0.2271,-0.0464,0.8925,-6.21,8.09,-0.11,24.21
15079,0.2476,-0.0496,0.8765,-6.21,7.68,-0.06,24.21
15089,0.2332,-0.0482,0.8883,-6.23,6.84,-0.12,24.2
15100,0.2146,-0.0455,0.9098,-6.18,8.05,-0.02,24.22
15110,0.2382,-0.0438,0.8855,-6.24,9.22,-0.05,24.19
15120,0.2533,-0.0392,0.8765,-6.24,6.7,-0.03,24.2
15130,0.2313,-0.0436,0.8912,-6.15,8.06,-0.08,24.22
15140,0.2443,-0.046,0.8676,-6.24,7.82,-0.08,24.21
15150,0.2344,-0.0448,0.8914,-6.21,7.18,0.0,24.2
15160,0.2301,-0.0426,0.8885,-6.21,8.67,-0.08,24.2
15170,0.2527,-0.0457,0.8643,-6.26,7.33,-0.09,24.23
15180,0.2347,-0.0455,0.8851,-6.09,7.3,-0.05,24.22
15190,0.2318,-0.0465,0.8848,-6.18,8.08,-0.11,24.2
15200,0.2373,-0.0455,0.8857,-6.2,7.79,-0.12,24.23
15210,0.2362,-0.0476,0.89,-6.21,7.6,-0.09,24.24
15220,0.2351,-0.0532,0.8794,-6.23,7.66,-0.03,24.24
15230,0.2301,-0.0555,0.897,-6.18,7.94,-0.02,24.22
15240,0.2368,-0.0549,0.8821,-6.12,8.11,-0.11,24.22
15251,0.2424,-0.0532,0.8813,-6.2,7.33,-0.09,24.19
15261,0.2278,-0.0522,0.8868,-6.17,8.7,-0.05,24.19
15271,0.2515,-0.0492,0.8671,-6.17,7.5,-0.05,24.21
15281,0.2241,-0.0505,0.8815,-6.11,7.28,-0.11,24.23
15291,0.2318,-0.0455,0.8784,-6.03,8.5,-0.12,24.19
15301,0.2349,-0.0486,0.8685,-6.15,8.12,-0.08,24.23
15311,0.2402,-0.0487,0.8621,-6.12,6.99,-0.06,24.22
15321,0.2303,-0.047,0.8785,-6.12,7.27,-0.09,24.21
15331,0.236,-0.0431,0.8774,-6.18,7.51,-0.11,24.22
15341,0.2334,-0.0465,0.8927,-6.17,7.27,-0.06,24.21
15351,0.2277,-0.0441,0.8992,-6.32,7.98,-0.05,24.23
15361,0.2367,-0.0446,0.8923,-6.26,8.43,0.0,24.22
15371,0.2422,-0.049,0.8844,-6.24,7.91,-0.08,24.2
15381,0.2332,-0.0521,0.8851,-6.31,7.63,-0.05,24.21
15391,0.2256,-0.0485,0.8901,-6.21,8.35,0.0,24.2
15401,0.2439,-0.0471,0.8676,-6.08,7.77,-0.11,24.22
15411,0.2388,-0.042,0.8788,-6.14,6.27,-0.06,24.21
15421,0.2113,-0.0409,0.9034,-6.12,8.4,-0.09,24.21
15431,0.2379,-0.0416,0.8818,-6.26,9.18,-0.05,24.24
15441,0.2537,-0.038,0.8762,-6.15,6.66,-0.09,24.26
15451,0.2256,-0.0474,0.9022,-6.21,7.13,-0.11,24.24
15461,0.2255,-0.0513,0.8982,-6.27,9.22,-0.05,24.22
15471,0.24,-0.0568,0.8843,-6.23,8.2,-0.08,24.2
15481,0.2401,-0.0603,0.88,-6.21,7.21,-0.02,24.21
15491,0.2247,-0.059,0.8878,-6.18,7.95,-0.15,24.22
15501,0.2299,-0.0533,0.8796,-6.09,8.73,-0.03,24.22
15511,0.2411,-0.0522,0.8569,-6.11,7.74,-0.02,24.21
15521,0.234,-0.0469,0.8672,-6.09,6.69,0.02,24.22
15531,0.2166,-0.0432,0.8892,-6.12,7.86,-0.03,24.22
15541,0.2308,-0.0383,0.896,-6.27,8.72,-0.03,24.22
15551,0.254,-0.0376,0.8767,-6.17,7.51,0.03,24.21
15561,0.2395,-0.0436,0.8904,-6.26,6.78,-0.05,24.24
15571,0.2197,-0.0491,0.91,-6.21,8.93,-0.03,24.22
15581,0.244,-0.0553,0.8856,-6.18,8.64,-0.08,24.21
15591,0.24,-0.0557,0.882,-6.15,7.82,-0.05,24.24
15601,0.234,-0.0491,0.8805,-6.18,7.8,-0.05,24.22
15611,0.2291,-0.0499,0.8862,-6.15,8.64,-0.08,24.22
15621,0.2498,-0.0447,0.8575,-6.03,7.68,-0.06,24.2
15631,0.2351,-0.0411,0.8695,-6.15,6.44,-0.11,24.23
15641,0.2095,-0.0448,0.8927,-6.21,8.37,-0.08,24.21
15651,0.2393,-0.0438,0.8748,-6.18,8.35,-0.11,24.22
15661,0.2484,-0.045,0.8668,-6.21,6.5,-0.03,24.22
15671,0.2261,-0.0485,0.8838,-6.29,6.96,-0.05,24.24
15681,0.2234,-0.0479,0.8947,-6.2,8.6,0.02,24.22
15691,0.2424,-0.0437,0.8856,-6.26,7.54,0.0,24.19
15701,0.235,-0.0438,0.8997,-6.31,7.45,-0.05,24.24
15711,0.2379,-0.0397,0.8984,-6.29,7.82,-0.03,24.23
15721,0.2323,-0.0486,0.8865,-6.23,9.01,-0.08,24.19
15731,0.2473,-0.0516,0.8574,-6.09,7.71,-0.09,24.22
15741,0.2382,-0.0515,0.8622,-6.12,6.69,-0.06,24.22
15751,0.2251,-0.0507,0.8707,-6.05,7.21,-0.05,24.22
15761,0.22,-0.0502,0.8846,-6.09,7.92,-0.11,24.25
15771,0.231,-0.0428,0.876,-6.23,8.14,0.02,24.22
15781,0.236,-0.0419,0.8795,-6.2,7.53,-0.08,24.23
15791,0.2295,-0.0409,0.8922,-6.31,7.69,-0.05,24.24
15801,0.2416,-0.0493,0.8949,-6.23,8.52,-0.02,24.22
15811,0.2496,-0.0502,0.8816,-6.31,6.87,-0.06,24.24
15821,0.2256,-0.0547,0.9005,-6.24,8.06,-0.03,24.24
15831,0.2445,-0.0548,0.8855,-6.31,8.35,-0.14,24.25
15841,0.2456,-0.0507,0.8812,-6.21,7.25,-0.05,24.23
15851,0.2321,-0.0525,0.8911,-6.05,8.02,-0.02,24.23
15861,0.2374,-0.0497,0.8677,-6.11,7.91,-0.14,24.24
15871,0.2375,-0.0544,0.8662,-6.05,7.37,-0.14,24.25
15881,0.2317,-0.0492,0.8713,-6.11,7.48,-0.11,24.22
15891,0.2253,-0.0479,0.8741,-6.15,7.63,-0.05,24.23
15901,0.2311,-0.0468,0.8816,-6.26,7.57,-0.12,24.24
15911,0.2299,-0.0422,0.8872,-6.15,7.94,-0.08,24.22
15921,0.244,-0.038,0.875,-6.2,7.04,-0.18,24.24
15931,0.2295,-0.0448,0.9049,-6.21,7.59,-0.11,24.22
15941,0.2383,-0.0474,0.8955,-6.26,8.6,-0.08,24.22
15951,0.257,-0.0474,0.886,-6.29,8.02,-0.03,24.23
15961,0.2285,-0.0514,0.9027,-6.15,7.5,-0.02,24.23
15971,0.218,-0.0551,0.9078,-6.2,9.11,-0.03,24.24
15981,0.249,-0.0543,0.8593,-6.14,8.89,0.11,24.24
15991,0.2241,-0.047,0.8756,-6.08,6.53,-0.05,24.24
16001,0.2183,-0.0533,0.8832,-6.06,7.31,-0.03,24.23
16011,0.2168,-0.0469,0.8831,-6.17,8.93,-0.05,24.24
16021,0.2388,-0.0409,0.8616,-6.11,7.71,-0.05,24.24
16031,0.2428,-0.0393,0.8575,-6.12,6.96,-0.14,24.26
16041,0.2362,-0.036,0.892,-6.21,7.68,-0.11,24.23
16051,0.2256,-0.0398,0.9148,-6.49,8.37,-0.11,24.22
16061,0.2446,-0.0546,0.886,-6.38,8.49,0.03,24.22
16071,0.2112,-0.0612,0.9214,-6.29,9.36,-0.09,24.2
16081,0.256,-0.0626,0.8467,-6.15,8.93,0.02,24.24
16091,0.2362,-0.0684,0.8593,-6.03,6.05,-0.14,24.22
16101,0.2102,-0.0559,0.8848,-6.02,8.24,-0.09,24.23
16111,0.2308,-0.0439,0.8774,-6.06,8.76,-0.02,24.24
16121,0.2478,-0.0314,0.8734,-6.2,7.08,-0.08,24.22
16131,0.2396,-0.0343,0.885,-6.24,7.13,-0.05,24.23
16141,0.2301,-0.0386,0.8947,-6.32,7.15,-0.03,24.25
16151,0.2231,-0.0475,0.9088,-6.24,8.66,-0.02,24.21
16161,0.2365,-0.0549,0.8859,-6.24,8.31,-0.03,24.22
16171,0.2256,-0.0598,0.8849,-6.17,8.05,-0.05,24.22
16181,0.2365,-0.0596,0.8654,-6.0,8.15,-0.11,24.22
16191,0.2317,-0.0487,0.8684,-6.08,6.85,-0.14,24.22
16201,0.2252,-0.0396,0.8842,-6.06,8.24,-0.11,24.24
16211,0.2336,-0.0291,0.8862,-6.21,8.0,-0.11,24.25
16221,0.2418,-0.0345,0.8866,-6.29,8.14,-0.15,24.23
16231,0.2496,-0.0377,0.8666,-6.37,6.12,-0.09,24.24
16241,0.2167,-0.0516,0.908,-6.23,8.05,-0.02,24.24
16251,0.2371,-0.0558,0.8892,-6.2,9.19,-0.05,24.24
16261,0.2487,-0.0619,0.8671,-6.05,7.18,-0.05,24.23
16271,0.2251,-0.0518,0.8815,-6.03,6.99,-0.06,24.22
16281,0.2219,-0.0441,0.8907,-6.11,8.5,0.0,24.22
16291,0.2467,-0.0322,0.8801,-6.14,7.85,-0.05,24.24
16301,0.2468,-0.0325,0.8824,-6.26,6.75,-0.05,24.24
16311,0.2206,-0.0375,0.8986,-6.35,7.79,-0.09,24.24
16321,0.2268,-0.0483,0.891,-6.31,9.08,-0.02,24.25
16331,0.2468,-0.0605,0.8624,-6.21,7.24,-0.06,24.22
16341,0.2151,-0.0591,0.8839,-6.08,7.71,-0.03,24.24
16351,0.238,-0.0569,0.8704,-6.03,8.95,-0.06,24.24
16361,0.2491,-0.0459,0.8696,-6.15,5.76,-0.09,24.24
16371,0.2019,-0.0366,0.9259,-6.23,9.3,-0.12,24.24
16381,0.2644,-0.0386,0.8669,-6.24,8.63,-0.03,24.25
16391,0.2772,-0.0433,0.8524,-6.31,5.24,-0.06,24.26
16401,0.196,-0.0531,0.9077,-6.32,10.92,-0.02,24.24
16411,0.26,-0.0574,0.8475,-6.23,8.27,-0.02,24.24
16421,0.244,-0.0558,0.8661,-6.12,5.34,-0.11,24.23
16431,0.1975,-0.0433,0.9235,-6.27,9.66,-0.11,24.23
16441,0.2631,-0.0382,0.8641,-6.2,8.37,-0.06,24.22
16451,0.2463,-0.0389,0.8835,-6.18,5.47,-0.11,24.21
16461,0.2098,-0.045,0.9044,-6.18,9.68,-0.11,24.23
16471,0.2599,-0.0472,0.8546,-6.18,7.76,-0.15,24.24
16481,0.2383,-0.0514,0.8726,-6.17,5.1,-0.12,24.23
16491,0.2042,-0.0497,0.9113,-6.32,9.19,-0.09,24.23
16501,0.2555,-0.05,0.8739,-6.24,8.85,-0.12,24.24
16511,0.255,-0.0511,0.8616,-6.06,5.31,-0.06,24.27
16521,0.2063,-0.0521,0.9095,-6.17,8.49,-0.11,24.23
16531,0.2421,-0.0519,0.8754,-6.12,9.31,0.02,24.26
16541,0.2557,-0.048,0.8625,-6.14,5.53,-0.05,24.24
16551,0.2021,-0.0486,0.9169,-6.23,8.32,0.03,24.23
16561,0.2407,-0.0464,0.8839,-6.29,9.42,-0.05,24.25
16571,0.2689,-0.0452,0.8564,-6.24,6.79,-0.08,24.23
16581,0.1875,-0.0507,0.9142,-6.34,9.6,-0.06,24.25
16591,0.2465,-0.0505,0.863,-6.11,9.73,-0.03,24.24
16601,0.2537,-0.0515,0.8596,-6.14,4.6,-0.05,24.25
16611,0.1948,-0.0458,0.927,-6.24,9.1,-0.06,24.26
16621,0.2134,-0.0405,0.9121,-6.29,10.43,-0.02,24.23
16631,0.2708,-0.0455,0.8594,-6.18,7.51,-0.05,24.22
16641,0.1989,-0.051,0.9138,-6.24,8.67,-0.14,24.24
16651,0.2059,-0.051,0.9044,-6.17,10.98,-0.12,24.26
16661,0.2744,-0.0536,0.8376,-6.15,6.78,-0.11,24.25
16671,0.2242,-0.0513,0.8868,-6.17,5.16,0.0,24.25
16681,0.2046,-0.0442,0.9099,-6.18,10.52,-0.08,24.22
16691,0.2642,-0.0416,0.8671,-6.15,7.66,-0.03,24.26
16701,0.2379,-0.0444,0.8822,-6.21,5.56,-0.06,24.24
16711,0.2018,-0.0448,0.9132,-6.34,9.48,0.08,24.23
16721,0.2469,-0.0505,0.8613,-6.18,9.18,-0.02,24.26
16731,0.2668,-0.053,0.8461,-6.11,6.52,-0.14,24.24
16741,0.1991,-0.0454,0.9216,-6.21,9.33,-0.11,24.24
16751,0.2627,-0.0433,0.8645,-6.11,8.47,-0.08,24.23
16761,0.2404,-0.0446,0.8821,-6.17,5.13,-0.06,24.24
16771,0.2035,-0.0454,0.9143,-6.09,10.26,0.03,24.21
16781,0.2635,-0.047,0.8524,-6.09,7.85,-0.02,24.23
16791,0.2396,-0.0507,0.8741,-6.09,4.76,-0.05,24.22
16801,0.1946,-0.0457,0.9203,-6.24,9.89,-0.03,24.22
16811,0.2573,-0.0483,0.8651,-6.12,9.22,0.0,24.25
16821,0.2532,-0.047,0.87,-6.21,4.41,-0.02,24.24
16831,0.1949,-0.051,0.9159,-6.21,10.38,-0.02,24.25
16841,0.2513,-0.0496,0.8562,-6.17,8.78,0.05,24.23
16851,0.2582,-0.048,0.8513,-6.14,4.64,-0.09,24.23
16861,0.2037,-0.043,0.9153,-6.23,8.31,-0.03,24.21
16871,0.2383,-0.0393,0.8883,-6.32,9.88,-0.06,24.25
16881,0.265,-0.0461,0.8511,-6.29,5.73,-0.03,24.24
16891,0.2085,-0.0487,0.9054,-6.24,7.24,-0.06,24.25
16901,0.2258,-0.0494,0.8861,-6.14,10.61,-0.17,24.26
16911,0.2709,-0.0521,0.8442,-6.14,5.77,-0.02,24.27
16921,0.2129,-0.0521,0.8965,-6.17,6.7,-0.02,24.24
16931,0.2145,-0.046,0.9022,-6.24,10.85,-0.02,24.25
16941,0.2734,-0.0404,0.8567,-6.2,6.17,-0.11,24.25
16951,0.217,-0.0453,0.9038,-6.24,6.75,-0.11,24.25
16961,0.2156,-0.0508,0.8958,-6.18,10.56,0.02,24.23
16971,0.266,-0.0508,0.8451,-6.12,6.61,-0.03,24.24
16981,0.2227,-0.0516,0.8944,-6.24,6.5,-0.12,24.24
16991,0.2145,-0.0481,0.9042,-6.23,10.24,-0.06,24.22
17001,0.2662,-0.0507,0.8608,-6.18,7.47,-0.12,24.22
17011,0.2365,-0.0497,0.8781,-6.15,5.42,-0.05,24.25
17021,0.2053,-0.0485,0.9113,-6.24,10.18,-0.06,24.25
17031,0.2656,-0.0488,0.853,-6.06,7.36,-0.09,24.25
17041,0.2343,-0.0437,0.8866,-6.27,5.66,-0.08,24.24
17051,0.2043,-0.0433,0.9216,-6.24,10.43,-0.03,24.23
17061,0.2614,-0.0454,0.8721,-6.24,8.12,-0.02,24.23
17071,0.2319,-0.0521,0.8843,-6.21,6.49,-0.14,24.25
17081,0.2148,-0.0535,0.9009,-6.2,9.69,-0.08,24.26
17091,0.257,-0.0521,0.8514,-6.11,7.97,-0.14,24.24
17101,0.2468,-0.0536,0.8674,-6.17,4.99,-0.18,24.25
17111,0.2247,-0.0499,0.8898,-6.15,5.88,-0.12,24.25
17121,0.2289,-0.0433,0.8934,-6.27,9.85,-0.03,24.25
17131,0.2671,-0.0474,0.8591,-6.11,6.29,-0.03,24.24
17141,0.2606,-0.0487,0.8683,-6.27,4.56,-0.11,24.26
17151,0.2156,-0.0614,0.8993,-6.18,11.11,0.02,24.24
17161,0.2687,-0.0599,0.8346,-6.08,6.76,0.0,24.23
17171,0.2605,-0.0604,0.8457,-6.11,4.9,0.0,24.24
17181,0.2028,-0.0479,0.9178,-6.26,9.92,0.02,24.26
17191,0.2565,-0.0382,0.8765,-6.14,8.75,0.03,24.22
17201,0.2554,-0.0414,0.8711,-6.18,5.34,-0.06,24.24
17211,0.2025,-0.0471,0.9131,-6.21,8.66,-0.11,24.24
17221,0.2346,-0.0443,0.8795,-6.21,10.11,0.03,24.27
17231,0.2587,-0.0463,0.8595,-6.17,8.29,-0.11,24.24
17241,0.2183,-0.05,0.9001,-6.17,6.61,-0.11,24.25
17251,0.2114,-0.043,0.9161,-6.27,10.98,-0.06,24.22
17261,0.2762,-0.0465,0.8501,-6.06,6.95,-0.11,24.24
17271,0.2235,-0.0509,0.8978,-6.21,5.73,-0.12,24.22
17281,0.1924,-0.0559,0.9187,-6.2,9.16,-0.18,24.24
17291,0.2356,-0.0531,0.8749,-6.24,9.68,-0.09,24.27
17301,0.2582,-0.0562,0.8444,-6.09,5.56,-0.11,24.24
17311,0.2035,-0.052,0.9061,-6.17,6.82,0.0,24.24
17321,0.2179,-0.0398,0.9037,-6.21,10.96,-0.02,24.24
17331,0.2699,-0.0359,0.8568,-6.23,6.43,0.03,24.25
17341,0.2203,-0.0435,0.8939,-6.21,6.2,-0.06,24.23
17351,0.2061,-0.0425,0.9082,-6.24,10.98,-0.05,24.25
17361,0.2668,-0.0442,0.8364,-6.17,6.79,-0.06,24.24
17371,0.231,-0.0442,0.8829,-6.02,5.37,-0.11,24.23
17381,0.2045,-0.0374,0.9158,-6.27,9.21,-0.05,24.24
17391,0.2533,-0.0349,0.8857,-6.23,9.86,-0.11,24.26
17401,0.2656,-0.0404,0.8597,-6.23,4.96,-0.17,24.24
17411,0.2043,-0.0508,0.9106,-6.27,8.26,-0.12,24.24
17421,0.2217,-0.0498,0.8826,-6.26,10.32,-0.05,24.26
17431,0.2622,-0.0541,0.8538,-6.06,6.58,-0.08,24.26
17443,0.2626,-0.0575,0.8491,-6.15,7.4,-0.03,24.27
17453,0.2319,-0.0566,0.8732,-6.12,5.51,-0.05,24.24
17463,0.2039,-0.0457,0.9075,-6.23,9.11,0.05,24.24
17473,0.2474,-0.0378,0.8846,-6.26,8.89,0.05,24.24
17483,0.2605,-0.0446,0.882,-6.23,6.23,-0.02,24.25
17493,0.2191,-0.0497,0.9076,-6.26,8.14,-0.02,24.22
17503,0.2316,-0.0558,0.88,-6.17,9.66,-0.05,24.27
17513,0.2545,-0.0581,0.8522,-6.11,6.95,-0.11,24.23
17523,0.2296,-0.0498,0.8727,-6.14,6.21,-0.12,24.22
17533,0.2244,-0.0469,0.8926,-6.08,8.21,-0.11,24.27
17543,0.2366,-0.0358,0.8972,-6.27,8.08,-0.17,24.25
17553,0.2443,-0.0363,0.8905,-6.26,7.97,0.0,24.24
17563,0.2506,-0.0416,0.8794,-6.29,6.89,-0.11,24.23
17573,0.226,-0.0518,0.8936,-6.23,7.57,-0.05,24.24
17583,0.2217,-0.0566,0.8884,-6.18,8.92,-0.06,24.25
17593,0.2347,-0.0536,0.8693,-6.12,8.6,-0.08,24.25
17603,0.2588,-0.0497,0.8463,-6.06,6.06,-0.08,24.27
17613,0.2196,-0.0387,0.8942,-6.21,6.72,-0.06,24.24
17623,0.2239,-0.0323,0.9093,-6.29,9.63,-0.12,24.25
17633,0.2578,-0.0326,0.8794,-6.24,7.56,0.0,24.24
17643,0.2385,-0.043,0.8898,-6.27,6.98,-0.15,24.23
17653,0.2354,-0.0459,0.8884,-6.2,7.53,-0.14,24.24
17664,0.22,-0.0538,0.8854,-6.2,8.29,-0.08,24.25
17675,0.2228,-0.0574,0.8765,-6.21,8.5,-0.08,24.23
17685,0.2328,-0.0577,0.8625,-6.11,8.17,-0.06,24.23
17695,0.2407,-0.0503,0.8646,-6.06,7.07,-0.08,24.23
17705,0.2402,-0.0421,0.8823,-6.14,6.56,-0.09,24.24
17715,0.2194,-0.0363,0.9067,-6.32,8.09,-0.09,24.24
17725,0.2439,-0.0403,0.8835,-6.31,8.78,-0.09,24.24
17735,0.2471,-0.0518,0.8738,-6.15,6.38,-0.11,24.24
17745,0.2174,-0.0583,0.8898,-6.2,8.0,0.0,24.25
17755,0.2197,-0.0594,0.8806,-6.2,9.21,0.0,24.24
17765,0.2544,-0.0553,0.8495,-6.11,7.07,-0.08,24.24
17775,0.2312,-0.0427,0.8898,-6.18,5.74,-0.08,24.25
17785,0.2089,-0.0353,0.9232,-6.21,10.14,-0.06,24.25
17795,0.2684,-0.0421,0.866,-6.2,8.11,-0.06,24.26
17805,0.2365,-0.0498,0.8785,-6.21,5.53,-0.09,24.27
17815,0.2032,-0.0518,0.9004,-6.08,9.91,-0.05,24.26
17825,0.2526,-0.0536,0.8602,-6.21,8.46,-0.03,24.25
17835,0.2544,-0.0525,0.8662,-6.17,5.18,-0.14,24.23
17845,0.2012,-0.0453,0.9167,-6.29,8.26,-0.09,24.24
17855,0.2021,-0.0409,0.9183,-6.29,10.23,-0.05,24.25
17865,0.2731,-0.0428,0.854,-6.24,5.53,-0.17,24.24
17875,0.2001,-0.0459,0.9126,-6.27,8.02,-0.12,24.26
17885,0.2325,-0.049,0.8733,-6.15,10.5,-0.03,24.24
17895,0.2568,-0.0504,0.8489,-6.17,5.92,0.0,24.23
17905,0.2164,-0.0502,0.8881,-6.17,6.79,0.03,24.24
17915,0.2039,-0.0471,0.9131,-6.26,8.67,-0.03,24.23
17925,0.2634,-0.0391,0.8696,-6.27,7.51,-0.08,24.28
17935,0.2418,-0.0441,0.885,-6.2,5.89,-0.18,24.25
17945,0.2233,-0.0487,0.9014,-6.23,7.07,-0.03,24.27
17955,0.2194,-0.0555,0.8909,-6.2,9.45,-0.06,24.25
17965,0.2444,-0.0541,0.8604,-6.15,8.26,0.0,24.27
17975,0.231,-0.0535,0.873,-6.18,6.7,0.02,24.27
17985,0.2213,-0.0514,0.8856,-6.18,7.79,-0.17,24.25
17995,0.2255,-0.041,0.896,-6.2,8.6,-0.05,24.26
18005,0.2489,-0.04,0.8783,-6.26,7.53,-0.11,24.24
18015,0.2349,-0.0457,0.8916,-6.29,7.21,-0.06,24.24
18025,0.2317,-0.0573,0.8966,-6.21,8.67,-0.14,24.26
18035,0.2501,-0.0631,0.8706,-6.17,7.77,-0.14,24.24
18045,0.2311,-0.0642,0.8718,-6.06,7.59,-0.06,24.25
18055,0.222,-0.0637,0.8746,-6.12,7.79,-0.02,24.25
18065,0.2244,-0.0483,0.8809,-6.15,8.23,0.02,24.27
18075,0.2456,-0.0369,0.8718,-6.29,7.66,-0.05,24.26
18085,0.2482,-0.0281,0.8778,-6.29,6.67,-0.06,24.25
18095,0.2401,-0.0347,0.8971,-6.34,7.07,-0.11,24.26
18105,0.2272,-0.0424,0.8998,-6.27,8.34,-0.08,24.26
18115,0.2424,-0.05,0.8936,-6.26,8.7,-0.06,24.25
18125,0.2526,-0.0541,0.8779,-6.17,7.19,-0.11,24.24
18135,0.2239,-0.0594,0.8973,-6.15,7.69,-0.12,24.23
18145,0.2263,-0.057,0.887,-6.14,9.45,0.02,24.25
18155,0.2515,-0.0508,0.8538,-6.11,7.3,-0.03,24.27
18165,0.2153,-0.049,0.8826,-6.12,7.31,-0.08,24.25
18175,0.2216,-0.0464,0.8789,-6.23,9.27,-0.08,24.26
18185,0.2515,-0.0414,0.8634,-6.17,6.79,-0.09,24.24
18195,0.2319,-0.037,0.8929,-6.18,6.61,0.0,24.27
18205,0.2273,-0.0378,0.9104,-6.26,8.98,-0.05,24.26
18215,0.2588,-0.0396,0.8872,-6.23,7.77,-0.06,24.27
18225,0.2466,-0.0446,0.8871,-6.32,6.89,-0.11,24.27
18235,0.2285,-0.0509,0.8955,-6.29,7.98,-0.03,24.27
18245,0.2421,-0.0551,0.8723,-6.17,8.11,0.0,24.28
18255,0.241,-0.0527,0.8732,-6.11,7.15,-0.17,24.26
18265,0.235,-0.0522,0.8782,-6.21,7.42,-0.18,24.24
18275,0.2324,-0.0428,0.8853,-6.15,8.08,-0.12,24.24
18285,0.2383,-0.0424,0.8904,-6.21,7.53,-0.09,24.24
18295,0.2325,-0.049,0.8882,-6.27,8.18,-0.08,24.24
18305,0.2452,-0.0564,0.8677,-6.21,7.44,-0.05,24.25
18315,0.2316,-0.0641,0.8662,-6.08,6.66,-0.06,24.25
18325,0.2175,-0.0599,0.8921,-6.17,7.98,0.03,24.27
18335,0.2316,-0.0494,0.8717,-6.11,8.46,0.0,24.25
18345,0.2454,-0.0444,0.8647,-6.06,7.3,-0.05,24.26
18355,0.2322,-0.0332,0.8838,-6.18,6.52,-0.06,24.26
18366,0.2408,-0.0366,0.8759,-6.09,5.36,-0.05,24.25
18376,0.2189,-0.0295,0.9038,-6.32,9.82,-0.11,24.26
18386,0.2521,-0.0345,0.8726,-6.37,7.69,-0.06,24.28
18396,0.2361,-0.0477,0.8813,-6.21,6.53,-0.2,24.26
18407,0.2198,-0.0475,0.8975,-6.24,7.08,-0.14,24.25
18417,0.2249,-0.0532,0.901,-6.21,9.73,-0.11,24.25
18427,0.2598,-0.05,0.8595,-6.15,7.07,-0.15,24.26
18437,0.2329,-0.0533,0.8911,-6.17,6.61,-0.08,24.24
18447,0.2251,-0.0476,0.8956,-6.18,8.6,-0.08,24.25
18457,0.238,-0.0469,0.8828,-6.23,8.14,0.02,24.26
18467,0.2358,-0.0503,0.8815,-6.14,7.83,-0.05,24.23
18477,0.2362,-0.0449,0.8685,-6.18,7.66,-0.05,24.29
18487,0.2369,-0.0472,0.8688,-6.12,6.89,-0.03,24.26
18497,0.2258,-0.0442,0.8806,-6.17,7.21,-0.02,24.27
18507,0.22,-0.0414,0.8937,-6.14,8.31,-0.11,24.27
18517,0.2405,-0.0397,0.8777,-6.24,8.52,-0.09,24.25
18527,0.2413,-0.0376,0.8842,-6.18,8.18,-0.15,24.29
18537,0.2344,-0.043,0.8999,-6.34,6.75,-0.08,24.25
18547,0.2169,-0.0493,0.9088,-6.27,9.8,-0.03,24.3
18557,0.2543,-0.0585,0.865,-6.29,8.32,-0.03,24.3
18567,0.2463,-0.0564,0.8652,-6.18,6.14,-0.12,24.25
18577,0.2104,-0.0575,0.9022,-6.15,8.52,-0.11,24.26
18587,0.2206,-0.0508,0.901,-6.15,9.39,-0.08,24.27
18597,0.2501,-0.0446,0.8716,-6.18,6.89,-0.09,24.29
18607,0.2468,-0.049,0.8762,-6.15,6.96,-0.02,24.26
18617,0.2203,-0.0503,0.8857,-6.14,7.94,-0.03,24.26
18627,0.239,-0.057,0.8638,-6.06,7.97,-0.02,24.26
18637,0.2347,-0.0483,0.8669,-6.14,7.22,-0.06,24.27
18647,0.224,-0.05,0.8832,-6.09,7.89,-0.09,24.25
18657,0.2388,-0.0455,0.866,-6.18,8.09,-0.03,24.27
18667,0.2328,-0.045,0.8695,-6.2,6.73,-0.03,24.26
18677,0.2163,-0.0404,0.8904,-6.11,8.0,-0.05,24.27
18687,0.233,-0.0387,0.8958,-6.2,8.63,-0.14,24.29
18697,0.2505,-0.0385,0.8856,-6.27,7.4,-0.17,24.29
18707,0.2321,-0.0479,0.8997,-6.31,7.59,-0.09,24.28
18717,0.2169,-0.057,0.8987,-6.27,9.4,-0.02,24.27
18727,0.2444,-0.056,0.8718,-6.12,8.52,-0.02,24.26
18737,0.2535,-0.0542,0.8562,-6.11,6.44,-0.02,24.26
18747,0.2234,-0.048,0.8867,-6.09,7.42,-0.03,24.26
18757,0.2307,-0.0448,0.88,-6.09,8.89,-0.02,24.26
18767,0.2579,-0.0378,0.8677,-6.2,6.44,-0.03,24.26
18777,0.2341,-0.0388,0.8962,-6.2,7.1,-0.11,24.26
18787,0.23,-0.0414,0.8961,-6.32,8.43,-0.05,24.25
18797,0.2404,-0.0458,0.8878,-6.18,7.94,-0.08,24.26
18807,0.2384,-0.0543,0.8922,-6.27,7.63,-0.05,24.27
18817,0.2317,-0.0521,0.8984,-6.23,8.37,0.0,24.27
18827,0.245,-0.0537,0.8782,-6.17,8.34,0.05,24.26
18837,0.2478,-0.0532,0.8671,-6.06,6.81,-0.06,24.27
18847,0.222,-0.0527,0.8895,-6.14,7.27,-0.11,24.28
18857,0.2203,-0.0493,0.8892,-6.18,8.95,-0.11,24.27
18867,0.2452,-0.0454,0.8584,-6.2,7.79,-0.09,24.25
18877,0.2379,-0.0461,0.864,-6.14,6.29,-0.11,24.26
18887,0.2142,-0.0439,0.8877,-6.21,7.63,-0.06,24.28
18897,0.2231,-0.0446,0.8989,-6.29,9.01,-0.03,24.28
18907,0.2524,-0.0415,0.8807,-6.27,7.82,0.0,24.28
18917,0.2477,-0.0433,0.8943,-6.27,6.76,-0.12,24.26
18927,0.2299,-0.0476,0.9023,-6.26,8.14,-0.08,24.25
18937,0.2374,-0.0525,0.8885,-6.21,8.81,-0.09,24.26
18947,0.2477,-0.0507,0.8804,-6.2,8.41,0.0,24.25
18957,0.2317,-0.0531,0.8798,-6.06,7.13,-0.03,24.24
18967,0.2168,-0.0474,0.8887,-6.11,8.7,-0.02,24.25
18977,0.2404,-0.0461,0.8601,-6.2,7.92,-0.09,24.26
18987,0.2294,-0.0421,0.8772,-6.18,7.48,-0.05,24.25
18997,0.2419,-0.0369,0.8829,-6.2,7.76,0.03,24.27
19007,0.2439,-0.0422,0.8867,-6.2,6.95,-0.05,24.28
19017,0.2327,-0.0544,0.8864,-6.18,7.53,-0.12,24.27
19027,0.2267,-0.0537,0.8831,-6.12,7.97,0.02,24.25
19037,0.2296,-0.0555,0.8752,-6.11,8.23,-0.02,24.27
19047,0.2407,-0.0463,0.8738,-6.26,7.15,-0.08,24.28
19057,0.2372,-0.0433,0.8901,-6.12,7.73,-0.05,24.27
19067,0.2418,-0.036,0.8816,-6.35,6.76,-0.09,24.27
19077,0.2225,-0.0394,0.9083,-6.29,8.43,-0.02,24.27
19087,0.2448,-0.0422,0.8792,-6.24,8.31,-0.06,24.27
19097,0.2301,-0.0516,0.8837,-6.23,7.51,-0.14,24.23
19107,0.2284,-0.0577,0.8799,-6.14,8.75,-0.08,24.25
19117,0.2463,-0.0579,0.8568,-6.15,6.66,0.0,24.28
19127,0.2185,-0.0513,0.8866,-6.09,7.6,0.02,24.26
19137,0.2262,-0.0446,0.8849,-6.17,8.4,-0.08,24.25
19147,0.2305,-0.0413,0.8856,-6.21,8.05,-0.05,24.26
19157,0.2449,-0.0389,0.8735,-6.23,7.37,-0.09,24.28
19167,0.2261,-0.0411,0.8997,-6.26,7.28,-0.08,24.27
19177,0.2286,-0.0443,0.897,-6.23,9.24,-0.09,24.26
19188,0.2451,-0.0431,0.8833,-6.26,8.58,-0.06,24.26
19199,0.2335,-0.0381,0.8851,-6.31,8.78,-0.09,24.27
19209,0.2441,-0.0468,0.8817,-6.32,6.61,-0.06,24.27
19219,0.2288,-0.0457,0.8984,-6.18,7.63,-0.09,24.27
19229,0.2245,-0.0492,0.8993,-6.14,9.27,-0.09,24.25
19239,0.2462,-0.0483,0.8739,-6.2,7.83,-0.12,24.23
19249,0.2341,-0.0493,0.8788,-6.18,7.36,-0.08,24.22
19259,0.2339,-0.0502,0.8856,-6.2,7.42,-0.06,24.26
19269,0.2258,-0.0496,0.8829,-6.23,8.05,-0.05,24.27
19279,0.2231,-0.0509,0.8711,-6.2,8.32,-0.03,24.26
19289,0.2242,-0.0503,0.8687,-6.15,8.31,0.0,24.25
19299,0.2362,-0.0491,0.86,-6.09,7.28,-0.05,24.27
19309,0.2313,-0.0413,0.8879,-6.15,6.81,-0.09,24.27
19319,0.2283,-0.0361,0.9008,-6.27,8.17,-0.05,24.26
19329,0.2421,-0.0405,0.8976,-6.31,8.23,-0.08,24.23
19339,0.2388,-0.0469,0.8845,-6.31,7.3,-0.05,24.27
19349,0.225,-0.056,0.8917,-6.14,8.21,-0.08,24.27
19359,0.2327,-0.0557,0.8827,-6.15,8.5,-0.12,24.27
19369,0.2449,-0.0562,0.8618,-6.11,8.02,-0.03,24.26
19379,0.2448,-0.0502,0.8608,-6.17,5.94,-0.09,24.24
19389,0.2063,-0.0421,0.9021,-6.21,8.4,-0.05,24.26
19399,0.2415,-0.0348,0.8839,-6.29,9.44,-0.05,24.28
19409,0.2688,-0.0413,0.8607,-6.26,5.76,-0.08,24.26
19419,0.2163,-0.0502,0.9034,-6.21,7.5,-0.18,24.29
19429,0.2203,-0.056,0.8927,-6.21,9.76,-0.02,24.27
19439,0.2474,-0.0592,0.8561,-6.11,7.98,-0.12,24.28
19449,0.2454,-0.0579,0.858,-6.03,5.77,-0.08,24.24
19459,0.2072,-0.0438,0.9103,-6.23,8.08,-0.06,24.24
19469,0.2346,-0.0363,0.9012,-6.21,10.55,0.03,24.27
19479,0.2766,-0.0397,0.8499,-6.24,5.65,-0.08,24.29
19489,0.2013,-0.0494,0.9105,-6.29,7.94,-0.09,24.27
19499,0.2393,-0.0485,0.8652,-6.2,10.24,-0.03,24.26
19509,0.2626,-0.0529,0.8484,-6.15,4.75,0.05,24.26
19519,0.2029,-0.0474,0.9152,-6.29,7.85,-0.06,24.27
19529,0.2324,-0.0448,0.9014,-6.32,10.56,-0.02,24.29
19539,0.2698,-0.0476,0.8566,-6.29,6.05,-0.08,24.26
19549,0.2217,-0.0516,0.8947,-6.18,7.05,-0.02,24.26
19559,0.2179,-0.0498,0.8965,-6.17,9.73,0.03,24.28
19569,0.2656,-0.0513,0.8507,-6.17,6.92,-0.08,24.24
19579,0.2291,-0.046,0.8959,-6.18,5.82,-0.15,24.27
19589,0.2234,-0.0442,0.8983,-6.23,9.86,-0.02,24.26
19599,0.2694,-0.0521,0.8542,-6.18,5.63,-0.09,24.25
19609,0.1898,-0.045,0.9236,-6.26,7.85,-0.09,24.3
19619,0.2472,-0.0502,0.8688,-6.09,10.37,0.0,24.27
19629,0.2588,-0.0502,0.8556,-6.15,4.61,-0.08,24.27
19639,0.1959,-0.0525,0.9124,-6.23,8.69,-0.09,24.28
19649,0.235,-0.0424,0.8899,-6.23,10.05,-0.06,24.28
19659,0.2733,-0.046,0.8605,-6.2,5.82,-0.08,24.25
19669,0.2123,-0.051,0.9116,-6.2,7.33,-0.08,24.26
19679,0.2288,-0.0475,0.8857,-6.2,10.81,-0.08,24.29
19689,0.265,-0.0575,0.843,-5.95,5.65,0.05,24.28
19699,0.2013,-0.053,0.9087,-6.12,6.66,-0.09,24.28
19709,0.2202,-0.049,0.8981,-6.09,10.63,-0.11,24.27
19719,0.2592,-0.0438,0.859,-6.23,6.5,-0.09,24.27
19729,0.2229,-0.048,0.8999,-6.21,6.81,-0.09,24.28
19739,0.2137,-0.0447,0.907,-6.27,9.92,-0.03,24.27
19749,0.2595,-0.0509,0.8589,-6.21,7.63,-0.12,24.27
19759,0.2269,-0.0505,0.8835,-6.17,6.24,-0.08,24.27
19769,0.2079,-0.0498,0.9021,-6.11,8.27,-0.06,24.29
19779,0.2632,-0.0516,0.8594,-6.08,7.18,-0.06,24.28
19789,0.2225,-0.0443,0.8983,-6.24,6.09,-0.09,24.28
19799,0.2157,-0.0479,0.9043,-6.14,10.99,-0.05,24.29
19809,0.2748,-0.0466,0.8492,-6.17,5.83,-0.11,24.29
19819,0.2117,-0.0502,0.8999,-6.17,6.81,-0.06,24.29
19829,0.2119,-0.0516,0.9039,-6.24,8.37,-0.09,24.29
19839,0.2321,-0.0491,0.8865,-6.21,7.95,0.06,24.3
19849,0.2083,-0.0509,0.9022,-6.18,9.19,0.0,24.26
19859,0.2274,-0.0477,0.8854,-6.27,9.92,-0.11,24.29
19869,0.2518,-0.0493,0.8705,-6.11,7.89,-0.02,24.27
19879,0.2437,-0.0452,0.8767,-6.21,6.21,0.0,24.29
19889,0.2166,-0.0464,0.9103,-6.15,7.65,-0.09,24.3
19899,0.2523,-0.05,0.8616,-6.17,7.69,-0.06,24.29
19909,0.2223,-0.0533,0.8933,-6.12,7.13,-0.09,24.29
19919,0.2277,-0.0504,0.8865,-6.11,8.09,-0.06,24.27
19929,0.2511,-0.0515,0.8683,-6.18,6.49,-0.09,24.27
19939,0.2136,-0.0481,0.9048,-6.26,6.98,-0.09,24.29
19949,0.2186,-0.0464,0.9003,-6.24,10.67,-0.05,24.27
19959,0.272,-0.0498,0.8389,-6.18,5.63,-0.15,24.28
19969,0.1936,-0.0542,0.9132,-6.23,7.51,-0.08,24.29
19979,0.2283,-0.0499,0.886,-6.18,10.55,-0.05,24.28
19989,0.272,-0.051,0.8481,-6.0,5.76,-0.14,24.27
19999,0.213,-0.0496,0.9034,-6.26,6.49,-0.08,24.27
20009,0.222,-0.0426,0.9073,-6.29,11.11,-0.06,24.27
20019,0.2765,-0.0443,0.851,-6.2,6.32,-0.06,24.25
20029,0.2271,-0.0499,0.8929,-6.2,6.61,-0.05,24.29
20039,0.2152,-0.0468,0.8983,-6.2,10.44,-0.03,24.27
20049,0.2671,-0.052,0.8407,-6.09,6.84,-0.08,24.3
20059,0.2291,-0.0507,0.8843,-6.12,5.8,-0.06,24.27
20069,0.2034,-0.0426,0.913,-6.2,10.17,-0.05,24.28
20079,0.261,-0.0435,0.86,-6.21,7.83,-0.09,24.3
20089,0.235,-0.0459,0.8838,-6.27,5.77,-0.14,24.29
20099,0.2083,-0.0444,0.9011,-6.29,10.47,0.02,24.27
20109,0.2681,-0.0504,0.8442,-6.17,7.33,0.05,24.28
20119,0.2202,-0.0498,0.8884,-6.26,5.62,-0.06,24.28
20129,0.2034,-0.0463,0.9089,-6.2,10.81,0.06,24.27
20139,0.262,-0.0505,0.8568,-6.24,7.42,0.0,24.27
20149,0.2197,-0.0494,0.8934,-6.21,6.38,-0.15,24.26
20159,0.2085,-0.045,0.9019,-6.15,10.52,-0.09,24.26
20169,0.2657,-0.0442,0.8514,-6.2,6.76,-0.05,24.27
20179,0.2219,-0.0447,0.9058,-6.29,6.61,-0.03,24.29
20189,0.2222,-0.0444,0.9083,-6.37,10.81,0.02,24.28
20199,0.2803,-0.0535,0.8464,-6.34,6.14,-0.06,24.27
20209,0.2167,-0.0554,0.8949,-6.18,6.67,-0.02,24.28
20219,0.2235,-0.0636,0.8799,-6.12,10.6,-0.03,24.3
20229,0.2697,-0.0594,0.8469,-6.02,5.89,-0.05,24.29
20239,0.2263,-0.0482,0.8966,-6.14,6.34,-0.08,24.27
20249,0.2191,-0.0348,0.9115,-6.21,9.86,-0.02,24.28
20259,0.272,-0.0356,0.85,-6.26,6.58,-0.03,24.29
20269,0.2203,-0.0428,0.9012,-6.31,6.34,-0.06,24.29
20279,0.2191,-0.045,0.8975,-6.09,10.46,-0.05,24.29
20289,0.27,-0.0513,0.8356,-6.08,5.63,-0.12,24.28
20299,0.2074,-0.052,0.9047,-6.14,6.69,-0.15,24.3
20309,0.2229,-0.0475,0.8983,-6.15,10.44,-0.18,24.29
20319,0.277,-0.0474,0.8586,-6.15,5.66,-0.23,24.28
20329,0.2067,-0.051,0.9169,-6.11,7.57,-0.14,24.29
20339,0.2285,-0.0513,0.8881,-6.31,10.4,-0.05,24.28
20349,0.2686,-0.0515,0.8491,-6.18,5.44,-0.02,24.28
20359,0.1989,-0.0468,0.9147,-6.26,7.88,0.03,24.29
20369,0.2395,-0.0479,0.8759,-6.23,10.44,0.08,24.29
20379,0.2562,-0.0566,0.8566,-6.08,4.66,0.08,24.31
20389,0.1975,-0.046,0.9131,-6.06,8.55,-0.05,24.32
20399,0.2046,-0.0396,0.9089,-6.14,9.95,-0.03,24.28
20409,0.2551,-0.0385,0.861,-6.15,7.02,-0.06,24.29
20419,0.2264,-0.0377,0.8832,-6.14,6.72,-0.06,24.28
20429,0.2023,-0.0364,0.9141,-6.32,9.48,-0.03,24.29
20439,0.2515,-0.0366,0.8757,-6.23,9.34,-0.08,24.3
20449,0.2734,-0.0446,0.85,-6.18,6.82,-0.12,24.28
20459,0.1974,-0.0553,0.9092,-6.27,9.08,-0.15,24.29
20469,0.2435,-0.0573,0.8661,-6.12,9.83,-0.12,24.27
20479,0.2618,-0.0593,0.8542,-6.09,4.66,-0.15,24.3
20489,0.21,-0.056,0.9161,-6.14,7.91,-0.05,24.3
20499,0.2241,-0.0488,0.9019,-6.23,10.17,-0.03,24.3
20509,0.2709,-0.0464,0.8522,-6.34,7.25,0.02,24.3
20519,0.2362,-0.0524,0.8751,-6.18,5.44,0.0,24.3
20529,0.194,-0.053,0.9138,-6.18,10.27,0.0,24.29
20539,0.2632,-0.0498,0.8488,-6.05,8.24,0.0,24.31
20549,0.2413,-0.0421,0.8672,-6.12,5.08,-0.08,24.29
20559,0.2096,-0.0421,0.9075,-6.09,8.12,-0.05,24.28
20569,0.2251,-0.0337,0.9039,-6.24,9.45,-0.12,24.27
20579,0.2668,-0.0341,0.8678,-6.24,7.47,-0.12,24.3
20589,0.2429,-0.0431,0.886,-6.27,5.74,-0.09,24.29
20599,0.215,-0.0547,0.9015,-6.26,7.27,-0.14,24.25
20609,0.2186,-0.0626,0.8844,-6.21,10.52,-0.11,24.27
20619,0.2604,-0.0583,0.8358,-6.09,7.11,-0.06,24.29
20629,0.2366,-0.0535,0.8728,-6.06,5.37,-0.09,24.3
20639,0.2012,-0.0398,0.9136,-6.17,8.63,-0.14,24.3
20649,0.2375,-0.0353,0.8944,-6.37,9.92,-0.03,24.24
20659,0.2755,-0.036,0.8531,-6.14,5.48,-0.05,24.27
20669,0.2056,-0.0433,0.9154,-6.24,7.71,-0.02,24.29
20679,0.2267,-0.048,0.8857,-6.31,10.06,0.06,24.27
20689,0.2574,-0.048,0.8644,-6.29,7.53,-0.06,24.3
20699,0.2505,-0.0449,0.8541,-6.17,5.37,-0.02,24.31
20709,0.2083,-0.0439,0.8964,-6.17,7.79,0.0,24.3
20719,0.2222,-0.041,0.9016,-6.05,10.32,-0.09,24.28
20729,0.2666,-0.0399,0.8622,-6.06,6.82,-0.08,24.28
20739,0.2239,-0.0452,0.8993,-6.24,6.64,-0.06,24.29
20749,0.2147,-0.0537,0.8979,-6.24,9.56,-0.05,24.27
20759,0.2361,-0.0581,0.8678,-6.35,8.46,0.03,24.28
20769,0.2477,-0.0642,0.8594,-6.23,6.85,0.02,24.29
20779,0.2256,-0.0594,0.8866,-6.23,6.87,0.02,24.29
20789,0.2129,-0.0547,0.9103,-6.17,10.46,0.02,24.28
20799,0.2695,-0.0509,0.8518,-6.17,7.37,-0.03,24.3
20809,0.2357,-0.0544,0.8792,-6.06,5.8,0.0,24.29
20819,0.2025,-0.0497,0.9086,-6.14,9.79,-0.02,24.28
20829,0.2554,-0.0468,0.8665,-6.17,8.35,0.02,24.28
20839,0.2502,-0.042,0.8781,-6.26,4.96,-0.11,24.29
20849,0.2029,-0.0419,0.9215,-6.43,9.39,-0.05,24.27
20859,0.2544,-0.04,0.861,-6.29,9.01,-0.06,24.31
20869,0.2511,-0.0468,0.8706,-6.27,5.56,-0.15,24.29
20879,0.2139,-0.0524,0.9044,-6.17,8.12,-0.15,24.29
20889,0.2224,-0.0582,0.8916,-6.15,9.79,-0.08,24.28
20899,0.2571,-0.0505,0.8505,-6.03,7.44,-0.11,24.28
20909,0.262,-0.0487,0.8495,-6.05,5.73,-0.08,24.29
20919,0.2051,-0.0389,0.9175,-6.17,8.82,-0.06,24.29
20929,0.2412,-0.0378,0.894,-6.35,9.71,0.05,24.3
20939,0.2638,-0.0397,0.8658,-6.27,6.06,0.06,24.31
20949,0.2206,-0.0471,0.8905,-6.31,7.05,-0.03,24.32
20959,0.2128,-0.0502,0.8943,-6.27,9.73,-0.02,24.31
20969,0.2574,-0.0515,0.8564,-6.26,7.91,0.08,24.31
20979,0.2432,-0.0504,0.8688,-6.08,5.27,-0.11,24.3
20989,0.196,-0.0432,0.9177,-6.09,9.42,-0.05,24.29
20999,0.2505,-0.0371,0.8766,-6.2,9.19,-0.11,24.29
21010,0.2672,-0.0387,0.8754,-6.26,7.45,-0.08,24.29
21020,0.2444,-0.0486,0.8896,-6.24,5.54,-0.15,24.28
21030,0.2036,-0.0587,0.9113,-6.35,9.48,-0.08,24.29
21040,0.2457,-0.0645,0.8549,-6.18,9.45,0.02,24.28
21050,0.2555,-0.0632,0.8494,-6.18,5.3,-0.06,24.29
21060,0.2134,-0.0579,0.9005,-6.09,7.97,-0.12,24.3
21070,0.2291,-0.0531,0.8907,-6.12,8.89,-0.11,24.28
21080,0.2437,-0.0455,0.8761,-6.11,7.24,-0.11,24.29
21090,0.2354,-0.0446,0.8918,-6.12,7.39,-0.11,24.28
21101,0.24,-0.0422,0.8916,-6.09,7.94,-0.06,24.3
21111,0.2371,-0.0474,0.8997,-6.35,7.3,0.0,24.3
21121,0.2203,-0.0544,0.8937,-6.23,9.56,-0.03,24.3
21131,0.2499,-0.0603,0.8478,-6.11,8.41,-0.05,24.3
21141,0.2461,-0.0515,0.8516,-6.0,4.99,-0.08,24.31
21151,0.1974,-0.0457,0.915,-6.12,9.07,-0.05,24.3
21161,0.2108,-0.0378,0.9203,-6.17,10.2,-0.15,24.3
21171,0.2656,-0.0264,0.8655,-6.14,5.42,-0.23,24.29
21181,0.2183,-0.0354,0.9207,-6.21,7.21,-0.17,24.29
21191,0.2228,-0.0453,0.9069,-6.23,10.08,-0.02,24.29
21201,0.2483,-0.0629,0.8688,-6.2,8.44,0.02,24.28
21211,0.2456,-0.0693,0.8477,-6.24,5.79,-0.09,24.3
21221,0.2297,-0.0693,0.8638,-6.09,5.8,0.03,24.29
21231,0.2223,-0.0443,0.875,-6.18,9.25,-0.03,24.29
21241,0.2301,-0.0386,0.8873,-6.11,8.89,-0.03,24.3
21251,0.2472,-0.0265,0.8782,-6.24,7.34,-0.08,24.26
21261,0.2284,-0.0378,0.9001,-6.2,8.12,-0.05,24.3
21271,0.2275,-0.0468,0.9047,-6.27,8.27,-0.09,24.31
21281,0.2343,-0.0496,0.8882,-6.32,8.05,-0.09,24.3
21291,0.2407,-0.058,0.8889,-6.34,7.89,-0.12,24.3
21301,0.2407,-0.0621,0.8844,-6.23,7.73,-0.05,24.3
21311,0.2352,-0.0679,0.8738,-6.11,8.32,-0.03,24.3
21321,0.2435,-0.0609,0.8578,-6.12,7.19,-0.09,24.34
21331,0.236,-0.0525,0.8636,-6.03,6.56,-0.12,24.29
21341,0.2162,-0.0364,0.9019,-6.18,7.83,-0.05,24.3
21351,0.2357,-0.035,0.8917,-6.27,9.11,-0.08,24.3
21361,0.2457,-0.0385,0.874,-6.38,7.05,0.0,24.3
21371,0.2347,-0.0436,0.8822,-6.27,6.52,-0.12,24.28
21381,0.2152,-0.0515,0.8994,-6.31,7.91,-0.03,24.28
21391,0.2296,-0.0509,0.8998,-6.23,9.42,-0.09,24.29
21401,0.2507,-0.0457,0.8789,-6.11,7.59,-0.12,24.33
21411,0.2292,-0.0425,0.8937,-6.12,7.31,-0.14,24.29
21421,0.2256,-0.0403,0.8879,-6.08,9.28,-0.08,24.29
21431,0.2607,-0.0439,0.8595,-6.11,7.5,0.02,24.33
21441,0.2361,-0.0403,0.8763,-6.27,6.31,-0.09,24.31
21451,0.2134,-0.0482,0.8933,-6.29,9.18,0.09,24.29
21461,0.2478,-0.0482,0.8499,-6.21,7.25,0.05,24.29
21471,0.2184,-0.0511,0.885,-6.18,6.58,-0.03,24.27
21481,0.2145,-0.0537,0.8976,-6.08,9.16,-0.02,24.28
21491,0.2404,-0.0431,0.8815,-6.03,8.11,-0.05,24.29
21501,0.2389,-0.0446,0.8916,-6.11,6.9,-0.02,24.3
21511,0.2247,-0.0441,0.9086,-6.15,8.49,-0.08,24.28
21521,0.2456,-0.0447,0.8922,-6.34,8.72,0.02,24.29
21531,0.2472,-0.0483,0.8801,-6.44,7.69,0.09,24.31
21541,0.2299,-0.0557,0.8815,-6.35,8.35,-0.02,24.3
21551,0.2384,-0.0603,0.8727,-6.2,8.55,0.02,24.31
21561,0.2388,-0.0555,0.865,-6.21,7.5,-0.06,24.29
21571,0.2307,-0.05,0.8706,-5.98,7.94,-0.05,24.3
21581,0.2354,-0.0509,0.8785,-6.21,8.03,-0.06,24.29
21591,0.2318,-0.0479,0.8885,-6.08,7.16,-0.06,24.28
21601,0.2252,-0.0417,0.8992,-6.32,8.15,0.0,24.28
21611,0.2357,-0.0464,0.8776,-6.21,7.91,0.03,24.31
21622,0.228,-0.0505,0.8756,-6.29,7.11,-0.02,24.32
21632,0.208,-0.0524,0.8976,-6.34,9.47,-0.03,24.29
21642,0.2565,-0.0466,0.8623,-6.09,8.34,-0.11,24.32
21653,0.2517,-0.0468,0.8668,-6.15,7.08,-0.23,24.3
21663,0.2296,-0.0436,0.8987,-6.12,7.4,-0.23,24.31
21673,0.2361,-0.0415,0.8965,-6.21,8.92,-0.14,24.3
21683,0.2583,-0.0455,0.8868,-6.29,7.86,-0.08,24.32
21693,0.2546,-0.0494,0.87,-6.38,6.66,-0.14,24.31
21703,0.2129,-0.0565,0.896,-6.44,8.34,0.02,24.3
21713,0.2065,-0.0586,0.8932,-6.31,10.29,-0.06,24.27
21723,0.251,-0.0541,0.8529,-6.14,5.91,-0.08,24.33
21733,0.2096,-0.0472,0.8933,-6.08,7.53,-0.11,24.32
21743,0.2244,-0.0397,0.8975,-6.08,9.27,-0.14,24.29
21753,0.2506,-0.0283,0.877,-6.12,7.3,-0.11,24.29
21763,0.2375,-0.0321,0.8995,-6.14,7.04,-0.08,24.29
21773,0.2268,-0.0392,0.901,-6.24,7.73,0.02,24.29
21783,0.2455,-0.0497,0.8682,-6.26,8.67,0.02,24.32
21793,0.245,-0.0521,0.8552,-6.29,6.69,-0.03,24.29
21803,0.225,-0.0536,0.8746,-6.23,7.39,-0.11,24.3
21813,0.2301,-0.0492,0.8718,-6.11,8.32,-0.05,24.32
21823,0.2385,-0.043,0.8767,-6.12,7.63,-0.08,24.28
21833,0.2412,-0.0381,0.8821,-6.12,7.6,-0.03,24.3
21843,0.2388,-0.0416,0.9039,-6.23,7.15,-0.08,24.27
21853,0.2236,-0.048,0.9116,-6.32,8.41,0.06,24.29
21863,0.2358,-0.0535,0.894,-6.32,8.69,0.11,24.3
21873,0.2473,-0.0586,0.8765,-6.32,7.6,0.06,24.28
21883,0.2386,-0.0605,0.8818,-6.29,7.56,0.05,24.29
21893,0.2385,-0.0604,0.8866,-6.14,7.62,0.05,24.29
21903,0.2395,-0.0466,0.8723,-6.12,8.21,0.06,24.32
21913,0.2448,-0.0457,0.8658,-5.94,7.97,-0.05,24.31
21923,0.2422,-0.0408,0.868,-6.12,6.09,-0.06,24.31
21933,0.2072,-0.0447,0.9092,-6.15,8.41,-0.12,24.32
21943,0.2343,-0.0422,0.8795,-6.26,8.5,0.0,24.32
21953,0.2424,-0.0472,0.8746,-6.27,6.89,-0.14,24.31
21963,0.2269,-0.0546,0.8926,-6.29,7.37,-0.12,24.32
21973,0.2213,-0.0542,0.903,-6.26,8.98,-0.09,24.29
21983,0.2484,-0.0571,0.8798,-6.23,8.4,-0.17,24.3
21993,0.2472,-0.057,0.8805,-6.17,6.47,-0.11,24.3
22003,0.2233,-0.0564,0.8987,-6.14,8.29,-0.08,24.29
22013,0.2366,-0.0515,0.8756,-6.11,8.47,-0.14,24.31
22023,0.2401,-0.053,0.87,-6.09,7.98,-0.08,24.31
22033,0.2386,-0.0472,0.8591,-6.15,7.02,-0.05,24.31
22043,0.2251,-0.0476,0.8717,-6.17,7.51,-0.12,24.3
22053,0.2338,-0.0352,0.8734,-6.21,7.76,-0.14,24.3
22063,0.2408,-0.0336,0.8844,-6.21,6.96,-0.24,24.3
22073,0.2268,-0.0349,0.8992,-6.18,8.06,-0.18,24.29
22083,0.246,-0.0361,0.8899,-6.27,8.31,-0.09,24.31
22093,0.2476,-0.048,0.8883,-6.23,7.28,-0.05,24.31
22103,0.235,-0.0492,0.8872,-6.18,7.4,0.0,24.31
22113,0.2194,-0.0536,0.8956,-6.2,8.27,-0.05,24.3
22123,0.23,-0.0522,0.8781,-6.2,8.63,-0.06,24.29
22133,0.2369,-0.0498,0.8717,-6.12,7.8,-0.11,24.3
22143,0.2324,-0.048,0.8684,-6.03,6.95,-0.08,24.32
22153,0.2179,-0.0417,0.8926,-6.15,8.17,-0.06,24.32
22163,0.2456,-0.0349,0.8721,-6.17,8.18,-0.18,24.3
22173,0.2607,-0.0378,0.8602,-6.18,5.92,-0.15,24.32
22183,0.2281,-0.0444,0.884,-6.29,5.86,-0.11,24.32
22193,0.2177,-0.0463,0.9117,-6.38,9.13,0.02,24.32
22203,0.2408,-0.0549,0.8812,-6.29,8.99,0.03,24.3
22213,0.251,-0.0544,0.8665,-6.24,7.07,0.05,24.32
22223,0.2206,-0.0553,0.8903,-6.06,7.53,0.03,24.31
22233,0.2117,-0.0482,0.8979,-6.09,8.55,0.11,24.34
22243,0.2375,-0.0433,0.8674,-6.12,7.82,0.09,24.3
22253,0.2272,-0.0396,0.8815,-6.23,6.72,0.0,24.31
22263,0.2175,-0.0374,0.8966,-6.27,8.21,-0.05,24.29
22273,0.2313,-0.0408,0.8813,-6.26,8.44,-0.02,24.29
22283,0.2419,-0.0452,0.8805,-6.37,7.27,-0.12,24.29
22293,0.2375,-0.0524,0.9009,-6.29,8.2,-0.12,24.32
22303,0.2538,-0.0634,0.8871,-6.21,8.47,-0.18,24.3
22313,0.2574,-0.0626,0.8699,-6.02,7.95,-0.09,24.27
22323,0.2451,-0.0621,0.8661,-6.09,7.3,-0.09,24.33
22333,0.2299,-0.059,0.8743,-6.15,7.45,-0.02,24.32
22343,0.2137,-0.0518,0.8926,-6.24,8.38,-0.12,24.33
22353,0.2245,-0.0435,0.8798,-6.35,8.89,-0.11,24.33
22363,0.2355,-0.0474,0.8582,-6.26,6.96,-0.06,24.31
22373,0.217,-0.0415,0.8872,-6.21,6.99,-0.15,24.31
22383,0.2284,-0.0359,0.8994,-6.27,8.53,-0.23,24.3
22393,0.2609,-0.037,0.8722,-6.27,7.42,-0.15,24.29
22403,0.243,-0.0469,0.8948,-6.27,6.92,-0.17,24.31
22413,0.2375,-0.0428,0.9011,-6.29,8.95,-0.11,24.31
22423,0.2533,-0.04,0.8801,-6.34,8.37,-0.15,24.33
22433,0.2399,-0.0457,0.891,-6.37,8.87,-0.02,24.31
22443,0.2539,-0.0479,0.8582,-6.31,6.34,0.03,24.32
22453,0.2052,-0.0481,0.8949,-6.26,8.47,-0.05,24.32
22463,0.2478,-0.0446,0.8477,-6.14,7.69,0.0,24.32
22473,0.2196,-0.0403,0.8866,-6.11,5.98,-0.06,24.31
22483,0.2029,-0.0344,0.903,-6.09,9.3,-0.03,24.32
22493,0.2511,-0.0304,0.8783,-6.29,7.65,0.08,24.31
22503,0.2524,-0.035,0.8912,-6.32,6.38,-0.03,24.32
22513,0.2334,-0.045,0.9053,-6.47,7.21,0.02,24.3
22523,0.2244,-0.0555,0.9008,-6.5,9.48,0.03,24.3
22533,0.259,-0.0627,0.8621,-6.41,8.26,0.08,24.33
22543,0.2676,-0.0652,0.8553,-6.24,6.56,-0.06,24.28
22553,0.2301,-0.0667,0.8954,-6.24,6.87,-0.08,24.32
22563,0.2335,-0.0635,0.8757,-6.11,8.92,-0.09,24.3
22573,0.2416,-0.0599,0.8632,-6.02,7.39,-0.06,24.31
22583,0.2363,-0.0524,0.8788,-6.23,7.36,-0.09,24.3
22593,0.2336,-0.0535,0.8806,-6.2,7.27,-0.14,24.32
22603,0.2261,-0.0541,0.8817,-6.31,7.71,-0.05,24.31
22613,0.2339,-0.0486,0.8824,-6.29,8.2,-0.09,24.32
22623,0.2512,-0.0508,0.8699,-6.29,7.53,-0.06,24.32
22633,0.2504,-0.0508,0.8804,-6.26,6.55,-0.14,24.31
22643,0.2273,-0.0497,0.8981,-6.14,8.6,-0.09,24.34
22653,0.2393,-0.0441,0.8738,-6.05,7.76,-0.05,24.3
22663,0.2322,-0.0449,0.8829,-6.05,7.68,-0.14,24.3
22673,0.2314,-0.0464,0.8835,-6.06,7.45,-0.11,24.32
22683,0.2137,-0.0403,0.8925,-6.15,7.8,-0.09,24.31
22693,0.2162,-0.0341,0.892,-6.21,9.56,-0.08,24.3
22703,0.2587,-0.0374,0.8629,-6.27,7.07,-0.12,24.31
22713,0.2322,-0.0387,0.891,-6.24,6.55,-0.11,24.31
22723,0.2203,-0.0416,0.9038,-6.34,9.08,-0.03,24.31
22733,0.2502,-0.047,0.8732,-6.29,8.44,-0.02,24.32
22743,0.2501,-0.0513,0.873,-6.18,7.05,0.0,24.31
22753,0.235,-0.0492,0.8855,-6.09,7.07,0.03,24.3
22763,0.2236,-0.0476,0.8876,-6.15,8.87,0.08,24.3
22773,0.2441,-0.0432,0.8702,-6.18,7.5,0.06,24.32
22783,0.2268,-0.0439,0.8746,-6.11,6.81,0.02,24.31
22793,0.2091,-0.0389,0.8918,-6.17,8.44,0.02,24.3
22803,0.2399,-0.0459,0.8748,-6.21,8.02,0.02,24.32
22813,0.2413,-0.0474,0.8794,-6.29,6.63,0.0,24.32
22823,0.2247,-0.0565,0.9086,-6.23,8.15,0.0,24.3
22833,0.2446,-0.0598,0.886,-6.21,8.72,0.02,24.3
22843,0.2484,-0.062,0.8872,-6.2,7.21,-0.03,24.31
22853,0.2504,-0.0602,0.8853,-6.14,7.44,0.02,24.31
22863,0.2361,-0.0654,0.8964,-6.14,7.92,-0.02,24.33
22873,0.2349,-0.0623,0.8763,-6.23,8.47,-0.05,24.3
22883,0.2258,-0.0656,0.8744,-6.12,8.67,-0.02,24.31
22893,0.2314,-0.0621,0.8628,-6.14,7.56,-0.03,24.31
22903,0.2212,-0.054,0.8815,-6.02,7.33,-0.05,24.3
22913,0.2153,-0.0469,0.9023,-6.12,8.46,-0.14,24.33
22923,0.2422,-0.0422,0.8752,-6.2,8.43,-0.18,24.32
22933,0.2402,-0.0428,0.879,-6.18,6.92,-0.15,24.3
22943,0.2306,-0.038,0.8953,-6.18,7.97,-0.09,24.29
22953,0.2343,-0.0409,0.8984,-6.31,8.9,-0.12,24.32
22963,0.2556,-0.0389,0.8733,-6.27,7.86,-0.02,24.32
22973,0.2411,-0.0411,0.8823,-6.32,7.28,-0.09,24.3
22983,0.233,-0.0443,0.8894,-6.17,7.59,-0.17,24.3
22993,0.2134,-0.0405,0.8997,-6.11,9.33,-0.08,24.32
23003,0.2405,-0.0374,0.8687,-6.12,8.81,0.0,24.32
23013,0.2488,-0.0409,0.8594,-6.11,6.6,-0.08,24.35
23023,0.2222,-0.0433,0.88,-6.21,6.81,-0.09,24.31
23033,0.2155,-0.0402,0.8921,-6.29,9.42,0.0,24.31
23043,0.2532,-0.046,0.8604,-6.24,7.68,-0.06,24.31
23053,0.244,-0.0455,0.8766,-6.26,5.65,-0.05,24.33
23063,0.2148,-0.0515,0.9156,-6.2,8.93,-0.05,24.31
23073,0.2544,-0.0475,0.8812,-6.24,9.28,-0.12,24.33
23083,0.2649,-0.0616,0.8665,-6.24,6.37,-0.08,24.31
23093,0.2223,-0.0688,0.8865,-6.2,7.33,-0.02,24.34
23103,0.2181,-0.0652,0.8817,-6.21,9.34,0.03,24.32
23113,0.2565,-0.0599,0.8564,-6.11,6.84,0.0,24.3
23123,0.2341,-0.0543,0.8831,-6.18,6.24,-0.06,24.32
23133,0.2126,-0.0532,0.9012,-6.17,9.21,-0.09,24.31
23143,0.2443,-0.0502,0.8733,-6.17,8.21,-0.06,24.34
23153,0.2528,-0.0431,0.8671,-6.12,7.21,-0.09,24.31
23163,0.2236,-0.0466,0.9119,-6.24,7.79,-0.12,24.32
23173,0.2291,-0.0466,0.894,-6.32,9.83,-0.05,24.32
23183,0.2596,-0.0515,0.8524,-6.12,7.13,-0.14,24.32
23193,0.2227,-0.0437,0.8723,-6.21,5.94,-0.08,24.31
23203,0.2059,-0.036,0.9092,-6.06,9.07,-0.05,24.33
23213,0.2184,-0.0306,0.9114,-6.26,9.42,-0.05,24.31
23223,0.2611,-0.0317,0.8721,-6.17,6.72,-0.11,24.35
23233,0.2175,-0.0344,0.8926,-6.17,6.76,-0.09,24.32
23243,0.1945,-0.0426,0.9117,-6.27,9.1,-0.05,24.31
23254,0.2028,-0.0521,0.8987,-6.27,10.66,-0.05,24.34
23264,0.2618,-0.0551,0.8522,-6.21,7.48,-0.06,24.33
23274,0.2341,-0.0527,0.8782,-6.21,5.51,0.02,24.29
23284,0.2065,-0.0514,0.9037,-6.23,8.9,0.02,24.32
23294,0.2316,-0.049,0.8884,-6.09,9.51,0.05,24.34
23304,0.2574,-0.046,0.8674,-6.06,6.46,0.0,24.34
23314,0.2155,-0.0487,0.9072,-6.15,6.82,0.05,24.33
23324,0.2117,-0.0513,0.901,-6.32,11.18,0.02,24.3
23334,0.2751,-0.0527,0.8372,-6.27,6.12,-0.08,24.33
23345,0.257,-0.063,0.8534,-6.26,4.85,-0.02,24.33
23355,0.2069,-0.0596,0.9064,-6.27,7.83,-0.11,24.32
23365,0.233,-0.0557,0.8944,-6.29,10.41,-0.15,24.32
23375,0.2767,-0.0526,0.8527,-6.2,6.2,-0.15,24.32
23385,0.2341,-0.0553,0.8812,-6.2,5.88,-0.23,24.35
23395,0.2028,-0.0536,0.9142,-6.18,9.63,-0.06,24.34
23405,0.2523,-0.0525,0.8658,-6.11,9.34,-0.03,24.32
23415,0.257,-0.0527,0.8566,-6.2,4.2,-0.09,24.37
23425,0.1914,-0.0499,0.9121,-6.24,8.82,-0.11,24.33
23435,0.2275,-0.0472,0.8788,-6.32,9.62,-0.06,24.34
23445,0.2571,-0.0374,0.8655,-6.27,6.66,-0.26,24.33
23455,0.2395,-0.0404,0.8845,-6.17,6.15,-0.11,24.34
23465,0.2052,-0.0378,0.9122,-6.24,9.34,-0.11,24.32
23475,0.2579,-0.0372,0.8607,-6.15,9.44,-0.06,24.33
23485,0.2595,-0.0414,0.8583,-6.2,4.47,-0.06,24.33
23495,0.2045,-0.0471,0.9186,-6.26,8.6,-0.08,24.31
23505,0.2347,-0.0389,0.8893,-6.23,10.0,0.0,24.32
23515,0.2627,-0.0359,0.8583,-6.15,6.18,-0.06,24.33
23525,0.2065,-0.0426,0.8948,-6.23,6.63,-0.06,24.35
23535,0.1975,-0.045,0.9042,-6.21,10.6,-0.06,24.34
23545,0.2538,-0.0432,0.8508,-6.17,7.63,-0.11,24.31
23555,0.2363,-0.0464,0.8715,-6.15,5.22,-0.06,24.32
23565,0.2026,-0.0488,0.9169,-6.26,9.04,-0.09,24.33
23575,0.2537,-0.052,0.876,-6.18,9.6,-0.06,24.31
23585,0.2672,-0.051,0.8596,-6.2,5.54,-0.11,24.32
23595,0.2202,-0.0516,0.91,-6.2,8.34,0.03,24.32
23605,0.2495,-0.0505,0.8723,-6.24,9.66,0.05,24.34
23615,0.2607,-0.0577,0.8524,-6.24,5.5,0.11,24.33
23625,0.205,-0.0593,0.9054,-6.32,7.39,0.0,24.34
23635,0.2245,-0.0571,0.8918,-6.21,10.7,-0.11,24.32
23645,0.2632,-0.058,0.8506,-6.02,6.12,-0.11,24.32
23655,0.213,-0.0573,0.8925,-6.0,6.46,-0.15,24.33
23665,0.215,-0.0482,0.9072,-6.06,10.23,-0.11,24.34
23675,0.2721,-0.0377,0.8547,-6.21,6.7,-0.14,24.31
23685,0.2349,-0.0453,0.8942,-6.21,6.2,-0.08,24.34
23695,0.2153,-0.0444,0.8909,-6.38,8.53,0.0,24.33
23705,0.2092,-0.0471,0.8973,-6.32,9.27,-0.03,24.31
23715,0.2761,-0.0417,0.8469,-6.12,5.22,-0.15,24.34
23725,0.2161,-0.0474,0.9023,-6.06,6.93,-0.23,24.34
23735,0.2103,-0.0475,0.8977,-6.08,10.43,-0.17,24.35
23745,0.2585,-0.042,0.8558,-5.95,7.56,-0.24,24.32
23755,0.2426,-0.0364,0.8834,-6.09,5.34,-0.12,24.34
23765,0.2161,-0.0332,0.9161,-6.38,7.92,0.0,24.34
23775,0.2284,-0.0405,0.9037,-6.52,9.95,-0.02,24.33
23785,0.2701,-0.041,0.8489,-6.44,6.89,0.03,24.32
23795,0.2294,-0.0603,0.8812,-6.29,5.88,0.0,24.31
23805,0.1954,-0.0581,0.9014,-6.21,10.27,-0.08,24.35
23815,0.2485,-0.0562,0.8551,-5.97,8.7,-0.06,24.34
23825,0.2482,-0.0471,0.8672,-5.91,5.27,-0.12,24.34
23835,0.2075,-0.0394,0.9213,-6.17,8.26,-0.08,24.35
23845,0.2319,-0.0298,0.9033,-6.29,10.47,0.02,24.34
23855,0.2714,-0.041,0.864,-6.31,6.9,-0.05,24.33
23865,0.2656,-0.0504,0.847,-6.35,5.85,-0.06,24.33
23875,0.2043,-0.0645,0.8982,-6.24,9.31,-0.12,24.31
23885,0.2214,-0.0634,0.8865,-6.2,9.77,-0.06,24.34
23895,0.2585,-0.0632,0.8617,-6.08,7.69,-0.17,24.33
23905,0.2111,-0.0565,0.9003,-6.15,7.22,-0.24,24.34
23915,0.2163,-0.0438,0.8999,-6.17,10.24,-0.15,24.34
23925,0.2335,-0.0364,0.8943,-6.31,9.62,-0.12,24.33
23935,0.2668,-0.0409,0.8752,-6.27,6.7,-0.12,24.31
23945,0.2255,-0.0498,0.8939,-6.43,6.18,-0.02,24.33
23955,0.2045,-0.0608,0.9032,-6.18,10.44,-0.05,24.35
23965,0.2557,-0.0577,0.8396,-6.03,7.98,-0.08,24.34
23975,0.2455,-0.0503,0.8655,-5.98,5.39,-0.11,24.35
23985,0.2163,-0.0397,0.9128,-6.0,8.27,-0.12,24.33
23995,0.2384,-0.026,0.895,-6.31,9.19,-0.11,24.31
24005,0.2594,-0.0289,0.8752,-6.29,7.4,-0.09,24.31
24015,0.2345,-0.0409,0.8854,-6.31,6.31,-0.08,24.32
24025,0.2037,-0.0505,0.9138,-6.35,9.5,-0.02,24.33
24035,0.2419,-0.0554,0.8708,-6.32,8.75,-0.08,24.34
24045,0.2389,-0.0603,0.8676,-6.21,6.95,-0.08,24.33
24055,0.2258,-0.0564,0.8757,-6.14,7.73,-0.06,24.34
24065,0.224,-0.0524,0.8752,-6.09,7.33,-0.11,24.32
24075,0.2162,-0.0427,0.9088,-6.24,8.64,-0.08,24.34
24085,0.2589,-0.0383,0.8856,-6.24,8.34,0.0,24.34
24095,0.2555,-0.0477,0.8721,-6.2,5.4,-0.03,24.36
24105,0.201,-0.0608,0.9043,-6.35,8.84,0.02,24.34
24115,0.2344,-0.0604,0.8663,-6.18,9.56,-0.03,24.35
24125,0.2632,-0.0544,0.8477,-6.06,5.76,-0.14,24.35
24135,0.2246,-0.0465,0.8954,-6.14,6.21,-0.08,24.33
24145,0.2086,-0.0361,0.9139,-6.17,10.31,-0.08,24.32
24155,0.2626,-0.0369,0.8688,-6.18,8.26,-0.11,24.35
24165,0.2535,-0.0428,0.8744,-6.21,5.01,-0.17,24.33
24175,0.1979,-0.0542,0.9158,-6.32,9.21,-0.05,24.34
24185,0.2415,-0.0527,0.8646,-6.17,9.63,0.0,24.34
24195,0.2587,-0.0627,0.8513,-6.11,5.91,-0.02,24.36
24205,0.2206,-0.0598,0.8876,-6.24,6.14,-0.02,24.34
24215,0.2034,-0.052,0.9061,-6.09,10.49,-0.03,24.34
24225,0.2573,-0.0417,0.8708,-6.08,8.17,-0.12,24.36
24235,0.2455,-0.0415,0.8829,-6.08,6.24,-0.12,24.34
24245,0.2113,-0.0399,0.9081,-6.21,8.49,-0.12,24.31
24255,0.2317,-0.0457,0.8813,-6.15,8.69,-0.06,24.31
24265,0.2355,-0.0464,0.8781,-6.18,7.33,-0.02,24.34
24286,0.2333,-0.0505,0.8778,-6.14,8.05,-0.06,24.34
24296,0.2351,-0.0493,0.8729,-6.23,7.94,-0.03,24.34
24306,0.2435,-0.0442,0.8683,-6.14,7.21,-0.11,24.34
24316,0.226,-0.0431,0.8962,-6.32,7.54,-0.09,24.34
24326,0.2322,-0.0435,0.9009,-6.35,8.32,-0.03,24.34
24336,0.2449,-0.0485,0.887,-6.26,7.15,-0.09,24.33
24346,0.2152,-0.0594,0.897,-6.21,8.41,-0.06,24.35
24356,0.2264,-0.0598,0.8875,-6.2,9.53,0.0,24.34
24366,0.2559,-0.0559,0.8529,-6.09,7.44,-0.02,24.34
24376,0.2269,-0.0535,0.8822,-6.26,6.23,-0.12,24.31
24386,0.2124,-0.0472,0.8818,-6.18,9.37,-0.03,24.33
24396,0.2368,-0.0393,0.8712,-6.17,7.95,-0.02,24.34
24406,0.2419,-0.0376,0.8834,-6.17,7.45,-0.05,24.35
24416,0.2421,-0.0405,0.8896,-6.14,7.34,-0.03,24.35
24426,0.2295,-0.0417,0.8951,-6.27,7.56,-0.05,24.34
24436,0.2417,-0.0465,0.886,-6.21,8.09,-0.02,24.34
24446,0.2362,-0.0498,0.8922,-6.26,6.64,0.03,24.35
24456,0.2153,-0.0541,0.9016,-6.23,8.53,0.0,24.32
24466,0.2299,-0.052,0.8854,-6.27,8.89,-0.06,24.34
24476,0.2399,-0.0509,0.8719,-6.15,7.82,-0.09,24.36
24486,0.2427,-0.0446,0.8708,-5.98,6.9,0.02,24.36
24497,0.2449,-0.0455,0.8789,-6.14,7.94,-0.08,24.36
24507,0.2368,-0.0492,0.8878,-6.24,7.28,-0.11,24.33
24517,0.225,-0.0496,0.8925,-6.24,8.35,-0.05,24.34
24527,0.2441,-0.0474,0.8674,-6.2,7.98,-0.02,24.34
24537,0.2423,-0.0533,0.8717,-6.31,6.72,-0.02,24.35
24547,0.2268,-0.0536,0.8821,-6.21,7.59,-0.09,24.34
24557,0.2286,-0.0485,0.8884,-6.23,8.55,0.02,24.38
24567,0.2458,-0.047,0.8619,-6.11,7.48,0.0,24.33
24577,0.2485,-0.0454,0.8613,-6.08,6.34,-0.03,24.36
24587,0.2157,-0.0371,0.9066,-6.18,7.45,-0.05,24.34
24597,0.2328,-0.033,0.9045,-6.26,9.37,0.06,24.36
24607,0.257,-0.0352,0.882,-6.43,7.33,0.0,24.34
24617,0.2428,-0.0472,0.8868,-6.32,6.49,0.06,24.35
24627,0.2113,-0.0549,0.9058,-6.32,8.76,0.08,24.34
24637,0.2346,-0.0609,0.879,-6.17,10.35,0.12,24.35
24647,0.261,-0.0593,0.845,-6.05,5.74,0.06,24.35
24657,0.1992,-0.0615,0.8916,-6.05,7.4,0.03,24.34
24667,0.219,-0.0476,0.8812,-6.08,9.76,0.03,24.34
24677,0.2493,-0.0405,0.8634,-6.0,6.79,0.0,24.34
24687,0.2253,-0.0358,0.8962,-6.34,6.9,0.0,24.34
24697,0.2188,-0.0413,0.9012,-6.38,9.13,0.06,24.33
24707,0.2478,-0.0439,0.8834,-6.41,8.38,-0.02,24.32
24717,0.2559,-0.0502,0.8743,-6.38,6.67,-0.08,24.34
24727,0.2227,-0.0587,0.9048,-6.27,8.05,-0.08,24.33
24737,0.2332,-0.0607,0.894,-6.34,9.42,-0.09,24.33
24747,0.2488,-0.0625,0.8663,-6.03,8.08,-0.15,24.35
24757,0.2339,-0.054,0.8749,-6.02,6.99,-0.18,24.35
24767,0.2319,-0.0533,0.8765,-5.95,7.76,-0.17,24.34
24777,0.2281,-0.0481,0.8818,-6.23,7.25,-0.15,24.34
24787,0.2253,-0.0447,0.88,-6.27,8.05,-0.02,24.34
24797,0.2366,-0.0413,0.8713,-6.2,7.37,-0.12,24.31
24807,0.2274,-0.0421,0.8859,-6.26,7.56,-0.11,24.34
24817,0.235,-0.0463,0.8917,-6.27,8.5,-0.06,24.33
24827,0.252,-0.047,0.8794,-6.26,7.18,-0.21,24.34
24837,0.2283,-0.0509,0.8932,-6.12,7.11,-0.21,24.33
24847,0.2222,-0.0502,0.9017,-6.17,9.3,-0.12,24.32
24857,0.2538,-0.0444,0.8761,-6.14,7.66,-0.03,24.34
24867,0.2372,-0.0436,0.881,-6.21,6.81,0.0,24.36
24877,0.2184,-0.0465,0.8939,-6.23,8.55,-0.03,24.37
24887,0.2336,-0.0471,0.873,-6.26,8.35,-0.03,24.33
24897,0.2339,-0.0507,0.8752,-6.17,7.65,-0.09,24.35
24907,0.2379,-0.05,0.8668,-6.18,7.1,0.02,24.34
24917,0.2244,-0.0505,0.8842,-6.17,7.57,-0.09,24.35
24927,0.2341,-0.0496,0.882,-6.09,8.37,-0.08,24.36
24937,0.2352,-0.0493,0.884,-6.12,7.36,-0.03,24.34
24947,0.2274,-0.042,0.9005,-6.26,8.15,-0.05,24.34
24957,0.2478,-0.0424,0.8843,-6.27,7.98,-0.09,24.34
24967,0.2419,-0.0481,0.8827,-6.27,6.85,-0.05,24.37
24977,0.2296,-0.0549,0.8882,-6.23,7.94,-0.05,24.36
24987,0.2294,-0.0599,0.8942,-6.23,8.56,-0.05,24.35
24997,0.2362,-0.0569,0.8767,-6.05,8.63,-0.02,24.33
25007,0.2345,-0.0551,0.8783,-6.06,7.59,-0.14,24.34
25017,0.2252,-0.0515,0.8794,-6.05,7.92,0.02,24.35
25027,0.2255,-0.0464,0.8756,-6.11,7.85,-0.02,24.34
25037,0.2277,-0.0422,0.8771,-6.18,7.83,-0.05,24.34
25047,0.2341,-0.041,0.8699,-6.18,7.51,-0.09,24.34
25057,0.2367,-0.0394,0.8833,-6.24,7.18,0.02,24.36
25067,0.2368,-0.0424,0.8887,-6.17,7.47,-0.14,24.37
25077,0.233,-0.0414,0.897,-6.29,7.31,-0.21,24.36
25087,0.2321,-0.0454,0.8975,-6.21,8.67,-0.11,24.34
25097,0.2407,-0.0463,0.8831,-6.21,7.94,-0.11,24.33
25107,0.2307,-0.0477,0.8911,-6.18,8.06,-0.06,24.34
25117,0.2358,-0.0526,0.8734,-6.08,8.06,-0.05,24.37
25127,0.2316,-0.051,0.8708,-6.15,7.36,0.02,24.37
25137,0.2317,-0.0491,0.869,-6.17,7.39,-0.02,24.33
25147,0.2264,-0.0436,0.8727,-6.09,7.16,-0.06,24.34
25157,0.2197,-0.038,0.8982,-6.17,8.26,-0.03,24.32
25167,0.2418,-0.0347,0.8909,-6.15,8.63,-0.06,24.36
25177,0.256,-0.0387,0.89,-6.24,7.04,-0.11,24.33
25187,0.24,-0.0454,0.8992,-6.37,7.11,-0.03,24.35
25197,0.2284,-0.0541,0.8999,-6.23,7.82,0.03,24.37
25207,0.2424,-0.0594,0.8708,-6.2,8.05,0.02,24.39
25217,0.238,-0.0596,0.8694,-6.09,7.69,-0.05,24.37
25227,0.2209,-0.0483,0.8807,-6.0,7.62,0.0,24.36
25237,0.2305,-0.0414,0.8743,-5.97,8.06,-0.14,24.34
25247,0.2437,-0.0334,0.8666,-6.05,7.56,-0.09,24.37
25257,0.2313,-0.0332,0.8868,-6.14,6.61,-0.11,24.34
25267,0.2196,-0.0397,0.8918,-6.24,8.31,-0.09,24.37
25277,0.2332,-0.0468,0.8893,-6.4,8.15,-0.06,24.34
25287,0.2437,-0.0559,0.8851,-6.29,8.23,-0.08,24.37
25297,0.2491,-0.0656,0.8741,-6.34,6.85,-0.15,24.35
25307,0.2228,-0.0656,0.8998,-6.24,8.34,-0.2,24.37
25317,0.2439,-0.0638,0.882,-6.11,8.81,-0.15,24.36
25327,0.2393,-0.0568,0.8912,-6.23,7.36,-0.11,24.35
25337,0.2218,-0.0559,0.9019,-6.21,8.26,-0.05,24.37
25347,0.2238,-0.0494,0.8835,-6.18,8.84,-0.03,24.36
25357,0.2285,-0.0507,0.8715,-6.23,8.55,-0.11,24.35
25367,0.2377,-0.0515,0.8665,-6.18,7.27,-0.06,24.36
25377,0.2295,-0.0511,0.877,-6.18,7.48,-0.15,24.36
25387,0.2391,-0.0422,0.8778,-6.11,7.57,-0.18,24.37
25397,0.2474,-0.0343,0.8798,-6.12,7.36,-0.14,24.32
25407,0.2498,-0.0385,0.8837,-6.26,7.07,-0.23,24.36
25417,0.2365,-0.0369,0.8914,-6.27,7.62,-0.15,24.37
25427,0.2301,-0.0403,0.8969,-6.27,8.9,-0.06,24.35
25437,0.2571,-0.0443,0.8683,-6.31,6.93,-0.11,24.35
25447,0.2271,-0.0419,0.8923,-6.29,7.34,-0.06,24.34
25457,0.2281,-0.0447,0.8802,-6.31,8.66,-0.06,24.36
25467,0.2417,-0.0479,0.8639,-6.15,6.98,-0.11,24.36
25477,0.2186,-0.0503,0.8912,-6.09,7.73,-0.06,24.35
25487,0.2357,-0.0391,0.8878,-6.23,8.56,-0.05,24.34
25497,0.2515,-0.0385,0.8789,-6.23,7.97,0.03,24.36
25507,0.2549,-0.0439,0.8778,-6.29,6.78,0.03,24.35
25517,0.2286,-0.0502,0.8918,-6.29,7.66,0.08,24.36
25527,0.2286,-0.0535,0.8789,-6.27,8.93,0.14,24.37
25538,0.2412,-0.0513,0.8586,-6.15,8.31,0.05,24.34
25548,0.2341,-0.0591,0.8821,-6.14,6.67,0.03,24.35
25558,0.2188,-0.0505,0.8884,-6.08,8.05,-0.02,24.37
25568,0.2325,-0.0468,0.8835,-6.08,8.26,-0.03,24.36
25578,0.2463,-0.0388,0.8765,-6.09,6.67,-0.08,24.34
25588,0.2401,-0.0403,0.8971,-6.23,6.35,-0.02,24.37
25598,0.2289,-0.0408,0.9049,-6.4,6.35,0.03,24.35
25608,0.2424,-0.0537,0.8821,-6.43,10.02,0.09,24.38
25618,0.246,-0.0651,0.8689,-6.24,7.24,-0.03,24.36
25628,0.2318,-0.0638,0.8865,-6.24,7.76,-0.09,24.36
25638,0.2318,-0.0546,0.886,-6.18,8.24,-0.09,24.37
25648,0.2346,-0.052,0.8687,-6.11,7.34,-0.03,24.34
25658,0.2174,-0.0471,0.8981,-6.05,8.23,-0.05,24.35
25668,0.2247,-0.0396,0.8834,-6.15,8.84,0.0,24.35
25678,0.2445,-0.0414,0.8641,-6.15,6.64,0.05,24.35
25688,0.2151,-0.0394,0.8877,-6.32,6.99,-0.03,24.33
25698,0.2032,-0.0436,0.8931,-6.34,8.11,-0.03,24.35
25708,0.254,-0.0441,0.8619,-6.32,8.29,0.0,24.36
25718,0.2533,-0.0511,0.8732,-6.21,6.03,-0.05,24.38
25728,0.2184,-0.0474,0.9077,-6.18,8.34,-0.11,24.34
25738,0.2437,-0.0453,0.8871,-6.23,9.25,-0.02,24.35
25748,0.2681,-0.0441,0.8678,-6.17,6.05,-0.02,24.36
25758,0.2267,-0.046,0.9106,-6.23,7.51,0.02,24.38
25768,0.2247,-0.0515,0.8885,-6.27,9.74,0.08,24.35
25778,0.2443,-0.053,0.8555,-6.37,7.33,0.05,24.35
25788,0.2192,-0.0559,0.8745,-6.21,6.92,0.02,24.33
25798,0.2233,-0.0509,0.8768,-6.12,8.03,-0.03,24.35
25808,0.2394,-0.0424,0.8857,-6.2,7.71,-0.11,24.35
25818,0.2443,-0.0436,0.8788,-6.15,7.34,-0.17,24.36
25828,0.2386,-0.0502,0.8827,-6.21,7.48,-0.12,24.37
25838,0.2318,-0.0564,0.8958,-6.26,7.94,-0.06,24.34
25848,0.236,-0.0612,0.8833,-6.27,8.29,-0.05,24.38
25859,0.2368,-0.0645,0.8744,-6.2,7.25,0.0,24.37
25869,0.2205,-0.0604,0.8846,-6.23,8.9,-0.06,24.35
25879,0.2262,-0.0568,0.8768,-6.15,8.31,-0.15,24.36
25889,0.238,-0.0425,0.8959,-6.18,7.31,-0.15,24.35
25899,0.2408,-0.0282,0.8859,-6.26,7.6,-0.12,24.37
25909,0.244,-0.0348,0.8838,-6.26,6.72,-0.11,24.37
25919,0.2163,-0.0433,0.9037,-6.26,7.63,-0.08,24.37
25929,0.2245,-0.0502,0.8986,-6.27,9.79,-0.18,24.36
25939,0.2684,-0.0457,0.8531,-6.17,6.87,-0.05,24.37
25949,0.2356,-0.0571,0.8707,-6.06,6.15,-0.14,24.35
25959,0.214,-0.0565,0.8777,-6.0,7.92,-0.08,24.35
25969,0.22,-0.0397,0.8872,-6.06,8.4,-0.08,24.37
25979,0.2386,-0.031,0.8831,-6.15,8.63,-0.09,24.36
25989,0.2518,-0.0341,0.8715,-6.18,7.25,-0.06,24.37
25999,0.2371,-0.0417,0.8805,-6.26,6.6,-0.09,24.38
26009,0.2146,-0.0488,0.8983,-6.34,8.31,-0.03,24.35
26019,0.2278,-0.05,0.8977,-6.29,9.08,0.06,24.35
26029,0.254,-0.058,0.866,-6.23,7.42,-0.05,24.36
26039,0.2301,-0.0569,0.8827,-6.2,6.53,-0.12,24.35
26049,0.2131,-0.0508,0.8857,-5.98,9.01,-0.02,24.37
26059,0.2386,-0.0453,0.8723,-6.09,8.14,-0.02,24.36
26069,0.2423,-0.0377,0.8763,-6.2,7.02,-0.02,24.37
26079,0.2336,-0.0399,0.8877,-6.26,7.42,-0.09,24.35
26089,0.2382,-0.0413,0.8856,-6.29,8.21,-0.06,24.35
26099,0.2501,-0.0511,0.8767,-6.24,6.95,-0.03,24.37
26109,0.2269,-0.0597,0.8834,-6.18,7.47,-0.17,24.41
26119,0.2297,-0.0645,0.8854,-6.23,7.98,-0.14,24.35
26129,0.2317,-0.0625,0.8799,-6.03,8.18,-0.11,24.36
26139,0.2379,-0.0543,0.8787,-6.12,7.59,-0.14,24.36
26149,0.2313,-0.0505,0.8839,-6.06,7.5,-0.08,24.37
26159,0.2209,-0.04,0.8962,-6.23,8.47,-0.05,24.37
26169,0.2494,-0.038,0.8815,-6.32,8.14,0.03,24.36
26179,0.2623,-0.0426,0.8669,-6.23,6.17,-0.12,24.38
26189,0.2196,-0.051,0.8999,-6.23,6.9,-0.17,24.37
26199,0.2164,-0.0529,0.8903,-6.17,10.06,-0.14,24.38
26209,0.256,-0.0541,0.8523,-6.03,7.27,-0.03,24.36
26219,0.2179,-0.0464,0.8846,-6.12,6.15,-0.14,24.39
26229,0.2068,-0.0371,0.9226,-6.26,9.88,-0.03,24.38
26239,0.2694,-0.0334,0.8708,-6.27,8.44,-0.06,24.39
26249,0.2405,-0.0408,0.8784,-6.27,5.45,-0.09,24.39
26259,0.1941,-0.0536,0.9028,-6.14,9.63,0.05,24.38
26269,0.2397,-0.0538,0.855,-6.12,8.72,-0.02,24.36
26279,0.2566,-0.0496,0.8553,-6.12,7.45,0.06,24.37
26289,0.2223,-0.0432,0.9056,-6.24,7.34,-0.03,24.34
26299,0.2264,-0.0422,0.9069,-6.29,9.47,0.0,24.37
26309,0.2598,-0.0425,0.8651,-6.14,7.82,-0.03,24.36
26319,0.2429,-0.0447,0.8842,-6.21,5.91,-0.02,24.35
26329,0.2079,-0.047,0.9078,-6.35,9.77,0.02,24.37
26339,0.2546,-0.0524,0.859,-6.24,9.13,0.0,24.35
26349,0.2605,-0.0568,0.8484,-6.21,4.5,-0.11,24.39
26359,0.1938,-0.0524,0.9207,-6.24,8.82,-0.06,24.37
26369,0.2477,-0.0463,0.8824,-6.27,9.54,0.02,24.35
26379,0.2635,-0.0525,0.8586,-6.24,4.96,-0.11,24.36
26389,0.1952,-0.0569,0.9128,-6.18,8.12,-0.12,24.38
26399,0.2163,-0.0549,0.8929,-6.15,9.39,-0.03,24.37
26409,0.2435,-0.0435,0.8762,-6.23,8.79,-0.08,24.37
26419,0.2582,-0.0477,0.8657,-6.11,5.45,-0.08,24.36
26429,0.1896,-0.0468,0.9229,-6.29,9.42,-0.05,24.37
26439,0.2583,-0.0464,0.8733,-6.17,9.6,-0.02,24.36
26449,0.264,-0.0457,0.866,-6.21,4.55,-0.08,24.34
26459,0.1888,-0.0513,0.9224,-6.31,9.85,-0.06,24.36
26469,0.2473,-0.0483,0.8571,-6.2,9.4,-0.05,24.36
26479,0.2545,-0.0485,0.8495,-6.09,5.37,-0.09,24.37
26489,0.2101,-0.0414,0.908,-6.26,7.02,-0.06,24.36
26499,0.2179,-0.0396,0.9073,-6.37,10.89,0.0,24.35
26509,0.2703,-0.0419,0.8534,-6.29,6.89,-0.05,24.37
26519,0.2672,-0.0472,0.8545,-6.23,4.72,-0.11,24.36
26529,0.1981,-0.051,0.9059,-6.24,10.81,0.0,24.36
26539,0.2728,-0.0508,0.8466,-6.11,7.34,-0.11,24.37
26549,0.2357,-0.0514,0.8842,-6.18,5.22,-0.11,24.37
26559,0.2108,-0.0481,0.9111,-6.21,7.59,-0.05,24.34
26569,0.2266,-0.0443,0.8951,-6.31,10.64,-0.03,24.35
26579,0.2781,-0.0444,0.8501,-6.15,6.14,0.05,24.37
26589,0.2196,-0.0537,0.8888,-6.27,6.21,-0.02,24.35
26599,0.2012,-0.0555,0.8975,-6.27,10.79,-0.08,24.37
26609,0.2633,-0.0491,0.8402,-6.12,6.29,0.0,24.37
26619,0.2141,-0.0449,0.9034,-6.23,5.89,-0.15,24.36
26629,0.2025,-0.0405,0.9233,-6.34,11.24,-0.06,24.35
26639,0.2742,-0.0453,0.8528,-6.18,7.15,-0.08,24.37
26649,0.2246,-0.0492,0.8896,-6.26,5.62,0.0,24.36
26659,0.2104,-0.0487,0.9008,-6.24,9.89,0.02,24.36
26669,0.2625,-0.0437,0.8585,-6.17,7.76,-0.06,24.36
26679,0.2462,-0.0447,0.8757,-6.24,5.25,-0.03,24.35
26689,0.2146,-0.0455,0.912,-6.31,8.52,-0.06,24.38
26699,0.2416,-0.041,0.8876,-6.21,9.65,-0.08,24.34
26709,0.2643,-0.0447,0.8596,-6.23,6.34,-0.06,24.37
26719,0.2144,-0.0485,0.8916,-6.14,6.79,-0.12,24.38
26729,0.2106,-0.0522,0.9012,-6.15,9.92,-0.08,24.34
26739,0.2642,-0.0524,0.8481,-6.15,6.73,-0.15,24.37
26749,0.2177,-0.0499,0.9044,-6.23,6.4,-0.12,24.35
26759,0.2216,-0.0452,0.9019,-6.32,10.35,-0.08,24.35
26769,0.2667,-0.0464,0.8566,-6.2,7.01,-0.08,24.37
26779,0.2238,-0.051,0.8898,-6.29,6.24,-0.08,24.37
26789,0.2097,-0.0544,0.8975,-6.18,10.15,-0.05,24.39
26799,0.257,-0.0509,0.8557,-6.27,7.85,-0.09,24.39
26809,0.2467,-0.054,0.87,-6.15,5.8,-0.2,24.37
26819,0.2031,-0.0491,0.9095,-6.31,8.24,-0.15,24.39
26829,0.2274,-0.0416,0.8979,-6.35,10.96,-0.08,24.36
26839,0.2751,-0.0432,0.842,-6.2,5.15,-0.12,24.36
26849,0.2123,-0.0461,0.9088,-6.29,7.01,-0.17,24.39
26859,0.2257,-0.0511,0.8988,-6.34,10.47,-0.11,24.35
26869,0.2709,-0.0487,0.8427,-6.11,6.17,-0.09,24.38
26879,0.2317,-0.0536,0.8798,-6.14,5.83,-0.02,24.37
26889,0.2114,-0.0437,0.9059,-6.21,8.87,-0.03,24.34
26899,0.2538,-0.0383,0.8865,-6.23,9.48,-0.06,24.36
26909,0.2705,-0.0425,0.8586,-6.17,5.31,-0.02,24.37
26919,0.2417,-0.0438,0.8699,-6.21,5.21,-0.03,24.38
26929,0.2213,-0.0437,0.8855,-6.17,10.32,0.03,24.36
26939,0.257,-0.043,0.8582,-6.14,8.69,0.0,24.39
26949,0.2123,-0.0439,0.9111,-6.23,6.7,-0.06,24.39
26959,0.2186,-0.0421,0.905,-6.29,10.17,-0.03,24.38
26969,0.2726,-0.0465,0.8556,-6.17,6.44,-0.14,24.4
26979,0.2195,-0.0518,0.8905,-6.12,6.24,-0.09,24.36
26989,0.2083,-0.0531,0.9022,-6.11,10.12,0.06,24.38
26999,0.264,-0.052,0.8518,-6.09,7.39,-0.02,24.37
27009,0.2324,-0.0555,0.8859,-6.11,5.69,-0.03,24.38
27019,0.2073,-0.0529,0.9093,-6.2,9.39,0.0,24.39
27029,0.2498,-0.0483,0.8789,-6.21,8.93,-0.05,24.38
27039,0.2587,-0.0542,0.8752,-6.18,5.85,-0.06,24.39
27049,0.2072,-0.061,0.9015,-6.12,8.03,-0.03,24.37
27059,0.204,-0.0568,0.9011,-6.23,9.31,-0.02,24.37
27069,0.2555,-0.0531,0.8593,-6.17,7.16,-0.02,24.37
27079,0.238,-0.0494,0.8872,-6.15,6.95,-0.06,24.37
27089,0.2218,-0.0477,0.8938,-6.26,7.6,-0.06,24.4
27099,0.217,-0.0463,0.9025,-6.24,9.42,0.0,24.38
27109,0.2543,-0.0405,0.873,-6.14,8.15,-0.08,24.37
27119,0.2528,-0.0453,0.8849,-6.17,6.03,-0.11,24.37
27129,0.2126,-0.0531,0.8994,-6.29,7.88,-0.11,24.38
27139,0.2197,-0.0559,0.881,-6.12,10.46,-0.18,24.38
27149,0.2616,-0.0525,0.8406,-6.18,6.27,-0.11,24.37
27159,0.2212,-0.0466,0.8923,-6.17,6.17,-0.21,24.36
27169,0.2114,-0.0454,0.9186,-6.34,10.17,-0.17,24.35
27179,0.238,-0.0444,0.9033,-6.31,9.8,-0.17,24.37
27189,0.2439,-0.0536,0.8705,-6.15,5.83,-0.2,24.38
27199,0.222,-0.0551,0.89,-6.14,6.5,-0.12,24.39
27209,0.2098,-0.0546,0.9005,-6.03,9.02,-0.08,24.38
27219,0.2491,-0.0475,0.8806,-6.15,8.53,-0.06,24.39
27229,0.2555,-0.0465,0.8708,-6.21,6.37,-0.05,24.4
27239,0.2161,-0.0479,0.8914,-6.18,7.15,-0.11,24.37
27249,0.2144,-0.0461,0.8932,-6.14,9.65,-0.06,24.35
27259,0.2528,-0.0367,0.8735,-6.17,7.25,-0.09,24.36
27269,0.2422,-0.0381,0.8921,-6.17,6.6,-0.12,24.37
27279,0.2174,-0.046,0.903,-6.31,8.69,-0.08,24.38
27289,0.235,-0.0524,0.8662,-6.12,8.87,-0.17,24.38
27299,0.2424,-0.0524,0.8512,-6.06,6.24,-0.14,24.37
27309,0.21,-0.047,0.8994,-6.15,7.79,-0.09,24.39
27319,0.2384,-0.0411,0.8903,-6.29,9.44,-0.15,24.39
27329,0.2565,-0.0411,0.8718,-6.43,6.06,-0.06,24.37
27339,0.2067,-0.0413,0.9167,-6.26,8.15,-0.14,24.36
27349,0.234,-0.0551,0.8927,-6.17,10.17,-0.11,24.39
