t_ms,accel_x_g,accel_y_g,accel_z_g,gyro_x_dps,gyro_y_dps,gyro_z_dps,imu_temp_c
3284,0.3276,-0.0271,0.8672,-6.67,7.94,-0.06,29.94
3295,0.3263,-0.0256,0.8672,-6.7,7.97,0.02,29.95
3305,0.3275,-0.0266,0.8654,-6.7,7.92,-0.03,29.96
3315,0.3275,-0.0282,0.8643,-6.81,7.94,-0.11,29.94
3325,0.3265,-0.0248,0.8638,-6.69,7.94,-0.08,29.97
3335,0.325,-0.0251,0.8633,-6.64,8.0,-0.05,29.94
3345,0.3275,-0.0255,0.8645,-6.73,7.89,-0.09,29.97
3355,0.3285,-0.0256,0.8663,-6.75,7.94,-0.09,29.96
3365,0.3252,-0.0244,0.8625,-6.72,8.02,-0.08,29.95
3375,0.3275,-0.0265,0.8644,-6.75,8.02,-0.11,29.97
3385,0.3284,-0.0253,0.859,-6.81,7.94,-0.06,29.97
3395,0.3286,-0.0265,0.8634,-6.67,7.98,-0.06,29.98
3405,0.3293,-0.0265,0.8676,-6.66,7.97,-0.08,29.98
3415,0.3281,-0.0233,0.8628,-6.79,7.97,-0.02,29.98
3425,0.3278,-0.0269,0.8658,-6.79,7.98,-0.03,29.96
3435,0.3282,-0.0251,0.8661,-6.78,8.02,-0.06,29.95
3445,0.3276,-0.0251,0.8654,-6.75,7.97,-0.02,29.95
3455,0.3312,-0.024,0.8643,-6.7,7.91,-0.09,29.96
3465,0.3281,-0.0247,0.8595,-6.81,7.97,0.0,29.96
3475,0.3287,-0.0249,0.8629,-6.81,8.02,-0.09,29.97
3486,0.3258,-0.0259,0.8635,-6.76,7.95,-0.08,29.98
3496,0.3264,-0.0255,0.8632,-6.73,7.92,-0.08,29.98
3506,0.326,-0.0233,0.8665,-6.78,8.05,-0.03,30.01
3516,0.3285,-0.0251,0.8613,-6.79,8.0,0.03,29.97
3526,0.3264,-0.0231,0.8652,-6.76,7.95,0.0,29.98
3536,0.3259,-0.0238,0.8613,-6.79,7.98,-0.02,29.98
3546,0.3289,-0.0249,0.8633,-6.76,8.06,-0.03,29.97
3556,0.3265,-0.0244,0.8633,-6.76,8.05,-0.08,29.99
3566,0.3304,-0.0269,0.8617,-6.72,8.0,-0.11,29.99
3576,0.3278,-0.0232,0.8665,-6.67,7.95,-0.08,29.98
3586,0.327,-0.0227,0.8635,-6.67,7.98,-0.05,29.98
3596,0.3274,-0.0275,0.8652,-6.66,7.91,0.03,29.96
3606,0.3274,-0.0233,0.865,-6.69,7.97,0.0,29.97
3616,0.3285,-0.0245,0.8619,-6.75,7.95,-0.11,29.98
3626,0.3292,-0.0261,0.8606,-6.75,7.89,-0.05,29.98
3636,0.3281,-0.0271,0.8646,-6.76,7.89,0.0,29.99
3646,0.3291,-0.0243,0.8649,-6.7,8.0,-0.11,29.98
3656,0.3256,-0.0247,0.8665,-6.75,8.0,-0.06,29.99
3666,0.3265,-0.0229,0.8669,-6.81,7.95,-0.06,29.97
3676,0.327,-0.0265,0.8634,-6.7,7.91,-0.09,29.98
3686,0.3291,-0.0261,0.863,-6.67,7.95,-0.06,29.98
3696,0.3281,-0.0284,0.8647,-6.72,7.97,0.02,29.98
3706,0.3293,-0.0272,0.8666,-6.73,7.94,-0.03,29.98
3716,0.3258,-0.0291,0.8672,-6.73,8.0,-0.12,29.98
3726,0.3269,-0.0281,0.8658,-6.76,8.0,-0.05,29.98
3736,0.3278,-0.0237,0.8644,-6.75,7.98,0.0,29.98
3746,0.3263,-0.0272,0.8615,-6.7,8.0,0.02,30.01
3756,0.3267,-0.0272,0.8651,-6.72,7.92,-0.02,29.99
3766,0.3276,-0.0255,0.8633,-6.75,7.97,-0.03,29.99
3776,0.3278,-0.0245,0.8663,-6.72,7.97,-0.05,30.0
3786,0.3291,-0.0269,0.8629,-6.78,7.89,0.02,30.0
3796,0.3251,-0.0298,0.8628,-6.75,7.97,0.0,29.99
3806,0.3287,-0.0216,0.8671,-6.78,7.89,-0.03,30.0
3816,0.3271,-0.0258,0.8647,-6.75,7.92,-0.06,30.0
3826,0.3251,-0.0231,0.8677,-6.79,7.95,-0.02,30.01
3836,0.3293,-0.0262,0.8646,-6.67,7.92,-0.02,30.02
3846,0.3265,-0.0273,0.8668,-6.7,8.0,-0.03,30.01
3856,0.3301,-0.025,0.8611,-6.76,7.94,-0.03,30.01
3866,0.3285,-0.0253,0.865,-6.73,7.95,-0.03,30.01
3876,0.3257,-0.0244,0.8662,-6.67,7.97,-0.08,29.98
3886,0.3258,-0.0267,0.8667,-6.72,7.92,-0.02,29.98
3896,0.3285,-0.0264,0.8652,-6.72,7.98,-0.05,30.01
3906,0.3296,-0.0243,0.8641,-6.76,7.98,-0.12,30.02
3916,0.3285,-0.0248,0.8635,-6.75,8.05,-0.09,30.02
3926,0.3273,-0.0242,0.868,-6.72,7.98,-0.11,30.01
3936,0.3307,-0.0269,0.8652,-6.67,7.98,-0.02,30.01
3946,0.3267,-0.025,0.8628,-6.7,8.02,0.03,30.0
3956,0.3275,-0.0249,0.8694,-6.73,8.03,-0.02,29.99
3966,0.3289,-0.0262,0.8654,-6.78,8.0,-0.11,29.97
3976,0.3284,-0.0227,0.863,-6.7,7.88,-0.03,29.99
3986,0.3262,-0.0262,0.863,-6.69,7.91,-0.05,29.98
3997,0.3289,-0.0271,0.8688,-6.72,7.95,-0.05,30.01
4007,0.3234,-0.0243,0.8663,-6.72,7.94,-0.02,30.01
4017,0.3267,-0.0266,0.8651,-6.67,8.0,-0.11,30.02
4027,0.3264,-0.0242,0.8629,-6.76,7.98,-0.05,29.99
4037,0.3307,-0.0254,0.8652,-6.69,8.02,-0.12,29.99
4047,0.3302,-0.0244,0.8701,-6.69,7.98,-0.03,30.0
4057,0.3269,-0.0234,0.8651,-6.73,7.97,-0.05,30.02
4067,0.3268,-0.026,0.8661,-6.76,7.94,-0.02,30.02
4077,0.3303,-0.0244,0.8641,-6.79,7.94,-0.08,30.03
4087,0.3311,-0.0255,0.8647,-6.73,7.95,-0.03,29.99
4097,0.3291,-0.0243,0.8645,-6.72,7.97,0.02,30.03
4107,0.3269,-0.0243,0.8611,-6.73,7.98,0.02,29.99
4117,0.3306,-0.0234,0.866,-6.76,7.94,-0.05,29.99
4127,0.3298,-0.0261,0.8641,-6.78,7.98,-0.03,30.01
4137,0.3246,-0.0248,0.8679,-6.69,7.92,-0.05,30.02
4147,0.3274,-0.0236,0.8646,-6.73,7.97,0.02,29.99
4157,0.3308,-0.0291,0.8639,-6.78,7.92,-0.09,29.99
4167,0.3289,-0.0243,0.8643,-6.84,7.94,-0.06,30.02
4177,0.3287,-0.025,0.8617,-6.81,7.92,0.0,30.02
4187,0.328,-0.0275,0.8634,-6.73,7.98,0.03,30.01
4197,0.3263,-0.0238,0.8652,-6.78,8.02,0.0,29.99
4207,0.3265,-0.0259,0.8633,-6.69,7.98,-0.03,30.01
4217,0.326,-0.0248,0.8627,-6.72,8.06,-0.06,30.02
4227,0.3271,-0.0232,0.8629,-6.73,7.95,-0.11,30.02
4237,0.3296,-0.027,0.8638,-6.72,8.02,-0.03,30.01
4247,0.3275,-0.0244,0.8656,-6.73,7.98,-0.02,30.01
4257,0.3276,-0.0254,0.8647,-6.76,7.97,-0.06,30.02
4267,0.3292,-0.0251,0.8657,-6.78,8.0,0.02,30.0
4277,0.3263,-0.0259,0.8622,-6.69,7.94,0.0,30.01
4287,0.3253,-0.0253,0.8678,-6.67,7.98,-0.06,30.01
4297,0.3262,-0.0277,0.863,-6.7,8.05,0.0,30.01
4307,0.3291,-0.026,0.8611,-6.75,7.98,0.02,30.01
4317,0.3252,-0.0255,0.8633,-6.82,7.94,0.0,30.01
4327,0.3279,-0.0253,0.8639,-6.75,7.94,-0.09,30.03
4337,0.3269,-0.0249,0.8657,-6.72,7.94,-0.08,30.0
4347,0.3292,-0.0259,0.8663,-6.79,7.98,0.06,30.0
4357,0.327,-0.0244,0.8661,-6.72,7.94,0.08,30.01
4367,0.3289,-0.0272,0.8607,-6.69,7.95,-0.02,30.02
4377,0.3276,-0.0231,0.8651,-6.75,8.02,-0.08,29.99
4387,0.3275,-0.0259,0.8625,-6.69,7.95,-0.09,30.03
4397,0.3263,-0.0249,0.8625,-6.78,8.0,-0.06,30.01
4407,0.3307,-0.0247,0.8666,-6.72,7.92,-0.03,30.03
4417,0.33,-0.0222,0.8615,-6.84,7.97,-0.05,30.02
4427,0.3284,-0.0256,0.8638,-6.72,7.95,-0.05,30.03
4437,0.3253,-0.0253,0.8665,-6.72,8.0,-0.03,30.04
4447,0.3269,-0.0239,0.8683,-6.78,7.98,0.03,30.02
4457,0.3263,-0.0259,0.8633,-6.72,8.02,-0.05,30.01
4467,0.3298,-0.0253,0.8656,-6.7,7.94,-0.05,30.01
4477,0.3306,-0.0219,0.8651,-6.76,7.95,0.0,30.02
4487,0.3291,-0.0245,0.863,-6.75,7.95,-0.02,30.01
4497,0.3269,-0.0269,0.8661,-6.7,7.95,0.02,30.04
4507,0.3291,-0.0267,0.8634,-6.79,7.98,0.0,30.01
4517,0.3281,-0.0249,0.8645,-6.73,7.98,-0.05,30.02
4527,0.3279,-0.0226,0.8627,-6.72,7.98,-0.06,30.02
4537,0.3289,-0.026,0.8668,-6.73,7.91,-0.03,30.04
4547,0.3273,-0.0261,0.8649,-6.67,8.02,-0.03,30.04
4557,0.3298,-0.0258,0.8665,-6.7,7.92,-0.06,30.03
4567,0.3309,-0.0236,0.8645,-6.81,7.97,0.02,30.0
4577,0.3257,-0.0258,0.8666,-6.78,7.92,0.0,30.02
4587,0.3303,-0.0217,0.8638,-6.7,7.94,-0.08,30.01
4597,0.3289,-0.0253,0.8639,-6.79,7.98,-0.03,30.04
4607,0.3276,-0.0265,0.8652,-6.81,7.95,-0.02,30.05
4617,0.33,-0.0237,0.8641,-6.81,7.92,-0.09,30.02
4627,0.3278,-0.0258,0.8651,-6.73,7.94,-0.05,30.02
4637,0.3291,-0.0258,0.8646,-6.75,7.85,-0.08,30.02
4647,0.329,-0.0256,0.8665,-6.81,7.95,-0.11,30.03
4657,0.327,-0.0269,0.8649,-6.73,8.03,0.0,30.04
4667,0.3284,-0.0239,0.8649,-6.7,8.02,-0.08,30.03
4677,0.3239,-0.0236,0.8644,-6.7,8.02,0.0,30.02
4687,0.327,-0.0245,0.8654,-6.72,7.91,0.06,30.04
4697,0.3275,-0.0254,0.8656,-6.82,7.89,-0.08,30.04
4707,0.3281,-0.0278,0.8682,-6.76,7.94,-0.05,30.03
4717,0.3292,-0.0251,0.8625,-6.75,8.02,0.02,30.05
4727,0.3281,-0.0254,0.8652,-6.73,7.95,-0.02,30.01
4737,0.3285,-0.0262,0.8652,-6.73,7.94,-0.08,30.03
4747,0.3293,-0.0248,0.8641,-6.78,7.97,-0.11,30.02
4757,0.3304,-0.0248,0.8639,-6.78,7.92,-0.06,30.03
4767,0.3311,-0.0262,0.866,-6.78,7.88,0.03,30.01
4777,0.3298,-0.024,0.8657,-6.79,7.97,-0.06,30.02
4787,0.3247,-0.0227,0.8671,-6.72,7.98,-0.03,30.05
4797,0.327,-0.024,0.8646,-6.76,8.0,-0.08,30.03
4807,0.3281,-0.0233,0.8608,-6.76,7.98,-0.03,30.05
4817,0.3245,-0.0232,0.8666,-6.79,7.97,-0.03,30.04
4827,0.3282,-0.0253,0.8676,-6.79,8.0,-0.08,30.03
4837,0.3303,-0.0264,0.8646,-6.79,8.05,-0.03,30.07
4847,0.3263,-0.0258,0.8671,-6.63,7.95,0.0,30.04
4857,0.3292,-0.026,0.8665,-6.73,8.02,-0.06,30.06
4867,0.3298,-0.0256,0.8657,-6.76,7.91,-0.08,30.05
4877,0.3263,-0.0253,0.8636,-6.79,7.98,0.02,30.06
4887,0.3267,-0.0282,0.863,-6.64,7.98,-0.09,30.04
4897,0.329,-0.0277,0.8599,-6.72,7.88,0.05,30.03
4907,0.3279,-0.0238,0.8627,-6.73,7.98,-0.06,30.05
4917,0.3259,-0.0283,0.8619,-6.75,8.02,-0.08,30.05
4927,0.3279,-0.0255,0.8687,-6.78,7.91,-0.08,30.07
4937,0.3243,-0.0282,0.8619,-6.75,7.91,-0.11,30.05
4947,0.3289,-0.0254,0.8666,-6.81,7.97,-0.06,30.04
4957,0.3307,-0.0264,0.8596,-6.69,8.05,-0.06,30.03
4967,0.3302,-0.0251,0.8636,-6.79,7.95,-0.09,30.04
4977,0.3253,-0.0244,0.8628,-6.78,7.94,-0.02,30.07
4987,0.3271,-0.0244,0.8616,-6.75,8.03,0.02,30.03
4997,0.3275,-0.0232,0.8602,-6.69,7.97,0.02,30.05
5007,0.3308,-0.0254,0.8651,-6.75,8.0,-0.05,30.05
5017,0.3286,-0.0248,0.8658,-6.81,8.06,-0.08,30.02
5027,0.3285,-0.0243,0.8666,-6.75,7.91,-0.05,30.04
5037,0.3293,-0.025,0.87,-6.75,7.95,-0.03,30.04
5047,0.3273,-0.026,0.8651,-6.66,8.0,0.02,30.07
5057,0.3279,-0.0271,0.8672,-6.67,7.92,-0.08,30.03
5067,0.3278,-0.0231,0.8658,-6.72,7.98,-0.06,30.04
5077,0.3273,-0.0262,0.865,-6.73,8.03,-0.03,30.07
5087,0.3282,-0.0238,0.8678,-6.72,8.0,-0.11,30.05
5097,0.326,-0.0237,0.8622,-6.72,8.0,-0.05,30.05
5107,0.3241,-0.0251,0.8647,-6.78,8.0,-0.05,30.07
5117,0.3276,-0.0233,0.8636,-6.78,7.95,0.02,30.05
5127,0.3254,-0.0269,0.8668,-6.78,8.0,-0.03,30.03
5137,0.328,-0.0262,0.8678,-6.78,7.97,0.02,30.05
5147,0.3274,-0.0264,0.8684,-6.82,7.86,-0.09,30.07
5157,0.324,-0.0254,0.8652,-6.82,7.95,-0.09,30.06
5167,0.3278,-0.0269,0.8652,-6.75,7.98,-0.06,30.06
5177,0.3262,-0.0249,0.8643,-6.75,7.95,-0.05,30.05
5187,0.3286,-0.0251,0.8663,-6.69,8.0,-0.06,30.04
5197,0.3307,-0.0272,0.8649,-6.82,7.94,0.02,30.07
5207,0.3248,-0.0281,0.8616,-6.72,7.94,-0.03,30.05
5217,0.3285,-0.0262,0.8645,-6.7,7.89,-0.05,30.04
5227,0.3276,-0.026,0.8646,-6.81,7.92,-0.02,30.06
5237,0.3269,-0.0269,0.8635,-6.73,7.97,-0.05,30.03
5247,0.3301,-0.0247,0.8676,-6.72,8.08,-0.06,30.05
5257,0.3256,-0.0259,0.8688,-6.72,7.97,0.0,30.05
5267,0.3274,-0.0253,0.8645,-6.82,7.98,-0.05,30.04
5277,0.3271,-0.0261,0.8654,-6.76,7.97,-0.06,30.03
5287,0.3293,-0.0261,0.8654,-6.75,7.94,0.02,30.07
5297,0.328,-0.0265,0.8643,-6.73,8.05,-0.06,30.07
5307,0.3282,-0.0275,0.8625,-6.82,7.92,-0.06,30.05
5317,0.3287,-0.0266,0.863,-6.66,7.92,0.02,30.06
5327,0.3237,-0.0267,0.8623,-6.7,7.98,-0.05,30.05
5337,0.3285,-0.0282,0.8651,-6.76,8.0,-0.09,30.07
5347,0.3276,-0.0237,0.8657,-6.7,7.95,-0.02,30.07
5357,0.3297,-0.0253,0.8647,-6.67,8.03,-0.03,30.09
5367,0.329,-0.0265,0.8658,-6.81,8.05,-0.03,30.06
5377,0.3282,-0.0236,0.8633,-6.7,8.0,-0.08,30.08
5387,0.3267,-0.0216,0.866,-6.72,8.0,-0.03,30.05
5397,0.3286,-0.0271,0.8655,-6.73,7.91,-0.06,30.07
5407,0.3281,-0.027,0.8628,-6.76,7.97,-0.11,30.05
5417,0.3304,-0.024,0.8634,-6.72,8.02,0.0,30.08
5427,0.3284,-0.0251,0.8654,-6.76,8.06,-0.05,30.06
5437,0.3328,-0.0276,0.8655,-6.82,8.05,-0.02,30.04
5447,0.3289,-0.026,0.8682,-6.79,7.92,0.0,30.08
5457,0.3269,-0.0255,0.8655,-6.75,8.0,-0.02,30.06
5467,0.3286,-0.0245,0.866,-6.73,8.02,0.0,30.07
5477,0.3289,-0.0259,0.8635,-6.66,8.0,-0.06,30.08
5487,0.3298,-0.0251,0.8632,-6.76,7.91,0.0,30.06
5497,0.3263,-0.0267,0.8625,-6.73,7.95,0.0,30.07
5507,0.3295,-0.0226,0.8623,-6.7,8.02,-0.03,30.09
5517,0.3295,-0.0251,0.8593,-6.64,7.94,-0.02,30.05
5527,0.3304,-0.0254,0.8649,-6.79,7.98,-0.03,30.06
5537,0.33,-0.024,0.864,-6.76,8.0,-0.03,30.07
5547,0.3279,-0.0251,0.8708,-6.73,8.05,0.05,30.07
5557,0.3281,-0.0259,0.866,-6.67,7.97,0.03,30.09
5567,0.3285,-0.0278,0.8635,-6.76,7.95,0.0,30.08
5577,0.3278,-0.0271,0.8628,-6.72,7.94,-0.05,30.07
5587,0.3304,-0.027,0.865,-6.79,7.95,-0.06,30.07
5597,0.3268,-0.0251,0.8638,-6.76,8.0,-0.05,30.07
5607,0.3293,-0.0255,0.8689,-6.84,7.98,-0.03,30.09
5617,0.3298,-0.0256,0.8644,-6.84,8.03,0.03,30.07
5627,0.3297,-0.0228,0.864,-6.7,7.92,-0.02,30.08
5637,0.3279,-0.0242,0.8623,-6.73,7.95,-0.06,30.06
5647,0.3257,-0.025,0.8644,-6.73,7.94,0.0,30.04
5657,0.3295,-0.0258,0.8643,-6.76,7.94,-0.06,30.07
5667,0.328,-0.0249,0.8666,-6.79,7.92,-0.09,30.09
5677,0.3286,-0.0277,0.8639,-6.79,7.94,-0.08,30.08
5687,0.3285,-0.0244,0.866,-6.76,7.98,-0.02,30.07
5697,0.3268,-0.0236,0.8649,-6.79,7.95,-0.05,30.06
5707,0.33,-0.0239,0.8661,-6.72,7.98,0.0,30.06
5717,0.3281,-0.0259,0.8677,-6.73,7.97,0.0,30.07
5729,0.3252,-0.0251,0.8621,-6.82,7.98,-0.02,30.08
5739,0.3256,-0.027,0.8639,-6.79,7.98,-0.02,30.09
5749,0.3289,-0.0261,0.8644,-6.69,7.92,-0.03,30.08
5759,0.3268,-0.0282,0.8622,-6.75,7.98,-0.05,30.06
5769,0.3257,-0.0264,0.863,-6.79,8.03,-0.03,30.05
5779,0.3269,-0.0236,0.8621,-6.78,8.02,-0.06,30.09
5789,0.3265,-0.0193,0.863,-6.76,7.97,-0.06,30.07
5799,0.3273,-0.0245,0.8649,-6.76,7.89,-0.02,30.05
5809,0.3273,-0.0251,0.868,-6.73,7.95,-0.06,30.08
5819,0.3287,-0.0264,0.8665,-6.72,8.05,-0.06,30.09
5829,0.3296,-0.025,0.8647,-6.78,7.94,0.0,30.11
5839,0.3276,-0.0254,0.8658,-6.81,8.02,-0.05,30.1
5849,0.3246,-0.0264,0.8647,-6.78,7.97,-0.05,30.09
5859,0.3274,-0.0243,0.8646,-6.75,8.0,-0.05,30.1
5869,0.3287,-0.0243,0.8649,-6.75,8.08,-0.05,30.07
5879,0.3245,-0.0261,0.8632,-6.67,7.95,-0.06,30.07
5889,0.3284,-0.022,0.8636,-6.76,7.97,-0.03,30.07
5899,0.3287,-0.0244,0.8656,-6.81,7.91,-0.09,30.06
5909,0.3278,-0.026,0.8628,-6.76,7.91,-0.05,30.09
5919,0.3271,-0.0223,0.864,-6.72,7.94,-0.05,30.09
5929,0.3285,-0.0271,0.8643,-6.7,8.02,-0.14,30.1
5939,0.3296,-0.0251,0.8658,-6.69,7.95,-0.12,30.09
5949,0.328,-0.0264,0.8628,-6.7,7.94,-0.06,30.11
5959,0.3262,-0.0281,0.8628,-6.63,7.97,-0.06,30.1
5969,0.3274,-0.0264,0.8651,-6.79,7.98,-0.09,30.08
5979,0.3279,-0.0249,0.8663,-6.76,8.11,-0.05,30.09
5989,0.3325,-0.0215,0.8654,-6.79,7.95,-0.05,30.08
5999,0.3289,-0.0254,0.8612,-6.84,8.03,-0.12,30.1
6009,0.3298,-0.0261,0.8628,-6.73,7.92,-0.05,30.08
6019,0.3265,-0.0269,0.864,-6.67,7.97,-0.08,30.07
6029,0.3264,-0.0249,0.8595,-6.84,7.95,-0.03,30.06
6039,0.3258,-0.025,0.8655,-6.72,7.92,-0.09,30.07
6049,0.325,-0.0248,0.8658,-6.73,7.98,-0.06,30.07
6059,0.3265,-0.0251,0.8647,-6.73,8.0,-0.06,30.06
6069,0.3262,-0.0304,0.8646,-6.75,8.02,-0.02,30.09
6079,0.3287,-0.0288,0.8658,-6.75,8.0,0.0,30.07
6089,0.3279,-0.0253,0.8632,-6.78,7.97,0.0,30.08
6099,0.3285,-0.0247,0.8668,-6.75,8.02,-0.09,30.1
6109,0.3307,-0.0253,0.8667,-6.78,8.0,0.03,30.08
6119,0.3271,-0.0253,0.8632,-6.64,7.94,0.02,30.07
6129,0.3269,-0.0259,0.8661,-6.73,7.98,-0.02,30.06
6139,0.3281,-0.0261,0.8678,-6.75,8.03,-0.02,30.08
6149,0.3265,-0.0267,0.8588,-6.67,8.02,-0.05,30.09
6159,0.3303,-0.0254,0.8655,-6.7,7.97,-0.05,30.09
6169,0.326,-0.025,0.8679,-6.69,8.02,-0.06,30.09
6179,0.3262,-0.0242,0.8688,-6.76,7.92,-0.03,30.09
6189,0.3259,-0.0256,0.8669,-6.79,7.98,0.05,30.07
6199,0.3304,-0.025,0.8671,-6.73,7.98,0.02,30.09
6209,0.3285,-0.0261,0.8641,-6.75,7.97,-0.09,30.1
6219,0.328,-0.0262,0.8632,-6.7,7.97,-0.11,30.11
6229,0.3289,-0.0264,0.8676,-6.75,7.95,-0.06,30.1
6239,0.3286,-0.0249,0.8665,-6.73,7.92,-0.02,30.09
6249,0.3287,-0.0269,0.8693,-6.79,8.02,0.05,30.11
6259,0.328,-0.0256,0.8632,-6.78,8.0,-0.06,30.08
6269,0.329,-0.0216,0.8639,-6.85,8.0,-0.03,30.1
6279,0.3281,-0.0236,0.8646,-6.81,7.97,-0.03,30.09
6289,0.3281,-0.0277,0.8677,-6.79,8.03,-0.06,30.08
6299,0.3279,-0.0247,0.8654,-6.75,7.97,0.0,30.12
6309,0.3318,-0.0264,0.8616,-6.78,7.95,-0.08,30.1
6319,0.3258,-0.0288,0.8638,-6.72,7.98,0.0,30.09
6329,0.3265,-0.0265,0.8611,-6.72,7.98,-0.08,30.1
6339,0.3306,-0.0259,0.8645,-6.78,7.92,-0.08,30.11
6349,0.3264,-0.027,0.8629,-6.79,7.98,-0.08,30.08
6359,0.3265,-0.0273,0.86,-6.69,7.88,-0.06,30.09
6369,0.3243,-0.0247,0.8655,-6.73,7.92,-0.11,30.1
6382,0.3267,-0.026,0.8647,-6.73,8.03,-0.06,30.1
6392,0.3284,-0.0256,0.8676,-6.76,7.98,-0.08,30.09
6402,0.3268,-0.0271,0.8622,-6.7,8.0,-0.06,30.09
6412,0.3274,-0.0245,0.8629,-6.81,7.98,0.0,30.08
6422,0.3254,-0.0255,0.8673,-6.79,7.92,-0.06,30.1
6432,0.3295,-0.026,0.8634,-6.75,7.97,-0.06,30.08
6450,0.3312,-0.0239,0.8623,-6.69,7.95,-0.35,30.08
6460,0.3253,-0.0258,0.8666,-6.76,7.94,-0.12,30.09
6470,0.3276,-0.0256,0.8622,-6.84,8.0,-0.06,30.09
6480,0.3263,-0.0262,0.8652,-6.78,7.98,-0.05,30.11
6490,0.3271,-0.0264,0.8615,-6.75,7.95,-0.03,30.1
6500,0.3264,-0.026,0.8629,-6.73,7.97,-0.08,30.11
6510,0.329,-0.0261,0.8612,-6.73,7.98,-0.12,30.09
6520,0.3287,-0.0237,0.8667,-6.79,7.97,-0.06,30.1
6530,0.3262,-0.0261,0.8673,-6.69,7.98,-0.02,30.09
6540,0.3281,-0.0232,0.8588,-6.79,7.94,-0.06,30.11
6550,0.3279,-0.025,0.8634,-6.76,7.98,0.05,30.09
6560,0.3274,-0.0267,0.8629,-6.82,7.91,0.0,30.1
6570,0.3291,-0.0245,0.8627,-6.75,7.89,-0.02,30.08
6580,0.3282,-0.0228,0.8644,-6.7,7.95,-0.06,30.09
6590,0.3276,-0.0261,0.8624,-6.75,8.0,-0.05,30.1
6601,0.3268,-0.0266,0.8657,-6.78,8.03,-0.09,30.1
6611,0.3297,-0.0255,0.8651,-6.75,8.06,-0.09,30.11
6621,0.3284,-0.025,0.8639,-6.79,8.0,-0.05,30.08
6631,0.3287,-0.0232,0.8632,-6.81,7.98,-0.06,30.11
6641,0.328,-0.0283,0.8629,-6.84,7.97,-0.06,30.1
6651,0.328,-0.0244,0.8632,-6.81,7.98,-0.03,30.09
6661,0.3293,-0.0264,0.8639,-6.76,7.98,-0.03,30.12
6671,0.3285,-0.024,0.8665,-6.75,7.97,0.0,30.1
6681,0.3289,-0.0287,0.8608,-6.75,7.95,-0.09,30.12
6691,0.3271,-0.0222,0.8629,-6.7,8.02,-0.02,30.1
6701,0.3274,-0.0233,0.8627,-6.7,7.95,0.02,30.1
6711,0.3276,-0.0248,0.865,-6.87,8.02,-0.02,30.1
6721,0.3242,-0.0271,0.8678,-6.78,7.95,-0.03,30.1
6731,0.3263,-0.0272,0.8644,-6.72,8.02,-0.03,30.1
6741,0.3284,-0.0264,0.8683,-6.81,7.95,-0.03,30.1
6751,0.3293,-0.027,0.8658,-6.73,7.95,-0.02,30.1
6761,0.3262,-0.0272,0.8661,-6.73,8.02,-0.08,30.11
6771,0.3275,-0.0287,0.8663,-6.78,7.98,0.02,30.11
6781,0.3258,-0.0248,0.8688,-6.84,8.03,-0.09,30.08
6791,0.3252,-0.0265,0.8677,-6.73,8.02,-0.06,30.12
6801,0.3285,-0.0278,0.8684,-6.75,7.94,-0.05,30.09
6811,0.3292,-0.0276,0.8669,-6.78,7.95,-0.05,30.11
6821,0.3292,-0.0259,0.8606,-6.72,7.92,-0.05,30.12
6831,0.3264,-0.0251,0.8628,-6.69,7.91,-0.12,30.11
6841,0.3286,-0.0259,0.8644,-6.76,7.94,-0.09,30.1
6851,0.3269,-0.0256,0.8666,-6.75,8.03,-0.09,30.09
6861,0.3278,-0.0245,0.8647,-6.81,8.0,-0.02,30.12
6871,0.3262,-0.0222,0.8641,-6.76,7.98,-0.08,30.07
6881,0.3275,-0.0227,0.8655,-6.72,7.95,-0.06,30.1
6891,0.3297,-0.0243,0.8668,-6.78,8.02,-0.03,30.11
6901,0.3298,-0.025,0.8639,-6.75,7.98,-0.12,30.1
6911,0.3289,-0.0278,0.8638,-6.78,7.94,-0.02,30.1
6921,0.3311,-0.0283,0.8615,-6.75,7.92,-0.03,30.1
6931,0.3289,-0.0251,0.8649,-6.78,8.02,-0.06,30.1
6941,0.3282,-0.0251,0.865,-6.75,8.02,-0.14,30.11
6952,0.3275,-0.0264,0.8698,-6.69,7.97,-0.02,30.11
6962,0.3259,-0.0264,0.8601,-6.75,7.98,-0.08,30.12
6972,0.3282,-0.0259,0.8644,-6.72,8.0,0.03,30.12
6982,0.3273,-0.0251,0.8636,-6.69,7.97,0.0,30.09
6992,0.327,-0.0242,0.8618,-6.73,7.95,-0.02,30.1
7002,0.3291,-0.0211,0.8618,-6.84,8.05,-0.06,30.13
7012,0.3269,-0.0243,0.8616,-6.73,8.03,-0.08,30.11
7022,0.3278,-0.024,0.8619,-6.73,8.0,-0.03,30.12
7032,0.327,-0.0243,0.8658,-6.78,7.94,-0.02,30.1
7042,0.3257,-0.0265,0.8627,-6.79,7.94,-0.02,30.13
7052,0.3265,-0.0259,0.8679,-6.76,8.05,-0.08,30.11
7062,0.3253,-0.0248,0.865,-6.76,7.97,-0.06,30.13
7072,0.3262,-0.0264,0.8669,-6.75,7.97,-0.06,30.15
7082,0.3276,-0.0284,0.8671,-6.84,7.97,0.0,30.12
7092,0.3298,-0.026,0.8646,-6.75,7.98,-0.06,30.11
7102,0.3259,-0.0229,0.8649,-6.75,7.94,-0.14,30.1
7112,0.326,-0.0255,0.8674,-6.89,8.03,-0.09,30.1
7122,0.3259,-0.0233,0.8636,-6.81,7.98,-0.06,30.11
7132,0.3253,-0.0244,0.8645,-6.78,8.0,-0.08,30.11
7142,0.3279,-0.0249,0.8625,-6.72,7.98,-0.09,30.11
7152,0.3278,-0.0272,0.8676,-6.81,8.08,-0.12,30.12
7162,0.3273,-0.0265,0.8651,-6.73,8.02,-0.06,30.09
7172,0.3267,-0.0245,0.8656,-6.76,7.95,-0.02,30.13
7182,0.3292,-0.0272,0.859,-6.7,8.05,-0.05,30.13
7192,0.3285,-0.0262,0.8635,-6.75,7.95,-0.08,30.11
7202,0.3273,-0.0259,0.8672,-6.81,7.92,-0.02,30.12
7212,0.3298,-0.0289,0.8636,-6.85,7.97,-0.03,30.12
7222,0.328,-0.0288,0.8645,-6.76,8.0,-0.03,30.12
7232,0.3262,-0.0243,0.8624,-6.78,8.05,-0.05,30.13
7242,0.3308,-0.0251,0.8633,-6.79,7.98,-0.12,30.13
7252,0.3284,-0.0239,0.8647,-6.76,7.94,-0.09,30.11
7262,0.3292,-0.0261,0.8667,-6.75,8.03,-0.11,30.13
7272,0.328,-0.027,0.8668,-6.76,8.05,-0.02,30.12
7282,0.3287,-0.028,0.8676,-6.76,7.98,-0.09,30.11
7292,0.3218,-0.0278,0.8627,-6.79,8.06,-0.12,30.1
7302,0.3271,-0.0253,0.8676,-6.75,7.97,-0.05,30.13
7312,0.3307,-0.0247,0.868,-6.76,7.95,-0.06,30.14
7322,0.3301,-0.0255,0.8625,-6.81,8.0,-0.05,30.11
7332,0.3296,-0.0292,0.8646,-6.73,7.97,-0.05,30.1
7342,0.3275,-0.0247,0.8641,-6.72,7.97,0.02,30.12
7352,0.3257,-0.0255,0.8666,-6.75,7.94,0.0,30.11
7362,0.3293,-0.0287,0.863,-6.76,7.94,-0.17,30.13
7372,0.3303,-0.0253,0.8673,-6.81,8.0,-0.03,30.12
7382,0.3256,-0.0245,0.865,-6.78,7.95,-0.02,30.12
7392,0.3311,-0.0245,0.8651,-6.76,7.91,-0.11,30.12
7402,0.3318,-0.027,0.8663,-6.75,7.95,-0.09,30.11
7412,0.3301,-0.0232,0.8634,-6.69,7.95,-0.11,30.13
7422,0.3287,-0.0242,0.8597,-6.75,8.02,-0.03,30.13
7432,0.3246,-0.0288,0.8613,-6.75,7.98,-0.03,30.13
7442,0.3303,-0.0282,0.8676,-6.75,7.95,-0.03,30.12
7452,0.3286,-0.0242,0.8643,-6.72,8.0,-0.02,30.11
7463,0.3298,-0.0269,0.861,-6.73,7.97,0.0,30.11
7473,0.3276,-0.0254,0.8646,-6.7,7.97,-0.05,30.11
7483,0.3279,-0.0258,0.868,-6.73,7.97,-0.14,30.14
7493,0.3281,-0.0256,0.8654,-6.79,8.0,-0.08,30.13
7503,0.3259,-0.0256,0.8656,-6.82,7.98,-0.03,30.11
7513,0.3285,-0.0264,0.8632,-6.73,7.94,-0.08,30.12
7523,0.3282,-0.0247,0.8689,-6.78,7.97,-0.05,30.11
7533,0.3295,-0.0237,0.8658,-6.78,7.91,0.0,30.13
7543,0.3286,-0.0255,0.8636,-6.73,7.98,-0.03,30.09
7553,0.328,-0.025,0.8691,-6.73,8.0,0.03,30.12
7563,0.327,-0.0253,0.8639,-6.76,7.95,-0.11,30.16
7573,0.3276,-0.0264,0.8652,-6.78,8.0,-0.05,30.12
7583,0.3285,-0.0283,0.8656,-6.76,7.98,0.02,30.11
7593,0.3303,-0.0256,0.8615,-6.76,7.91,-0.02,30.1
7603,0.3273,-0.0259,0.8677,-6.76,7.98,-0.03,30.15
7613,0.3253,-0.0265,0.8633,-6.81,7.98,0.02,30.11
7623,0.3291,-0.0243,0.8613,-6.79,7.97,0.05,30.13
7633,0.3271,-0.0233,0.8613,-6.76,8.02,-0.05,30.14
7643,0.329,-0.0251,0.865,-6.75,7.94,-0.09,30.11
7653,0.3303,-0.0295,0.863,-6.76,8.02,-0.05,30.13
7663,0.3258,-0.0245,0.8678,-6.67,7.94,-0.09,30.11
7673,0.3274,-0.0281,0.8629,-6.67,8.0,-0.12,30.11
7683,0.3282,-0.0273,0.864,-6.76,7.92,-0.08,30.12
7693,0.3257,-0.0233,0.8654,-6.76,7.95,-0.02,30.12
7703,0.3252,-0.0239,0.8699,-6.76,7.95,-0.05,30.12
7713,0.3286,-0.0265,0.864,-6.7,8.02,-0.03,30.13
7723,0.3286,-0.0282,0.8674,-6.79,7.98,-0.06,30.12
7733,0.328,-0.0226,0.8662,-6.76,7.98,-0.03,30.13
7743,0.327,-0.0237,0.8624,-6.76,7.94,-0.06,30.13
7753,0.3269,-0.0275,0.8651,-6.82,8.0,-0.05,30.14
7763,0.3275,-0.0251,0.8619,-6.73,7.95,-0.08,30.13
7773,0.3297,-0.0283,0.869,-6.73,7.94,-0.09,30.11
7783,0.3264,-0.0253,0.866,-6.67,7.98,-0.05,30.14
7793,0.328,-0.0249,0.8627,-6.78,8.0,0.0,30.13
7803,0.3269,-0.0249,0.8649,-6.67,8.0,-0.03,30.13
7813,0.3273,-0.0243,0.864,-6.81,7.98,-0.05,30.14
7823,0.3265,-0.0244,0.8663,-6.75,7.89,-0.09,30.14
7833,0.3292,-0.026,0.865,-6.81,7.94,-0.05,30.12
7843,0.3275,-0.024,0.8693,-6.76,7.92,-0.08,30.12
7853,0.3258,-0.025,0.8643,-6.78,8.02,0.03,30.1
7863,0.3286,-0.0262,0.8662,-6.7,8.03,-0.08,30.12
7873,0.3292,-0.0264,0.8621,-6.73,7.95,-0.06,30.13
7883,0.3267,-0.027,0.8643,-6.73,7.91,-0.06,30.13
7893,0.3273,-0.024,0.8622,-6.75,8.0,-0.06,30.13
7903,0.3264,-0.0242,0.8622,-6.84,8.0,0.0,30.13
7913,0.3258,-0.0258,0.865,-6.7,8.02,-0.06,30.13
7923,0.3276,-0.0262,0.8658,-6.79,8.03,-0.09,30.11
7933,0.3279,-0.0269,0.866,-6.84,7.95,-0.02,30.14
7943,0.3286,-0.0234,0.8641,-6.73,7.94,-0.02,30.12
7953,0.3275,-0.0258,0.8641,-6.78,7.98,0.05,30.13
7963,0.3264,-0.0259,0.8635,-6.78,8.03,-0.06,30.14
7973,0.3276,-0.0262,0.8661,-6.76,7.97,-0.05,30.13
7983,0.329,-0.0267,0.8652,-6.72,7.92,-0.03,30.14
7993,0.3289,-0.0269,0.8618,-6.75,8.03,-0.02,30.14
8003,0.3274,-0.0271,0.866,-6.78,8.0,0.03,30.13
8013,0.3273,-0.0258,0.8632,-6.79,8.0,-0.03,30.14
8023,0.3304,-0.0247,0.8644,-6.72,7.94,-0.03,30.14
8033,0.3273,-0.0247,0.864,-6.72,7.98,-0.05,30.12
8043,0.3297,-0.0261,0.8658,-6.81,8.0,-0.09,30.13
8053,0.3281,-0.0262,0.8682,-6.73,8.02,-0.02,30.12
8063,0.3281,-0.0259,0.865,-6.78,7.92,-0.12,30.17
8073,0.3271,-0.0245,0.8627,-6.69,8.0,-0.09,30.14
8083,0.3269,-0.0248,0.8663,-6.76,8.0,-0.05,30.13
8093,0.328,-0.0254,0.8656,-6.7,7.92,-0.05,30.13
8103,0.3265,-0.0262,0.8636,-6.72,7.98,-0.03,30.14
8113,0.3268,-0.0261,0.8673,-6.78,7.97,-0.05,30.13
8123,0.325,-0.0293,0.8646,-6.72,8.0,-0.14,30.14
8133,0.3271,-0.025,0.864,-6.73,7.98,-0.14,30.14
8143,0.3271,-0.0242,0.8611,-6.81,7.94,-0.05,30.12
8153,0.3291,-0.0265,0.8599,-6.72,7.98,-0.05,30.13
8163,0.3301,-0.0247,0.8619,-6.78,7.91,-0.05,30.11
8173,0.3297,-0.0272,0.8662,-6.69,8.0,-0.03,30.14
8183,0.3306,-0.0264,0.8632,-6.82,8.0,0.02,30.15
8193,0.3279,-0.0233,0.8662,-6.78,7.98,0.02,30.14
8203,0.3268,-0.0261,0.8646,-6.75,7.98,-0.05,30.15
8213,0.3275,-0.024,0.8651,-6.85,7.97,-0.08,30.12
8223,0.3274,-0.0254,0.8652,-6.79,7.97,0.0,30.13
8233,0.327,-0.0249,0.8698,-6.73,7.94,-0.09,30.14
8243,0.3251,-0.0255,0.8708,-6.72,7.98,-0.05,30.14
8253,0.3264,-0.0272,0.863,-6.66,8.02,-0.06,30.13
8263,0.3295,-0.024,0.8643,-6.67,7.97,-0.02,30.15
8273,0.3303,-0.0249,0.8632,-6.81,8.02,-0.05,30.13
8283,0.3284,-0.0255,0.8643,-6.75,7.98,-0.03,30.16
8293,0.327,-0.0239,0.8634,-6.66,7.91,-0.05,30.16
8303,0.329,-0.0259,0.865,-6.7,7.98,0.06,30.16
8313,0.327,-0.0275,0.8676,-6.75,7.97,-0.03,30.16
8323,0.3267,-0.0251,0.8676,-6.76,8.02,0.0,30.16
8333,0.3279,-0.0245,0.8634,-6.79,8.02,-0.08,30.15
8343,0.3286,-0.0264,0.8647,-6.81,7.94,-0.02,30.13
8353,0.329,-0.0292,0.8663,-6.73,7.91,0.0,30.14
8363,0.3275,-0.0262,0.8623,-6.72,7.95,0.02,30.14
8374,0.3312,-0.0248,0.8635,-6.72,8.02,-0.03,30.16
8384,0.3284,-0.0261,0.8577,-6.75,8.02,0.0,30.15
8394,0.3271,-0.0269,0.8608,-6.73,8.02,-0.08,30.13
8404,0.3287,-0.0255,0.8673,-6.79,7.94,-0.02,30.15
8414,0.328,-0.0254,0.8627,-6.69,7.94,-0.09,30.14
8424,0.3253,-0.0264,0.8635,-6.78,7.97,-0.09,30.14
8434,0.3253,-0.0264,0.8641,-6.82,8.0,-0.09,30.14
8444,0.3296,-0.0289,0.8652,-6.73,8.06,-0.06,30.15
8454,0.3273,-0.027,0.8621,-6.78,7.98,-0.06,30.12
8464,0.3287,-0.0238,0.8673,-6.79,7.97,-0.05,30.15
8474,0.3302,-0.027,0.864,-6.73,8.02,-0.03,30.12
8484,0.329,-0.0237,0.8643,-6.75,8.02,0.03,30.13
8494,0.3293,-0.0232,0.8623,-6.73,7.91,0.06,30.15
8504,0.3251,-0.0239,0.8615,-6.82,8.03,-0.05,30.15
8514,0.3303,-0.0251,0.8639,-6.79,8.0,0.0,30.14
8524,0.3263,-0.0225,0.8622,-6.76,8.0,0.0,30.16
8534,0.3271,-0.0273,0.8685,-6.73,7.92,0.0,30.13
8544,0.3287,-0.0298,0.8624,-6.81,8.06,-0.05,30.14
8554,0.3263,-0.0243,0.8578,-6.82,7.95,0.02,30.12
8564,0.3282,-0.0258,0.8658,-6.78,7.98,-0.05,30.14
8574,0.3264,-0.0242,0.8617,-6.78,7.94,0.0,30.14
8584,0.3291,-0.0269,0.8617,-6.76,7.98,-0.03,30.15
8594,0.3291,-0.0265,0.8665,-6.75,7.91,-0.08,30.16
8604,0.3259,-0.022,0.864,-6.78,7.95,-0.09,30.14
8614,0.3296,-0.0249,0.8651,-6.72,7.94,-0.06,30.15
8624,0.3273,-0.0264,0.8657,-6.78,8.02,-0.12,30.15
8634,0.3269,-0.0262,0.865,-6.7,7.98,-0.08,30.16
8644,0.3264,-0.0267,0.866,-6.73,7.89,-0.05,30.14
8654,0.3292,-0.025,0.8636,-6.76,7.98,-0.05,30.14
8664,0.3289,-0.0253,0.8652,-6.81,8.03,-0.06,30.17
8674,0.3269,-0.0216,0.8632,-6.81,7.92,-0.06,30.14
8684,0.3262,-0.0248,0.8617,-6.75,7.89,-0.06,30.14
8694,0.3285,-0.0255,0.8615,-6.73,7.97,0.02,30.14
8704,0.3268,-0.025,0.865,-6.66,7.92,-0.02,30.14
8714,0.3257,-0.0239,0.8616,-6.79,7.94,0.02,30.14
8724,0.3267,-0.0255,0.864,-6.78,7.98,-0.05,30.17
8734,0.3267,-0.0254,0.8672,-6.75,7.97,-0.06,30.18
8744,0.3241,-0.0251,0.8687,-6.73,7.89,0.0,30.17
8754,0.3262,-0.0269,0.8643,-6.78,7.94,-0.06,30.13
8764,0.3263,-0.0264,0.8616,-6.79,7.92,0.02,30.17
8774,0.3275,-0.0273,0.8634,-6.73,8.03,-0.06,30.14
8784,0.3286,-0.0247,0.8645,-6.7,7.97,-0.03,30.16
8794,0.3265,-0.0243,0.8658,-6.79,7.94,0.02,30.15
8804,0.3267,-0.0212,0.8671,-6.76,7.98,-0.08,30.15
8814,0.3269,-0.026,0.861,-6.79,7.95,0.02,30.17
8824,0.3264,-0.0277,0.8599,-6.81,7.92,-0.02,30.15
8834,0.3278,-0.0283,0.8632,-6.73,7.92,-0.02,30.17
8844,0.3297,-0.0266,0.8643,-6.76,7.97,0.05,30.15
8854,0.3269,-0.0253,0.8645,-6.75,7.94,-0.05,30.15
8864,0.3303,-0.0271,0.8628,-6.76,7.98,-0.03,30.17
8874,0.327,-0.0228,0.8654,-6.7,7.94,-0.09,30.14
8884,0.3278,-0.0228,0.8683,-6.67,7.97,-0.06,30.13
8894,0.3259,-0.0275,0.8663,-6.75,8.03,-0.02,30.14
8904,0.328,-0.0243,0.8663,-6.78,7.97,-0.02,30.18
8914,0.3259,-0.0247,0.8645,-6.78,8.03,-0.06,30.14
8924,0.3278,-0.024,0.8611,-6.79,8.08,-0.08,30.17
8934,0.3276,-0.0253,0.8677,-6.72,7.91,-0.08,30.13
8944,0.3262,-0.0262,0.8605,-6.76,7.89,-0.08,30.14
8954,0.3284,-0.0258,0.8623,-6.79,7.98,-0.02,30.14
8964,0.3253,-0.0244,0.8656,-6.85,7.98,-0.02,30.17
8974,0.3301,-0.0253,0.8617,-6.87,7.94,-0.03,30.17
8984,0.3274,-0.0247,0.8617,-6.69,7.91,0.02,30.16
8994,0.3301,-0.0248,0.8618,-6.78,7.98,-0.02,30.18
9004,0.3293,-0.0242,0.8649,-6.82,7.94,-0.11,30.15
9014,0.3276,-0.0289,0.865,-6.79,7.94,-0.03,30.16
9024,0.3241,-0.0267,0.8633,-6.76,7.91,-0.12,30.15
9034,0.3254,-0.0264,0.8639,-6.75,7.91,-0.02,30.16
9044,0.329,-0.0259,0.8678,-6.75,8.0,-0.02,30.16
9054,0.3268,-0.0269,0.8645,-6.75,7.95,-0.06,30.16
9064,0.3282,-0.0267,0.8632,-6.75,8.02,-0.12,30.15
9074,0.3263,-0.0247,0.8628,-6.84,8.05,0.02,30.17
9084,0.3278,-0.0236,0.8671,-6.79,7.97,-0.08,30.14
9094,0.3274,-0.0258,0.8651,-6.7,7.89,-0.06,30.14
9104,0.3287,-0.0233,0.864,-6.78,8.03,-0.08,30.14
9114,0.3282,-0.0259,0.861,-6.76,7.95,-0.08,30.16
9124,0.3282,-0.0266,0.8633,-6.79,8.02,-0.09,30.17
9134,0.3304,-0.03,0.8676,-6.79,7.97,-0.03,30.16
9144,0.3269,-0.0232,0.8616,-6.7,7.94,-0.03,30.15
9154,0.3243,-0.0251,0.8634,-6.67,7.94,-0.02,30.16
9164,0.3281,-0.028,0.8647,-6.84,7.92,-0.03,30.14
9174,0.329,-0.024,0.8666,-6.84,7.98,-0.02,30.17
9184,0.3297,-0.0247,0.8655,-6.81,7.95,-0.03,30.14
9194,0.3263,-0.0261,0.865,-6.76,7.97,-0.02,30.14
9204,0.3269,-0.0276,0.8655,-6.72,7.97,0.02,30.16
9214,0.3264,-0.024,0.8623,-6.78,7.94,-0.02,30.16
9224,0.3264,-0.0288,0.8661,-6.78,7.98,-0.08,30.16
9234,0.3251,-0.0267,0.8679,-6.81,8.0,0.0,30.16
9244,0.326,-0.0258,0.8615,-6.79,7.92,0.02,30.15
9254,0.3281,-0.0245,0.8652,-6.75,7.97,-0.05,30.15
9264,0.328,-0.0256,0.8632,-6.73,8.03,-0.03,30.15
9274,0.328,-0.0289,0.8633,-6.79,7.92,-0.05,30.15
9284,0.3286,-0.0264,0.8651,-6.75,7.95,0.02,30.18
9294,0.3279,-0.0284,0.859,-6.82,7.94,0.0,30.16
9304,0.327,-0.0267,0.8646,-6.76,7.94,-0.09,30.15
9314,0.3293,-0.0234,0.8646,-6.79,8.03,-0.08,30.17
9324,0.3278,-0.0267,0.8669,-6.81,7.86,-0.03,30.16
9334,0.3267,-0.0239,0.8601,-6.76,8.02,-0.09,30.17
9344,0.3292,-0.0276,0.8645,-6.73,7.94,-0.06,30.17
9354,0.3306,-0.0267,0.8619,-6.7,7.94,-0.09,30.16
9365,0.3239,-0.0267,0.8655,-6.69,8.05,-0.06,30.15
9375,0.3263,-0.0253,0.8606,-6.76,7.98,-0.06,30.14
9385,0.326,-0.0259,0.866,-6.72,7.97,-0.11,30.15
9395,0.3286,-0.0269,0.8658,-6.64,7.91,-0.03,30.15
9405,0.3253,-0.026,0.8636,-6.76,7.98,0.03,30.17
9415,0.3245,-0.0266,0.8641,-6.78,8.0,0.03,30.17
9425,0.3284,-0.0254,0.8634,-6.82,7.98,-0.03,30.16
9435,0.3282,-0.0236,0.8646,-6.79,7.94,-0.02,30.16
9445,0.3306,-0.0275,0.8646,-6.75,8.03,0.02,30.14
9455,0.3267,-0.0264,0.8619,-6.78,7.95,-0.03,30.17
9465,0.3273,-0.0254,0.8623,-6.72,8.03,-0.05,30.16
9475,0.3264,-0.0271,0.8683,-6.81,8.0,0.0,30.14
9485,0.3328,-0.0262,0.8618,-6.78,7.94,0.0,30.16
9495,0.3273,-0.0276,0.8619,-6.7,7.98,-0.02,30.15
9505,0.33,-0.0258,0.8643,-6.79,8.03,0.0,30.16
9515,0.3293,-0.0287,0.8657,-6.82,8.02,-0.03,30.17
9525,0.3287,-0.024,0.8652,-6.78,8.02,-0.02,30.18
9535,0.3293,-0.0259,0.8644,-6.79,7.89,-0.05,30.17
9545,0.3318,-0.0266,0.8601,-6.75,8.03,-0.02,30.16
9555,0.3263,-0.0253,0.8619,-6.79,8.0,0.0,30.17
9565,0.3313,-0.0245,0.8663,-6.81,8.03,-0.03,30.14
9575,0.3269,-0.0248,0.8623,-6.76,7.95,0.0,30.17
9585,0.3295,-0.0261,0.8636,-6.76,7.91,-0.02,30.17
9595,0.3274,-0.0276,0.8636,-6.72,7.98,-0.02,30.18
9605,0.3263,-0.027,0.8674,-6.82,7.92,-0.03,30.17
9615,0.3278,-0.0272,0.868,-6.7,7.94,-0.05,30.15
9625,0.3275,-0.026,0.8654,-6.73,7.89,-0.09,30.15
9635,0.3301,-0.025,0.8658,-6.81,7.97,-0.06,30.15
9645,0.3276,-0.0256,0.8625,-6.75,7.98,-0.08,30.16
9655,0.3284,-0.0232,0.8656,-6.82,8.0,-0.06,30.16
9665,0.3273,-0.027,0.8667,-6.7,7.97,-0.08,30.18
9675,0.3275,-0.0255,0.865,-6.76,7.97,0.0,30.17
9685,0.3281,-0.0266,0.8621,-6.76,7.88,-0.05,30.17
9695,0.3274,-0.0256,0.8643,-6.78,7.97,-0.06,30.18
9705,0.3317,-0.0261,0.8647,-6.85,7.92,-0.03,30.14
9715,0.3307,-0.0231,0.8654,-6.82,7.97,-0.05,30.16
9725,0.326,-0.0261,0.8639,-6.72,7.98,-0.08,30.16
9735,0.3265,-0.0245,0.8646,-6.73,7.94,-0.11,30.16
9745,0.3273,-0.0225,0.8663,-6.72,7.97,-0.11,30.17
9755,0.3295,-0.025,0.8633,-6.75,8.03,-0.05,30.18
9765,0.3293,-0.0253,0.8657,-6.73,7.95,0.0,30.16
9775,0.3309,-0.0243,0.8635,-6.81,7.98,-0.02,30.17
9785,0.3267,-0.0259,0.869,-6.79,7.97,-0.06,30.17
9795,0.3276,-0.0273,0.8635,-6.76,8.02,-0.09,30.17
9805,0.328,-0.0261,0.8657,-6.82,7.97,-0.05,30.15
9815,0.3262,-0.0259,0.8655,-6.76,7.95,-0.09,30.16
9825,0.329,-0.0253,0.8671,-6.69,8.02,0.02,30.14
9835,0.33,-0.0242,0.866,-6.79,7.97,-0.05,30.18
9845,0.3276,-0.0276,0.8617,-6.7,7.91,-0.08,30.16
9855,0.3263,-0.0259,0.8666,-6.75,7.91,-0.05,30.18
9865,0.3262,-0.0232,0.8651,-6.75,8.0,0.0,30.19
9875,0.3274,-0.0248,0.8661,-6.73,7.95,0.0,30.19
9885,0.3243,-0.0264,0.8644,-6.79,7.92,-0.12,30.17
9895,0.3287,-0.0262,0.8632,-6.78,7.97,-0.05,30.17
9905,0.3268,-0.0267,0.8644,-6.79,8.06,-0.02,30.18
9915,0.3267,-0.0271,0.8633,-6.75,8.0,-0.05,30.18
9925,0.324,-0.0266,0.8671,-6.72,7.92,-0.12,30.17
9935,0.3306,-0.0245,0.8655,-6.78,8.0,0.02,30.17
9945,0.3276,-0.0251,0.8649,-6.79,7.98,-0.12,30.14
9955,0.3287,-0.0233,0.8651,-6.75,8.0,-0.05,30.14
9965,0.3295,-0.0254,0.8652,-6.81,7.98,-0.02,30.17
9975,0.3274,-0.0282,0.8701,-6.73,7.95,0.05,30.17
9985,0.3276,-0.0236,0.864,-6.72,7.95,-0.02,30.17
9995,0.3295,-0.0256,0.8621,-6.7,7.95,-0.05,30.14
10005,0.3265,-0.0262,0.8624,-6.73,8.05,-0.06,30.16
10015,0.3291,-0.0262,0.8625,-6.76,7.97,-0.11,30.17
10025,0.3247,-0.0231,0.8639,-6.76,7.98,-0.03,30.19
10035,0.3282,-0.0229,0.8623,-6.73,7.88,-0.14,30.17
10045,0.328,-0.0265,0.8605,-6.67,7.97,-0.06,30.17
10055,0.3239,-0.026,0.8586,-6.75,8.0,0.02,30.15
10065,0.3298,-0.0267,0.8661,-6.84,7.97,0.02,30.13
10075,0.327,-0.0255,0.8658,-6.85,7.91,0.03,30.19
10085,0.3281,-0.0258,0.8689,-6.81,7.95,-0.05,30.18
10095,0.3279,-0.022,0.8635,-6.76,7.95,-0.02,30.18
10105,0.3243,-0.0293,0.8678,-6.84,8.03,-0.05,30.17
10115,0.3262,-0.0264,0.8672,-6.76,7.95,-0.03,30.2
10125,0.3281,-0.027,0.8668,-6.75,7.92,-0.03,30.16
10135,0.3292,-0.0264,0.8647,-6.79,8.0,-0.08,30.18
10145,0.3286,-0.0264,0.8663,-6.72,7.94,-0.03,30.2
10155,0.3276,-0.0244,0.8639,-6.73,7.91,-0.05,30.17
10165,0.3293,-0.0244,0.8624,-6.79,7.94,-0.05,30.17
10175,0.3282,-0.0247,0.8643,-6.73,7.98,-0.03,30.19
10185,0.3297,-0.0249,0.8661,-6.72,7.95,-0.12,30.17
10195,0.3265,-0.0242,0.8633,-6.82,7.97,-0.08,30.17
10205,0.3295,-0.0266,0.865,-6.76,7.97,-0.03,30.16
10215,0.3279,-0.028,0.8661,-6.76,7.95,-0.03,30.16
10225,0.3273,-0.0272,0.866,-6.78,8.0,-0.02,30.17
10235,0.3278,-0.0255,0.8627,-6.78,7.97,-0.06,30.18
10245,0.3296,-0.0244,0.8624,-6.78,7.95,-0.12,30.18
10255,0.33,-0.0229,0.8639,-6.81,7.95,-0.08,30.17
10265,0.3267,-0.0227,0.8668,-6.73,7.97,-0.08,30.18
10275,0.326,-0.0249,0.8652,-6.7,8.0,-0.03,30.15
10298,0.3296,-0.0267,0.86,-6.78,8.0,-0.03,30.19
10308,0.3304,-0.0261,0.8617,-6.79,7.98,0.03,30.19
10319,0.3289,-0.0248,0.861,-6.78,7.98,0.02,30.16
10329,0.3256,-0.025,0.8666,-6.69,7.97,-0.02,30.19
10341,0.3273,-0.0266,0.8644,-6.76,7.92,-0.05,30.17
10351,0.3287,-0.0254,0.8677,-6.69,8.03,0.03,30.18
10361,0.3256,-0.0251,0.8635,-6.76,7.97,0.02,30.17
10371,0.3286,-0.0265,0.8643,-6.67,7.98,-0.03,30.17
10381,0.3271,-0.0253,0.8652,-6.84,7.97,-0.03,30.18
10391,0.3278,-0.0264,0.8668,-6.73,7.92,0.02,30.18
10402,0.3289,-0.0269,0.8613,-6.72,8.06,0.02,30.18
10412,0.3279,-0.0269,0.8666,-6.78,8.0,-0.02,30.18
10422,0.3297,-0.0264,0.863,-6.79,7.97,0.02,30.19
10432,0.327,-0.0287,0.8611,-6.75,7.94,0.0,30.17
10442,0.3248,-0.0271,0.8656,-6.79,7.97,-0.05,30.2
10452,0.3289,-0.0271,0.8667,-6.75,7.95,0.05,30.17
10462,0.3282,-0.0236,0.8688,-6.72,8.05,-0.06,30.17
10472,0.3263,-0.0262,0.8635,-6.82,8.02,-0.06,30.18
10482,0.3247,-0.0269,0.8635,-6.79,7.97,-0.06,30.19
10492,0.3313,-0.026,0.8702,-6.76,7.95,-0.08,30.19
10502,0.3281,-0.0236,0.8643,-6.76,8.02,-0.05,30.19
10512,0.3287,-0.0254,0.8624,-6.75,7.95,-0.11,30.21
10522,0.328,-0.0253,0.8628,-6.72,8.03,-0.06,30.16
10532,0.3287,-0.024,0.8654,-6.72,7.98,-0.06,30.18
10542,0.3258,-0.0251,0.8707,-6.78,8.03,0.05,30.17
10552,0.3302,-0.0251,0.8628,-6.69,8.0,-0.06,30.19
10562,0.3267,-0.0272,0.8662,-6.67,7.98,-0.03,30.18
10572,0.3281,-0.0255,0.8668,-6.78,7.98,-0.03,30.18
10582,0.3259,-0.0225,0.8667,-6.78,7.97,-0.06,30.18
10592,0.3269,-0.0258,0.8645,-6.6,7.94,-0.02,30.17
10602,0.3267,-0.0264,0.8657,-6.75,8.0,-0.08,30.18
10612,0.3287,-0.0251,0.8656,-6.76,7.89,-0.09,30.18
10622,0.3297,-0.0243,0.865,-6.79,8.03,-0.09,30.16
10632,0.3252,-0.0243,0.8722,-6.81,7.97,0.0,30.18
10642,0.3273,-0.024,0.8674,-6.79,7.95,0.02,30.17
10652,0.3264,-0.0265,0.8688,-6.82,7.92,-0.06,30.18
10662,0.3278,-0.0239,0.8624,-6.78,7.91,-0.08,30.19
10672,0.3279,-0.0265,0.865,-6.82,7.97,-0.03,30.18
10682,0.3274,-0.0237,0.8668,-6.79,7.98,-0.11,30.19
10692,0.3311,-0.0225,0.8616,-6.82,7.94,-0.02,30.18
10702,0.329,-0.0276,0.865,-6.79,8.03,-0.11,30.17
10712,0.3275,-0.0259,0.8605,-6.76,8.06,-0.06,30.2
10722,0.3265,-0.0254,0.8656,-6.75,7.89,-0.11,30.19
10732,0.3269,-0.0255,0.8665,-6.78,7.91,-0.12,30.18
10742,0.3265,-0.0284,0.866,-6.78,7.95,-0.18,30.17
10752,0.3276,-0.0264,0.8676,-6.75,8.06,-0.06,30.19
10762,0.3269,-0.028,0.869,-6.72,8.02,-0.05,30.17
10772,0.3286,-0.0244,0.8624,-6.81,7.97,-0.03,30.19
10782,0.3287,-0.022,0.8633,-6.78,7.98,-0.06,30.17
10792,0.3251,-0.0244,0.8679,-6.7,7.97,-0.02,30.17
10802,0.3256,-0.0261,0.8658,-6.73,8.05,0.0,30.19
10812,0.3264,-0.0258,0.865,-6.78,7.94,-0.09,30.19
10822,0.3263,-0.0226,0.8595,-6.73,7.95,0.0,30.19
10832,0.3312,-0.0281,0.8652,-6.78,8.02,-0.02,30.19
10842,0.3276,-0.0243,0.8628,-6.72,7.97,0.02,30.19
10853,0.3275,-0.025,0.8584,-6.76,8.0,-0.11,30.19
10863,0.3278,-0.0266,0.8619,-6.81,8.0,0.02,30.19
10873,0.3295,-0.0266,0.8613,-6.73,7.94,-0.05,30.19
10883,0.3264,-0.0267,0.865,-6.66,7.98,-0.03,30.17
10893,0.3285,-0.0251,0.8663,-6.79,8.0,-0.09,30.17
10903,0.3248,-0.0248,0.8646,-6.81,8.02,0.02,30.18
10913,0.329,-0.0237,0.8661,-6.75,7.97,-0.03,30.21
10923,0.3274,-0.0256,0.8661,-6.76,7.97,0.0,30.2
10933,0.326,-0.0299,0.865,-6.82,8.02,0.05,30.2
10943,0.3273,-0.0282,0.871,-6.79,7.95,-0.02,30.2
10953,0.3268,-0.0278,0.8649,-6.81,7.97,0.02,30.17
10963,0.3269,-0.0261,0.8652,-6.82,7.95,-0.02,30.18
10973,0.3267,-0.0283,0.8644,-6.84,7.95,-0.03,30.18
10983,0.3276,-0.0256,0.8634,-6.79,8.0,0.0,30.18
10993,0.3267,-0.0238,0.8674,-6.76,7.86,0.0,30.19
11003,0.3279,-0.0237,0.8627,-6.81,7.98,-0.03,30.18
11013,0.3274,-0.0262,0.8668,-6.78,8.02,0.0,30.18
11023,0.3271,-0.0253,0.8654,-6.79,7.95,-0.06,30.19
11033,0.3268,-0.0258,0.8665,-6.76,7.89,-0.05,30.19
11043,0.3293,-0.0255,0.8645,-6.79,7.97,-0.06,30.19
11053,0.3296,-0.0254,0.8632,-6.79,7.94,0.02,30.18
11063,0.3291,-0.0262,0.8597,-6.75,7.95,-0.14,30.19
11073,0.3259,-0.0258,0.8646,-6.78,8.0,-0.06,30.16
11083,0.3259,-0.0254,0.8643,-6.82,8.02,-0.03,30.18
11093,0.3307,-0.0264,0.8667,-6.75,7.97,-0.05,30.18
11103,0.327,-0.027,0.8682,-6.7,7.95,-0.12,30.19
11113,0.3281,-0.0272,0.8619,-6.72,7.97,-0.14,30.19
11123,0.3303,-0.0253,0.8674,-6.73,7.95,-0.03,30.19
11133,0.3313,-0.0289,0.8635,-6.73,7.92,-0.05,30.19
11143,0.3307,-0.0258,0.866,-6.75,7.95,-0.05,30.19
11153,0.328,-0.024,0.866,-6.67,7.98,0.06,30.19
11163,0.3286,-0.027,0.866,-6.7,8.03,0.03,30.17
11173,0.3295,-0.0251,0.8655,-6.87,8.02,0.0,30.19
11183,0.3278,-0.0256,0.8641,-6.76,7.97,-0.11,30.19
11193,0.3269,-0.0236,0.8665,-6.82,7.95,-0.09,30.21
11203,0.3282,-0.0255,0.8628,-6.78,8.03,0.02,30.2
11213,0.3257,-0.0273,0.8633,-6.81,7.95,-0.05,30.21
11223,0.3271,-0.0259,0.8677,-6.72,7.94,-0.05,30.19
11233,0.3281,-0.025,0.8621,-6.75,7.97,0.02,30.18
11243,0.3269,-0.0273,0.8679,-6.76,8.0,0.05,30.17
11253,0.328,-0.024,0.8606,-6.81,8.02,-0.02,30.19
11263,0.3274,-0.0265,0.8632,-6.79,7.94,-0.02,30.21
11273,0.3263,-0.0282,0.8612,-6.75,8.02,-0.05,30.18
11283,0.3281,-0.0289,0.8618,-6.78,8.02,-0.05,30.17
11293,0.3259,-0.027,0.863,-6.67,8.02,-0.05,30.18
11303,0.3273,-0.0234,0.861,-6.73,7.98,-0.02,30.18
11313,0.3231,-0.0253,0.866,-6.72,7.98,-0.09,30.18
11323,0.3302,-0.027,0.8625,-6.79,7.95,-0.05,30.17
11333,0.3268,-0.0232,0.8595,-6.78,7.88,-0.02,30.19
11343,0.3296,-0.0255,0.8616,-6.73,7.94,0.03,30.19
11353,0.3301,-0.0255,0.8602,-6.75,8.0,-0.09,30.17
11363,0.3275,-0.0259,0.8684,-6.78,7.91,-0.14,30.2
11373,0.3273,-0.026,0.8649,-6.79,7.89,-0.05,30.19
11383,0.3267,-0.0265,0.8667,-6.85,7.92,-0.05,30.19
11393,0.3267,-0.0253,0.8665,-6.72,7.98,-0.05,30.18
11403,0.3278,-0.0272,0.8669,-6.84,8.06,-0.02,30.18
11413,0.3289,-0.0251,0.8652,-6.78,7.97,-0.08,30.17
11423,0.329,-0.0248,0.8647,-6.78,7.98,0.03,30.2
11433,0.325,-0.0231,0.8601,-6.72,7.95,-0.05,30.2
11443,0.3278,-0.0254,0.8666,-6.76,7.97,-0.12,30.18
11453,0.3308,-0.0267,0.8671,-6.82,8.0,-0.06,30.19
11463,0.3264,-0.027,0.8685,-6.85,7.97,-0.05,30.19
11473,0.3287,-0.0275,0.868,-6.78,8.05,-0.08,30.17
11483,0.3279,-0.0282,0.8644,-6.78,8.05,0.0,30.21
11493,0.324,-0.0262,0.8628,-6.69,7.94,-0.09,30.22
11503,0.3263,-0.0245,0.8615,-6.75,7.95,-0.02,30.21
11513,0.3279,-0.0244,0.8646,-6.79,7.91,-0.08,30.18
11523,0.328,-0.0272,0.8655,-6.72,7.92,-0.06,30.19
11533,0.3284,-0.0247,0.8618,-6.81,8.02,-0.05,30.17
11543,0.3274,-0.0258,0.8657,-6.75,7.97,-0.05,30.21
11553,0.3275,-0.0272,0.8647,-6.75,7.97,-0.05,30.19
11563,0.3258,-0.0242,0.8605,-6.69,8.0,-0.08,30.2
11573,0.328,-0.0233,0.8639,-6.76,7.95,-0.05,30.17
11583,0.3284,-0.0272,0.8623,-6.76,7.92,-0.05,30.21
11593,0.3276,-0.0233,0.8644,-6.72,7.97,-0.06,30.2
11603,0.329,-0.026,0.8662,-6.75,7.89,0.06,30.2
11613,0.3284,-0.027,0.8674,-6.79,8.0,0.02,30.19
11623,0.3279,-0.0264,0.8688,-6.79,8.05,-0.02,30.18
11633,0.3289,-0.0272,0.861,-6.7,7.95,-0.02,30.21
11644,0.3285,-0.0262,0.8641,-6.72,8.0,0.05,30.18
11654,0.3273,-0.0282,0.865,-6.79,7.94,-0.08,30.17
11664,0.3313,-0.025,0.8615,-6.75,7.98,-0.15,30.19
11674,0.3271,-0.0288,0.8658,-6.73,7.91,-0.02,30.17
11684,0.3293,-0.0269,0.8661,-6.85,7.98,0.02,30.18
11694,0.3274,-0.0267,0.8647,-6.78,7.95,-0.08,30.18
11705,0.3276,-0.0226,0.8651,-6.76,7.95,-0.06,30.21
11715,0.3286,-0.0249,0.8667,-6.72,7.98,-0.14,30.22
11725,0.33,-0.0262,0.8656,-6.81,7.95,-0.08,30.19
11735,0.3276,-0.0267,0.8688,-6.81,8.0,-0.06,30.19
11746,0.3254,-0.0227,0.8635,-6.78,7.97,-0.08,30.2
11756,0.3322,-0.0248,0.8658,-6.79,8.02,-0.06,30.21
11766,0.3268,-0.0242,0.8638,-6.79,7.98,0.0,30.2
11776,0.3257,-0.0243,0.8627,-6.73,7.94,-0.09,30.21
11786,0.3287,-0.0272,0.8687,-6.79,7.94,-0.09,30.19
11796,0.326,-0.0292,0.8645,-6.81,8.09,-0.09,30.16
11806,0.3291,-0.0221,0.8663,-6.69,7.98,-0.02,30.19
11816,0.3275,-0.0253,0.8665,-6.58,7.89,-0.12,30.2
11826,0.3325,-0.0254,0.8696,-6.81,7.86,-0.08,30.2
11836,0.33,-0.0234,0.8632,-6.76,7.98,-0.08,30.18
11846,0.3317,-0.0256,0.8616,-6.72,7.98,-0.11,30.22
11856,0.3264,-0.0228,0.8678,-6.7,7.98,-0.08,30.21
11866,0.3252,-0.0229,0.8691,-6.76,8.06,-0.06,30.21
11876,0.3251,-0.0265,0.8678,-6.73,8.02,-0.06,30.21
11886,0.3282,-0.0261,0.8674,-6.76,7.95,-0.06,30.18
11896,0.3308,-0.0275,0.8655,-6.72,7.95,0.05,30.19
11906,0.3297,-0.0238,0.8656,-6.75,7.94,0.03,30.2
11916,0.3306,-0.0262,0.8662,-6.67,7.92,-0.05,30.17
11926,0.3273,-0.0251,0.8623,-6.82,7.92,-0.03,30.2
11936,0.328,-0.0276,0.863,-6.78,7.91,-0.06,30.2
11946,0.3267,-0.0249,0.8665,-6.79,7.95,-0.02,30.2
11956,0.3282,-0.0217,0.863,-6.78,7.94,-0.06,30.2
11966,0.3344,-0.0229,0.8638,-6.75,7.86,-0.02,30.18
11976,0.323,-0.027,0.8701,-6.73,8.12,0.03,30.2
11986,0.3237,-0.0358,0.8529,-6.79,7.98,0.0,30.2
11996,0.3302,-0.0312,0.869,-6.84,7.8,-0.03,30.18
12006,0.3373,-0.0273,0.8561,-6.72,7.73,-0.02,30.21
12016,0.3342,-0.0245,0.8666,-6.76,7.88,-0.08,30.21
12026,0.3358,-0.0255,0.8624,-6.73,7.97,-0.03,30.2
12036,0.3357,-0.0266,0.8674,-6.76,7.98,-0.05,30.17
12046,0.3307,-0.025,0.8625,-6.78,8.03,-0.08,30.19
12056,0.3253,-0.0261,0.8704,-6.7,8.03,-0.03,30.2
12066,0.3247,-0.0244,0.8594,-6.78,7.95,-0.05,30.19
12076,0.3306,-0.025,0.8618,-6.78,7.91,0.0,30.22
12086,0.3291,-0.0286,0.8599,-6.82,7.91,-0.02,30.2
12096,0.3329,-0.0292,0.8673,-6.81,7.95,-0.05,30.22
12106,0.33,-0.0276,0.8729,-6.73,7.95,-0.05,30.2
12116,0.3306,-0.024,0.8739,-6.75,8.02,0.0,30.2
12126,0.326,-0.0244,0.8688,-6.82,8.02,0.03,30.21
12136,0.3264,-0.0242,0.8666,-6.75,7.86,0.0,30.2
12146,0.3264,-0.0244,0.8652,-6.79,8.0,-0.08,30.19
12156,0.3278,-0.022,0.8665,-6.79,8.0,-0.05,30.2
12166,0.3248,-0.0248,0.8608,-6.82,7.92,-0.08,30.2
12176,0.3252,-0.0242,0.8634,-6.79,7.97,-0.03,30.19
12186,0.3298,-0.0266,0.8671,-6.79,7.86,-0.09,30.21
12196,0.3292,-0.0282,0.8682,-6.76,7.95,-0.05,30.19
12206,0.3306,-0.0272,0.8696,-6.79,8.0,-0.06,30.2
12216,0.333,-0.0248,0.8666,-6.82,8.0,0.02,30.18
12226,0.3298,-0.0282,0.8667,-6.81,8.02,-0.03,30.2
12236,0.3292,-0.0269,0.8652,-6.79,7.97,0.0,30.21
12246,0.3297,-0.0238,0.8651,-6.7,8.0,0.02,30.18
12256,0.327,-0.0234,0.8605,-6.78,8.0,-0.02,30.19
12266,0.3265,-0.0251,0.8607,-6.79,7.97,-0.05,30.19
12276,0.3295,-0.0261,0.8647,-6.89,8.06,-0.03,30.21
12286,0.3311,-0.0228,0.8684,-6.73,7.95,-0.06,30.21
12296,0.3273,-0.0264,0.8661,-6.75,7.95,-0.08,30.2
12308,0.3293,-0.0287,0.8663,-6.63,7.89,-0.05,30.19
12320,0.3269,-0.0298,0.8688,-6.69,8.0,0.05,30.22
12330,0.3296,-0.0269,0.8658,-6.81,7.98,-0.05,30.22
12340,0.3251,-0.0249,0.8669,-6.72,7.97,-0.05,30.19
12350,0.3246,-0.0245,0.8652,-6.75,7.92,0.0,30.17
12360,0.3263,-0.0236,0.8586,-6.78,7.97,0.0,30.22
12370,0.3278,-0.0256,0.8636,-6.78,7.95,-0.09,30.19
12380,0.328,-0.0228,0.8649,-6.72,7.98,-0.09,30.22
12390,0.3248,-0.0253,0.8654,-6.81,7.98,-0.05,30.21
12401,0.3295,-0.0254,0.8647,-6.81,8.0,-0.06,30.24
12411,0.3297,-0.0281,0.8683,-6.79,7.95,-0.05,30.19
12421,0.3251,-0.0284,0.8663,-6.76,8.05,-0.09,30.2
12431,0.3287,-0.0254,0.8643,-6.75,7.94,-0.11,30.21
12441,0.3287,-0.0247,0.864,-6.79,7.94,-0.03,30.22
12451,0.3287,-0.025,0.8655,-6.79,7.95,-0.08,30.22
12461,0.3282,-0.0228,0.8619,-6.75,8.0,-0.03,30.21
12471,0.3273,-0.0216,0.8669,-6.76,7.95,-0.05,30.19
12481,0.3262,-0.0254,0.8643,-6.81,7.91,-0.11,30.21
12491,0.3296,-0.0244,0.8639,-6.73,7.97,0.0,30.23
12501,0.3257,-0.0254,0.8635,-6.72,7.94,-0.05,30.21
12511,0.3304,-0.0276,0.8652,-6.81,7.94,-0.03,30.2
12521,0.3322,-0.0273,0.8655,-6.79,7.94,-0.05,30.2
12531,0.3268,-0.0269,0.8636,-6.69,8.0,-0.02,30.19
12541,0.3304,-0.0256,0.8638,-6.79,7.94,-0.08,30.21
12551,0.3286,-0.0247,0.863,-6.79,7.94,-0.02,30.22
12561,0.3282,-0.0195,0.8611,-6.76,7.94,0.05,30.23
12571,0.3295,-0.0225,0.8655,-6.76,7.97,-0.06,30.2
12581,0.3279,-0.0258,0.8638,-6.78,7.98,0.02,30.2
12591,0.3298,-0.0259,0.8632,-6.82,8.02,-0.05,30.19
12601,0.329,-0.0249,0.8605,-6.79,7.94,-0.06,30.2
12611,0.3284,-0.0264,0.8655,-6.84,8.0,-0.05,30.2
12621,0.3271,-0.0265,0.8634,-6.73,7.94,-0.05,30.21
12631,0.3298,-0.026,0.8656,-6.78,7.95,-0.11,30.23
12641,0.3289,-0.0273,0.8654,-6.84,7.94,-0.11,30.19
12651,0.3292,-0.0247,0.8624,-6.76,7.95,-0.15,30.19
12662,0.3264,-0.0237,0.865,-6.79,7.94,-0.12,30.23
12672,0.3263,-0.0214,0.8684,-6.81,8.0,-0.06,30.22
12682,0.3256,-0.0249,0.8667,-6.79,7.95,0.02,30.2
12692,0.3269,-0.0251,0.8623,-6.72,7.94,-0.14,30.22
12702,0.3279,-0.0281,0.8638,-6.75,7.92,-0.05,30.2
12712,0.3298,-0.0266,0.8652,-6.76,7.97,-0.09,30.21
12722,0.3282,-0.0256,0.8634,-6.76,8.03,-0.06,30.22
12732,0.3269,-0.0264,0.8674,-6.78,7.98,0.0,30.23
12742,0.3313,-0.0255,0.8633,-6.78,7.98,0.03,30.22
12752,0.3274,-0.0251,0.8676,-6.72,7.95,-0.09,30.22
12762,0.3275,-0.0236,0.863,-6.75,8.03,-0.02,30.23
12772,0.3281,-0.0239,0.8643,-6.72,7.95,-0.11,30.21
12782,0.3273,-0.0286,0.8671,-6.76,7.95,-0.11,30.21
12792,0.3257,-0.0265,0.8618,-6.72,7.97,0.02,30.21
12802,0.3295,-0.0287,0.8643,-6.75,8.0,0.02,30.21
12812,0.326,-0.0267,0.8655,-6.78,7.97,-0.06,30.2
12822,0.3285,-0.0295,0.8662,-6.82,7.94,-0.05,30.23
12833,0.3279,-0.0297,0.8656,-6.78,7.97,-0.06,30.2
12843,0.3298,-0.0236,0.8666,-6.85,8.02,0.05,30.22
12853,0.3274,-0.024,0.8627,-6.7,7.94,-0.06,30.2
12863,0.3268,-0.0247,0.8667,-6.73,7.95,-0.06,30.21
12873,0.329,-0.0233,0.8661,-6.73,7.97,-0.03,30.22
12883,0.3279,-0.0249,0.8645,-6.85,7.92,-0.05,30.21
12893,0.3291,-0.0225,0.8667,-6.76,7.97,-0.03,30.22
12903,0.3281,-0.0248,0.8639,-6.76,7.95,-0.12,30.22
12913,0.3267,-0.026,0.8622,-6.81,8.03,0.05,30.22
12923,0.3275,-0.0275,0.863,-6.78,8.02,-0.02,30.22
12933,0.3273,-0.0251,0.8618,-6.76,7.97,-0.02,30.21
12943,0.3281,-0.0264,0.8607,-6.76,8.03,0.0,30.21
12953,0.3275,-0.0267,0.8639,-6.73,8.02,-0.06,30.2
12963,0.3268,-0.0255,0.8667,-6.79,7.95,-0.12,30.2
12973,0.3293,-0.0287,0.8604,-6.82,7.91,-0.08,30.19
12983,0.3286,-0.0228,0.8615,-6.75,7.89,0.03,30.19
12993,0.3267,-0.0269,0.8645,-6.75,7.95,-0.06,30.22
13003,0.3285,-0.0253,0.8636,-6.81,8.0,-0.11,30.22
13013,0.3282,-0.0256,0.8655,-6.75,7.91,0.0,30.23
13023,0.3281,-0.0255,0.8627,-6.72,7.95,-0.12,30.23
13033,0.3282,-0.0271,0.8633,-6.76,8.0,-0.06,30.2
13043,0.3271,-0.0269,0.8616,-6.78,7.92,-0.05,30.22
13053,0.3268,-0.0289,0.8607,-6.82,7.91,-0.09,30.23
13063,0.3281,-0.0237,0.8661,-6.84,7.95,-0.06,30.22
13073,0.3267,-0.0237,0.8645,-6.81,7.92,0.03,30.21
13083,0.3281,-0.0225,0.8643,-6.67,7.95,-0.03,30.24
13093,0.3278,-0.0232,0.8663,-6.76,7.95,-0.02,30.22
13103,0.3248,-0.0282,0.8607,-6.78,7.92,-0.05,30.22
13113,0.3281,-0.0262,0.8651,-6.81,7.94,-0.02,30.21
13123,0.3285,-0.0256,0.8671,-6.79,8.0,-0.02,30.22
13133,0.3291,-0.027,0.868,-6.87,7.98,-0.02,30.21
13143,0.3275,-0.0262,0.8695,-6.85,7.94,-0.06,30.21
13153,0.3289,-0.025,0.8622,-6.7,7.95,-0.08,30.24
13163,0.3282,-0.0251,0.8647,-6.79,7.95,-0.06,30.21
13173,0.3246,-0.024,0.8666,-6.82,7.98,-0.03,30.23
13183,0.3264,-0.0275,0.8608,-6.7,7.94,-0.02,30.24
13193,0.3314,-0.0272,0.8693,-6.82,7.94,-0.06,30.22
13203,0.3281,-0.0247,0.8654,-6.78,7.91,-0.15,30.23
13213,0.3308,-0.0267,0.8628,-6.73,7.98,-0.05,30.22
13223,0.3278,-0.0272,0.8636,-6.75,7.92,-0.11,30.22
13233,0.3292,-0.0249,0.8651,-6.78,7.98,-0.12,30.24
13243,0.327,-0.0265,0.8658,-6.78,8.0,-0.05,30.23
13253,0.3245,-0.0228,0.8616,-6.72,7.95,-0.11,30.21
13263,0.3264,-0.0262,0.8665,-6.72,7.95,-0.05,30.24
13273,0.3287,-0.0251,0.8641,-6.81,8.02,-0.11,30.22
13283,0.3292,-0.0266,0.8671,-6.81,7.92,-0.08,30.21
13293,0.3291,-0.0219,0.8622,-6.73,7.95,-0.06,30.21
13303,0.3275,-0.0247,0.8654,-6.76,7.95,-0.03,30.23
13313,0.3296,-0.0251,0.8639,-6.84,7.97,-0.03,30.23
13323,0.3281,-0.0255,0.8674,-6.78,7.98,-0.03,30.22
13333,0.3286,-0.0229,0.8672,-6.78,8.02,-0.06,30.24
13343,0.329,-0.0272,0.8662,-6.79,8.02,-0.11,30.21
13353,0.3273,-0.0238,0.8679,-6.79,8.03,-0.05,30.22
13363,0.3307,-0.0253,0.8688,-6.76,7.92,-0.06,30.22
13373,0.3257,-0.0234,0.8635,-6.72,8.0,0.0,30.19
13383,0.3281,-0.0244,0.8649,-6.73,7.91,-0.03,30.2
13393,0.3286,-0.0251,0.8666,-6.81,8.03,-0.03,30.22
13403,0.3257,-0.0239,0.8623,-6.76,8.03,-0.06,30.22
13413,0.3259,-0.0223,0.8629,-6.72,7.92,0.0,30.22
13423,0.3278,-0.0272,0.8678,-6.72,8.0,-0.02,30.23
13433,0.3251,-0.0258,0.8683,-6.78,7.98,-0.06,30.22
13443,0.3278,-0.0265,0.8613,-6.78,7.98,-0.11,30.23
13453,0.3286,-0.0256,0.8575,-6.73,7.98,-0.06,30.25
13463,0.3284,-0.0278,0.8663,-6.75,7.98,-0.03,30.23
13473,0.3301,-0.0265,0.8625,-6.82,7.89,-0.02,30.23
13483,0.3251,-0.0269,0.8673,-6.84,7.89,-0.06,30.21
13493,0.3271,-0.0271,0.8638,-6.75,7.98,0.0,30.22
13503,0.3271,-0.0275,0.8645,-6.69,7.94,-0.03,30.23
13513,0.3276,-0.0281,0.8649,-6.78,7.92,-0.06,30.21
13523,0.3263,-0.0253,0.8634,-6.76,7.97,-0.06,30.24
13533,0.325,-0.0261,0.8676,-6.75,7.92,-0.08,30.2
13543,0.3292,-0.0267,0.865,-6.78,7.97,-0.03,30.19
13553,0.3293,-0.026,0.8646,-6.72,7.94,0.0,30.22
13563,0.3265,-0.0273,0.8641,-6.76,7.95,0.0,30.2
13573,0.3295,-0.0272,0.8628,-6.76,8.0,-0.05,30.22
13583,0.3271,-0.0254,0.8646,-6.72,8.0,-0.05,30.22
13593,0.3282,-0.025,0.8655,-6.85,7.97,0.03,30.21
13603,0.329,-0.0251,0.865,-6.72,7.98,0.0,30.23
13613,0.328,-0.026,0.8654,-6.78,8.0,-0.06,30.21
13623,0.3296,-0.026,0.8652,-6.76,7.95,-0.05,30.23
13633,0.3297,-0.0266,0.8656,-6.73,8.05,-0.08,30.24
13643,0.3273,-0.0286,0.8655,-6.81,7.98,-0.09,30.2
13653,0.3289,-0.0253,0.8624,-6.85,7.98,-0.09,30.21
13663,0.328,-0.0258,0.8677,-6.78,7.94,0.0,30.23
13673,0.3256,-0.0288,0.8655,-6.72,7.92,-0.08,30.2
13683,0.3276,-0.0254,0.8696,-6.81,7.95,-0.11,30.24
13693,0.3267,-0.0239,0.8669,-6.75,7.97,-0.06,30.22
13703,0.3289,-0.0264,0.8657,-6.85,8.02,-0.03,30.22
13713,0.3258,-0.0248,0.866,-6.73,8.05,-0.08,30.23
13723,0.3279,-0.0266,0.8682,-6.69,8.03,-0.05,30.21
13733,0.3268,-0.0242,0.8613,-6.72,7.97,-0.09,30.24
13743,0.3284,-0.026,0.8616,-6.81,7.94,-0.08,30.2
13753,0.3279,-0.0261,0.8645,-6.84,7.98,-0.05,30.24
13763,0.3298,-0.0249,0.8624,-6.75,7.98,-0.03,30.23
13773,0.3265,-0.025,0.8623,-6.79,7.98,-0.03,30.23
13783,0.326,-0.024,0.863,-6.75,7.97,-0.08,30.22
13793,0.3292,-0.0248,0.8641,-6.73,7.92,-0.03,30.23
13803,0.3265,-0.0239,0.8663,-6.79,8.0,-0.08,30.22
13813,0.3273,-0.028,0.865,-6.78,7.91,-0.14,30.24
13823,0.3285,-0.0259,0.8651,-6.7,7.98,-0.06,30.22
13833,0.3271,-0.0266,0.8649,-6.7,7.94,-0.05,30.2
13843,0.3295,-0.0234,0.8622,-6.73,8.02,0.0,30.21
13853,0.3293,-0.0254,0.8684,-6.66,8.05,-0.05,30.25
13863,0.3269,-0.0248,0.869,-6.75,7.91,-0.02,30.22
13873,0.3276,-0.0253,0.8652,-6.7,7.97,-0.09,30.24
13883,0.3276,-0.0247,0.8672,-6.78,7.95,0.0,30.22
13893,0.3279,-0.0245,0.8663,-6.76,7.98,-0.09,30.23
13903,0.3253,-0.0234,0.8635,-6.85,7.94,-0.05,30.23
13913,0.3248,-0.0264,0.8685,-6.72,7.94,-0.02,30.23
13923,0.3291,-0.0226,0.866,-6.72,8.08,-0.06,30.22
13933,0.3306,-0.0266,0.8663,-6.81,7.94,-0.08,30.23
13943,0.3267,-0.0258,0.8691,-6.82,7.97,-0.06,30.21
13953,0.3301,-0.0297,0.8662,-6.72,8.02,-0.05,30.2
13963,0.3258,-0.0228,0.8652,-6.78,7.95,-0.08,30.21
13973,0.3286,-0.0251,0.8672,-6.72,7.95,0.02,30.22
13983,0.3275,-0.0237,0.8676,-6.7,7.92,-0.05,30.19
13993,0.3285,-0.0288,0.8689,-6.78,8.0,-0.06,30.23
14003,0.3286,-0.0264,0.8623,-6.76,7.95,-0.14,30.23
14013,0.3274,-0.0255,0.869,-6.79,7.98,-0.09,30.22
14023,0.3284,-0.025,0.8619,-6.79,8.0,0.0,30.23
14033,0.3274,-0.0264,0.8633,-6.72,8.0,-0.05,30.22
14043,0.3281,-0.0245,0.8677,-6.69,8.02,0.0,30.23
14053,0.3291,-0.0267,0.8656,-6.81,7.94,-0.03,30.22
14063,0.3296,-0.0245,0.8622,-6.82,7.94,0.0,30.25
14073,0.3296,-0.0253,0.8629,-6.76,7.94,0.0,30.22
14083,0.3287,-0.0262,0.8645,-6.79,7.92,-0.06,30.23
14093,0.3268,-0.0272,0.8655,-6.78,7.91,-0.02,30.23
14103,0.328,-0.0238,0.8646,-6.79,7.98,-0.06,30.23
14113,0.3253,-0.025,0.8662,-6.76,7.95,-0.05,30.23
14124,0.3274,-0.025,0.8679,-6.73,7.98,-0.06,30.23
14134,0.3253,-0.0256,0.8679,-6.75,7.95,-0.05,30.24
14144,0.3273,-0.0256,0.8615,-6.82,7.91,-0.03,30.25
14154,0.3292,-0.026,0.8638,-6.78,7.98,-0.06,30.2
14164,0.3253,-0.0273,0.8632,-6.79,7.94,-0.09,30.23
14174,0.3291,-0.0254,0.865,-6.78,7.97,-0.06,30.24
14184,0.3258,-0.0272,0.8688,-6.76,7.95,-0.08,30.25
14194,0.3258,-0.026,0.8649,-6.75,7.89,-0.05,30.21
14204,0.3291,-0.0267,0.8641,-6.73,7.94,-0.09,30.22
14214,0.3264,-0.025,0.8623,-6.69,7.98,-0.12,30.23
14224,0.3282,-0.0261,0.8671,-6.81,7.91,-0.06,30.23
14234,0.3285,-0.026,0.8641,-6.76,8.0,0.0,30.22
14244,0.3313,-0.0236,0.8618,-6.75,7.94,-0.06,30.24
14254,0.3273,-0.0255,0.8665,-6.78,7.98,-0.06,30.21
14264,0.3271,-0.0249,0.8674,-6.69,7.95,-0.05,30.24
14274,0.3267,-0.0272,0.8655,-6.72,7.98,-0.03,30.25
14284,0.3296,-0.025,0.8667,-6.75,8.02,-0.02,30.22
14294,0.326,-0.0254,0.8641,-6.79,7.94,-0.05,30.23
14304,0.3278,-0.0286,0.8682,-6.72,7.97,-0.06,30.22
14314,0.3279,-0.024,0.8674,-6.73,7.91,-0.02,30.22
14324,0.3292,-0.0282,0.866,-6.82,7.98,-0.05,30.22
14334,0.3263,-0.0261,0.8604,-6.72,7.98,0.0,30.22
14344,0.3297,-0.0227,0.8654,-6.72,7.98,-0.05,30.22
14354,0.3276,-0.0256,0.8668,-6.72,7.98,-0.02,30.22
14364,0.3273,-0.0259,0.8629,-6.79,7.97,-0.09,30.22
14374,0.3275,-0.027,0.8674,-6.78,7.94,-0.05,30.23
14384,0.3295,-0.0266,0.8625,-6.79,7.98,-0.03,30.21
14394,0.3291,-0.0247,0.8672,-6.82,8.0,0.0,30.21
14404,0.3284,-0.0266,0.8647,-6.76,7.94,-0.03,30.24
14414,0.3276,-0.0259,0.8657,-6.78,7.95,-0.05,30.2
14424,0.3257,-0.0245,0.8645,-6.78,8.0,-0.02,30.24
14434,0.3278,-0.0244,0.8628,-6.81,7.98,-0.02,30.25
14444,0.3281,-0.0261,0.8663,-6.79,7.98,0.05,30.24
14454,0.329,-0.0247,0.8624,-6.82,8.03,0.0,30.24
14464,0.3273,-0.0272,0.8652,-6.76,8.0,-0.03,30.21
14474,0.3285,-0.0265,0.8643,-6.87,7.97,-0.06,30.25
14484,0.3246,-0.0253,0.8635,-6.78,7.98,-0.03,30.22
14494,0.3281,-0.0247,0.861,-6.76,7.94,0.0,30.21
14504,0.3281,-0.0227,0.8701,-6.79,8.02,0.02,30.25
14514,0.3311,-0.0245,0.8646,-6.76,7.89,-0.05,30.24
14524,0.3271,-0.0264,0.865,-6.78,8.02,-0.06,30.26
14534,0.3285,-0.0242,0.8639,-6.73,7.98,0.0,30.22
14544,0.3284,-0.0242,0.8641,-6.73,7.94,0.06,30.24
14554,0.3307,-0.0266,0.8676,-6.79,7.94,0.0,30.24
14564,0.3271,-0.0251,0.8658,-6.7,8.0,-0.02,30.22
14574,0.328,-0.0269,0.8691,-6.76,8.0,-0.06,30.24
14584,0.33,-0.0269,0.8654,-6.7,7.95,-0.06,30.26
14594,0.3285,-0.0259,0.865,-6.78,8.0,-0.03,30.25
14604,0.3264,-0.0228,0.8663,-6.73,7.98,-0.02,30.24
14614,0.3267,-0.0265,0.8643,-6.69,7.97,-0.03,30.24
14624,0.3301,-0.0262,0.8695,-6.89,7.98,-0.09,30.26
14634,0.326,-0.0271,0.8678,-6.79,7.94,-0.09,30.23
14644,0.3279,-0.0242,0.8628,-6.78,7.97,-0.15,30.24
14654,0.3274,-0.0232,0.8607,-6.73,7.98,-0.08,30.23
14664,0.3282,-0.027,0.8635,-6.76,8.0,0.02,30.22
14674,0.3302,-0.0251,0.8646,-6.75,7.92,-0.03,30.25
14684,0.3297,-0.0269,0.8616,-6.78,8.0,-0.06,30.26
14694,0.325,-0.0254,0.8632,-6.66,8.0,-0.03,30.23
14704,0.3251,-0.0255,0.8636,-6.76,7.98,-0.05,30.25
14714,0.3275,-0.0283,0.8641,-6.84,7.89,-0.02,30.22
14724,0.3264,-0.0251,0.8661,-6.75,8.0,-0.06,30.25
14734,0.3291,-0.0234,0.869,-6.84,7.92,-0.03,30.24
14744,0.327,-0.0242,0.8649,-6.72,7.98,-0.11,30.24
14754,0.3297,-0.0237,0.859,-6.79,7.98,-0.03,30.22
14764,0.3284,-0.0245,0.8624,-6.75,8.0,-0.03,30.25
14774,0.3276,-0.027,0.8636,-6.72,7.92,-0.02,30.23
14784,0.3286,-0.026,0.8641,-6.66,8.0,0.0,30.24
14794,0.3269,-0.0255,0.8647,-6.75,7.95,-0.08,30.23
14804,0.3271,-0.0239,0.8615,-6.75,7.94,-0.03,30.22
14814,0.3296,-0.025,0.864,-6.81,8.03,-0.09,30.24
14824,0.3287,-0.027,0.8649,-6.76,7.95,-0.05,30.23
14834,0.33,-0.0267,0.8635,-6.76,7.97,0.0,30.24
14844,0.3278,-0.0239,0.8629,-6.76,8.03,-0.05,30.25
14854,0.3268,-0.0258,0.8627,-6.76,8.03,-0.05,30.23
14864,0.3287,-0.0245,0.8619,-6.72,8.05,-0.11,30.23
14874,0.3271,-0.0273,0.8629,-6.78,8.0,-0.11,30.22
14884,0.3253,-0.0259,0.8635,-6.76,7.97,-0.09,30.22
14894,0.3259,-0.0269,0.8658,-6.78,7.97,-0.06,30.23
14904,0.3298,-0.0238,0.8607,-6.79,7.94,0.02,30.24
14914,0.3276,-0.0264,0.8665,-6.79,7.95,-0.06,30.22
14924,0.3287,-0.0247,0.865,-6.73,7.89,-0.08,30.25
14934,0.3259,-0.0237,0.8668,-6.79,7.89,-0.09,30.25
14944,0.3263,-0.0255,0.8629,-6.69,7.94,-0.06,30.21
14954,0.3265,-0.0255,0.8655,-6.78,7.94,-0.03,30.23
14964,0.329,-0.0236,0.8639,-6.72,7.97,-0.09,30.24
14974,0.3267,-0.0253,0.8674,-6.76,8.0,-0.08,30.23
14984,0.326,-0.0248,0.8677,-6.82,8.0,-0.06,30.22
14994,0.3314,-0.0262,0.8661,-6.81,8.0,0.02,30.24
15005,0.3254,-0.0205,0.8676,-6.81,7.95,0.02,30.23
15015,0.3274,-0.0239,0.8656,-6.75,7.89,-0.08,30.23
15025,0.3257,-0.0269,0.8641,-6.84,7.88,-0.06,30.22
15035,0.3273,-0.0229,0.8641,-6.75,7.83,-0.09,30.22
15045,0.3269,-0.0255,0.8676,-6.7,7.97,-0.05,30.25
15055,0.3284,-0.024,0.8647,-6.76,8.0,-0.08,30.25
15065,0.328,-0.0262,0.8645,-6.73,8.02,-0.03,30.22
15075,0.3296,-0.027,0.8639,-6.79,7.98,-0.02,30.22
15085,0.3269,-0.0253,0.8628,-6.76,7.92,-0.08,30.23
15095,0.3304,-0.0248,0.8625,-6.84,7.94,0.0,30.24
15105,0.328,-0.0254,0.8632,-6.78,7.92,-0.03,30.25
15115,0.3307,-0.0251,0.8627,-6.73,7.95,-0.06,30.23
15125,0.3291,-0.024,0.8641,-6.81,7.98,0.02,30.24
15135,0.3289,-0.0256,0.8644,-6.76,7.92,0.0,30.26
15145,0.3252,-0.025,0.8661,-6.79,7.92,-0.03,30.27
15155,0.3259,-0.0254,0.8643,-6.72,7.97,-0.03,30.24
15165,0.3276,-0.0245,0.8646,-6.66,7.97,-0.06,30.23
15175,0.3274,-0.0262,0.8599,-6.85,7.91,-0.05,30.22
15185,0.3296,-0.024,0.8608,-6.78,7.95,0.02,30.24
15195,0.3284,-0.0273,0.8662,-6.81,7.95,0.05,30.23
15205,0.3259,-0.0258,0.8676,-6.64,7.89,-0.05,30.24
15215,0.3279,-0.026,0.8622,-6.82,7.95,-0.06,30.25
15225,0.3295,-0.0259,0.8635,-6.79,8.0,-0.02,30.23
15235,0.3285,-0.0244,0.8665,-6.75,7.94,-0.06,30.27
15245,0.3267,-0.0245,0.863,-6.7,7.97,-0.02,30.24
15255,0.3276,-0.0232,0.8657,-6.75,8.0,-0.03,30.22
15265,0.3311,-0.0273,0.8679,-6.78,8.02,0.0,30.25
15275,0.3289,-0.0242,0.8635,-6.92,7.95,-0.02,30.25
15285,0.3287,-0.0266,0.8647,-6.79,7.92,-0.03,30.26
15295,0.3298,-0.0256,0.8622,-6.85,7.89,-0.09,30.24
15306,0.3281,-0.0273,0.8638,-6.7,8.03,0.0,30.25
15316,0.3273,-0.0261,0.8652,-6.75,8.03,-0.02,30.26
15326,0.3282,-0.0254,0.8627,-6.76,8.06,-0.08,30.24
15336,0.3279,-0.0245,0.8638,-6.73,7.94,-0.09,30.25
15346,0.3264,-0.0267,0.8622,-6.78,8.0,-0.06,30.24
15356,0.328,-0.0265,0.8615,-6.7,8.0,-0.05,30.23
15366,0.3251,-0.0256,0.8651,-6.76,7.98,0.06,30.23
15376,0.329,-0.0262,0.8672,-6.82,7.98,-0.02,30.25
15386,0.3254,-0.0244,0.864,-6.75,7.95,-0.06,30.26
15396,0.3274,-0.0262,0.8665,-6.76,7.92,-0.06,30.24
15406,0.3278,-0.0261,0.8632,-6.69,7.95,0.02,30.25
15416,0.3302,-0.0275,0.863,-6.75,7.92,-0.02,30.26
15426,0.3269,-0.0259,0.8654,-6.7,7.98,-0.05,30.24
15436,0.3314,-0.0276,0.8654,-6.73,8.05,-0.08,30.25
15446,0.3276,-0.0271,0.8672,-6.76,7.97,-0.02,30.23
15456,0.3291,-0.0269,0.8676,-6.72,7.95,-0.09,30.26
15466,0.3292,-0.0254,0.8649,-6.76,7.95,-0.06,30.22
15476,0.3281,-0.0237,0.8674,-6.73,7.94,-0.02,30.26
15486,0.3285,-0.0264,0.866,-6.75,7.92,-0.05,30.24
15496,0.3284,-0.0233,0.8655,-6.75,7.95,-0.05,30.22
15506,0.3275,-0.0237,0.8633,-6.78,7.91,-0.06,30.23
15516,0.3276,-0.0262,0.8622,-6.72,7.95,-0.09,30.25
15526,0.3273,-0.025,0.8649,-6.81,7.98,-0.02,30.24
15536,0.3276,-0.0275,0.8667,-6.72,7.98,0.0,30.23
15546,0.329,-0.0245,0.8663,-6.76,7.92,-0.03,30.24
15556,0.3274,-0.0275,0.864,-6.72,7.92,-0.08,30.25
15566,0.3279,-0.0248,0.8646,-6.73,8.03,-0.08,30.24
15576,0.3279,-0.0238,0.8632,-6.73,7.98,-0.03,30.22
15586,0.3278,-0.026,0.8633,-6.75,7.98,-0.06,30.22
15596,0.3259,-0.0242,0.8623,-6.72,7.98,-0.06,30.23
15606,0.3298,-0.0264,0.8644,-6.75,8.02,-0.08,30.23
15616,0.3284,-0.0248,0.8595,-6.76,7.94,-0.08,30.23
15626,0.3297,-0.0228,0.8634,-6.76,7.98,0.02,30.24
15636,0.3313,-0.0237,0.8645,-6.76,7.95,-0.05,30.23
15646,0.3286,-0.0254,0.8694,-6.72,8.0,-0.09,30.24
15656,0.3278,-0.028,0.8656,-6.78,7.97,-0.15,30.23
15666,0.3292,-0.0267,0.8665,-6.72,8.03,-0.11,30.23
15676,0.3275,-0.0275,0.8696,-6.7,8.03,-0.12,30.25
15686,0.329,-0.0266,0.8635,-6.78,7.91,0.0,30.24
15696,0.329,-0.0248,0.8663,-6.78,7.95,-0.08,30.24
15706,0.3287,-0.026,0.866,-6.79,7.85,0.03,30.25
15716,0.3264,-0.0255,0.8684,-6.75,8.05,-0.08,30.23
15726,0.3304,-0.0267,0.8673,-6.75,8.0,-0.08,30.24
15736,0.3256,-0.0259,0.8641,-6.75,7.97,-0.12,30.22
15746,0.3273,-0.0243,0.8633,-6.78,7.98,-0.12,30.22
15756,0.3287,-0.026,0.861,-6.81,8.03,-0.03,30.22
15766,0.3287,-0.0287,0.8683,-6.89,8.09,-0.11,30.23
15776,0.3274,-0.0261,0.8673,-6.73,8.0,-0.05,30.23
15786,0.3274,-0.0256,0.8624,-6.75,8.0,0.0,30.22
15796,0.33,-0.0266,0.8633,-6.73,7.98,-0.06,30.22
15806,0.3286,-0.0267,0.8633,-6.72,7.92,-0.08,30.24
15816,0.3302,-0.0269,0.8628,-6.78,7.92,-0.08,30.22
15826,0.3264,-0.0237,0.8639,-6.75,7.97,-0.03,30.24
15836,0.3284,-0.0255,0.8636,-6.81,7.97,-0.03,30.25
15846,0.3278,-0.026,0.8644,-6.81,8.03,-0.09,30.24
15856,0.3296,-0.0255,0.868,-6.72,8.03,-0.06,30.24
15866,0.3298,-0.0245,0.8678,-6.89,7.95,-0.06,30.25
15876,0.3251,-0.0276,0.8647,-6.76,7.94,-0.12,30.23
15886,0.3267,-0.0239,0.8676,-6.73,8.03,-0.03,30.24
15896,0.3296,-0.0266,0.8647,-6.82,7.97,0.02,30.23
15906,0.3276,-0.0236,0.8646,-6.76,7.97,-0.03,30.23
15916,0.3287,-0.0287,0.8625,-6.81,7.95,-0.03,30.23
15926,0.3278,-0.0244,0.8646,-6.82,7.97,-0.14,30.24
15936,0.3258,-0.0259,0.8639,-6.73,7.97,-0.09,30.23
15946,0.3256,-0.0251,0.8672,-6.82,7.94,-0.05,30.25
15956,0.3295,-0.026,0.8669,-6.75,7.98,-0.06,30.23
15966,0.3281,-0.0233,0.8636,-6.73,8.05,-0.05,30.22
15976,0.3279,-0.0239,0.8624,-6.7,7.97,-0.03,30.24
15986,0.327,-0.0242,0.8641,-6.72,8.02,-0.06,30.24
15996,0.3252,-0.0249,0.8656,-6.85,7.94,0.0,30.26
16006,0.3286,-0.0258,0.865,-6.79,7.91,-0.12,30.26
16016,0.329,-0.0264,0.8625,-6.79,7.98,-0.09,30.22
16026,0.3303,-0.0277,0.8617,-6.75,7.94,-0.06,30.24
16036,0.3286,-0.0266,0.8635,-6.78,7.94,-0.06,30.23
16046,0.327,-0.0275,0.8645,-6.82,8.02,-0.05,30.25
16056,0.3262,-0.0254,0.8608,-6.81,8.11,-0.02,30.27
16066,0.3268,-0.0244,0.8604,-6.75,8.02,-0.06,30.24
16076,0.3286,-0.0265,0.8644,-6.84,8.0,-0.05,30.25
16086,0.3295,-0.0243,0.8635,-6.78,8.05,-0.09,30.24
16096,0.3276,-0.027,0.8607,-6.73,8.0,-0.02,30.24
16106,0.3259,-0.0264,0.8674,-6.76,7.98,-0.06,30.22
16116,0.3296,-0.026,0.8666,-6.75,8.0,-0.03,30.24
16126,0.3275,-0.0266,0.8668,-6.81,7.95,0.0,30.25
16136,0.3285,-0.0282,0.8619,-6.76,7.88,-0.06,30.24
16146,0.3279,-0.024,0.8623,-6.79,8.05,-0.08,30.25
16156,0.3271,-0.0245,0.8666,-6.73,8.05,-0.03,30.25
16166,0.3268,-0.0264,0.8656,-6.76,7.94,0.02,30.23
16176,0.33,-0.0267,0.8656,-6.72,7.94,-0.09,30.23
16186,0.3281,-0.0278,0.8616,-6.76,7.91,-0.03,30.24
16196,0.3269,-0.0244,0.8663,-6.78,7.97,-0.08,30.24
16206,0.3287,-0.0282,0.866,-6.79,7.98,-0.11,30.21
16216,0.3252,-0.027,0.863,-6.81,7.97,-0.08,30.22
16226,0.327,-0.0244,0.8591,-6.73,7.95,-0.08,30.24
16236,0.3257,-0.0273,0.8608,-6.67,8.0,-0.03,30.23
16246,0.3257,-0.0216,0.8649,-6.76,8.0,0.0,30.24
16256,0.3276,-0.0272,0.8651,-6.76,7.98,0.0,30.24
16266,0.3273,-0.0255,0.8654,-6.78,7.92,-0.05,30.24
16276,0.3296,-0.0255,0.8672,-6.69,7.94,-0.05,30.24
16286,0.3295,-0.0278,0.861,-6.78,7.97,-0.06,30.22
16296,0.3286,-0.0273,0.8629,-6.76,7.97,-0.05,30.25
16306,0.3281,-0.0243,0.8654,-6.73,8.05,-0.05,30.22
16316,0.3279,-0.0251,0.865,-6.79,8.02,-0.09,30.25
16326,0.3274,-0.0281,0.8632,-6.82,7.98,-0.02,30.25
16336,0.3296,-0.0251,0.8654,-6.84,7.92,-0.09,30.26
16346,0.3258,-0.0248,0.8674,-6.85,7.97,-0.05,30.23
16356,0.3297,-0.0242,0.8676,-6.84,7.89,-0.05,30.26
16366,0.3303,-0.0234,0.8677,-6.75,7.94,-0.03,30.23
16376,0.3306,-0.026,0.8652,-6.81,7.91,-0.03,30.24
16386,0.3284,-0.0264,0.8655,-6.73,7.89,0.03,30.24
16396,0.3289,-0.0272,0.8615,-6.69,7.89,-0.02,30.25
16406,0.3279,-0.0255,0.8671,-6.76,8.05,-0.03,30.25
16416,0.3262,-0.0234,0.8679,-6.82,7.95,-0.09,30.22
16426,0.3278,-0.0239,0.8627,-6.75,8.0,-0.08,30.26
16436,0.3263,-0.0245,0.8661,-6.7,7.98,-0.03,30.25
16446,0.3264,-0.0245,0.8635,-6.82,7.97,-0.08,30.27
16456,0.3298,-0.0259,0.865,-6.7,7.95,-0.11,30.25
16466,0.3286,-0.0265,0.866,-6.73,7.92,-0.08,30.28
16476,0.3291,-0.0251,0.8666,-6.81,7.98,0.02,30.24
16486,0.3284,-0.0236,0.8636,-6.76,7.95,0.0,30.26
16496,0.3296,-0.0247,0.8604,-6.75,7.95,-0.06,30.26
16506,0.3292,-0.0229,0.8638,-6.82,8.03,-0.02,30.27
16516,0.3267,-0.0269,0.8657,-6.72,8.0,-0.09,30.27
16526,0.3282,-0.0258,0.8654,-6.72,7.98,0.03,30.24
16536,0.328,-0.0259,0.8655,-6.78,7.98,0.03,30.24
16546,0.3289,-0.026,0.8645,-6.79,7.97,0.0,30.25
16556,0.328,-0.0256,0.8628,-6.72,8.05,-0.11,30.25
16566,0.3263,-0.0245,0.8639,-6.67,8.02,-0.03,30.26
16576,0.3275,-0.0243,0.8635,-6.79,7.94,0.0,30.26
16586,0.328,-0.027,0.8667,-6.7,8.03,-0.09,30.27
16596,0.3284,-0.0258,0.8674,-6.69,7.98,-0.05,30.27
16606,0.3267,-0.0249,0.8633,-6.78,7.91,-0.03,30.25
16616,0.3292,-0.0253,0.8655,-6.79,7.98,-0.03,30.27
16626,0.329,-0.0247,0.8646,-6.82,8.0,-0.06,30.27
16636,0.3282,-0.0243,0.8632,-6.72,7.97,-0.05,30.25
16646,0.3286,-0.0264,0.864,-6.75,7.92,0.03,30.27
16656,0.3289,-0.0234,0.8651,-6.78,7.95,-0.06,30.27
16666,0.3275,-0.0242,0.8651,-6.84,7.97,-0.03,30.25
16676,0.3306,-0.0259,0.8606,-6.81,7.97,-0.14,30.25
16686,0.3292,-0.026,0.8671,-6.67,7.94,-0.08,30.24
16696,0.3269,-0.0254,0.8671,-6.81,7.94,-0.05,30.25
16706,0.3279,-0.0258,0.8656,-6.72,7.98,0.0,30.25
16716,0.3251,-0.0244,0.8682,-6.7,7.97,-0.02,30.27
16726,0.3282,-0.0251,0.8655,-6.76,7.95,-0.03,30.27
16736,0.3287,-0.0254,0.8643,-6.84,7.92,0.0,30.25
16746,0.3323,-0.0251,0.8621,-6.72,7.89,-0.08,30.23
16756,0.3281,-0.0247,0.8632,-6.67,7.91,-0.06,30.24
16766,0.3265,-0.024,0.8672,-6.72,8.05,-0.09,30.26
16776,0.3281,-0.0239,0.8676,-6.78,8.02,-0.05,30.25
16786,0.3291,-0.0248,0.8671,-6.76,8.0,-0.03,30.25
16796,0.3285,-0.0276,0.8643,-6.76,7.97,-0.06,30.25
16806,0.3256,-0.025,0.864,-6.79,7.98,-0.06,30.26
16816,0.3285,-0.0262,0.8655,-6.81,7.95,-0.11,30.29
16826,0.3289,-0.0251,0.8615,-6.82,7.97,-0.03,30.25
16836,0.3265,-0.0254,0.8651,-6.78,7.95,-0.02,30.24
16846,0.3282,-0.0245,0.8656,-6.73,8.05,-0.03,30.26
16856,0.3282,-0.0255,0.8667,-6.73,7.98,-0.05,30.27
16866,0.3284,-0.0275,0.8658,-6.84,7.95,-0.06,30.25
16876,0.3287,-0.027,0.8654,-6.75,7.94,-0.05,30.28
16886,0.3271,-0.025,0.8673,-6.81,7.94,-0.11,30.27
16896,0.3262,-0.0271,0.8655,-6.79,8.02,-0.06,30.25
16907,0.3264,-0.0254,0.8656,-6.78,7.94,-0.06,30.26
16917,0.3254,-0.0271,0.8635,-6.81,7.94,-0.02,30.27
16927,0.3286,-0.0253,0.8655,-6.76,7.95,-0.02,30.25
16937,0.3265,-0.0253,0.8635,-6.76,8.0,0.05,30.26
16947,0.3279,-0.0243,0.8636,-6.78,7.94,0.06,30.27
16957,0.3306,-0.0267,0.864,-6.72,8.0,-0.03,30.29
16967,0.328,-0.0251,0.8679,-6.73,7.97,-0.02,30.25
16977,0.3278,-0.0278,0.8652,-6.75,7.95,-0.09,30.26
16987,0.3278,-0.0262,0.8628,-6.72,7.94,-0.03,30.27
16997,0.328,-0.0259,0.864,-6.81,7.95,-0.09,30.26
17007,0.3303,-0.0269,0.8608,-6.76,8.0,-0.05,30.27
17017,0.3247,-0.0245,0.8655,-6.73,7.91,-0.06,30.28
17027,0.3285,-0.0244,0.8661,-6.75,7.95,-0.03,30.24
17037,0.3256,-0.0247,0.8673,-6.78,8.02,-0.05,30.25
17047,0.3264,-0.0243,0.8662,-6.79,7.94,-0.03,30.24
17058,0.3298,-0.0247,0.8649,-6.75,8.0,-0.11,30.28
17068,0.3263,-0.025,0.8649,-6.75,7.92,-0.09,30.28
17079,0.3271,-0.0239,0.8657,-6.73,7.91,0.0,30.28
17089,0.3295,-0.0272,0.865,-6.82,7.98,-0.02,30.26
17099,0.3269,-0.0266,0.864,-6.76,7.91,-0.11,30.24
17109,0.3262,-0.0253,0.8683,-6.81,7.98,-0.12,30.25
17119,0.3257,-0.026,0.8666,-6.78,7.91,-0.05,30.25
17129,0.326,-0.025,0.8658,-6.73,7.95,-0.08,30.26
17139,0.3259,-0.0273,0.8644,-6.72,7.91,-0.06,30.27
17149,0.3275,-0.024,0.8616,-6.72,7.86,-0.09,30.27
17159,0.3287,-0.0266,0.8673,-6.78,7.98,-0.03,30.26
17169,0.3254,-0.0236,0.863,-6.81,7.94,-0.08,30.29
17179,0.3278,-0.025,0.8674,-6.85,7.97,-0.08,30.29
17189,0.3287,-0.0272,0.861,-6.75,7.98,-0.06,30.27
17199,0.3308,-0.0297,0.8643,-6.7,7.97,-0.06,30.28
17209,0.329,-0.0264,0.8683,-6.78,7.97,-0.03,30.27
17219,0.3268,-0.0247,0.8638,-6.84,8.02,-0.06,30.27
17229,0.3289,-0.0269,0.8657,-6.7,8.0,-0.02,30.26
17239,0.3291,-0.0261,0.8611,-6.78,7.94,-0.08,30.27
17249,0.3275,-0.0243,0.8668,-6.76,8.0,-0.05,30.28
17259,0.3251,-0.0242,0.8644,-6.72,7.97,-0.09,30.27
17269,0.3273,-0.0256,0.866,-6.67,7.95,-0.05,30.27
17279,0.3284,-0.0243,0.8634,-6.76,7.94,-0.02,30.27
17289,0.3298,-0.0242,0.8666,-6.84,7.95,-0.02,30.25
17299,0.3278,-0.025,0.8617,-6.81,7.97,-0.06,30.27
17309,0.327,-0.0266,0.865,-6.82,8.0,-0.03,30.25
17319,0.3273,-0.0243,0.8672,-6.84,7.98,-0.06,30.26
17329,0.3278,-0.0212,0.8639,-6.81,7.98,-0.06,30.26
17339,0.3268,-0.0219,0.8639,-6.84,8.02,-0.05,30.25
17349,0.3279,-0.0229,0.8674,-6.78,8.02,-0.08,30.28
17359,0.3284,-0.0269,0.8678,-6.72,7.98,-0.06,30.29
17369,0.3289,-0.0248,0.8617,-6.67,8.02,-0.02,30.27
17379,0.3281,-0.0245,0.863,-6.72,8.03,-0.08,30.27
17389,0.3287,-0.0253,0.8643,-6.75,7.97,-0.09,30.27
17399,0.3296,-0.0262,0.8668,-6.76,7.97,-0.03,30.27
17409,0.3262,-0.0253,0.8662,-6.7,7.94,-0.11,30.29
17420,0.3237,-0.0284,0.8607,-6.82,8.03,-0.02,30.26
17430,0.3268,-0.0245,0.8672,-6.81,7.97,-0.06,30.3
17440,0.3278,-0.0253,0.8645,-6.72,7.98,-0.11,30.27
17451,0.3259,-0.0244,0.8668,-6.79,8.0,-0.05,30.28
17463,0.3247,-0.026,0.8597,-6.85,8.02,-0.06,30.26
17473,0.3292,-0.0249,0.8673,-6.73,7.98,0.0,30.27
17483,0.3285,-0.0269,0.8627,-6.75,7.91,-0.03,30.28
17493,0.3289,-0.0253,0.8616,-6.73,7.91,0.0,30.27
17503,0.3278,-0.0282,0.8667,-6.82,7.91,-0.06,30.28
17513,0.3263,-0.0273,0.8696,-6.76,8.0,-0.08,30.26
17523,0.3297,-0.0248,0.8668,-6.76,7.92,-0.11,30.27
17533,0.326,-0.0258,0.8613,-6.81,7.95,-0.06,30.29
17543,0.3291,-0.0233,0.871,-6.76,7.92,-0.06,30.25
17553,0.3271,-0.0281,0.8689,-6.79,7.95,-0.05,30.27
17563,0.3242,-0.0264,0.8674,-6.79,8.02,-0.12,30.27
17573,0.3282,-0.025,0.8658,-6.72,7.97,-0.09,30.28
17583,0.3258,-0.0266,0.8628,-6.78,8.02,-0.02,30.28
17593,0.3267,-0.0258,0.8634,-6.78,8.0,-0.14,30.25
17603,0.3281,-0.0262,0.8671,-6.84,7.98,0.0,30.27
17613,0.329,-0.0243,0.8625,-6.75,8.03,-0.03,30.27
17623,0.33,-0.0271,0.8624,-6.75,7.98,-0.03,30.26
17633,0.3307,-0.0256,0.8633,-6.76,8.03,0.0,30.27
17643,0.3275,-0.025,0.8654,-6.81,7.98,-0.02,30.26
17653,0.3291,-0.028,0.8652,-6.82,8.0,-0.03,30.27
17664,0.3279,-0.0275,0.8673,-6.73,7.97,-0.08,30.28
17674,0.3285,-0.0251,0.8646,-6.75,7.95,-0.12,30.28
17684,0.3275,-0.0256,0.8683,-6.72,8.03,0.0,30.26
17694,0.3282,-0.0236,0.8652,-6.82,8.0,-0.03,30.28
17704,0.3293,-0.0278,0.8607,-6.81,7.94,-0.06,30.26
17714,0.3256,-0.026,0.8645,-6.75,7.97,-0.03,30.29
17724,0.3317,-0.0287,0.8652,-6.85,8.0,-0.02,30.28
17734,0.3268,-0.0282,0.8639,-6.76,8.0,0.06,30.28
17744,0.3296,-0.0251,0.866,-6.85,7.89,-0.05,30.26
17754,0.3303,-0.0267,0.8691,-6.76,8.0,-0.03,30.24
17764,0.3293,-0.0262,0.8652,-6.73,7.97,-0.08,30.27
17774,0.3251,-0.0261,0.866,-6.79,7.97,-0.08,30.27
17784,0.3278,-0.0237,0.8663,-6.78,7.98,-0.02,30.26
17795,0.3276,-0.0273,0.8665,-6.87,7.98,-0.11,30.27
17805,0.3287,-0.0262,0.8643,-6.75,7.98,-0.03,30.27
17815,0.329,-0.024,0.866,-6.79,7.97,-0.11,30.26
17825,0.3259,-0.0265,0.8623,-6.75,7.94,-0.03,30.29
17835,0.3301,-0.0249,0.8654,-6.76,7.95,-0.02,30.29
17845,0.329,-0.0267,0.864,-6.76,7.97,-0.08,30.28
17855,0.3284,-0.0265,0.8669,-6.75,8.03,-0.02,30.29
17865,0.3282,-0.0293,0.8667,-6.7,7.98,-0.03,30.27
17875,0.3282,-0.0233,0.8651,-6.73,7.89,-0.05,30.28
17885,0.3276,-0.0253,0.8687,-6.78,8.02,-0.08,30.27
17895,0.3268,-0.0259,0.8673,-6.72,7.92,-0.03,30.3
17905,0.3314,-0.0289,0.8673,-6.81,7.97,-0.03,30.27
17915,0.327,-0.0295,0.8627,-6.73,7.92,-0.06,30.28
17925,0.326,-0.0277,0.863,-6.78,7.94,-0.03,30.28
17935,0.3285,-0.0238,0.863,-6.76,7.88,-0.06,30.27
17945,0.3303,-0.0255,0.8665,-6.81,7.98,-0.03,30.26
17955,0.33,-0.0287,0.8639,-6.89,8.0,-0.03,30.3
17965,0.3308,-0.0264,0.8689,-6.79,7.97,0.0,30.27
17975,0.3306,-0.0265,0.8634,-6.78,7.95,-0.03,30.27
17985,0.3281,-0.0253,0.8657,-6.79,7.88,-0.03,30.29
17995,0.3271,-0.0248,0.8655,-6.81,8.0,0.0,30.26
18005,0.3278,-0.0255,0.8667,-6.85,8.05,-0.05,30.28
18015,0.3268,-0.026,0.8661,-6.7,7.98,-0.09,30.29
18025,0.327,-0.0261,0.8665,-6.73,7.97,-0.12,30.3
18035,0.3273,-0.0251,0.8638,-6.75,8.03,-0.09,30.28
18045,0.3301,-0.025,0.8623,-6.76,8.0,-0.05,30.31
18055,0.33,-0.0251,0.8636,-6.76,7.92,-0.06,30.27
18065,0.3285,-0.0225,0.8658,-6.78,7.98,-0.05,30.28
18075,0.3275,-0.0254,0.8683,-6.79,7.97,-0.11,30.27
18085,0.3256,-0.026,0.8622,-6.73,7.91,-0.05,30.26
18095,0.33,-0.0261,0.8641,-6.76,7.91,-0.05,30.27
18105,0.3282,-0.0275,0.8663,-6.73,7.95,0.0,30.27
18115,0.3287,-0.0239,0.864,-6.81,8.0,0.0,30.27
18125,0.3285,-0.025,0.8696,-6.72,7.95,0.0,30.26
18135,0.3278,-0.0262,0.8646,-6.82,8.0,-0.02,30.27
18145,0.33,-0.025,0.869,-6.76,8.03,-0.09,30.26
18155,0.3297,-0.0239,0.8639,-6.76,7.97,-0.06,30.26
18165,0.3279,-0.0286,0.8661,-6.73,7.94,-0.06,30.27
18175,0.3275,-0.0254,0.8623,-6.85,8.06,-0.05,30.27
18185,0.328,-0.0236,0.8661,-6.76,7.91,-0.06,30.27
18195,0.3274,-0.0259,0.8636,-6.75,7.91,0.02,30.27
18205,0.3257,-0.0261,0.8649,-6.78,8.0,-0.17,30.28
18215,0.3269,-0.0256,0.8691,-6.79,8.05,0.0,30.27
18225,0.3267,-0.0225,0.8668,-6.73,7.95,0.02,30.29
18235,0.3293,-0.0255,0.8646,-6.76,7.94,-0.02,30.27
18245,0.3251,-0.0244,0.8666,-6.78,7.97,-0.09,30.28
18255,0.3281,-0.0282,0.8652,-6.75,8.02,-0.09,30.27
18265,0.328,-0.0251,0.864,-6.85,8.0,-0.02,30.26
18275,0.3298,-0.0261,0.864,-6.82,7.97,-0.09,30.27
18285,0.3259,-0.0273,0.866,-6.78,8.05,-0.03,30.27
18295,0.3268,-0.0297,0.8611,-6.78,8.0,-0.06,30.28
18305,0.3291,-0.0262,0.8662,-6.75,7.92,-0.02,30.28
18315,0.3275,-0.0248,0.8649,-6.75,7.92,0.02,30.28
18325,0.3325,-0.024,0.8615,-6.87,7.94,-0.05,30.27
18335,0.3248,-0.0259,0.8677,-6.76,8.06,-0.03,30.27
18345,0.3251,-0.025,0.8654,-6.7,8.02,-0.06,30.29
18355,0.3231,-0.0271,0.8654,-6.79,8.05,-0.02,30.25
18365,0.329,-0.028,0.8654,-6.82,8.0,-0.09,30.27
18375,0.3295,-0.0259,0.8634,-6.78,8.05,-0.11,30.27
18385,0.3264,-0.0267,0.8612,-6.79,8.03,-0.11,30.27
18395,0.3259,-0.0225,0.866,-6.76,8.09,0.03,30.25
18405,0.3291,-0.026,0.8674,-6.72,8.0,-0.03,30.26
18415,0.3296,-0.0289,0.8646,-6.73,8.02,-0.03,30.26
18425,0.3291,-0.0245,0.8638,-6.81,7.94,-0.11,30.26
18435,0.3279,-0.0266,0.8647,-6.7,8.02,-0.02,30.26
18445,0.3263,-0.0251,0.8627,-6.82,8.0,-0.02,30.25
18455,0.3293,-0.0248,0.8698,-6.76,7.97,-0.05,30.28
18465,0.3279,-0.0261,0.8673,-6.84,7.88,0.03,30.29
18475,0.3281,-0.0264,0.863,-6.75,7.97,-0.03,30.25
18485,0.3264,-0.026,0.8667,-6.87,7.95,-0.05,30.26
18495,0.3275,-0.0243,0.8635,-6.81,8.0,0.0,30.28
18505,0.3303,-0.0256,0.8656,-6.79,7.97,-0.06,30.26
18515,0.3296,-0.0251,0.8617,-6.76,8.0,-0.05,30.27
18525,0.3297,-0.0237,0.8651,-6.82,8.02,-0.03,30.27
18535,0.3287,-0.0249,0.8656,-6.76,8.03,-0.09,30.27
18545,0.3258,-0.0254,0.8624,-6.78,8.02,-0.02,30.25
18555,0.327,-0.026,0.866,-6.73,7.94,-0.08,30.29
18565,0.327,-0.0269,0.865,-6.75,7.98,0.02,30.26
18575,0.328,-0.0282,0.8649,-6.79,7.94,0.0,30.28
18585,0.3289,-0.0261,0.8639,-6.82,7.97,-0.08,30.3
18595,0.3308,-0.0251,0.8652,-6.85,7.94,-0.02,30.26
18605,0.3253,-0.0253,0.8645,-6.79,7.94,-0.03,30.25
18615,0.3297,-0.0269,0.864,-6.81,8.02,-0.05,30.26
18625,0.3304,-0.028,0.8627,-6.75,7.98,-0.02,30.26
18635,0.3282,-0.0238,0.8649,-6.72,7.95,-0.05,30.27
18645,0.3293,-0.0262,0.8618,-6.73,8.0,-0.03,30.27
18655,0.3251,-0.0251,0.8651,-6.69,7.95,-0.02,30.27
18665,0.3306,-0.0227,0.865,-6.79,7.97,-0.06,30.26
18675,0.3284,-0.024,0.8632,-6.72,7.97,-0.06,30.28
18685,0.3267,-0.024,0.8624,-6.7,8.03,-0.05,30.28
18695,0.3263,-0.0264,0.8632,-6.82,7.97,-0.05,30.28
18705,0.3276,-0.0238,0.8616,-6.76,7.95,-0.06,30.27
18715,0.3292,-0.0272,0.8691,-6.75,7.98,-0.05,30.26
18725,0.3254,-0.0291,0.8661,-6.73,7.95,0.0,30.26
18735,0.3279,-0.0247,0.8662,-6.78,7.98,-0.03,30.28
18745,0.3292,-0.0269,0.8649,-6.76,7.94,-0.08,30.26
18755,0.3289,-0.0254,0.8672,-6.78,8.03,-0.05,30.27
18765,0.3281,-0.0253,0.8619,-6.67,8.02,0.0,30.29
18775,0.3247,-0.0234,0.8649,-6.72,7.95,-0.08,30.26
18785,0.3302,-0.0236,0.8657,-6.73,8.03,-0.06,30.28
18795,0.3274,-0.0238,0.8666,-6.75,7.97,-0.12,30.29
18805,0.327,-0.0258,0.8656,-6.81,8.02,0.03,30.27
18815,0.3296,-0.0256,0.8657,-6.79,8.0,-0.03,30.27
18825,0.33,-0.0258,0.8662,-6.82,7.94,-0.05,30.27
18835,0.3278,-0.0255,0.8667,-6.79,7.94,-0.03,30.27
18845,0.3286,-0.025,0.8641,-6.79,8.0,-0.06,30.28
18855,0.3297,-0.0248,0.8619,-6.73,7.98,-0.09,30.26
18865,0.3301,-0.0273,0.8652,-6.78,8.03,-0.06,30.27
18875,0.3281,-0.0278,0.8654,-6.7,8.03,-0.11,30.29
18885,0.329,-0.0261,0.866,-6.81,7.97,-0.02,30.28
18895,0.3273,-0.0259,0.866,-6.73,8.0,0.0,30.29
18905,0.3311,-0.0243,0.8655,-6.7,8.06,-0.06,30.24
18915,0.3276,-0.0265,0.8628,-6.79,8.02,-0.03,30.27
18925,0.3284,-0.0272,0.8607,-6.84,7.92,-0.06,30.27
18935,0.3264,-0.0267,0.8666,-6.79,7.92,-0.09,30.27
18945,0.3256,-0.0288,0.8629,-6.84,7.95,-0.06,30.3
18955,0.3251,-0.0271,0.8635,-6.82,7.94,-0.05,30.26
18965,0.3285,-0.0258,0.8652,-6.72,7.98,-0.02,30.29
18975,0.3292,-0.0275,0.8661,-6.7,8.02,-0.03,30.31
18985,0.3258,-0.0262,0.8615,-6.81,7.98,-0.06,30.25
18995,0.3295,-0.0265,0.8612,-6.72,7.95,-0.05,30.29
19005,0.3318,-0.0267,0.8629,-6.72,7.97,-0.11,30.29
19015,0.3276,-0.0223,0.8669,-6.79,7.94,-0.06,30.29
19025,0.3257,-0.0244,0.8663,-6.76,7.98,-0.05,30.29
19035,0.3271,-0.0278,0.865,-6.73,7.97,0.0,30.27
19045,0.3263,-0.0244,0.8652,-6.84,7.92,-0.05,30.27
19055,0.3268,-0.0244,0.8679,-6.75,8.0,0.02,30.28
19065,0.3311,-0.027,0.8649,-6.75,7.97,-0.06,30.28
19075,0.3263,-0.0254,0.8662,-6.78,8.03,-0.08,30.29
19085,0.3282,-0.0264,0.8689,-6.76,7.97,-0.11,30.29
19095,0.3306,-0.0239,0.8693,-6.76,7.97,-0.12,30.27
19105,0.3296,-0.0267,0.8666,-6.79,8.02,-0.08,30.29
19115,0.3279,-0.0244,0.8687,-6.73,7.95,-0.03,30.29
19125,0.3279,-0.024,0.8635,-6.73,7.97,-0.09,30.27
19135,0.3257,-0.0243,0.8688,-6.76,7.91,-0.06,30.28
19145,0.3281,-0.0255,0.8639,-6.78,7.95,-0.03,30.28
19155,0.3292,-0.0232,0.8647,-6.81,7.92,-0.08,30.28
19165,0.3287,-0.0239,0.8652,-6.81,7.91,0.03,30.29
19175,0.3267,-0.024,0.8684,-6.75,7.98,-0.11,30.27
19185,0.3278,-0.0276,0.8712,-6.73,8.0,-0.05,30.27
19195,0.3278,-0.0236,0.8635,-6.75,7.95,-0.03,30.28
19205,0.3284,-0.0265,0.8638,-6.79,7.97,-0.06,30.29
19215,0.3269,-0.0254,0.866,-6.75,7.97,-0.09,30.29
19225,0.3293,-0.0294,0.8633,-6.75,7.97,-0.03,30.27
19235,0.326,-0.0255,0.8672,-6.72,7.89,0.0,30.28
19245,0.3274,-0.0254,0.8633,-6.81,8.02,-0.08,30.29
19255,0.3254,-0.0283,0.865,-6.82,7.89,-0.12,30.29
19265,0.3278,-0.025,0.8635,-6.75,7.92,-0.02,30.26
19275,0.3275,-0.0265,0.8668,-6.82,7.95,-0.12,30.27
19286,0.329,-0.0267,0.8656,-6.78,8.02,-0.05,30.29
19296,0.3298,-0.0264,0.8649,-6.78,7.98,0.0,30.3
19306,0.3274,-0.0253,0.8646,-6.81,8.03,-0.08,30.29
19316,0.3247,-0.0272,0.8667,-6.69,7.95,-0.05,30.28
19326,0.3274,-0.0278,0.8674,-6.78,8.02,-0.08,30.28
19336,0.3285,-0.026,0.8616,-6.75,8.0,-0.09,30.27
19346,0.3291,-0.024,0.8562,-6.73,7.98,-0.02,30.29
19356,0.329,-0.0247,0.8654,-6.75,7.94,-0.08,30.27
19366,0.3256,-0.0256,0.8643,-6.85,7.94,-0.06,30.29
19376,0.3276,-0.0286,0.8644,-6.82,8.02,0.02,30.29
19386,0.3278,-0.0234,0.8634,-6.73,7.97,-0.12,30.29
19396,0.3281,-0.0269,0.8615,-6.7,7.95,0.0,30.29
19406,0.3281,-0.0256,0.8602,-6.69,7.94,0.0,30.28
19416,0.3271,-0.024,0.8641,-6.73,8.03,-0.08,30.29
19426,0.3257,-0.025,0.8638,-6.67,7.97,0.03,30.31
19436,0.329,-0.0277,0.8613,-6.67,8.03,-0.06,30.29
19446,0.3287,-0.0261,0.8606,-6.67,7.97,-0.05,30.27
19456,0.3295,-0.0229,0.8641,-6.73,8.02,-0.06,30.3
19466,0.3268,-0.0233,0.8652,-6.69,7.95,-0.05,30.26
19476,0.3285,-0.0249,0.8679,-6.76,7.97,-0.11,30.27
19486,0.3276,-0.0242,0.8643,-6.7,7.98,0.03,30.27
19496,0.3296,-0.0264,0.8674,-6.75,8.0,-0.05,30.29
19506,0.3256,-0.0282,0.8666,-6.79,7.94,-0.05,30.28
19516,0.332,-0.022,0.8641,-6.78,7.94,-0.02,30.29
19526,0.3275,-0.0237,0.8623,-6.73,8.03,-0.03,30.29
19536,0.3286,-0.0261,0.8656,-6.76,7.97,-0.09,30.32
19546,0.3275,-0.0243,0.8652,-6.66,7.95,-0.14,30.29
19556,0.328,-0.0267,0.8656,-6.79,7.98,0.0,30.32
19566,0.3259,-0.0267,0.8679,-6.76,7.95,-0.08,30.26
19577,0.3289,-0.0239,0.8698,-6.79,7.92,-0.06,30.29
19587,0.3278,-0.0242,0.8668,-6.85,7.94,0.0,30.27
19598,0.3295,-0.0266,0.8633,-6.81,7.98,-0.02,30.26
19608,0.3247,-0.0232,0.8618,-6.73,7.97,0.02,30.29
19618,0.3234,-0.026,0.866,-6.73,8.02,-0.02,30.29
19628,0.324,-0.0231,0.8635,-6.72,8.02,-0.05,30.29
19638,0.3273,-0.0229,0.8633,-6.76,7.95,0.02,30.29
19648,0.3267,-0.0237,0.8667,-6.78,8.02,0.0,30.3
19658,0.3279,-0.0259,0.8654,-6.78,7.98,-0.05,30.3
19668,0.3289,-0.0273,0.869,-6.73,7.95,-0.06,30.29
19678,0.3276,-0.0256,0.8694,-6.73,7.98,-0.06,30.27
19688,0.3273,-0.0265,0.8668,-6.67,8.0,-0.05,30.27
19698,0.3262,-0.0256,0.8672,-6.73,7.95,-0.05,30.3
19708,0.327,-0.028,0.8644,-6.75,8.0,-0.03,30.3
19720,0.3267,-0.0266,0.8677,-6.76,7.98,-0.03,30.28
19730,0.3278,-0.0272,0.8641,-6.79,8.03,-0.06,30.3
19740,0.3291,-0.0273,0.8669,-6.81,7.98,-0.09,30.29
19750,0.3271,-0.0278,0.8615,-6.78,7.97,-0.02,30.29
19761,0.3295,-0.0236,0.865,-6.78,8.0,-0.03,30.28
19771,0.3264,-0.026,0.8622,-6.78,8.03,0.0,30.28
19781,0.3278,-0.0242,0.8656,-6.76,8.03,0.02,30.28
19791,0.3302,-0.0261,0.8641,-6.75,8.02,0.02,30.3
19801,0.3295,-0.0269,0.8677,-6.75,8.0,-0.05,30.29
19811,0.327,-0.025,0.8677,-6.79,7.97,-0.11,30.28
19821,0.3263,-0.0259,0.8628,-6.78,7.95,-0.02,30.3
19831,0.33,-0.0242,0.8595,-6.81,7.95,-0.03,30.29
19841,0.329,-0.0261,0.8629,-6.73,7.92,-0.02,30.27
19851,0.3252,-0.0281,0.8666,-6.78,7.97,-0.11,30.29
19861,0.326,-0.0256,0.8641,-6.76,7.95,-0.05,30.27
19871,0.3281,-0.0281,0.8651,-6.76,7.95,0.02,30.29
19881,0.328,-0.0267,0.8665,-6.69,8.02,0.02,30.29
19891,0.3296,-0.0234,0.8645,-6.76,8.02,-0.06,30.28
19901,0.3274,-0.0244,0.8619,-6.73,7.94,-0.08,30.3
19911,0.3284,-0.027,0.8635,-6.82,7.95,-0.02,30.29
19921,0.3269,-0.0261,0.8644,-6.76,7.98,0.0,30.27
19931,0.3284,-0.024,0.8635,-6.78,7.88,-0.05,30.31
19941,0.3274,-0.0259,0.8661,-6.76,7.92,-0.06,30.3
19951,0.3296,-0.0264,0.8672,-6.82,7.98,0.0,30.3
19961,0.3278,-0.0272,0.87,-6.7,8.0,-0.08,30.3
19971,0.3282,-0.0259,0.8628,-6.79,7.98,0.02,30.29
19981,0.3296,-0.0253,0.8588,-6.84,7.98,-0.06,30.3
19991,0.3309,-0.0267,0.8632,-6.81,7.95,0.0,30.32
20001,0.3301,-0.0256,0.8649,-6.79,8.0,-0.06,30.3
20011,0.3262,-0.0236,0.8646,-6.78,7.97,-0.09,30.29
20021,0.3256,-0.0247,0.8629,-6.78,7.98,-0.03,30.29
20031,0.3274,-0.0259,0.865,-6.85,8.0,-0.06,30.29
20041,0.3269,-0.0284,0.8613,-6.72,8.0,-0.09,30.3
20051,0.329,-0.0255,0.8688,-6.76,8.02,-0.11,30.29
20061,0.3273,-0.0265,0.873,-6.67,7.95,0.02,30.29
20071,0.3273,-0.0266,0.8656,-6.76,7.95,-0.09,30.3
20081,0.3284,-0.0242,0.8655,-6.72,7.97,0.0,30.3
20091,0.328,-0.024,0.8644,-6.73,7.94,-0.03,30.29
20101,0.3275,-0.0249,0.8646,-6.81,7.97,-0.09,30.3
20111,0.3265,-0.0255,0.8632,-6.72,7.98,-0.02,30.3
20121,0.3286,-0.0271,0.8638,-6.66,7.91,-0.08,30.3
20131,0.3259,-0.0242,0.865,-6.72,7.98,-0.05,30.32
20141,0.3265,-0.0248,0.8629,-6.82,7.94,-0.08,30.3
20151,0.3248,-0.0236,0.8696,-6.82,8.0,-0.11,30.31
20161,0.3275,-0.0255,0.8621,-6.81,7.98,-0.08,30.32
20171,0.3286,-0.0258,0.8673,-6.84,7.94,-0.14,30.32
20181,0.3279,-0.0233,0.8639,-6.79,7.92,-0.06,30.31
20191,0.3267,-0.0244,0.864,-6.84,7.94,-0.09,30.29
20201,0.3295,-0.0226,0.8689,-6.67,7.98,-0.08,30.32
20211,0.3279,-0.0272,0.865,-6.75,7.88,0.05,30.32
20221,0.3278,-0.0275,0.8674,-6.76,7.91,-0.06,30.28
20231,0.3278,-0.0255,0.8671,-6.75,7.95,-0.08,30.3
20241,0.3287,-0.0249,0.8646,-6.76,7.95,-0.09,30.29
20251,0.3223,-0.0226,0.8635,-6.76,8.02,-0.02,30.28
20261,0.3306,-0.0262,0.8651,-6.76,8.02,0.0,30.32
20271,0.3313,-0.0272,0.8658,-6.73,7.97,-0.05,30.28
20281,0.3297,-0.0269,0.866,-6.73,7.97,-0.05,30.3
20291,0.329,-0.026,0.861,-6.81,7.98,0.05,30.3
20302,0.3271,-0.0254,0.8655,-6.81,7.98,-0.06,30.3
20312,0.326,-0.0273,0.8646,-6.85,8.02,-0.03,30.32
20322,0.3271,-0.026,0.863,-6.81,8.0,-0.05,30.29
20332,0.3274,-0.025,0.8623,-6.64,8.08,-0.05,30.3
20342,0.3295,-0.0267,0.8658,-6.72,7.97,-0.06,30.29
20352,0.3285,-0.0256,0.8661,-6.72,8.0,-0.06,30.3
20362,0.325,-0.0233,0.8684,-6.7,7.91,-0.02,30.29
20372,0.3263,-0.026,0.8658,-6.75,7.91,0.02,30.3
20382,0.3287,-0.0234,0.8674,-6.81,7.94,0.03,30.31
20392,0.3291,-0.0243,0.864,-6.79,7.91,-0.02,30.32
20402,0.329,-0.0276,0.8649,-6.75,7.94,0.0,30.31
20412,0.3287,-0.027,0.8633,-6.84,7.98,-0.09,30.29
20422,0.3278,-0.024,0.8668,-6.73,7.92,-0.11,30.28
20432,0.3304,-0.0249,0.8624,-6.81,7.92,-0.02,30.3
20442,0.3281,-0.0265,0.8665,-6.73,8.0,-0.02,30.29
20452,0.328,-0.0258,0.866,-6.82,8.05,-0.09,30.29
20462,0.3285,-0.0273,0.8663,-6.78,7.97,0.02,30.32
20472,0.326,-0.0247,0.8662,-6.75,7.97,-0.05,30.31
20482,0.3254,-0.0227,0.8665,-6.73,8.02,-0.06,30.32
20492,0.327,-0.0264,0.8645,-6.81,7.97,0.06,30.29
20502,0.3268,-0.0247,0.8669,-6.73,8.05,-0.03,30.3
20512,0.3271,-0.0264,0.8672,-6.76,7.94,-0.08,30.29
20522,0.3274,-0.024,0.8638,-6.81,8.02,-0.03,30.3
20532,0.3296,-0.0243,0.8651,-6.78,8.02,0.06,30.31
20542,0.3254,-0.0264,0.8667,-6.76,7.98,0.0,30.31
20552,0.3246,-0.0267,0.8658,-6.72,7.95,-0.03,30.31
20562,0.328,-0.0264,0.864,-6.75,7.97,-0.08,30.28
20572,0.3279,-0.0266,0.8687,-6.76,7.89,-0.03,30.29
20582,0.3328,-0.0275,0.8622,-6.82,8.0,-0.02,30.31
20592,0.3263,-0.0259,0.8668,-6.9,7.97,-0.05,30.29
20602,0.329,-0.025,0.8665,-6.76,7.91,-0.05,30.3
20612,0.3276,-0.0258,0.866,-6.78,7.95,-0.06,30.3
20622,0.3254,-0.0289,0.8652,-6.72,7.91,-0.02,30.32
20632,0.3284,-0.0265,0.8641,-6.73,8.0,-0.05,30.3
20642,0.3278,-0.0287,0.8656,-6.72,8.03,-0.03,30.29
20652,0.3264,-0.0265,0.8656,-6.78,7.92,-0.08,30.29
20662,0.3291,-0.0267,0.8641,-6.72,7.92,-0.06,30.3
20672,0.327,-0.0275,0.868,-6.75,8.0,-0.06,30.3
20682,0.3263,-0.0266,0.8628,-6.79,7.95,-0.08,30.3
20692,0.3259,-0.0273,0.8674,-6.73,7.97,-0.03,30.29
20702,0.332,-0.0249,0.8673,-6.79,8.0,-0.02,30.32
20712,0.3265,-0.0251,0.8616,-6.79,7.97,-0.15,30.3
20722,0.328,-0.0255,0.8628,-6.69,7.95,-0.02,30.31
20732,0.3285,-0.0247,0.8649,-6.72,7.95,0.0,30.32
20742,0.3278,-0.0255,0.8666,-6.75,7.98,-0.08,30.29
20752,0.328,-0.025,0.8674,-6.78,8.02,-0.03,30.31
20762,0.3256,-0.0276,0.8663,-6.76,8.03,-0.02,30.3
20772,0.3268,-0.028,0.8672,-6.79,8.02,-0.09,30.31
20782,0.328,-0.0253,0.8649,-6.82,7.97,-0.02,30.3
20792,0.3262,-0.0269,0.865,-6.78,7.94,-0.09,30.3
20802,0.3254,-0.0253,0.8638,-6.78,8.02,-0.08,30.31
20812,0.3291,-0.0264,0.866,-6.76,7.95,-0.05,30.3
20822,0.3289,-0.0266,0.8628,-6.81,7.97,-0.05,30.32
20832,0.3273,-0.0277,0.8676,-6.81,7.97,-0.08,30.29
20842,0.3284,-0.027,0.8649,-6.82,8.0,-0.02,30.3
20852,0.3269,-0.0239,0.8604,-6.73,7.97,-0.05,30.32
20862,0.3301,-0.0253,0.866,-6.81,7.94,-0.05,30.33
20872,0.3267,-0.0286,0.863,-6.79,8.0,-0.05,30.32
20882,0.329,-0.0267,0.8698,-6.76,7.98,0.02,30.31
20892,0.3306,-0.0264,0.8662,-6.79,7.97,0.05,30.33
20902,0.3269,-0.0253,0.8687,-6.79,7.97,-0.02,30.32
20912,0.3287,-0.0258,0.865,-6.79,7.92,-0.02,30.28
20922,0.3297,-0.0255,0.865,-6.81,7.88,-0.06,30.29
20932,0.3267,-0.027,0.8673,-6.76,7.95,-0.03,30.29
20942,0.3262,-0.0275,0.8636,-6.73,7.98,-0.02,30.31
20952,0.3264,-0.0256,0.8663,-6.82,7.94,-0.11,30.29
20962,0.3302,-0.0254,0.866,-6.81,7.94,-0.08,30.31
20972,0.3271,-0.0253,0.8617,-6.7,7.97,-0.02,30.32
20982,0.3292,-0.0258,0.8604,-6.79,7.89,-0.09,30.31
20992,0.3295,-0.025,0.864,-6.76,7.98,-0.12,30.32
21002,0.3298,-0.0282,0.8676,-6.82,7.97,0.06,30.28
21012,0.3284,-0.0251,0.8683,-6.85,7.95,0.0,30.29
21022,0.3276,-0.0258,0.8694,-6.78,8.0,-0.05,30.29
21032,0.329,-0.0261,0.8702,-6.73,7.98,-0.08,30.3
21042,0.3304,-0.0242,0.8654,-6.79,8.0,-0.05,30.31
21052,0.3278,-0.0282,0.8623,-6.76,8.0,-0.02,30.32
21062,0.3296,-0.0243,0.8624,-6.84,8.03,-0.11,30.3
21072,0.3279,-0.027,0.8643,-6.76,7.91,-0.06,30.31
21082,0.3286,-0.0234,0.8674,-6.69,7.97,-0.12,30.32
21092,0.3298,-0.0262,0.8599,-6.78,8.0,-0.02,30.31
21102,0.3293,-0.0253,0.8662,-6.72,7.98,-0.03,30.3
21112,0.3279,-0.026,0.8666,-6.84,7.97,-0.08,30.29
21122,0.3281,-0.0249,0.8649,-6.75,8.0,-0.09,30.32
21132,0.3262,-0.0255,0.8647,-6.79,7.97,-0.05,30.33
21142,0.3245,-0.0244,0.8655,-6.76,8.08,-0.09,30.33
21152,0.3275,-0.0254,0.8694,-6.76,7.95,-0.09,30.32
21162,0.3273,-0.0238,0.8647,-6.76,7.94,-0.06,30.33
21173,0.3298,-0.0259,0.8693,-6.79,8.05,-0.12,30.33
21183,0.3323,-0.0264,0.8625,-6.72,8.0,-0.12,30.32
21193,0.3286,-0.0266,0.8677,-6.84,7.97,0.03,30.34
21203,0.3251,-0.0266,0.8644,-6.79,7.97,0.0,30.31
21214,0.3279,-0.0228,0.8597,-6.84,7.95,-0.03,30.32
21224,0.3275,-0.024,0.8665,-6.76,8.02,-0.08,30.32
21234,0.3284,-0.0215,0.8654,-6.64,8.02,-0.11,30.28
21244,0.3264,-0.0291,0.8627,-6.82,7.94,-0.11,30.29
21254,0.3279,-0.0255,0.8662,-6.84,7.97,-0.03,30.3
21264,0.3264,-0.0262,0.8665,-6.79,7.98,-0.05,30.32
21274,0.328,-0.0262,0.8638,-6.76,7.95,-0.05,30.3
21284,0.3292,-0.0258,0.8645,-6.76,7.97,-0.03,30.29
21294,0.3285,-0.0248,0.8651,-6.78,7.95,-0.02,30.29
21304,0.3275,-0.0256,0.8638,-6.76,8.05,-0.03,30.29
21314,0.3275,-0.0242,0.8662,-6.72,7.94,-0.12,30.31
21324,0.327,-0.0261,0.8671,-6.75,7.98,0.02,30.33
21334,0.3282,-0.0269,0.8627,-6.81,7.95,-0.06,30.33
21344,0.3302,-0.0275,0.8656,-6.73,8.02,0.0,30.33
21354,0.3284,-0.0242,0.8654,-6.73,7.97,-0.06,30.31
21365,0.3313,-0.0232,0.8663,-6.75,7.89,-0.08,30.3
21375,0.3267,-0.028,0.8588,-6.73,7.88,-0.02,30.32
21385,0.328,-0.0269,0.8685,-6.72,7.92,-0.08,30.32
21395,0.3284,-0.0256,0.8657,-6.67,8.02,-0.02,30.31
21405,0.3247,-0.0223,0.8654,-6.73,7.95,0.02,30.31
21415,0.3292,-0.0251,0.8661,-6.78,7.97,-0.02,30.32
21425,0.3292,-0.026,0.8665,-6.81,7.89,-0.03,30.33
21435,0.3259,-0.0259,0.8677,-6.79,7.94,0.03,30.31
21445,0.3308,-0.027,0.8639,-6.81,8.03,-0.03,30.3
21455,0.3308,-0.0266,0.8657,-6.79,7.98,-0.05,30.3
21465,0.3267,-0.0239,0.8641,-6.79,7.95,-0.02,30.3
21475,0.3269,-0.0247,0.8639,-6.78,8.05,-0.06,30.31
21485,0.3279,-0.0248,0.8651,-6.79,7.97,-0.02,30.32
21495,0.3279,-0.0264,0.8665,-6.76,8.0,-0.06,30.32
21505,0.3291,-0.0225,0.8668,-6.84,7.95,-0.09,30.31
21515,0.3273,-0.0249,0.8622,-6.78,7.94,-0.09,30.33
21525,0.3257,-0.026,0.8676,-6.79,7.92,0.05,30.29
21535,0.3265,-0.0272,0.8667,-6.87,8.05,-0.03,30.32
21545,0.3259,-0.0272,0.8635,-6.76,7.98,-0.06,30.3
21555,0.3259,-0.0258,0.868,-6.69,8.0,-0.05,30.29
21565,0.3264,-0.0258,0.8633,-6.72,7.98,-0.09,30.33
21575,0.327,-0.0239,0.866,-6.76,8.0,-0.03,30.32
21585,0.3252,-0.0253,0.8632,-6.82,7.98,0.05,30.3
21595,0.3271,-0.0265,0.8654,-6.76,7.97,-0.08,30.31
21605,0.3279,-0.0265,0.8646,-6.61,7.97,0.0,30.31
21615,0.326,-0.0267,0.8645,-6.76,8.0,-0.03,30.31
21625,0.3268,-0.0272,0.8667,-6.79,8.02,-0.05,30.32
21635,0.3271,-0.0272,0.8641,-6.81,7.98,-0.09,30.3
21645,0.3268,-0.0264,0.8665,-6.67,7.94,-0.09,30.32
21655,0.3282,-0.0242,0.8673,-6.78,7.94,-0.05,30.32
21665,0.3293,-0.0258,0.8657,-6.78,7.92,0.0,30.34
21675,0.3247,-0.0255,0.864,-6.75,7.92,-0.08,30.31
21685,0.3271,-0.0277,0.8612,-6.76,7.92,-0.06,30.31
21695,0.3278,-0.0256,0.8666,-6.66,7.98,0.0,30.33
21705,0.3302,-0.0258,0.8618,-6.73,7.98,-0.06,30.34
21715,0.3264,-0.0256,0.8663,-6.78,7.94,-0.09,30.32
21725,0.33,-0.0242,0.8673,-6.66,7.92,-0.03,30.33
21735,0.33,-0.0258,0.8652,-6.79,8.0,0.0,30.32
21745,0.3284,-0.0253,0.8685,-6.79,7.91,0.0,30.33
21755,0.3268,-0.0254,0.8649,-6.7,7.94,-0.02,30.34
21765,0.3293,-0.0256,0.8646,-6.78,8.0,0.02,30.32
21775,0.328,-0.0292,0.8666,-6.78,7.95,-0.09,30.31
21785,0.3301,-0.0266,0.8682,-6.67,7.98,-0.05,30.31
21795,0.3284,-0.0253,0.8666,-6.78,7.92,-0.05,30.33
21805,0.327,-0.0238,0.864,-6.72,7.98,-0.05,30.33
21815,0.3264,-0.0231,0.865,-6.84,8.08,0.0,30.33
21826,0.3267,-0.0229,0.8693,-6.78,8.0,-0.03,30.33
21836,0.3258,-0.0236,0.8679,-6.78,8.03,-0.09,30.32
21846,0.3251,-0.0273,0.8672,-6.76,7.94,-0.06,30.34
21856,0.3275,-0.0234,0.8646,-6.76,7.95,-0.06,30.31
21866,0.3293,-0.0284,0.8645,-6.69,8.0,0.02,30.3
21876,0.3271,-0.0256,0.8627,-6.75,7.94,-0.03,30.3
21886,0.327,-0.0237,0.868,-6.76,8.0,0.0,30.29
21896,0.3287,-0.026,0.8713,-6.78,7.97,-0.08,30.33
21906,0.3271,-0.0226,0.8672,-6.76,7.85,-0.09,30.34
21916,0.3292,-0.0238,0.8624,-6.76,7.95,0.02,30.31
21926,0.3274,-0.0262,0.8605,-6.72,7.97,-0.06,30.31
21936,0.3304,-0.0267,0.8657,-6.76,7.95,-0.03,30.29
21946,0.3286,-0.024,0.8651,-6.7,7.89,-0.06,30.33
21956,0.3268,-0.0242,0.869,-6.75,7.97,-0.03,30.33
21966,0.3264,-0.0275,0.8679,-6.89,8.0,-0.11,30.32
21976,0.3313,-0.0258,0.8661,-6.76,7.89,-0.02,30.34
21986,0.3306,-0.0266,0.865,-6.73,7.94,-0.12,30.31
21996,0.3285,-0.0272,0.863,-6.69,8.03,0.0,30.32
22006,0.3296,-0.0251,0.8674,-6.76,7.89,-0.05,30.33
22016,0.3301,-0.0245,0.8656,-6.76,7.95,-0.08,30.32
22026,0.3285,-0.0292,0.8657,-6.81,8.0,-0.06,30.32
22036,0.3276,-0.0248,0.8667,-6.78,8.0,-0.12,30.32
22046,0.3254,-0.0265,0.866,-6.76,8.0,-0.08,30.33
22056,0.3273,-0.0271,0.8676,-6.76,7.95,-0.05,30.33
22066,0.3284,-0.0249,0.8636,-6.7,7.97,-0.05,30.33
22076,0.327,-0.0259,0.8638,-6.81,7.95,-0.06,30.32
22086,0.3274,-0.0249,0.8646,-6.75,7.95,0.02,30.32
22096,0.3271,-0.0234,0.8627,-6.81,7.97,-0.11,30.33
22106,0.3276,-0.0287,0.869,-6.79,7.97,-0.03,30.32
22116,0.3292,-0.0229,0.8666,-6.73,7.85,-0.05,30.34
22126,0.3297,-0.0247,0.8683,-6.72,8.0,-0.08,30.33
22136,0.3281,-0.025,0.8672,-6.78,7.95,-0.08,30.32
22146,0.3284,-0.0264,0.8643,-6.84,7.92,-0.09,30.33
22156,0.329,-0.0265,0.864,-6.72,7.98,-0.03,30.32
22166,0.3296,-0.0255,0.8633,-6.79,7.98,-0.06,30.32
22176,0.3289,-0.0262,0.8667,-6.78,7.95,-0.09,30.33
22186,0.3253,-0.0245,0.8615,-6.79,7.98,-0.09,30.34
22196,0.3275,-0.0243,0.8613,-6.66,7.94,-0.03,30.33
22206,0.3274,-0.0267,0.8655,-6.73,7.95,-0.05,30.31
22216,0.3302,-0.025,0.8663,-6.79,7.98,-0.02,30.29
22226,0.3303,-0.0259,0.8627,-6.7,7.94,-0.05,30.29
22236,0.3275,-0.0227,0.866,-6.87,8.0,-0.11,30.31
22246,0.3271,-0.0261,0.8628,-6.81,8.03,-0.03,30.31
22256,0.3247,-0.026,0.8632,-6.73,8.0,-0.03,30.33
22266,0.3289,-0.0262,0.865,-6.72,7.92,-0.03,30.34
22276,0.3279,-0.0253,0.8644,-6.76,7.94,-0.06,30.32
22286,0.3278,-0.0236,0.8661,-6.7,7.98,-0.05,30.32
22296,0.326,-0.0255,0.8674,-6.78,7.97,-0.02,30.34
22306,0.3273,-0.024,0.8632,-6.81,7.97,-0.03,30.32
22316,0.326,-0.0251,0.8644,-6.76,8.05,-0.05,30.33
22326,0.3271,-0.0281,0.8628,-6.67,7.92,-0.06,30.31
22336,0.3271,-0.0272,0.8662,-6.79,7.97,-0.03,30.33
22346,0.3286,-0.0283,0.8645,-6.79,8.0,-0.05,30.31
22356,0.3264,-0.0254,0.8663,-6.76,7.98,-0.08,30.29
22366,0.327,-0.026,0.8628,-6.87,8.02,-0.06,30.31
22376,0.3241,-0.0265,0.8668,-6.76,7.97,-0.05,30.32
22386,0.3241,-0.0271,0.8643,-6.75,7.98,-0.03,30.33
22396,0.327,-0.0261,0.8629,-6.7,7.98,-0.08,30.31
22406,0.3304,-0.0232,0.863,-6.78,7.98,-0.11,30.32
22416,0.3306,-0.0255,0.8618,-6.76,7.94,-0.03,30.33
22426,0.3281,-0.0275,0.8662,-6.81,8.02,-0.08,30.31
22436,0.327,-0.0259,0.8647,-6.76,8.03,-0.03,30.32
22446,0.3298,-0.0242,0.8652,-6.72,8.02,-0.11,30.32
22456,0.3293,-0.0237,0.8657,-6.81,8.03,-0.11,30.31
22466,0.3253,-0.0261,0.8632,-6.75,8.05,0.0,30.34
22476,0.3262,-0.0262,0.8632,-6.76,7.97,-0.05,30.33
22486,0.3287,-0.0284,0.8652,-6.72,7.95,-0.03,30.33
22496,0.3304,-0.0273,0.864,-6.7,7.97,-0.03,30.31
22506,0.3285,-0.0269,0.8644,-6.7,7.89,-0.05,30.32
22516,0.3312,-0.0249,0.8657,-6.76,7.91,-0.03,30.32
22526,0.3284,-0.028,0.8661,-6.69,7.98,-0.05,30.32
22536,0.3281,-0.0256,0.8651,-6.76,8.0,-0.08,30.31
22546,0.3285,-0.0258,0.8615,-6.7,7.97,-0.06,30.33
22556,0.3282,-0.0256,0.8665,-6.81,7.97,-0.02,30.33
22566,0.3282,-0.024,0.8654,-6.7,7.97,0.0,30.32
22577,0.3282,-0.0276,0.8645,-6.7,7.91,-0.05,30.33
22587,0.3322,-0.0245,0.8593,-6.72,7.91,-0.08,30.35
22599,0.3268,-0.0256,0.865,-6.87,7.97,-0.06,30.31
22609,0.3276,-0.0228,0.8647,-6.75,7.92,0.02,30.34
22619,0.3263,-0.0247,0.8682,-6.78,7.95,-0.03,30.33
22629,0.3265,-0.0243,0.8656,-6.79,7.94,-0.09,30.32
22639,0.327,-0.026,0.8652,-6.82,8.02,0.0,30.29
22650,0.3269,-0.024,0.8644,-6.76,7.97,-0.08,30.34
22660,0.326,-0.0247,0.8672,-6.78,7.98,0.0,30.34
22670,0.3267,-0.0259,0.8613,-6.84,7.97,-0.02,30.31
22680,0.3248,-0.025,0.8615,-6.82,7.92,-0.03,30.32
22690,0.3263,-0.0283,0.8643,-6.76,7.89,0.02,30.32
22701,0.3275,-0.0229,0.8654,-6.7,7.98,-0.03,30.33
22711,0.3264,-0.0234,0.8644,-6.81,8.0,-0.02,30.35
22721,0.3275,-0.0243,0.8604,-6.7,7.92,-0.05,30.32
22731,0.3264,-0.025,0.8641,-6.81,7.85,-0.02,30.33
22741,0.3285,-0.0269,0.8665,-6.69,7.95,0.02,30.33
22751,0.3295,-0.0248,0.8688,-6.73,7.98,-0.03,30.36
22761,0.3274,-0.0259,0.8623,-6.76,8.05,-0.14,30.35
22771,0.3263,-0.024,0.8658,-6.82,8.0,-0.08,30.32
22781,0.3291,-0.0266,0.8629,-6.73,7.97,0.05,30.32
22791,0.3275,-0.0209,0.8651,-6.84,8.03,-0.05,30.34
22801,0.3281,-0.0245,0.8674,-6.75,7.97,-0.03,30.33
22811,0.3285,-0.0251,0.8669,-6.79,7.95,-0.06,30.32
22821,0.3275,-0.0258,0.8649,-6.78,7.97,-0.02,30.31
22831,0.3278,-0.0273,0.8638,-6.72,8.03,-0.08,30.33
22841,0.3273,-0.0272,0.8685,-6.82,8.06,-0.05,30.32
22851,0.327,-0.0237,0.8666,-6.69,8.0,-0.03,30.34
22861,0.3269,-0.0262,0.8684,-6.69,7.94,-0.02,30.32
22871,0.3271,-0.0243,0.8632,-6.75,7.94,-0.12,30.31
22881,0.3281,-0.0293,0.8619,-6.78,7.98,-0.09,30.32
22891,0.3265,-0.0251,0.8662,-6.84,7.94,-0.11,30.32
22901,0.3284,-0.0261,0.8645,-6.76,8.05,-0.06,30.34
22911,0.328,-0.0286,0.8634,-6.73,7.95,-0.11,30.36
22921,0.3303,-0.0248,0.8663,-6.76,7.94,-0.02,30.32
22931,0.3302,-0.024,0.865,-6.7,8.03,-0.09,30.34
22941,0.3282,-0.0253,0.8633,-6.82,7.98,-0.06,30.33
22951,0.3292,-0.0271,0.8688,-6.78,8.02,-0.08,30.33
22961,0.3263,-0.0259,0.8668,-6.78,7.94,-0.05,30.33
22971,0.3263,-0.0255,0.8662,-6.76,7.97,0.0,30.32
22981,0.3257,-0.0236,0.8668,-6.78,7.98,0.02,30.32
22991,0.3268,-0.0256,0.863,-6.76,8.02,-0.05,30.3
23001,0.327,-0.0262,0.8617,-6.76,8.0,-0.08,30.32
23011,0.3282,-0.0234,0.8649,-6.72,7.91,-0.02,30.31
23021,0.3297,-0.0237,0.8671,-6.75,7.95,-0.05,30.32
23031,0.3275,-0.0265,0.8654,-6.78,7.92,-0.06,30.34
23041,0.3284,-0.0265,0.868,-6.76,7.98,0.02,30.32
23051,0.3268,-0.0254,0.8649,-6.72,7.97,0.0,30.32
23061,0.3268,-0.0256,0.8689,-6.76,8.0,0.03,30.32
23071,0.327,-0.0272,0.8658,-6.78,7.95,-0.02,30.34
23081,0.327,-0.0267,0.8671,-6.87,7.91,-0.09,30.34
23091,0.3275,-0.0271,0.8649,-6.76,7.97,-0.12,30.31
23101,0.328,-0.0286,0.8628,-6.82,7.98,-0.08,30.31
23111,0.3271,-0.0232,0.8651,-6.73,7.94,-0.05,30.33
23121,0.3276,-0.0277,0.8633,-6.72,8.03,-0.12,30.32
23131,0.3282,-0.0294,0.8649,-6.79,7.97,-0.06,30.32
23141,0.3269,-0.0222,0.8645,-6.75,7.95,-0.05,30.34
23151,0.3275,-0.0289,0.8646,-6.75,7.95,-0.02,30.33
23161,0.3279,-0.027,0.8622,-6.79,7.94,-0.08,30.31
23171,0.329,-0.0256,0.864,-6.81,7.92,-0.05,30.31
23181,0.3279,-0.0256,0.8652,-6.76,7.97,0.0,30.31
23191,0.3291,-0.0269,0.8655,-6.85,8.02,-0.06,30.34
23201,0.3269,-0.024,0.8695,-6.76,8.02,-0.06,30.35
23211,0.328,-0.0251,0.8658,-6.69,7.95,-0.02,30.32
23221,0.3275,-0.0258,0.8644,-6.66,7.97,0.03,30.34
23231,0.3293,-0.0255,0.8645,-6.69,7.94,0.03,30.32
23241,0.3291,-0.0269,0.8669,-6.79,7.92,-0.05,30.29
23251,0.3282,-0.0234,0.8674,-6.79,8.08,-0.06,30.33
23261,0.329,-0.0247,0.869,-6.73,8.02,-0.03,30.32
23271,0.3271,-0.0238,0.8619,-6.75,7.98,-0.09,30.31
23281,0.3279,-0.0253,0.8652,-6.64,7.85,-0.02,30.3
23291,0.3278,-0.0254,0.8633,-6.72,7.98,-0.08,30.31
23301,0.3284,-0.0251,0.8652,-6.78,7.94,-0.05,30.32
23311,0.3228,-0.0243,0.8699,-6.69,7.95,-0.08,30.33
23321,0.3297,-0.025,0.8668,-6.69,7.92,-0.05,30.33
23331,0.3308,-0.0281,0.8677,-6.73,7.92,-0.06,30.33
23341,0.3282,-0.0264,0.8691,-6.69,7.94,-0.09,30.33
23351,0.3284,-0.0278,0.8655,-6.73,7.92,-0.05,30.33
23361,0.3296,-0.0247,0.8627,-6.76,7.95,0.05,30.34
23371,0.3265,-0.0237,0.8644,-6.75,7.94,-0.02,30.31
23381,0.3267,-0.0233,0.8644,-6.79,8.03,-0.03,30.32
23391,0.3259,-0.0237,0.8652,-6.69,7.97,0.03,30.34
23401,0.3291,-0.0247,0.8652,-6.78,7.98,-0.03,30.35
23411,0.327,-0.0231,0.8632,-6.73,7.95,-0.03,30.31
23421,0.3265,-0.0247,0.8677,-6.84,8.0,0.08,30.33
23431,0.3268,-0.0267,0.8673,-6.78,7.94,0.0,30.33
23441,0.3296,-0.0272,0.8672,-6.7,7.98,-0.09,30.32
23451,0.3293,-0.0262,0.8687,-6.81,8.06,0.0,30.32
23461,0.3298,-0.0244,0.8695,-6.79,7.94,-0.08,30.31
23471,0.3287,-0.026,0.8605,-6.82,7.98,-0.02,30.33
23481,0.329,-0.0256,0.8636,-6.78,7.94,-0.06,30.32
23491,0.3274,-0.0262,0.8654,-6.81,7.94,-0.02,30.33
23501,0.3281,-0.0238,0.8628,-6.73,7.92,-0.06,30.32
23511,0.3286,-0.026,0.8639,-6.76,7.97,-0.05,30.33
23521,0.3303,-0.0244,0.865,-6.79,7.95,-0.05,30.32
23531,0.3298,-0.0267,0.8662,-6.75,7.94,-0.02,30.34
23541,0.3292,-0.0249,0.8619,-6.75,8.05,-0.03,30.34
23551,0.3281,-0.0255,0.868,-6.73,7.92,-0.06,30.34
23562,0.3304,-0.0265,0.8602,-6.72,8.0,-0.02,30.32
23572,0.329,-0.0244,0.8635,-6.79,8.03,0.0,30.34
23582,0.3262,-0.027,0.8671,-6.78,7.95,-0.05,30.32
23592,0.3262,-0.0247,0.8671,-6.73,7.98,-0.02,30.33
23602,0.3267,-0.0237,0.8672,-6.76,7.97,0.05,30.32
23612,0.3284,-0.0249,0.8593,-6.7,8.0,-0.02,30.31
23622,0.3318,-0.0233,0.8627,-6.73,7.95,-0.02,30.32
23632,0.3287,-0.0281,0.8632,-6.76,8.02,0.05,30.34
23642,0.3279,-0.0234,0.8666,-6.76,7.89,-0.05,30.32
23652,0.33,-0.0233,0.8618,-6.75,7.97,-0.03,30.32
23662,0.3269,-0.0248,0.865,-6.81,7.95,0.0,30.34
23672,0.3337,-0.0232,0.8688,-6.85,7.98,-0.11,30.34
23682,0.328,-0.0238,0.8589,-6.75,7.89,-0.06,30.34
23692,0.3311,-0.03,0.8639,-6.85,7.89,0.05,30.34
23702,0.3311,-0.0238,0.8654,-6.75,7.92,-0.06,30.31
23712,0.324,-0.0348,0.8669,-6.76,8.08,-0.03,30.3
23722,0.3219,-0.0112,0.8728,-6.87,8.14,-0.02,30.34
23732,0.324,-0.0255,0.8708,-6.84,8.12,0.03,30.32
23742,0.335,-0.0306,0.8562,-6.9,7.83,0.0,30.37
23752,0.3405,-0.0291,0.8622,-6.6,7.92,-0.02,30.35
23762,0.3262,-0.0323,0.8676,-6.73,8.18,-0.06,30.32
23772,0.3169,-0.0338,0.8756,-6.66,8.43,0.0,30.34
23782,0.3224,-0.0278,0.8728,-6.64,8.2,0.0,30.33
23792,0.3264,-0.0281,0.8654,-6.75,7.98,0.09,30.35
23802,0.3326,-0.033,0.8671,-6.7,7.89,0.02,30.34
23812,0.3241,-0.0211,0.8627,-6.66,7.83,-0.03,30.33
23822,0.3251,-0.0182,0.8704,-6.66,7.86,0.03,30.32
23832,0.3204,-0.0107,0.8632,-6.87,8.11,0.0,30.34
23842,0.3296,-0.0143,0.8629,-6.79,7.91,-0.09,30.33
23852,0.3251,-0.0254,0.8517,-6.75,7.74,-0.02,30.35
23862,0.3336,-0.0225,0.8647,-6.76,7.94,-0.11,30.33
23872,0.33,-0.0269,0.8621,-6.85,7.98,-0.11,30.32
23882,0.3298,-0.0348,0.8689,-6.84,8.05,-0.12,30.34
23892,0.3297,-0.0361,0.8669,-6.78,8.11,-0.02,30.33
23902,0.3284,-0.0328,0.8687,-6.73,8.03,-0.09,30.32
23912,0.328,-0.0267,0.861,-6.78,7.91,-0.08,30.33
23922,0.3309,-0.0244,0.868,-6.82,7.92,-0.02,30.34
23933,0.3284,-0.0208,0.8639,-6.78,8.0,0.0,30.35
23943,0.3292,-0.0168,0.8655,-6.75,7.95,-0.09,30.36
23953,0.3254,-0.017,0.8643,-6.89,7.91,-0.12,30.35
23963,0.329,-0.0239,0.8625,-6.79,7.91,-0.05,30.34
23973,0.3318,-0.0234,0.8666,-6.81,7.97,-0.08,30.34
23983,0.332,-0.0303,0.8602,-6.79,7.92,-0.03,30.34
23993,0.326,-0.0341,0.8652,-6.84,7.95,-0.09,30.34
24003,0.3268,-0.0316,0.8641,-6.75,7.95,-0.03,30.32
24013,0.3304,-0.0264,0.8663,-6.84,7.92,0.03,30.32
24023,0.328,-0.0292,0.8629,-6.76,8.08,-0.02,30.34
24033,0.3275,-0.0239,0.8662,-6.76,7.98,-0.03,30.32
24043,0.3236,-0.0189,0.866,-6.72,8.05,-0.03,30.34
24053,0.3247,-0.0179,0.8615,-6.73,7.97,-0.05,30.34
24063,0.3254,-0.0203,0.8623,-6.82,7.94,-0.02,30.35
24073,0.3262,-0.0247,0.8656,-6.76,7.94,-0.08,30.34
24083,0.3245,-0.0267,0.8715,-6.81,8.02,0.02,30.34
24093,0.3304,-0.0298,0.8655,-6.78,8.02,0.02,30.33
24103,0.3301,-0.0305,0.871,-6.82,7.97,-0.03,30.33
24113,0.3281,-0.031,0.8638,-6.69,8.05,-0.08,30.34
24123,0.3291,-0.0266,0.8668,-6.72,7.98,-0.03,30.34
24133,0.3252,-0.026,0.8617,-6.85,8.0,0.03,30.33
24143,0.3306,-0.026,0.8639,-6.79,7.97,-0.03,30.32
24153,0.3254,-0.0227,0.8616,-6.79,7.95,-0.06,30.34
24163,0.3271,-0.0222,0.8588,-6.75,8.0,-0.05,30.32
24173,0.3248,-0.0204,0.8625,-6.75,8.05,-0.03,30.35
24183,0.329,-0.0244,0.8644,-6.75,7.98,-0.14,30.33
24193,0.327,-0.0292,0.8638,-6.72,8.02,0.0,30.33
24203,0.3315,-0.0266,0.8677,-6.64,8.0,-0.11,30.34
24213,0.3273,-0.0297,0.8616,-6.67,8.05,-0.02,30.33
24223,0.328,-0.0265,0.8645,-6.7,7.97,-0.05,30.34
24233,0.3287,-0.0226,0.8674,-6.78,8.03,-0.06,30.37
24243,0.3251,-0.0248,0.8667,-6.67,8.02,0.02,30.34
24253,0.3263,-0.0231,0.8657,-6.76,7.94,-0.02,30.32
24263,0.326,-0.025,0.865,-6.78,7.94,-0.11,30.34
24273,0.3251,-0.0198,0.8641,-6.85,7.94,-0.09,30.34
24283,0.3265,-0.0222,0.868,-6.79,7.95,-0.08,30.34
24293,0.3291,-0.0267,0.8639,-6.75,7.94,-0.05,30.34
24303,0.3308,-0.028,0.865,-6.7,7.97,-0.12,30.34
24313,0.3296,-0.0275,0.8684,-6.84,8.02,-0.05,30.33
24323,0.3275,-0.026,0.8651,-6.75,7.95,-0.09,30.34
24333,0.3254,-0.0234,0.8624,-6.76,7.91,0.02,30.33
24343,0.325,-0.0238,0.8636,-6.75,7.95,-0.08,30.35
24353,0.3262,-0.0228,0.8615,-6.84,7.98,0.0,30.33
24363,0.3265,-0.0242,0.8645,-6.76,7.97,0.02,30.33
24373,0.3307,-0.025,0.8634,-6.73,7.97,-0.03,30.36
24383,0.3265,-0.0253,0.8619,-6.72,7.92,-0.03,30.35
24393,0.3296,-0.0306,0.8649,-6.73,7.92,-0.05,30.35
24403,0.3274,-0.0243,0.8649,-6.85,7.89,-0.05,30.34
24413,0.3274,-0.0272,0.8658,-6.76,8.0,-0.03,30.34
24423,0.329,-0.0258,0.8662,-6.79,7.92,-0.03,30.37
24433,0.3295,-0.0277,0.8645,-6.76,7.95,0.03,30.35
24443,0.328,-0.0255,0.8655,-6.85,7.95,-0.02,30.34
24453,0.3287,-0.0226,0.8662,-6.76,7.94,-0.05,30.36
24463,0.3247,-0.0225,0.8615,-6.73,8.03,-0.05,30.33
24473,0.3287,-0.0243,0.8612,-6.79,7.97,0.0,30.34
24483,0.3274,-0.0203,0.8611,-6.76,7.94,-0.06,30.32
24493,0.3319,-0.0275,0.8695,-6.78,7.98,-0.08,30.37
24503,0.3314,-0.0248,0.8646,-6.81,7.89,-0.05,30.36
24513,0.3301,-0.0259,0.864,-6.92,7.97,-0.02,30.35
24523,0.3291,-0.0255,0.8656,-6.82,8.0,0.02,30.35
24533,0.3304,-0.026,0.8632,-6.78,8.03,-0.08,30.33
24543,0.3267,-0.0254,0.8634,-6.76,7.91,-0.05,30.36
24553,0.3245,-0.0237,0.8646,-6.72,7.95,-0.11,30.35
24563,0.327,-0.0249,0.8674,-6.79,8.03,-0.03,30.34
24573,0.3274,-0.0233,0.8693,-6.76,7.97,-0.06,30.35
24583,0.3271,-0.0281,0.8678,-6.75,8.03,-0.02,30.35
24593,0.3284,-0.0277,0.8639,-6.81,8.0,0.02,30.34
24603,0.328,-0.0295,0.8668,-6.72,7.94,-0.06,30.36
24613,0.33,-0.0281,0.8625,-6.72,8.05,-0.05,30.35
24623,0.328,-0.0244,0.8647,-6.85,7.94,-0.03,30.38
24633,0.3273,-0.0243,0.8667,-6.73,7.95,-0.02,30.35
24643,0.3296,-0.0255,0.8623,-6.75,8.0,-0.02,30.35
24653,0.3315,-0.0208,0.8645,-6.7,7.98,-0.08,30.35
24663,0.3274,-0.0258,0.8658,-6.73,7.95,-0.05,30.36
24673,0.3257,-0.0236,0.8635,-6.76,7.98,-0.06,30.33
24683,0.327,-0.0258,0.866,-6.79,7.98,-0.08,30.35
24693,0.328,-0.0267,0.8612,-6.78,7.95,-0.06,30.35
24703,0.3289,-0.0266,0.864,-6.73,7.98,-0.02,30.35
24713,0.327,-0.0272,0.8668,-6.81,8.02,-0.06,30.33
24723,0.3286,-0.0251,0.8644,-6.73,7.95,-0.06,30.35
24733,0.3297,-0.0282,0.8654,-6.76,7.98,-0.09,30.34
24743,0.3278,-0.0248,0.8658,-6.76,7.94,-0.05,30.32
24753,0.328,-0.0253,0.8628,-6.73,7.92,-0.05,30.36
24763,0.3265,-0.0226,0.861,-6.81,7.97,0.0,30.34
24773,0.3251,-0.0231,0.863,-6.75,7.92,-0.05,30.34
24783,0.3265,-0.0243,0.864,-6.76,7.94,-0.08,30.34
24793,0.3289,-0.0236,0.865,-6.73,8.0,-0.02,30.34
24803,0.3269,-0.0272,0.8649,-6.78,7.98,-0.02,30.35
24813,0.3267,-0.0273,0.8652,-6.72,7.92,-0.05,30.36
24823,0.3281,-0.0244,0.8694,-6.67,7.94,-0.08,30.35
24833,0.3278,-0.0251,0.8689,-6.75,7.94,-0.03,30.36
24843,0.3275,-0.0269,0.8629,-6.75,8.02,-0.09,30.37
24853,0.3259,-0.0237,0.8615,-6.64,8.03,0.03,30.37
24863,0.3252,-0.0237,0.8667,-6.72,7.95,-0.03,30.35
24873,0.3253,-0.0247,0.8661,-6.78,7.95,-0.05,30.32
24883,0.326,-0.026,0.8658,-6.78,8.0,0.02,30.35
24893,0.3257,-0.0253,0.8655,-6.78,7.91,-0.08,30.34
24903,0.3303,-0.0249,0.8651,-6.73,8.0,0.0,30.33
24913,0.327,-0.0275,0.8671,-6.73,7.97,-0.06,30.33
24923,0.3287,-0.026,0.8694,-6.75,8.0,-0.06,30.34
24933,0.3278,-0.0264,0.8667,-6.73,7.97,0.0,30.36
24943,0.327,-0.0259,0.8733,-6.76,7.98,-0.06,30.34
24953,0.3271,-0.026,0.8622,-6.81,8.0,-0.08,30.34
24963,0.3256,-0.0233,0.8654,-6.79,7.95,-0.14,30.35
24973,0.3268,-0.0236,0.8656,-6.78,8.0,-0.03,30.34
24983,0.3275,-0.0216,0.8636,-6.76,8.0,-0.12,30.36
24993,0.3293,-0.0251,0.8658,-6.78,7.91,-0.09,30.33
25003,0.3268,-0.0267,0.8639,-6.81,7.92,-0.06,30.36
25013,0.3291,-0.0256,0.8638,-6.69,7.95,-0.08,30.39
25023,0.3292,-0.0269,0.8646,-6.73,7.98,-0.05,30.35
25033,0.3262,-0.0261,0.8627,-6.7,8.02,-0.06,30.34
25043,0.3276,-0.0265,0.865,-6.81,7.95,-0.12,30.36
25053,0.3306,-0.0225,0.8638,-6.72,7.95,-0.09,30.39
25063,0.3282,-0.0221,0.8615,-6.75,7.98,-0.05,30.36
25073,0.3254,-0.0243,0.8667,-6.79,7.98,-0.06,30.36
25083,0.3276,-0.024,0.8656,-6.78,7.98,-0.02,30.39
25093,0.3303,-0.0259,0.868,-6.82,7.95,-0.08,30.36
25103,0.3269,-0.0237,0.8676,-6.76,7.98,0.0,30.35
25113,0.3307,-0.0251,0.8677,-6.76,7.97,-0.05,30.34
25123,0.3291,-0.0232,0.8671,-6.79,7.92,-0.08,30.35
25133,0.3275,-0.0258,0.8667,-6.78,8.03,-0.08,30.35
25143,0.3301,-0.0272,0.8622,-6.79,7.98,-0.03,30.35
25153,0.3264,-0.028,0.8636,-6.73,8.02,-0.03,30.34
25163,0.3257,-0.0255,0.8682,-6.73,7.95,0.06,30.36
25173,0.3253,-0.024,0.8682,-6.73,8.02,-0.06,30.35
25183,0.3292,-0.0245,0.869,-6.78,7.91,-0.05,30.35
25193,0.327,-0.0243,0.8651,-6.78,8.02,0.0,30.36
25203,0.3293,-0.0273,0.8663,-6.67,7.97,-0.02,30.37
25213,0.3312,-0.0294,0.8671,-6.73,7.94,-0.03,30.36
25223,0.3285,-0.0266,0.8702,-6.72,8.0,-0.09,30.35
25233,0.3302,-0.0269,0.865,-6.79,7.94,0.02,30.36
25243,0.3314,-0.0249,0.8617,-6.7,7.95,-0.05,30.35
25253,0.3268,-0.0242,0.8639,-6.78,8.03,-0.02,30.36
25263,0.3282,-0.0237,0.8634,-6.84,7.98,0.0,30.35
25273,0.3312,-0.026,0.866,-6.73,7.98,0.0,30.36
25283,0.3312,-0.0256,0.8655,-6.7,7.98,-0.02,30.36
25293,0.3289,-0.0255,0.8638,-6.82,7.97,0.02,30.34
25303,0.3248,-0.0237,0.8652,-6.72,8.02,-0.11,30.33
25313,0.3279,-0.0245,0.8665,-6.82,7.98,-0.05,30.36
25323,0.3285,-0.0238,0.8669,-6.84,7.98,-0.09,30.34
25333,0.3323,-0.025,0.8643,-6.84,7.95,-0.05,30.36
25343,0.3275,-0.024,0.8621,-6.78,8.05,-0.02,30.35
25353,0.3287,-0.0247,0.8618,-6.79,7.94,-0.06,30.35
25363,0.3253,-0.0239,0.8644,-6.76,7.94,-0.11,30.35
25373,0.3293,-0.0253,0.8635,-6.81,7.98,0.0,30.36
25383,0.3267,-0.0244,0.8661,-6.75,8.02,-0.03,30.35
25393,0.3265,-0.0282,0.865,-6.81,7.86,-0.11,30.33
25403,0.3292,-0.0282,0.8649,-6.75,8.0,-0.08,30.33
25413,0.3273,-0.0273,0.8652,-6.79,7.91,-0.03,30.33
25423,0.329,-0.0288,0.864,-6.79,8.0,-0.09,30.34
25433,0.3267,-0.0273,0.8624,-6.76,8.02,-0.05,30.37
25443,0.3267,-0.0249,0.8629,-6.79,7.89,-0.03,30.36
25453,0.3281,-0.0221,0.8625,-6.78,7.97,0.02,30.33
25463,0.3273,-0.0253,0.8667,-6.76,7.86,-0.02,30.34
25473,0.3282,-0.0259,0.8634,-6.76,7.94,-0.02,30.36
25483,0.3291,-0.0265,0.8646,-6.75,8.05,0.02,30.34
25493,0.3281,-0.0254,0.869,-6.78,7.97,0.02,30.35
25503,0.3301,-0.0243,0.8645,-6.73,7.95,-0.02,30.34
25513,0.3284,-0.0253,0.8651,-6.75,7.94,-0.03,30.34
25523,0.3282,-0.0287,0.8623,-6.81,7.94,-0.14,30.37
25533,0.327,-0.0253,0.864,-6.76,7.98,-0.05,30.35
25543,0.3274,-0.0269,0.8658,-6.75,7.97,-0.08,30.33
25553,0.3278,-0.0228,0.8667,-6.76,8.0,-0.11,30.34
25563,0.33,-0.0256,0.8638,-6.76,7.95,-0.02,30.37
25573,0.327,-0.0262,0.8671,-6.69,7.97,-0.03,30.35
25583,0.3285,-0.0269,0.8661,-6.79,7.95,-0.03,30.34
25593,0.3292,-0.0253,0.8646,-6.75,8.02,0.02,30.35
25603,0.3306,-0.0243,0.8595,-6.75,8.03,-0.02,30.34
25613,0.3273,-0.0243,0.8652,-6.76,8.02,0.05,30.33
25623,0.3267,-0.027,0.8696,-6.82,7.97,-0.11,30.33
25633,0.3279,-0.0259,0.8639,-6.81,7.91,-0.06,30.35
25643,0.3258,-0.0254,0.8669,-6.81,8.03,-0.03,30.35
25653,0.3267,-0.0249,0.8641,-6.79,8.0,-0.03,30.34
25663,0.3265,-0.0262,0.8679,-6.76,8.0,-0.02,30.34
25673,0.3284,-0.0267,0.8641,-6.78,7.98,-0.06,30.35
25683,0.3278,-0.025,0.8627,-6.72,7.91,-0.06,30.35
25693,0.3262,-0.0266,0.8668,-6.78,7.91,0.03,30.36
25703,0.3264,-0.025,0.8638,-6.79,7.92,-0.06,30.37
25713,0.3267,-0.0267,0.8655,-6.75,8.09,0.03,30.35
25723,0.3296,-0.0244,0.8627,-6.72,7.95,-0.02,30.34
25733,0.3281,-0.0243,0.8627,-6.73,7.97,-0.15,30.34
25743,0.3274,-0.0247,0.8699,-6.76,7.97,-0.11,30.35
25753,0.3274,-0.0261,0.8661,-6.72,7.95,-0.02,30.36
25763,0.3282,-0.0249,0.8633,-6.82,7.97,-0.08,30.36
25773,0.3286,-0.024,0.8643,-6.73,7.98,0.03,30.35
25783,0.3296,-0.0249,0.8662,-6.78,7.95,-0.09,30.35
25793,0.3279,-0.0251,0.864,-6.79,8.02,-0.02,30.37
25803,0.3257,-0.0251,0.8661,-6.81,7.88,-0.03,30.36
25813,0.3267,-0.025,0.865,-6.76,7.98,-0.03,30.34
25823,0.3304,-0.0277,0.866,-6.69,8.0,-0.11,30.33
25833,0.3286,-0.0245,0.8624,-6.76,8.0,-0.02,30.34
25843,0.3295,-0.0245,0.8641,-6.73,8.02,0.06,30.34
25853,0.3267,-0.0267,0.8669,-6.7,8.0,-0.11,30.37
25863,0.326,-0.0231,0.8647,-6.81,7.98,0.06,30.36
25873,0.3271,-0.0265,0.864,-6.73,8.02,0.05,30.36
25883,0.3271,-0.0255,0.8654,-6.73,7.94,-0.03,30.36
25893,0.3269,-0.0254,0.8618,-6.75,7.98,-0.06,30.37
25903,0.3291,-0.0245,0.8635,-6.82,7.95,-0.05,30.36
25913,0.3247,-0.0277,0.8622,-6.75,7.98,-0.09,30.37
25923,0.3302,-0.026,0.8636,-6.72,7.95,-0.02,30.36
25933,0.3274,-0.0283,0.865,-6.76,8.03,-0.09,30.37
25943,0.3273,-0.0243,0.8647,-6.73,7.94,-0.03,30.35
25953,0.3274,-0.0284,0.8632,-6.78,7.94,0.03,30.37
25963,0.3268,-0.0262,0.8641,-6.79,8.03,-0.09,30.36
25973,0.33,-0.0255,0.8649,-6.7,7.98,-0.06,30.35
25983,0.3268,-0.0254,0.8622,-6.79,7.94,-0.06,30.36
25993,0.3279,-0.0258,0.8613,-6.82,7.89,-0.03,30.35
26003,0.3262,-0.0245,0.864,-6.76,7.97,-0.03,30.37
26013,0.3287,-0.0248,0.8634,-6.89,7.97,-0.09,30.33
26023,0.3302,-0.0259,0.8667,-6.73,7.95,-0.03,30.36
26033,0.325,-0.0247,0.8662,-6.73,8.03,0.05,30.37
26043,0.3256,-0.0275,0.8672,-6.78,8.0,-0.09,30.36
26053,0.3267,-0.0269,0.8639,-6.76,7.98,-0.11,30.38
26063,0.3276,-0.0253,0.8649,-6.76,7.95,-0.06,30.36
26073,0.3253,-0.0248,0.864,-6.76,7.98,-0.02,30.36
26083,0.323,-0.0278,0.8632,-6.7,7.92,-0.03,30.36
26093,0.3262,-0.0234,0.8663,-6.73,7.95,-0.03,30.35
26103,0.3252,-0.0238,0.8666,-6.84,7.97,-0.05,30.35
26113,0.3268,-0.0219,0.8679,-6.84,7.98,-0.06,30.37
26123,0.3279,-0.0261,0.8678,-6.81,7.95,-0.06,30.34
26133,0.3297,-0.0269,0.8666,-6.75,7.97,-0.02,30.35
26143,0.3303,-0.0278,0.8656,-6.78,7.98,-0.05,30.35
26153,0.3267,-0.0267,0.8688,-6.87,7.91,-0.03,30.34
26163,0.3268,-0.0264,0.8665,-6.79,7.95,0.02,30.35
26173,0.3259,-0.0277,0.8649,-6.79,7.98,0.0,30.37
26183,0.3281,-0.0281,0.8665,-6.81,8.09,-0.03,30.37
26193,0.3274,-0.0258,0.8667,-6.79,7.95,-0.02,30.37
26203,0.3293,-0.0229,0.866,-6.75,8.0,-0.11,30.37
26213,0.3253,-0.0253,0.8676,-6.79,8.03,0.02,30.34
26223,0.3268,-0.0259,0.8668,-6.78,8.05,-0.06,30.35
26233,0.3273,-0.0271,0.8611,-6.76,8.02,-0.11,30.36
26243,0.3268,-0.0276,0.8655,-6.7,7.98,0.0,30.36
26253,0.3269,-0.024,0.8701,-6.78,7.95,-0.03,30.36
26263,0.3256,-0.0251,0.8663,-6.81,7.97,-0.02,30.36
26273,0.33,-0.027,0.8678,-6.76,7.98,-0.03,30.35
26283,0.3282,-0.0249,0.8683,-6.76,7.94,-0.02,30.37
26295,0.3285,-0.0232,0.8683,-6.76,7.98,-0.08,30.34
26305,0.3292,-0.0253,0.869,-6.79,7.95,-0.02,30.36
26315,0.3289,-0.0237,0.8666,-6.81,7.94,-0.05,30.39
26325,0.3296,-0.0255,0.866,-6.76,7.95,-0.05,30.37
26335,0.3284,-0.0272,0.8638,-6.69,7.95,0.0,30.34
26345,0.3292,-0.0258,0.8683,-6.72,7.95,-0.02,30.35
26355,0.3275,-0.0283,0.8624,-6.81,7.98,-0.03,30.37
26365,0.3246,-0.0242,0.8671,-6.72,7.97,0.05,30.34
26375,0.3269,-0.0272,0.8656,-6.76,7.94,-0.09,30.36
26385,0.3292,-0.0231,0.8654,-6.72,7.98,-0.06,30.41
26395,0.3256,-0.0262,0.8646,-6.69,7.95,-0.09,30.38
26405,0.3286,-0.0226,0.8684,-6.76,7.98,0.02,30.37
26415,0.3282,-0.0228,0.8646,-6.81,7.98,0.02,30.38
26425,0.3276,-0.0259,0.8593,-6.79,8.0,-0.02,30.36
26435,0.3289,-0.026,0.865,-6.81,7.91,0.03,30.34
26445,0.3276,-0.026,0.8663,-6.81,7.98,-0.08,30.36
26455,0.3293,-0.0272,0.8641,-6.7,8.0,-0.11,30.35
26465,0.3267,-0.0251,0.8644,-6.69,7.92,-0.05,30.34
26475,0.3273,-0.0238,0.866,-6.79,8.03,-0.05,30.34
26485,0.3262,-0.0261,0.8636,-6.76,7.94,0.03,30.38
26495,0.3271,-0.0234,0.864,-6.81,8.0,-0.06,30.39
26505,0.3279,-0.0275,0.8684,-6.75,7.98,-0.06,30.37
26515,0.3287,-0.0237,0.8641,-6.78,8.0,-0.03,30.35
26525,0.3279,-0.0254,0.866,-6.79,8.03,0.0,30.36
26535,0.3289,-0.0249,0.8633,-6.75,8.0,-0.05,30.38
26545,0.3265,-0.0251,0.8622,-6.7,8.0,-0.03,30.36
26555,0.3286,-0.0264,0.866,-6.81,7.94,-0.05,30.37
26565,0.3292,-0.0245,0.8656,-6.72,8.02,-0.06,30.36
26575,0.3265,-0.0243,0.8646,-6.82,7.97,-0.03,30.37
26585,0.327,-0.0271,0.8678,-6.79,7.95,-0.06,30.34
26595,0.329,-0.0264,0.869,-6.72,7.98,-0.15,30.35
26605,0.3298,-0.0261,0.8629,-6.78,7.97,-0.09,30.37
26615,0.3292,-0.027,0.8647,-6.76,7.94,-0.02,30.36
26625,0.3282,-0.0238,0.8625,-6.76,7.92,-0.08,30.37
26635,0.3289,-0.0266,0.8622,-6.75,8.02,-0.11,30.36
26645,0.3313,-0.0267,0.863,-6.75,8.03,0.0,30.36
26655,0.3276,-0.0262,0.8604,-6.7,7.97,0.0,30.35
26665,0.3289,-0.0258,0.8612,-6.73,8.05,-0.02,30.36
26675,0.3295,-0.0271,0.8655,-6.7,7.98,-0.03,30.37
26685,0.3274,-0.0254,0.8633,-6.75,7.92,-0.08,30.36
26695,0.3275,-0.0256,0.861,-6.69,7.98,0.02,30.36
26705,0.3276,-0.0269,0.8655,-6.78,7.98,-0.03,30.36
26716,0.3298,-0.0254,0.8649,-6.87,7.98,0.03,30.35
26726,0.3304,-0.025,0.8639,-6.85,7.97,0.02,30.36
26736,0.333,-0.0256,0.8643,-6.84,7.92,-0.02,30.38
26746,0.3257,-0.0275,0.8661,-6.78,7.89,-0.09,30.37
26756,0.3245,-0.026,0.8669,-6.69,7.97,-0.08,30.36
26766,0.3264,-0.027,0.8666,-6.76,8.02,0.0,30.37
26776,0.3308,-0.0262,0.8636,-6.81,7.94,0.0,30.39
26786,0.3281,-0.0261,0.8647,-6.81,7.95,-0.06,30.35
26796,0.3297,-0.0266,0.864,-6.79,7.98,-0.09,30.35
26806,0.3267,-0.0249,0.8687,-6.82,7.98,0.03,30.33
26816,0.3267,-0.0239,0.8699,-6.73,8.03,-0.09,30.36
26826,0.3257,-0.0253,0.8666,-6.81,7.97,0.05,30.37
26836,0.3271,-0.0265,0.8684,-6.82,7.97,-0.06,30.39
26846,0.3271,-0.026,0.8646,-6.79,7.94,-0.02,30.36
26856,0.3275,-0.0264,0.8625,-6.76,7.97,-0.03,30.38
26866,0.3281,-0.0248,0.8658,-6.85,7.94,-0.05,30.37
26876,0.3263,-0.0264,0.8654,-6.73,8.08,-0.09,30.36
26886,0.3282,-0.0248,0.8645,-6.78,8.0,-0.03,30.37
26896,0.3307,-0.0221,0.8647,-6.75,7.95,-0.03,30.35
26906,0.3259,-0.0238,0.8678,-6.72,8.02,-0.03,30.35
26916,0.3275,-0.0251,0.8691,-6.75,7.97,0.0,30.34
26926,0.3271,-0.0238,0.8612,-6.73,8.08,-0.11,30.36
26936,0.3271,-0.0261,0.8661,-6.76,7.92,-0.08,30.37
26946,0.329,-0.0256,0.8633,-6.73,7.97,-0.02,30.35
26956,0.3278,-0.0259,0.8639,-6.76,7.97,-0.02,30.37
26966,0.3279,-0.0251,0.8621,-6.76,7.97,-0.06,30.35
26976,0.3278,-0.0247,0.8684,-6.79,7.86,0.0,30.38
26986,0.3289,-0.0234,0.8628,-6.75,8.0,-0.05,30.37
26996,0.3286,-0.0253,0.8669,-6.73,8.02,-0.08,30.38
27006,0.3248,-0.0262,0.8662,-6.82,8.05,-0.14,30.39
27016,0.3285,-0.0271,0.8654,-6.78,8.03,-0.08,30.35
27026,0.3271,-0.0244,0.8643,-6.72,7.95,-0.08,30.4
27036,0.3281,-0.0261,0.8663,-6.67,7.97,-0.09,30.37
27046,0.3292,-0.0294,0.8651,-6.75,7.94,-0.02,30.37
27056,0.3278,-0.0273,0.8673,-6.82,8.0,0.05,30.38
27066,0.3263,-0.0239,0.8656,-6.67,8.05,0.0,30.36
27076,0.3293,-0.0254,0.8651,-6.75,7.97,-0.08,30.35
27086,0.3273,-0.0255,0.8647,-6.73,7.98,-0.03,30.37
27096,0.3296,-0.0264,0.866,-6.81,8.0,-0.02,30.38
27106,0.327,-0.0265,0.8684,-6.81,7.98,-0.05,30.37
27116,0.3268,-0.0277,0.863,-6.82,7.88,-0.02,30.38
27126,0.3286,-0.0259,0.8665,-6.72,8.06,-0.02,30.35
27136,0.3273,-0.026,0.8684,-6.82,8.02,-0.06,30.36
27146,0.3273,-0.0282,0.8629,-6.78,8.02,-0.05,30.36
27156,0.3251,-0.0253,0.8638,-6.75,8.03,-0.08,30.37
27166,0.329,-0.0231,0.8617,-6.81,7.92,-0.08,30.37
27176,0.3263,-0.0264,0.8646,-6.89,7.91,-0.03,30.36
27186,0.3246,-0.0244,0.8612,-6.76,7.97,-0.06,30.34
27196,0.3259,-0.0248,0.8651,-6.73,8.02,0.02,30.37
27206,0.3271,-0.0231,0.864,-6.78,7.97,-0.08,30.34
27216,0.3267,-0.0234,0.8654,-6.82,7.98,-0.03,30.39
27226,0.3314,-0.0244,0.864,-6.73,8.0,-0.08,30.37
27236,0.3292,-0.024,0.8604,-6.79,7.97,-0.08,30.37
27246,0.3271,-0.0291,0.865,-6.85,7.98,-0.11,30.37
27256,0.3293,-0.0243,0.8617,-6.81,8.0,-0.06,30.36
27266,0.3269,-0.0251,0.8646,-6.78,7.97,-0.08,30.37
27276,0.3292,-0.0249,0.8647,-6.79,7.98,-0.03,30.36
27287,0.3263,-0.0262,0.8628,-6.82,8.05,-0.03,30.37
27297,0.3295,-0.0265,0.8656,-6.76,7.98,-0.02,30.34
27307,0.3269,-0.0276,0.8645,-6.78,7.94,0.0,30.37
27317,0.328,-0.0249,0.8668,-6.82,7.98,-0.09,30.37
27327,0.3281,-0.0253,0.8649,-6.73,8.0,-0.05,30.35
27339,0.3293,-0.0273,0.8629,-6.79,7.97,-0.09,30.37
27349,0.3301,-0.0251,0.8611,-6.76,7.95,-0.03,30.39
27359,0.3268,-0.0233,0.865,-6.81,7.91,-0.02,30.35
27369,0.3314,-0.0238,0.8649,-6.81,7.95,-0.03,30.36
27379,0.3293,-0.0269,0.8644,-6.72,7.95,0.02,30.38
27389,0.3271,-0.03,0.8646,-6.76,7.98,-0.11,30.39
27399,0.3275,-0.0271,0.8619,-6.84,8.0,-0.06,30.35
27409,0.328,-0.0256,0.8677,-6.76,8.0,-0.03,30.39
