t_ms,accel_x_g,accel_y_g,accel_z_g,gyro_x_dps,gyro_y_dps,gyro_z_dps,imu_temp_c
3271,0.3364,-0.0258,0.8605,-6.27,7.79,-0.02,24.44
3282,0.3348,-0.0227,0.8688,-6.34,7.83,-0.05,24.44
3292,0.3351,-0.0232,0.8643,-6.27,7.88,-0.06,24.4
3302,0.3356,-0.0217,0.8627,-6.34,7.77,0.03,24.46
3313,0.337,-0.0203,0.863,-6.37,7.77,-0.03,24.43
3323,0.3318,-0.0234,0.8582,-6.29,7.79,-0.05,24.44
3333,0.3351,-0.0243,0.8595,-6.4,7.82,-0.09,24.42
3343,0.3342,-0.0247,0.8651,-6.29,7.79,-0.11,24.45
3353,0.3328,-0.0217,0.8651,-6.32,7.83,0.0,24.43
3363,0.3352,-0.0223,0.8647,-6.29,7.76,0.0,24.42
3373,0.3361,-0.0219,0.8632,-6.38,7.89,-0.03,24.42
3383,0.337,-0.0226,0.8661,-6.31,7.85,-0.06,24.46
3393,0.3344,-0.0228,0.8601,-6.31,7.83,-0.02,24.43
3403,0.3328,-0.0238,0.8634,-6.38,7.83,0.0,24.45
3413,0.3357,-0.0237,0.8616,-6.29,7.83,-0.05,24.43
3423,0.3352,-0.0232,0.8617,-6.37,7.82,-0.05,24.44
3433,0.3329,-0.022,0.8606,-6.38,7.82,0.02,24.43
3443,0.3336,-0.0223,0.8646,-6.27,7.74,-0.06,24.47
3453,0.3335,-0.0229,0.8605,-6.27,7.82,-0.06,24.44
3463,0.3346,-0.0233,0.859,-6.32,7.85,0.03,24.44
3473,0.3348,-0.0254,0.8654,-6.31,7.8,0.02,24.45
3483,0.3324,-0.024,0.8638,-6.27,7.82,-0.03,24.47
3493,0.333,-0.0233,0.8615,-6.29,7.79,-0.11,24.48
3503,0.3326,-0.0226,0.8629,-6.29,7.8,-0.09,24.48
3513,0.3359,-0.0223,0.864,-6.38,7.79,-0.08,24.44
3523,0.3337,-0.0243,0.8613,-6.29,7.82,-0.05,24.45
3533,0.3364,-0.0234,0.8621,-6.27,7.74,-0.03,24.45
3543,0.3362,-0.024,0.8638,-6.4,7.82,-0.08,24.45
3553,0.3342,-0.0212,0.8612,-6.32,7.8,-0.06,24.46
3563,0.3354,-0.0272,0.8612,-6.41,7.8,0.0,24.45
3573,0.3335,-0.0223,0.8627,-6.32,7.76,0.02,24.46
3583,0.3342,-0.0238,0.8655,-6.31,7.79,-0.06,24.44
3593,0.3353,-0.0254,0.8636,-6.31,7.74,-0.02,24.44
3603,0.3352,-0.0231,0.859,-6.26,7.79,-0.08,24.43
3613,0.3365,-0.0229,0.8635,-6.34,7.82,-0.03,24.44
3623,0.3326,-0.0227,0.8594,-6.35,7.82,0.0,24.47
3633,0.3367,-0.0229,0.8654,-6.31,7.82,-0.11,24.47
3643,0.3368,-0.0217,0.864,-6.27,7.77,-0.05,24.49
3653,0.3328,-0.0232,0.8612,-6.38,7.77,-0.06,24.46
3663,0.3362,-0.0239,0.8624,-6.37,7.82,-0.11,24.48
3673,0.3352,-0.0233,0.8658,-6.29,7.86,-0.05,24.46
3683,0.3384,-0.0223,0.8636,-6.35,7.82,-0.02,24.46
3693,0.3346,-0.0236,0.865,-6.24,7.79,0.03,24.46
3703,0.3344,-0.027,0.8646,-6.35,7.83,-0.03,24.47
3713,0.3319,-0.024,0.8635,-6.24,7.71,-0.03,24.47
3723,0.3353,-0.0255,0.8606,-6.31,7.79,-0.03,24.47
3733,0.3352,-0.0219,0.8624,-6.34,7.82,-0.03,24.48
3743,0.3306,-0.0247,0.8584,-6.24,7.73,-0.08,24.47
3753,0.3313,-0.0237,0.8619,-6.32,7.85,-0.09,24.48
3763,0.3304,-0.0247,0.8641,-6.38,7.86,-0.05,24.47
3773,0.3347,-0.0249,0.8635,-6.37,7.83,-0.03,24.47
3783,0.3326,-0.0245,0.8625,-6.31,7.74,0.0,24.45
3793,0.3337,-0.0259,0.8687,-6.35,7.89,-0.12,24.45
3803,0.3341,-0.021,0.8633,-6.4,7.82,-0.06,24.47
3813,0.3364,-0.0217,0.8635,-6.29,7.79,-0.03,24.46
3823,0.3344,-0.0228,0.8625,-6.37,7.82,-0.03,24.49
3833,0.3346,-0.0231,0.8612,-6.35,7.82,-0.05,24.46
3843,0.3341,-0.0228,0.8623,-6.37,7.79,-0.03,24.47
3853,0.3333,-0.0247,0.8632,-6.29,7.83,0.03,24.46
3863,0.333,-0.0231,0.8635,-6.17,7.86,-0.05,24.48
3873,0.3341,-0.0247,0.8599,-6.27,7.8,-0.03,24.48
3883,0.333,-0.0242,0.8612,-6.27,7.76,-0.05,24.49
3894,0.3324,-0.0272,0.8613,-6.35,7.77,-0.11,24.47
3904,0.3372,-0.0229,0.8624,-6.31,7.79,0.08,24.48
3914,0.3333,-0.0229,0.8624,-6.32,7.82,-0.11,24.47
3924,0.3335,-0.0204,0.8641,-6.5,7.8,-0.11,24.49
3934,0.334,-0.0232,0.8591,-6.35,7.77,-0.06,24.47
3944,0.3374,-0.0228,0.8627,-6.37,7.82,-0.06,24.46
3954,0.337,-0.0232,0.863,-6.32,7.83,-0.09,24.44
3964,0.3331,-0.0231,0.8628,-6.34,7.82,-0.05,24.49
3974,0.3358,-0.0237,0.8644,-6.21,7.76,-0.03,24.49
3984,0.3345,-0.0228,0.8655,-6.35,7.82,-0.08,24.47
3994,0.3337,-0.0205,0.8639,-6.35,7.8,-0.05,24.49
4004,0.3331,-0.0217,0.8666,-6.38,7.82,-0.06,24.48
4014,0.3342,-0.024,0.8597,-6.34,7.82,-0.02,24.49
4024,0.3348,-0.0253,0.8622,-6.31,7.8,-0.06,24.48
4034,0.3347,-0.022,0.863,-6.4,7.83,-0.06,24.51
4044,0.3358,-0.0237,0.8634,-6.29,7.77,-0.06,24.49
4054,0.3351,-0.025,0.8623,-6.29,7.79,-0.05,24.48
4064,0.3325,-0.0231,0.8604,-6.29,7.79,0.02,24.49
4074,0.3341,-0.0219,0.8641,-6.4,7.74,0.03,24.48
4084,0.3337,-0.0236,0.8624,-6.27,7.83,-0.02,24.51
4094,0.3334,-0.0222,0.8662,-6.4,7.79,0.0,24.51
4105,0.3339,-0.0228,0.8627,-6.31,7.88,0.0,24.49
4115,0.3352,-0.0238,0.8632,-6.31,7.83,-0.09,24.47
4125,0.3342,-0.0234,0.8629,-6.4,7.8,-0.05,24.5
4135,0.3341,-0.0222,0.863,-6.37,7.83,-0.05,24.47
4145,0.3365,-0.021,0.8635,-6.29,7.85,-0.03,24.49
4155,0.3347,-0.0215,0.8615,-6.32,7.69,-0.03,24.49
4165,0.3346,-0.0222,0.8656,-6.27,7.79,-0.06,24.49
4175,0.3362,-0.0212,0.8594,-6.27,7.83,-0.09,24.48
4185,0.3315,-0.0229,0.8634,-6.37,7.85,0.0,24.49
4195,0.3339,-0.0221,0.8624,-6.23,7.79,-0.11,24.51
4205,0.3331,-0.0227,0.8627,-6.35,7.77,-0.02,24.51
4215,0.3344,-0.0238,0.8662,-6.34,7.82,-0.02,24.51
4225,0.3359,-0.0217,0.8632,-6.31,7.76,0.05,24.48
4235,0.3342,-0.0215,0.8624,-6.32,7.82,-0.06,24.51
4245,0.3319,-0.025,0.8635,-6.35,7.86,-0.05,24.49
4255,0.3336,-0.0245,0.8629,-6.32,7.85,-0.09,24.49
4265,0.3329,-0.0225,0.8661,-6.32,7.82,-0.05,24.52
4275,0.3334,-0.0229,0.8579,-6.35,7.82,-0.06,24.51
4285,0.3369,-0.0238,0.861,-6.4,7.77,-0.11,24.51
4295,0.3346,-0.0233,0.8606,-6.34,7.8,-0.02,24.53
4305,0.3347,-0.0214,0.8673,-6.27,7.79,-0.06,24.5
4315,0.3351,-0.0217,0.8621,-6.4,7.82,-0.03,24.5
4325,0.3323,-0.0229,0.8582,-6.35,7.8,-0.05,24.5
4335,0.3363,-0.0212,0.861,-6.37,7.8,-0.06,24.49
4345,0.3331,-0.0226,0.8617,-6.29,7.82,-0.08,24.49
4355,0.3315,-0.0261,0.8591,-6.31,7.76,-0.08,24.51
4365,0.3313,-0.0264,0.8658,-6.27,7.8,0.02,24.52
4375,0.3337,-0.024,0.8617,-6.41,7.89,-0.05,24.52
4385,0.3361,-0.0239,0.863,-6.21,7.8,0.0,24.5
4395,0.3329,-0.0236,0.8591,-6.32,7.85,-0.09,24.52
4405,0.3358,-0.0212,0.8613,-6.34,7.8,-0.14,24.52
4415,0.3325,-0.0227,0.8671,-6.35,7.82,0.02,24.52
4425,0.333,-0.0242,0.8615,-6.34,7.86,-0.03,24.52
4435,0.3323,-0.0236,0.8601,-6.37,7.8,-0.05,24.54
4445,0.33,-0.0225,0.8617,-6.29,7.82,-0.09,24.52
4455,0.3325,-0.0223,0.8623,-6.31,7.82,-0.06,24.51
4465,0.3361,-0.0267,0.861,-6.32,7.83,-0.08,24.53
4475,0.3331,-0.0206,0.8632,-6.38,7.82,-0.02,24.53
4485,0.335,-0.0232,0.8606,-6.29,7.82,0.02,24.51
4495,0.3339,-0.0221,0.8668,-6.35,7.85,-0.06,24.53
4506,0.3357,-0.022,0.8661,-6.31,7.83,-0.03,24.51
4516,0.3344,-0.0255,0.8624,-6.34,7.82,-0.06,24.5
4526,0.3323,-0.0227,0.8618,-6.27,7.77,-0.03,24.54
4537,0.3362,-0.0251,0.8601,-6.34,7.76,-0.02,24.53
4547,0.333,-0.0229,0.8654,-6.31,7.79,-0.08,24.51
4557,0.3289,-0.0209,0.8643,-6.47,8.11,0.0,24.53
4567,0.3392,-0.0217,0.8585,-6.35,7.8,-0.12,24.52
4577,0.3363,-0.0244,0.8589,-6.31,7.69,-0.03,24.54
4587,0.3309,-0.0251,0.8608,-6.31,7.86,-0.09,24.55
4597,0.3339,-0.0261,0.864,-6.35,7.68,-0.02,24.53
4607,0.3311,-0.0233,0.8619,-6.31,7.91,-0.17,24.53
4617,0.3328,-0.0243,0.8622,-6.31,7.86,-0.05,24.52
4627,0.3342,-0.0229,0.8628,-6.32,7.74,-0.02,24.55
4637,0.3341,-0.0244,0.8619,-6.31,7.8,-0.02,24.55
4647,0.3326,-0.0232,0.863,-6.31,7.8,0.0,24.55
4657,0.3337,-0.0233,0.8618,-6.37,7.77,-0.05,24.56
4667,0.3357,-0.0221,0.8629,-6.37,7.88,-0.11,24.53
4677,0.3352,-0.022,0.8628,-6.29,7.91,-0.06,24.52
4687,0.3322,-0.0272,0.8636,-6.35,7.82,-0.11,24.54
4697,0.3358,-0.0248,0.8673,-6.24,7.86,-0.02,24.53
4707,0.3364,-0.0239,0.8608,-6.37,7.88,0.0,24.53
4717,0.3328,-0.0229,0.8629,-6.37,7.79,-0.05,24.52
4727,0.3318,-0.0243,0.8649,-6.31,7.86,0.03,24.54
4737,0.3346,-0.0244,0.8597,-6.34,7.8,-0.02,24.51
4747,0.3359,-0.021,0.8667,-6.34,7.83,-0.02,24.54
4757,0.333,-0.0212,0.8584,-6.41,7.86,0.03,24.55
4767,0.3348,-0.0254,0.8645,-6.43,7.83,-0.02,24.53
4777,0.3345,-0.0231,0.8618,-6.34,7.77,-0.02,24.52
4787,0.334,-0.0266,0.8624,-6.29,7.79,0.0,24.53
4797,0.3348,-0.0209,0.8596,-6.32,7.77,-0.02,24.52
4807,0.3358,-0.0248,0.8636,-6.34,7.83,-0.05,24.56
4817,0.3339,-0.025,0.8657,-6.38,7.76,-0.09,24.55
4827,0.3336,-0.0215,0.8632,-6.34,7.77,-0.06,24.52
4837,0.3336,-0.0238,0.8613,-6.29,7.8,-0.06,24.55
4847,0.3348,-0.0232,0.8638,-6.35,7.86,-0.05,24.52
4857,0.3344,-0.022,0.863,-6.31,7.85,-0.06,24.53
4867,0.337,-0.0223,0.8628,-6.31,7.77,-0.03,24.54
4877,0.335,-0.0237,0.8645,-6.32,7.71,-0.03,24.54
4887,0.3336,-0.0232,0.8608,-6.34,7.86,-0.05,24.54
4897,0.3326,-0.0244,0.8641,-6.35,7.85,0.0,24.55
4907,0.3361,-0.0261,0.8608,-6.41,7.77,0.03,24.56
4917,0.3306,-0.0251,0.8624,-6.34,7.85,-0.03,24.57
4927,0.3348,-0.0205,0.8636,-6.24,7.82,-0.02,24.54
4937,0.3341,-0.0258,0.8612,-6.34,7.86,0.0,24.56
4947,0.3354,-0.0226,0.8656,-6.37,7.77,0.02,24.55
4957,0.3376,-0.0216,0.8632,-6.34,7.86,-0.05,24.55
4967,0.3335,-0.0233,0.8625,-6.32,7.79,-0.03,24.54
4977,0.3329,-0.0231,0.864,-6.29,7.83,-0.06,24.54
4987,0.3345,-0.0222,0.8615,-6.24,7.73,-0.02,24.57
4997,0.3326,-0.024,0.861,-6.35,7.8,0.0,24.55
5007,0.3337,-0.0228,0.8617,-6.37,7.76,-0.03,24.54
5017,0.3346,-0.0231,0.8645,-6.34,7.79,-0.05,24.57
5027,0.3352,-0.0228,0.8619,-6.27,7.79,-0.09,24.54
5037,0.3347,-0.0219,0.8638,-6.31,7.71,-0.05,24.57
5047,0.3333,-0.0238,0.8628,-6.34,7.79,-0.08,24.56
5057,0.3339,-0.0216,0.863,-6.41,7.8,-0.05,24.57
5067,0.3325,-0.0223,0.8627,-6.31,7.85,-0.06,24.55
5077,0.3331,-0.0247,0.8613,-6.38,7.86,-0.08,24.55
5087,0.3365,-0.0223,0.8667,-6.27,7.8,-0.06,24.55
5097,0.3319,-0.0221,0.8657,-6.34,7.85,-0.05,24.55
5107,0.3333,-0.0232,0.8643,-6.35,7.86,-0.11,24.56
5117,0.3353,-0.0222,0.8624,-6.41,7.82,0.03,24.55
5127,0.3324,-0.0234,0.8625,-6.34,7.73,-0.05,24.55
5137,0.3359,-0.0206,0.8652,-6.34,7.8,-0.02,24.55
5147,0.3344,-0.024,0.8649,-6.26,7.8,-0.02,24.57
5157,0.3372,-0.0227,0.8635,-6.24,7.77,-0.02,24.57
5167,0.3312,-0.0245,0.8607,-6.29,7.74,-0.02,24.57
5177,0.3359,-0.0249,0.8623,-6.32,7.82,-0.08,24.56
5187,0.3341,-0.0249,0.8579,-6.35,7.8,-0.03,24.56
5197,0.3323,-0.0214,0.863,-6.32,7.85,0.03,24.57
5207,0.3341,-0.0248,0.864,-6.4,7.82,0.02,24.57
5217,0.3318,-0.0226,0.861,-6.35,7.82,0.02,24.57
5227,0.3313,-0.022,0.863,-6.35,7.77,0.0,24.56
5237,0.3344,-0.0212,0.8652,-6.24,7.82,-0.02,24.57
5247,0.3354,-0.024,0.8669,-6.26,7.82,-0.02,24.56
5257,0.332,-0.0227,0.8622,-6.37,7.91,0.03,24.55
5267,0.3337,-0.0221,0.8615,-6.37,7.82,0.0,24.56
5277,0.334,-0.0237,0.8625,-6.35,7.79,-0.02,24.54
5287,0.3337,-0.0223,0.8628,-6.35,7.8,-0.05,24.57
5297,0.334,-0.0227,0.8658,-6.41,7.86,-0.02,24.55
5307,0.3319,-0.0255,0.8615,-6.34,7.85,-0.06,24.55
5317,0.3334,-0.0219,0.8635,-6.41,7.82,-0.02,24.58
5327,0.3337,-0.0242,0.8624,-6.32,7.82,0.0,24.55
5337,0.3339,-0.0234,0.8638,-6.35,7.85,0.0,24.57
5347,0.334,-0.0227,0.8647,-6.27,7.82,-0.03,24.57
5357,0.3337,-0.0215,0.8608,-6.34,7.82,-0.05,24.57
5367,0.3345,-0.0249,0.8613,-6.35,7.83,-0.05,24.59
5377,0.3346,-0.0234,0.8655,-6.35,7.79,-0.06,24.57
5387,0.335,-0.0232,0.864,-6.31,7.77,-0.05,24.57
5397,0.3346,-0.0228,0.8678,-6.27,7.82,-0.03,24.55
5407,0.3325,-0.0221,0.8661,-6.32,7.79,-0.05,24.56
5417,0.3337,-0.0238,0.863,-6.47,7.85,-0.03,24.58
5427,0.3326,-0.0243,0.8656,-6.4,7.83,-0.05,24.55
5437,0.3344,-0.0242,0.8599,-6.37,7.79,-0.09,24.57
5447,0.3337,-0.0231,0.8634,-6.37,7.8,-0.08,24.59
5457,0.332,-0.0228,0.8624,-6.4,7.83,-0.05,24.55
5467,0.3337,-0.0223,0.8636,-6.31,7.85,0.0,24.59
5477,0.3347,-0.022,0.863,-6.37,7.88,0.03,24.58
5487,0.3391,-0.0228,0.8628,-6.32,7.79,-0.02,24.57
5497,0.334,-0.0212,0.8597,-6.31,7.8,-0.05,24.56
5507,0.3336,-0.0219,0.863,-6.35,7.82,-0.02,24.57
5517,0.3373,-0.0249,0.8635,-6.29,7.79,-0.06,24.58
5527,0.3348,-0.0227,0.8638,-6.35,7.76,-0.05,24.56
5537,0.3342,-0.0248,0.8623,-6.35,7.8,0.0,24.6
5547,0.3329,-0.0266,0.8624,-6.29,7.79,-0.05,24.58
5557,0.3342,-0.0255,0.8673,-6.31,7.76,-0.05,24.57
5567,0.3345,-0.0225,0.8655,-6.32,7.79,-0.05,24.57
5577,0.334,-0.0271,0.8638,-6.35,7.83,-0.06,24.57
5587,0.3342,-0.0226,0.8649,-6.24,7.74,-0.09,24.58
5597,0.3339,-0.0242,0.8625,-6.34,7.83,-0.06,24.59
5607,0.3351,-0.0205,0.8666,-6.35,7.82,0.0,24.57
5617,0.3352,-0.0245,0.8636,-6.35,7.8,0.0,24.59
5627,0.3339,-0.0231,0.8623,-6.29,7.79,-0.08,24.6
5637,0.3341,-0.0229,0.8621,-6.29,7.82,-0.06,24.58
5647,0.3356,-0.0237,0.8624,-6.41,7.82,-0.08,24.59
5657,0.3367,-0.0227,0.866,-6.31,7.69,-0.05,24.59
5667,0.3348,-0.0232,0.8621,-6.29,7.88,-0.06,24.62
5677,0.3352,-0.0238,0.8651,-6.26,7.79,-0.06,24.58
5687,0.337,-0.0223,0.864,-6.4,7.8,-0.05,24.59
5697,0.3362,-0.0237,0.8622,-6.32,7.85,0.0,24.57
5707,0.3347,-0.0211,0.8646,-6.38,7.79,-0.05,24.59
5717,0.3352,-0.0212,0.8623,-6.37,7.82,-0.08,24.59
5727,0.3328,-0.0229,0.861,-6.37,7.86,0.02,24.58
5737,0.3339,-0.0226,0.8613,-6.38,7.77,0.0,24.59
5747,0.3312,-0.0238,0.8624,-6.38,7.89,-0.09,24.59
5757,0.3345,-0.0237,0.8636,-6.41,7.79,-0.03,24.58
5767,0.3319,-0.0231,0.8657,-6.38,7.77,0.05,24.61
5777,0.3346,-0.0249,0.8611,-6.37,7.86,0.0,24.59
5787,0.334,-0.0225,0.8623,-6.26,7.82,-0.03,24.61
5797,0.3353,-0.0245,0.8647,-6.32,7.83,-0.08,24.61
5807,0.3336,-0.0231,0.8658,-6.29,7.82,-0.05,24.59
5817,0.3361,-0.0228,0.8635,-6.34,7.77,0.0,24.59
5827,0.3348,-0.0262,0.8654,-6.35,7.8,-0.17,24.6
5837,0.334,-0.025,0.8636,-6.34,7.74,-0.02,24.58
5847,0.3374,-0.0251,0.8621,-6.27,7.79,-0.02,24.6
5857,0.3345,-0.0221,0.8588,-6.37,7.77,-0.05,24.59
5867,0.338,-0.0223,0.8613,-6.26,7.85,-0.03,24.59
5877,0.3309,-0.0231,0.8647,-6.32,7.82,-0.03,24.57
5887,0.3325,-0.0254,0.8643,-6.4,7.82,-0.06,24.6
5897,0.333,-0.0251,0.8594,-6.32,7.82,-0.05,24.64
5907,0.3329,-0.0244,0.8618,-6.4,7.76,-0.05,24.62
5917,0.3314,-0.0227,0.8627,-6.32,7.76,-0.06,24.62
5927,0.3353,-0.0244,0.8644,-6.43,7.82,0.05,24.6
5937,0.3351,-0.0214,0.8622,-6.38,7.77,-0.05,24.61
5947,0.3347,-0.024,0.863,-6.34,7.79,0.0,24.59
5957,0.3351,-0.0208,0.8586,-6.44,7.79,-0.02,24.62
5967,0.3318,-0.0249,0.8647,-6.37,7.76,-0.05,24.63
5977,0.334,-0.0232,0.8625,-6.37,7.88,-0.03,24.61
5987,0.3348,-0.0245,0.8597,-6.38,7.82,-0.02,24.58
5997,0.3313,-0.02,0.8616,-6.43,7.79,-0.09,24.59
6007,0.3353,-0.022,0.8636,-6.35,7.82,-0.02,24.57
6017,0.3344,-0.0237,0.863,-6.32,7.83,-0.02,24.61
6027,0.3356,-0.0199,0.8623,-6.35,7.88,-0.09,24.6
6037,0.335,-0.0229,0.8632,-6.34,7.79,-0.05,24.6
6047,0.3309,-0.0206,0.8623,-6.31,7.79,-0.12,24.62
6057,0.3326,-0.0233,0.8644,-6.24,7.82,-0.05,24.6
6067,0.3329,-0.0225,0.8663,-6.32,7.8,0.02,24.57
6077,0.3341,-0.0221,0.8623,-6.34,7.86,-0.03,24.62
6087,0.3309,-0.0214,0.863,-6.34,7.79,-0.02,24.59
6097,0.3341,-0.0264,0.8608,-6.29,7.8,-0.05,24.59
6107,0.3361,-0.0244,0.8616,-6.38,7.83,-0.02,24.61
6117,0.3339,-0.0217,0.8621,-6.38,7.83,-0.06,24.62
6127,0.3335,-0.0201,0.8632,-6.32,7.86,-0.05,24.6
6138,0.333,-0.0231,0.8602,-6.31,7.8,0.02,24.6
6148,0.3348,-0.0215,0.8586,-6.35,7.89,-0.02,24.62
6158,0.3348,-0.022,0.8628,-6.32,7.85,-0.05,24.61
6169,0.3357,-0.0239,0.8625,-6.37,7.83,-0.11,24.61
6179,0.3352,-0.0214,0.8628,-6.38,7.77,-0.03,24.6
6189,0.3345,-0.0233,0.8641,-6.34,7.74,0.02,24.6
6199,0.3317,-0.0247,0.8635,-6.35,7.76,-0.15,24.59
6209,0.3336,-0.0239,0.8654,-6.41,7.83,0.0,24.59
6219,0.3385,-0.0217,0.8615,-6.38,7.85,-0.03,24.61
6229,0.3362,-0.0222,0.8651,-6.27,7.82,-0.09,24.63
6239,0.3354,-0.025,0.8602,-6.31,7.82,0.02,24.61
6249,0.3328,-0.0242,0.8616,-6.4,7.76,-0.03,24.61
6259,0.3345,-0.0247,0.8618,-6.4,7.79,0.0,24.62
6269,0.3337,-0.0228,0.8641,-6.41,7.76,-0.11,24.62
6279,0.3331,-0.0227,0.8627,-6.29,7.88,-0.11,24.62
6289,0.3342,-0.0221,0.8658,-6.32,7.83,-0.03,24.62
6299,0.3361,-0.0255,0.8635,-6.34,7.89,-0.06,24.6
6309,0.3362,-0.0225,0.8617,-6.4,7.8,-0.03,24.61
6319,0.334,-0.0239,0.8649,-6.27,7.8,-0.05,24.61
6329,0.3357,-0.0245,0.8652,-6.41,7.83,-0.05,24.63
6339,0.3329,-0.0234,0.8594,-6.37,7.8,-0.06,24.61
6349,0.3357,-0.0247,0.864,-6.37,7.85,-0.08,24.62
6359,0.3334,-0.0232,0.8661,-6.29,7.82,-0.08,24.61
6369,0.3328,-0.0208,0.8615,-6.31,7.77,-0.08,24.62
6379,0.334,-0.0237,0.861,-6.4,7.76,-0.02,24.62
6389,0.3345,-0.0233,0.8593,-6.34,7.77,-0.08,24.61
6399,0.3359,-0.024,0.8635,-6.29,7.79,-0.06,24.6
6409,0.3337,-0.0228,0.8624,-6.32,7.79,-0.08,24.59
6419,0.3334,-0.0211,0.863,-6.34,7.83,-0.06,24.6
6429,0.3368,-0.0231,0.8628,-6.32,7.77,0.0,24.62
6446,0.3375,-0.0258,0.8634,-6.37,7.76,-0.66,24.63
6457,0.34,-0.0226,0.8573,-6.43,7.73,-0.02,24.62
6467,0.3361,-0.0254,0.8619,-6.37,7.76,-0.06,24.59
6477,0.3331,-0.0238,0.8666,-6.32,7.82,-0.14,24.61
6487,0.3285,-0.0231,0.8645,-6.34,7.92,-0.09,24.62
6497,0.3309,-0.0243,0.8605,-6.4,7.83,-0.03,24.61
6507,0.3348,-0.0231,0.8618,-6.34,7.8,-0.03,24.62
6517,0.3331,-0.0236,0.8623,-6.35,7.77,-0.05,24.62
6527,0.3328,-0.0231,0.8672,-6.31,7.86,-0.03,24.61
6537,0.3317,-0.0247,0.8644,-6.41,7.88,-0.05,24.62
6547,0.3361,-0.0256,0.8616,-6.35,7.86,-0.09,24.64
6557,0.3341,-0.0247,0.8641,-6.32,7.79,-0.06,24.62
6567,0.335,-0.0223,0.8628,-6.34,7.8,0.0,24.61
6577,0.3326,-0.0234,0.863,-6.38,7.79,-0.05,24.63
6587,0.3345,-0.0236,0.864,-6.27,7.79,0.0,24.6
6597,0.333,-0.0228,0.8651,-6.31,7.82,-0.08,24.63
6607,0.3334,-0.0216,0.8632,-6.34,7.74,-0.06,24.62
6617,0.3336,-0.0244,0.86,-6.29,7.79,-0.08,24.63
6627,0.3353,-0.0231,0.8668,-6.29,7.74,0.0,24.64
6637,0.3329,-0.0226,0.8601,-6.38,7.86,-0.03,24.65
6647,0.3354,-0.0222,0.8584,-6.43,7.8,-0.02,24.63
6657,0.3325,-0.022,0.8602,-6.23,7.86,-0.03,24.63
6667,0.3365,-0.0215,0.8612,-6.35,7.76,-0.03,24.63
6677,0.3307,-0.0228,0.8633,-6.31,7.85,-0.02,24.65
6687,0.3354,-0.0211,0.8625,-6.34,7.83,-0.09,24.63
6697,0.3339,-0.0245,0.8615,-6.29,7.83,-0.05,24.62
6707,0.3328,-0.0255,0.8651,-6.32,7.86,-0.03,24.63
6717,0.3311,-0.0225,0.863,-6.4,7.83,-0.09,24.61
6727,0.3353,-0.0225,0.866,-6.31,7.74,0.0,24.64
6737,0.3341,-0.0258,0.864,-6.34,7.8,-0.03,24.63
6747,0.3365,-0.0248,0.8633,-6.37,7.88,0.03,24.64
6757,0.3337,-0.0239,0.8682,-6.31,7.76,-0.08,24.63
6767,0.334,-0.0205,0.8625,-6.37,7.79,-0.08,24.68
6777,0.3363,-0.0236,0.8667,-6.29,7.82,-0.05,24.63
6787,0.3348,-0.0243,0.864,-6.34,7.85,-0.06,24.64
6797,0.3373,-0.0223,0.861,-6.34,7.82,-0.06,24.64
6807,0.3334,-0.0229,0.8617,-6.26,7.79,-0.08,24.64
6817,0.3341,-0.022,0.8604,-6.41,7.8,-0.05,24.64
6827,0.3326,-0.0262,0.8668,-6.34,7.82,-0.08,24.64
6837,0.334,-0.0244,0.864,-6.44,7.85,-0.02,24.64
6847,0.3335,-0.0233,0.8599,-6.38,7.76,-0.05,24.64
6857,0.334,-0.0216,0.8635,-6.44,7.82,-0.08,24.66
6867,0.3325,-0.0233,0.8624,-6.37,7.82,-0.06,24.65
6877,0.3344,-0.024,0.8663,-6.4,7.73,-0.02,24.63
6887,0.3336,-0.0239,0.8641,-6.41,7.76,-0.09,24.64
6897,0.3342,-0.0237,0.861,-6.43,7.79,-0.11,24.64
6907,0.335,-0.024,0.8627,-6.26,7.77,-0.06,24.62
6917,0.3334,-0.0243,0.8595,-6.31,7.86,-0.02,24.64
6927,0.3354,-0.0237,0.8636,-6.34,7.8,-0.06,24.63
6937,0.3318,-0.0242,0.8595,-6.31,7.88,-0.02,24.61
6947,0.3369,-0.0236,0.8634,-6.32,7.82,-0.05,24.62
6957,0.3345,-0.0255,0.8601,-6.31,7.85,0.03,24.67
6967,0.3346,-0.0242,0.8663,-6.31,7.8,0.0,24.63
6977,0.3336,-0.0239,0.8601,-6.31,7.79,-0.08,24.64
6987,0.3334,-0.0223,0.8651,-6.34,7.83,0.02,24.65
6997,0.3303,-0.0248,0.8632,-6.34,7.77,-0.08,24.63
7007,0.3364,-0.0231,0.8604,-6.38,7.88,0.02,24.63
7018,0.332,-0.024,0.863,-6.37,7.8,-0.12,24.62
7028,0.3336,-0.0219,0.8621,-6.31,7.77,-0.08,24.64
7038,0.3329,-0.0229,0.8606,-6.34,7.79,-0.09,24.65
7048,0.3345,-0.0176,0.8627,-6.23,7.8,-0.05,24.64
7058,0.3337,-0.0248,0.8635,-6.29,7.88,-0.03,24.65
7068,0.3324,-0.0253,0.8646,-6.41,7.77,0.0,24.67
7078,0.3342,-0.0261,0.86,-6.4,7.79,-0.03,24.63
7088,0.3344,-0.0226,0.8602,-6.32,7.86,-0.02,24.64
7098,0.3339,-0.0262,0.8611,-6.32,7.79,-0.02,24.66
7108,0.3352,-0.0216,0.8615,-6.29,7.79,-0.02,24.65
7118,0.3341,-0.0216,0.8627,-6.37,7.88,-0.08,24.64
7128,0.3373,-0.0205,0.863,-6.37,7.83,0.05,24.64
7138,0.3308,-0.0256,0.8604,-6.38,7.76,-0.02,24.66
7148,0.3328,-0.0221,0.8599,-6.34,7.8,-0.05,24.66
7158,0.335,-0.0239,0.8646,-6.35,7.86,0.02,24.66
7168,0.334,-0.0234,0.8662,-6.4,7.83,-0.11,24.65
7178,0.3339,-0.0221,0.8607,-6.38,7.85,-0.08,24.66
7188,0.3329,-0.025,0.8667,-6.35,7.76,-0.03,24.66
7198,0.3345,-0.0234,0.8645,-6.4,7.76,-0.02,24.64
7208,0.3324,-0.0212,0.8645,-6.31,7.85,0.03,24.62
7219,0.3361,-0.0212,0.8644,-6.35,7.86,-0.06,24.65
7229,0.3335,-0.0208,0.8662,-6.34,7.82,-0.05,24.65
7239,0.335,-0.0231,0.8651,-6.31,7.79,-0.03,24.64
7249,0.3344,-0.0249,0.863,-6.37,7.85,0.05,24.67
7259,0.3306,-0.0208,0.8624,-6.4,7.8,-0.05,24.65
7269,0.3335,-0.0248,0.8644,-6.41,7.79,-0.12,24.65
7279,0.3356,-0.0219,0.8608,-6.37,7.76,-0.12,24.66
7289,0.3347,-0.0205,0.8656,-6.35,7.82,0.0,24.68
7299,0.334,-0.0231,0.8629,-6.37,7.79,0.02,24.65
7309,0.3347,-0.0233,0.8641,-6.34,7.82,-0.05,24.66
7319,0.3341,-0.0221,0.8596,-6.38,7.79,-0.03,24.65
7329,0.3333,-0.0232,0.8611,-6.44,7.79,-0.03,24.65
7339,0.3359,-0.0229,0.8634,-6.41,7.76,0.0,24.65
7349,0.3336,-0.0264,0.8595,-6.24,7.88,-0.06,24.65
7359,0.3353,-0.0222,0.8634,-6.32,7.85,-0.05,24.64
7369,0.3351,-0.0231,0.86,-6.32,7.79,-0.09,24.66
7379,0.3351,-0.0239,0.8601,-6.4,7.77,-0.02,24.66
7389,0.3348,-0.0223,0.8608,-6.34,7.73,-0.03,24.65
7399,0.3337,-0.0228,0.8635,-6.37,7.86,-0.03,24.66
7409,0.3345,-0.0188,0.8611,-6.27,7.77,-0.06,24.64
7419,0.3335,-0.0215,0.8618,-6.32,7.83,-0.02,24.65
7429,0.3342,-0.0237,0.8651,-6.27,7.77,-0.05,24.65
7439,0.3326,-0.0253,0.8618,-6.35,7.76,-0.08,24.66
7449,0.3363,-0.0225,0.863,-6.32,7.82,-0.02,24.65
7459,0.334,-0.0225,0.864,-6.35,7.83,0.0,24.67
7469,0.3358,-0.0254,0.8584,-6.29,7.88,-0.05,24.64
7479,0.3347,-0.0249,0.8593,-6.38,7.86,0.03,24.67
7489,0.3333,-0.0234,0.8575,-6.37,7.82,-0.09,24.66
7499,0.3335,-0.0227,0.8629,-6.4,7.85,0.0,24.67
7509,0.3342,-0.0222,0.8606,-6.35,7.86,-0.05,24.66
7519,0.3364,-0.0226,0.8584,-6.26,7.82,0.02,24.67
7529,0.3356,-0.0232,0.8643,-6.37,7.82,-0.05,24.65
7539,0.33,-0.0244,0.8601,-6.26,7.86,-0.03,24.64
7549,0.3325,-0.0234,0.8611,-6.34,7.85,-0.02,24.69
7560,0.334,-0.0233,0.8625,-6.32,7.82,0.03,24.69
7570,0.3353,-0.0262,0.8602,-6.24,7.79,-0.06,24.68
7580,0.3373,-0.0244,0.8646,-6.29,7.77,-0.11,24.67
7590,0.334,-0.022,0.8635,-6.34,7.8,-0.02,24.68
7600,0.3339,-0.024,0.8619,-6.29,7.82,-0.06,24.66
7610,0.3357,-0.0253,0.866,-6.32,7.77,0.05,24.69
7620,0.3329,-0.0228,0.8602,-6.27,7.83,-0.05,24.68
7630,0.3359,-0.0248,0.8652,-6.29,7.8,-0.06,24.65
7640,0.3339,-0.0248,0.8627,-6.38,7.8,0.0,24.68
7651,0.3346,-0.0229,0.8616,-6.35,7.86,-0.05,24.67
7661,0.332,-0.0233,0.865,-6.31,7.85,-0.02,24.65
7671,0.3334,-0.0248,0.8663,-6.34,7.82,-0.08,24.65
7681,0.3329,-0.0243,0.8623,-6.41,7.82,-0.09,24.64
7691,0.3347,-0.0216,0.8658,-6.41,7.79,0.02,24.66
7701,0.3346,-0.0214,0.863,-6.29,7.82,-0.06,24.66
7711,0.3364,-0.0225,0.8594,-6.4,7.77,-0.09,24.67
7721,0.3359,-0.0244,0.8636,-6.35,7.83,-0.15,24.67
7731,0.332,-0.0223,0.8612,-6.34,7.74,-0.02,24.7
7741,0.3357,-0.0219,0.864,-6.32,7.73,-0.05,24.67
7751,0.3311,-0.0212,0.8612,-6.44,7.82,-0.08,24.67
7761,0.334,-0.0233,0.8657,-6.31,7.8,-0.08,24.65
7771,0.3341,-0.0234,0.8622,-6.35,7.8,-0.02,24.69
7781,0.3334,-0.0232,0.8628,-6.27,7.83,-0.03,24.69
7791,0.3318,-0.0243,0.8634,-6.27,7.82,-0.03,24.65
7801,0.3346,-0.0226,0.8627,-6.34,7.77,-0.05,24.65
7811,0.3348,-0.0223,0.8638,-6.35,7.83,-0.08,24.67
7821,0.3353,-0.0234,0.8634,-6.24,7.85,0.03,24.67
7831,0.3329,-0.0222,0.8606,-6.29,7.85,-0.05,24.67
7841,0.3326,-0.0244,0.8624,-6.29,7.79,-0.05,24.69
7851,0.334,-0.025,0.8628,-6.32,7.85,-0.05,24.69
7861,0.3356,-0.0223,0.8595,-6.37,7.82,-0.08,24.7
7871,0.335,-0.0273,0.8645,-6.27,7.85,-0.05,24.69
7881,0.3344,-0.0223,0.865,-6.31,7.82,-0.05,24.68
7891,0.337,-0.0247,0.8641,-6.37,7.74,-0.03,24.68
7901,0.3331,-0.0221,0.8586,-6.41,7.83,-0.08,24.68
7911,0.3319,-0.0236,0.8599,-6.31,7.83,0.0,24.65
7921,0.3351,-0.024,0.8608,-6.32,7.71,-0.03,24.67
7931,0.3367,-0.0244,0.8635,-6.35,7.79,-0.08,24.67
7941,0.3337,-0.024,0.8625,-6.31,7.77,-0.02,24.66
7951,0.3323,-0.0254,0.8632,-6.38,7.86,-0.05,24.68
7961,0.3317,-0.0227,0.8588,-6.38,7.8,-0.09,24.67
7971,0.3358,-0.0226,0.8635,-6.34,7.88,-0.09,24.67
7981,0.3317,-0.0233,0.8644,-6.37,7.79,-0.08,24.68
7991,0.334,-0.0215,0.8624,-6.4,7.85,-0.05,24.7
8001,0.3357,-0.0219,0.8641,-6.37,7.76,0.0,24.69
8011,0.3313,-0.0264,0.8628,-6.43,7.82,0.0,24.69
8021,0.3313,-0.0233,0.8632,-6.35,7.79,-0.08,24.68
8031,0.3337,-0.0249,0.8618,-6.31,7.77,-0.09,24.69
8041,0.3317,-0.0243,0.8651,-6.4,7.83,0.08,24.69
8051,0.3354,-0.0238,0.8617,-6.41,7.79,-0.03,24.7
8061,0.3325,-0.0226,0.8627,-6.31,7.71,-0.05,24.69
8071,0.3336,-0.0221,0.8619,-6.29,7.85,-0.03,24.67
8081,0.3346,-0.0236,0.8639,-6.37,7.8,-0.06,24.69
8091,0.3335,-0.0266,0.8641,-6.37,7.82,0.0,24.69
8101,0.337,-0.0236,0.8646,-6.29,7.77,-0.06,24.68
8111,0.3347,-0.0221,0.8636,-6.34,7.8,-0.06,24.67
8121,0.3361,-0.0219,0.8645,-6.37,7.74,-0.08,24.68
8131,0.3336,-0.0243,0.864,-6.38,7.83,0.03,24.69
8141,0.3339,-0.0226,0.8612,-6.29,7.86,-0.05,24.68
8151,0.3331,-0.0223,0.8633,-6.37,7.85,0.02,24.69
8161,0.335,-0.0228,0.8649,-6.4,7.8,0.02,24.7
8171,0.3354,-0.0253,0.8599,-6.35,7.8,-0.06,24.69
8181,0.3329,-0.0237,0.8602,-6.32,7.8,0.02,24.67
8191,0.3336,-0.0243,0.8646,-6.35,7.82,0.02,24.68
8201,0.3323,-0.0244,0.8623,-6.37,7.8,-0.02,24.69
8211,0.333,-0.0231,0.8632,-6.32,7.82,-0.02,24.69
8221,0.3323,-0.0225,0.8633,-6.38,7.76,-0.03,24.68
8231,0.3333,-0.0233,0.8553,-6.34,7.86,0.02,24.69
8241,0.3309,-0.0226,0.861,-6.32,7.83,0.02,24.69
8251,0.3334,-0.0249,0.8613,-6.34,7.8,-0.03,24.69
8261,0.3356,-0.0237,0.8621,-6.38,7.85,-0.02,24.69
8271,0.333,-0.0234,0.8635,-6.35,7.76,-0.05,24.68
8281,0.3348,-0.0249,0.863,-6.32,7.82,-0.02,24.69
8291,0.3348,-0.0211,0.8597,-6.29,7.85,-0.06,24.69
8301,0.3328,-0.0201,0.8616,-6.32,7.85,-0.05,24.69
8311,0.333,-0.0226,0.8638,-6.32,7.79,0.0,24.73
8321,0.3348,-0.0242,0.8649,-6.4,7.83,-0.03,24.69
8331,0.3348,-0.0219,0.8627,-6.38,7.82,-0.02,24.71
8341,0.3353,-0.0233,0.8643,-6.37,7.79,0.02,24.68
8351,0.3357,-0.0254,0.8671,-6.38,7.8,0.03,24.68
8361,0.3352,-0.0249,0.865,-6.34,7.86,-0.06,24.69
8371,0.3337,-0.0232,0.8645,-6.35,7.82,-0.05,24.69
8381,0.3356,-0.0215,0.8613,-6.38,7.76,-0.06,24.69
8391,0.3298,-0.024,0.8646,-6.34,7.77,-0.08,24.68
8401,0.3328,-0.0231,0.8656,-6.31,7.8,-0.06,24.67
8411,0.3352,-0.0228,0.8619,-6.35,7.88,-0.05,24.68
8421,0.3318,-0.0221,0.8618,-6.38,7.82,-0.02,24.7
8431,0.333,-0.0205,0.8594,-6.29,7.76,-0.02,24.68
8441,0.3328,-0.0233,0.863,-6.31,7.76,-0.02,24.7
8451,0.3352,-0.0233,0.8597,-6.37,7.85,0.02,24.68
8461,0.3326,-0.0222,0.8593,-6.29,7.83,0.02,24.67
8471,0.3319,-0.0211,0.8652,-6.31,7.83,-0.03,24.7
8481,0.3345,-0.0245,0.8593,-6.34,7.8,-0.03,24.68
8491,0.3356,-0.0254,0.8633,-6.41,7.82,-0.05,24.68
8501,0.3339,-0.0249,0.8655,-6.32,7.83,-0.02,24.68
8511,0.3358,-0.0236,0.8596,-6.26,7.82,0.0,24.69
8521,0.3352,-0.0242,0.8633,-6.37,7.8,-0.09,24.67
8531,0.3376,-0.0206,0.8597,-6.4,7.82,-0.05,24.69
8541,0.3339,-0.0237,0.8628,-6.37,7.85,0.02,24.72
8551,0.3324,-0.0234,0.8613,-6.35,7.88,-0.09,24.69
8561,0.3336,-0.025,0.859,-6.34,7.79,-0.08,24.68
8571,0.3351,-0.0237,0.8647,-6.37,7.76,-0.03,24.68
8581,0.3341,-0.025,0.8611,-6.38,7.82,0.03,24.69
8591,0.3345,-0.0222,0.8593,-6.35,7.8,-0.03,24.68
8601,0.3367,-0.0229,0.86,-6.31,7.83,-0.05,24.7
8611,0.3353,-0.0232,0.8634,-6.37,7.77,0.0,24.71
8621,0.3334,-0.0232,0.8615,-6.38,7.86,0.02,24.71
8631,0.3333,-0.0208,0.8632,-6.29,7.82,-0.06,24.72
8641,0.333,-0.0214,0.8605,-6.35,7.8,-0.09,24.69
8651,0.3365,-0.0249,0.8597,-6.35,7.79,-0.09,24.7
8661,0.3351,-0.0229,0.8613,-6.26,7.77,-0.08,24.69
8671,0.333,-0.0237,0.8635,-6.34,7.8,-0.02,24.69
8681,0.3353,-0.0262,0.8667,-6.34,7.85,0.02,24.69
8691,0.332,-0.0242,0.866,-6.41,7.82,-0.06,24.72
8701,0.3329,-0.0251,0.8627,-6.34,7.8,-0.05,24.72
8711,0.3401,-0.0211,0.8639,-6.31,7.77,-0.05,24.68
8721,0.3328,-0.0248,0.8627,-6.26,7.85,-0.06,24.69
8731,0.3341,-0.0259,0.859,-6.31,7.77,-0.02,24.68
8741,0.3334,-0.0251,0.8632,-6.32,7.79,0.0,24.69
8751,0.3344,-0.0198,0.8623,-6.29,7.85,-0.06,24.72
8761,0.3335,-0.0231,0.8602,-6.35,7.83,-0.05,24.69
8771,0.333,-0.0216,0.8628,-6.38,7.85,-0.08,24.71
8781,0.3328,-0.024,0.861,-6.32,7.85,0.0,24.69
8791,0.3335,-0.0242,0.8634,-6.37,7.8,-0.08,24.71
8801,0.3362,-0.0242,0.8639,-6.4,7.77,-0.05,24.72
8811,0.3325,-0.0215,0.8639,-6.32,7.79,-0.03,24.7
8821,0.3326,-0.0242,0.8607,-6.27,7.83,-0.03,24.71
8831,0.3329,-0.0249,0.865,-6.32,7.82,0.0,24.72
8841,0.3351,-0.0233,0.8619,-6.37,7.79,-0.14,24.71
8851,0.335,-0.0253,0.8616,-6.31,7.83,-0.03,24.7
8861,0.3353,-0.0249,0.8651,-6.34,7.86,-0.03,24.71
8871,0.3329,-0.0249,0.8646,-6.37,7.79,-0.02,24.69
8881,0.335,-0.0247,0.8605,-6.32,7.8,-0.11,24.7
8891,0.3352,-0.0242,0.8617,-6.32,7.82,-0.09,24.69
8901,0.3333,-0.0232,0.8615,-6.29,7.86,-0.03,24.7
8911,0.3337,-0.0227,0.8627,-6.37,7.82,-0.02,24.7
8921,0.3342,-0.0251,0.8661,-6.35,7.88,-0.03,24.7
8931,0.3336,-0.025,0.8625,-6.31,7.8,-0.11,24.7
8941,0.3368,-0.0215,0.8628,-6.37,7.82,-0.12,24.71
8951,0.3345,-0.0258,0.8638,-6.31,7.82,-0.09,24.7
8961,0.335,-0.024,0.865,-6.35,7.79,-0.08,24.72
8971,0.3368,-0.0247,0.8621,-6.34,7.8,-0.12,24.71
8981,0.3345,-0.0261,0.8596,-6.41,7.82,0.02,24.73
8991,0.3379,-0.0219,0.8627,-6.34,7.89,-0.02,24.71
9001,0.3344,-0.0248,0.8622,-6.43,7.82,0.0,24.7
9011,0.3334,-0.0243,0.8619,-6.34,7.85,-0.03,24.73
9021,0.3341,-0.0251,0.8643,-6.43,7.83,0.02,24.71
9031,0.3347,-0.02,0.8623,-6.38,7.83,0.03,24.68
9041,0.3311,-0.0239,0.8624,-6.35,7.88,-0.08,24.72
9051,0.3335,-0.0247,0.8597,-6.27,7.83,-0.06,24.71
9061,0.3335,-0.021,0.863,-6.34,7.83,-0.05,24.72
9071,0.3331,-0.0275,0.8632,-6.29,7.88,-0.03,24.72
9081,0.3342,-0.0234,0.8599,-6.37,7.83,-0.09,24.71
9091,0.3341,-0.0245,0.8615,-6.37,7.85,0.02,24.74
9101,0.3359,-0.0238,0.8632,-6.32,7.92,0.0,24.73
9111,0.3359,-0.0249,0.8617,-6.27,7.89,-0.02,24.71
9121,0.3319,-0.0219,0.8617,-6.37,7.76,0.0,24.73
9131,0.3336,-0.0226,0.8572,-6.32,7.88,-0.08,24.69
9141,0.3369,-0.0239,0.8623,-6.32,7.79,0.02,24.73
9151,0.3347,-0.0243,0.8644,-6.31,7.8,-0.09,24.71
9161,0.3328,-0.0243,0.8633,-6.32,7.91,0.0,24.72
9171,0.3353,-0.0238,0.8617,-6.41,7.89,-0.05,24.72
9181,0.3324,-0.0243,0.8671,-6.43,7.86,-0.05,24.71
9192,0.3364,-0.025,0.8618,-6.31,7.79,0.09,24.71
9202,0.3346,-0.0226,0.8632,-6.37,7.88,0.0,24.69
9212,0.3328,-0.0215,0.8604,-6.41,7.8,-0.09,24.69
9223,0.3342,-0.0238,0.859,-6.32,7.83,-0.06,24.72
9233,0.3375,-0.0253,0.8605,-6.32,7.77,-0.02,24.72
9243,0.3365,-0.0194,0.8639,-6.34,7.79,0.0,24.71
9253,0.3324,-0.0208,0.8615,-6.34,7.82,-0.05,24.71
9263,0.3348,-0.0228,0.8634,-6.32,7.77,0.0,24.72
9273,0.3318,-0.0234,0.8649,-6.35,7.79,0.02,24.71
9283,0.3356,-0.0239,0.8649,-6.43,7.74,-0.06,24.72
9293,0.3335,-0.0227,0.864,-6.32,7.8,-0.06,24.72
9303,0.3352,-0.0227,0.8628,-6.32,7.76,-0.06,24.72
9313,0.3339,-0.0234,0.8615,-6.35,7.77,-0.05,24.74
9323,0.3347,-0.0251,0.8645,-6.31,7.83,-0.06,24.73
9333,0.335,-0.0261,0.8635,-6.43,7.89,-0.03,24.72
9343,0.3346,-0.0223,0.8639,-6.38,7.82,-0.15,24.71
9353,0.3334,-0.0184,0.8611,-6.38,7.85,-0.03,24.69
9363,0.3354,-0.0205,0.8645,-6.27,7.92,-0.08,24.72
9373,0.337,-0.0226,0.864,-6.4,7.83,-0.02,24.72
9383,0.3344,-0.0226,0.8582,-6.34,7.85,0.02,24.72
9393,0.3374,-0.026,0.8616,-6.31,7.85,0.03,24.7
9403,0.3335,-0.024,0.8574,-6.38,7.83,-0.02,24.74
9413,0.3334,-0.0228,0.8654,-6.34,7.76,-0.03,24.72
9423,0.3326,-0.0231,0.8612,-6.32,7.8,-0.02,24.74
9433,0.3346,-0.0215,0.8619,-6.34,7.82,-0.03,24.74
9443,0.333,-0.0233,0.8615,-6.37,7.8,-0.03,24.74
9453,0.3345,-0.0219,0.8627,-6.37,7.82,-0.02,24.73
9463,0.3313,-0.0253,0.8636,-6.4,7.79,-0.03,24.72
9473,0.3319,-0.0229,0.8634,-6.29,7.8,-0.02,24.71
9483,0.3344,-0.0223,0.8621,-6.35,7.76,0.0,24.73
9493,0.3323,-0.0239,0.8635,-6.38,7.82,-0.08,24.71
9503,0.3331,-0.0221,0.8643,-6.41,7.8,-0.06,24.71
9513,0.332,-0.0264,0.8634,-6.43,7.83,-0.03,24.72
9523,0.337,-0.0243,0.8629,-6.38,7.83,-0.06,24.71
9533,0.3345,-0.0239,0.8638,-6.35,7.77,-0.08,24.72
9543,0.3339,-0.0244,0.8586,-6.29,7.83,0.0,24.72
9553,0.3347,-0.0228,0.8605,-6.35,7.85,0.02,24.73
9563,0.3347,-0.0222,0.86,-6.35,7.85,-0.09,24.72
9573,0.3348,-0.0229,0.8618,-6.27,7.77,-0.03,24.73
9583,0.3319,-0.0236,0.8618,-6.34,7.89,-0.03,24.71
9593,0.332,-0.0221,0.8634,-6.34,7.8,-0.02,24.73
9603,0.3335,-0.0244,0.8612,-6.35,7.77,0.0,24.72
9613,0.3329,-0.0228,0.8594,-6.35,7.85,-0.06,24.71
9623,0.3348,-0.0236,0.8634,-6.34,7.88,-0.08,24.74
9633,0.3341,-0.0227,0.8588,-6.32,7.85,-0.06,24.71
9643,0.3329,-0.02,0.8633,-6.34,7.83,-0.09,24.72
9653,0.3359,-0.0198,0.8595,-6.37,7.82,-0.02,24.74
9663,0.3378,-0.0227,0.8633,-6.29,7.8,-0.06,24.71
9673,0.3345,-0.0194,0.8623,-6.38,7.79,-0.06,24.74
9683,0.3346,-0.0244,0.8635,-6.31,7.83,0.0,24.72
9693,0.3359,-0.0239,0.8636,-6.35,7.79,-0.03,24.72
9703,0.3336,-0.0247,0.8627,-6.38,7.85,0.0,24.73
9713,0.3361,-0.0236,0.8606,-6.35,7.85,-0.08,24.74
9723,0.3342,-0.0223,0.8666,-6.37,7.82,-0.08,24.76
9733,0.3329,-0.0221,0.8618,-6.34,7.79,-0.06,24.73
9743,0.334,-0.0232,0.8625,-6.31,7.83,0.0,24.72
9753,0.3354,-0.0245,0.864,-6.4,7.83,-0.03,24.72
9763,0.3348,-0.0275,0.8649,-6.32,7.79,-0.05,24.74
9773,0.3354,-0.0253,0.8639,-6.37,7.77,-0.02,24.74
9783,0.3337,-0.0211,0.8586,-6.41,7.83,-0.03,24.71
9793,0.3352,-0.0228,0.8612,-6.46,7.76,-0.02,24.69
9804,0.3347,-0.0219,0.8628,-6.37,7.83,-0.05,24.71
9814,0.3337,-0.0234,0.8665,-6.34,7.85,-0.03,24.71
9824,0.3329,-0.0215,0.8602,-6.37,7.85,-0.05,24.71
9835,0.3312,-0.022,0.8611,-6.37,7.77,-0.06,24.73
9845,0.3359,-0.0215,0.8572,-6.41,7.76,-0.06,24.74
9855,0.3348,-0.0243,0.8597,-6.29,7.89,-0.05,24.7
9865,0.3328,-0.0231,0.865,-6.37,7.82,-0.02,24.74
9875,0.3331,-0.021,0.864,-6.35,7.8,-0.11,24.75
9885,0.3357,-0.0237,0.8601,-6.43,7.8,-0.06,24.72
9895,0.33,-0.0225,0.8641,-6.34,7.83,-0.08,24.75
9905,0.3335,-0.0229,0.8627,-6.41,7.79,0.03,24.73
9915,0.3391,-0.0239,0.8585,-6.27,7.8,0.03,24.75
9925,0.3315,-0.0243,0.8634,-6.4,7.82,-0.08,24.71
9935,0.3306,-0.0234,0.8628,-6.31,7.85,-0.06,24.73
9945,0.3326,-0.0247,0.8612,-6.35,7.83,-0.02,24.71
9955,0.3356,-0.0248,0.8624,-6.34,7.77,-0.02,24.73
9965,0.3376,-0.024,0.8636,-6.31,7.77,-0.09,24.74
9975,0.3342,-0.0217,0.8601,-6.31,7.88,-0.08,24.75
9985,0.3326,-0.0228,0.8619,-6.35,7.79,-0.03,24.76
9995,0.3401,-0.0226,0.859,-6.47,7.8,-0.06,24.73
10005,0.3351,-0.0247,0.8633,-6.4,7.89,-0.05,24.73
10015,0.3334,-0.021,0.861,-6.32,7.77,0.0,24.73
10025,0.3387,-0.0221,0.8612,-6.4,7.74,-0.08,24.73
10035,0.335,-0.0236,0.86,-6.35,7.76,-0.08,24.74
10045,0.3345,-0.0234,0.8606,-6.34,7.88,-0.03,24.71
10055,0.3345,-0.0232,0.864,-6.35,7.8,-0.02,24.73
10065,0.334,-0.0223,0.8617,-6.34,7.8,0.02,24.72
10075,0.3317,-0.0231,0.8582,-6.31,7.76,-0.02,24.74
10085,0.3334,-0.0237,0.8621,-6.37,7.86,-0.06,24.71
10095,0.3315,-0.0236,0.8632,-6.37,7.86,-0.06,24.72
10105,0.3352,-0.022,0.8612,-6.38,7.85,-0.03,24.74
10115,0.3335,-0.0233,0.8632,-6.43,7.85,-0.08,24.72
10125,0.3324,-0.026,0.8594,-6.44,7.82,-0.12,24.75
10135,0.3313,-0.025,0.8613,-6.4,7.77,-0.03,24.75
10145,0.3324,-0.021,0.8643,-6.34,7.83,-0.02,24.73
10155,0.3334,-0.0223,0.8651,-6.35,7.83,-0.02,24.72
10165,0.3325,-0.0253,0.8646,-6.32,7.85,-0.05,24.71
10175,0.3358,-0.0229,0.8644,-6.37,7.82,-0.08,24.74
10185,0.3367,-0.026,0.8639,-6.4,7.85,-0.05,24.74
10195,0.335,-0.0254,0.863,-6.43,7.8,-0.02,24.7
10205,0.3333,-0.0251,0.859,-6.38,7.85,-0.08,24.72
10215,0.3346,-0.0219,0.8611,-6.35,7.8,-0.03,24.73
10225,0.3341,-0.0227,0.8636,-6.32,7.83,0.0,24.72
10235,0.3367,-0.0228,0.8618,-6.34,7.85,0.02,24.74
10245,0.3324,-0.0234,0.8624,-6.38,7.85,0.02,24.73
10255,0.3335,-0.0259,0.8604,-6.38,7.86,0.05,24.74
10265,0.3348,-0.0237,0.8644,-6.34,7.85,-0.03,24.71
10275,0.3318,-0.0226,0.8645,-6.31,7.85,0.0,24.74
10285,0.3356,-0.0219,0.8627,-6.4,7.86,-0.06,24.75
10295,0.3346,-0.0222,0.8646,-6.37,7.82,-0.06,24.74
10305,0.3351,-0.0249,0.8685,-6.41,7.82,-0.05,24.73
10315,0.3337,-0.0242,0.8605,-6.32,7.79,0.02,24.73
10325,0.3319,-0.0251,0.8638,-6.41,7.76,0.02,24.74
10335,0.3339,-0.0237,0.8628,-6.43,7.85,-0.03,24.76
10345,0.3344,-0.0223,0.8618,-6.4,7.82,-0.03,24.74
10355,0.3325,-0.0236,0.8619,-6.37,7.76,-0.03,24.72
10365,0.3335,-0.0237,0.8644,-6.4,7.85,-0.02,24.72
10375,0.3339,-0.0237,0.8622,-6.38,7.79,-0.02,24.73
10385,0.3346,-0.0249,0.8628,-6.38,7.79,0.0,24.75
10395,0.3323,-0.0203,0.8654,-6.32,7.82,-0.06,24.72
10405,0.3331,-0.0249,0.8633,-6.31,7.76,-0.08,24.72
10415,0.3345,-0.0233,0.8623,-6.34,7.82,0.0,24.74
10425,0.3364,-0.0212,0.8639,-6.34,7.86,0.0,24.73
10435,0.3361,-0.0248,0.86,-6.4,7.8,-0.08,24.74
10445,0.3352,-0.024,0.8643,-6.35,7.83,-0.05,24.74
10455,0.3339,-0.0233,0.8625,-6.37,7.76,0.02,24.72
10465,0.3351,-0.0227,0.8612,-6.31,7.83,0.02,24.74
10475,0.332,-0.0238,0.8666,-6.34,7.85,-0.08,24.75
10485,0.3347,-0.026,0.8656,-6.37,7.8,-0.08,24.75
10495,0.3328,-0.0228,0.8594,-6.37,7.85,-0.05,24.73
10505,0.334,-0.0242,0.8608,-6.31,7.83,-0.03,24.75
10515,0.335,-0.0228,0.8602,-6.37,7.77,-0.11,24.74
10525,0.3329,-0.0233,0.8625,-6.41,7.76,-0.12,24.75
10535,0.3359,-0.0219,0.8617,-6.37,7.82,-0.05,24.75
10545,0.3333,-0.0212,0.8646,-6.4,7.8,-0.02,24.72
10555,0.3312,-0.0227,0.8647,-6.29,7.83,-0.02,24.72
10565,0.3345,-0.0237,0.8632,-6.44,7.8,0.03,24.73
10575,0.335,-0.0231,0.8594,-6.34,7.82,0.03,24.73
10585,0.3313,-0.0226,0.8625,-6.34,7.85,-0.08,24.75
10595,0.3353,-0.0239,0.8608,-6.32,7.85,0.0,24.76
10605,0.3335,-0.0245,0.8641,-6.41,7.82,-0.06,24.74
10615,0.3352,-0.0243,0.8665,-6.41,7.83,-0.02,24.73
10625,0.3337,-0.0227,0.8657,-6.43,7.8,0.05,24.73
10635,0.3346,-0.0223,0.8613,-6.44,7.88,0.0,24.75
10645,0.3334,-0.0276,0.8622,-6.43,7.83,-0.09,24.74
10655,0.3336,-0.0223,0.8602,-6.27,7.82,-0.02,24.72
10665,0.335,-0.0201,0.8627,-6.37,7.83,-0.02,24.76
10675,0.3365,-0.0239,0.8623,-6.43,7.77,-0.06,24.75
10685,0.3341,-0.0215,0.8604,-6.38,7.77,-0.05,24.74
10695,0.3375,-0.0256,0.8596,-6.38,7.89,-0.03,24.75
10705,0.3372,-0.0216,0.8595,-6.37,7.86,-0.08,24.74
10715,0.3363,-0.0238,0.8618,-6.32,7.82,0.0,24.73
10725,0.3344,-0.0245,0.859,-6.38,7.8,-0.05,24.75
10735,0.3345,-0.0238,0.8635,-6.29,7.76,-0.05,24.76
10745,0.3335,-0.0237,0.866,-6.32,7.83,-0.05,24.74
10755,0.3352,-0.0226,0.8638,-6.35,7.82,-0.09,24.74
10765,0.3344,-0.0225,0.8646,-6.38,7.82,-0.09,24.77
10775,0.3357,-0.0234,0.8624,-6.4,7.83,-0.03,24.77
10785,0.3339,-0.0229,0.8607,-6.32,7.8,-0.05,24.76
10795,0.3333,-0.0244,0.8641,-6.35,7.8,-0.05,24.73
10805,0.3333,-0.0236,0.8619,-6.34,7.79,0.0,24.74
10815,0.3342,-0.0227,0.8586,-6.32,7.8,0.02,24.76
10825,0.334,-0.0245,0.8635,-6.41,7.76,-0.09,24.73
10835,0.3347,-0.0253,0.861,-6.34,7.83,0.03,24.75
10845,0.3357,-0.0226,0.8635,-6.35,7.85,0.0,24.74
10855,0.3361,-0.027,0.8643,-6.43,7.8,-0.08,24.73
10865,0.3363,-0.0233,0.8612,-6.37,7.82,-0.05,24.75
10875,0.33,-0.0236,0.8579,-6.35,7.88,-0.06,24.77
10885,0.3313,-0.0228,0.8647,-6.41,7.79,-0.09,24.76
10895,0.3334,-0.0215,0.8657,-6.4,7.88,-0.06,24.74
10905,0.3359,-0.0221,0.8646,-6.35,7.88,-0.08,24.76
10915,0.3354,-0.0229,0.8682,-6.4,7.89,-0.05,24.74
10925,0.334,-0.0247,0.8634,-6.34,7.86,-0.11,24.74
10935,0.3353,-0.0255,0.8575,-6.4,7.89,-0.05,24.73
10945,0.3347,-0.024,0.8618,-6.27,7.8,-0.09,24.74
10955,0.3328,-0.0227,0.8632,-6.4,7.82,-0.06,24.75
10965,0.3341,-0.0229,0.8633,-6.37,7.86,-0.03,24.75
10975,0.3319,-0.0234,0.8625,-6.35,7.85,0.03,24.74
10985,0.3353,-0.0247,0.8634,-6.34,7.82,-0.02,24.75
10995,0.3336,-0.025,0.8638,-6.4,7.88,-0.02,24.73
11005,0.3348,-0.0238,0.8635,-6.43,7.83,0.02,24.74
11015,0.335,-0.0189,0.8635,-6.4,7.82,-0.08,24.74
11025,0.3337,-0.0226,0.8661,-6.35,7.77,-0.08,24.75
11035,0.3334,-0.0245,0.8627,-6.32,7.79,-0.05,24.75
11045,0.3333,-0.0211,0.8643,-6.34,7.76,-0.08,24.74
11055,0.3319,-0.0223,0.8633,-6.34,7.8,-0.11,24.74
11065,0.3373,-0.0227,0.8608,-6.44,7.74,-0.02,24.75
11075,0.3345,-0.021,0.861,-6.34,7.85,-0.11,24.74
11085,0.3333,-0.0227,0.8638,-6.37,7.8,-0.08,24.74
11095,0.334,-0.0234,0.8601,-6.31,7.79,0.05,24.76
11105,0.3315,-0.0234,0.8619,-6.35,7.77,-0.06,24.75
11115,0.3346,-0.0243,0.8611,-6.4,7.8,-0.06,24.76
11125,0.3362,-0.0236,0.8639,-6.32,7.88,-0.09,24.74
11135,0.335,-0.0221,0.8633,-6.35,7.86,-0.08,24.74
11145,0.3365,-0.0251,0.8627,-6.18,7.79,-0.02,24.74
11155,0.3363,-0.0222,0.8624,-6.34,7.86,-0.05,24.74
11165,0.3369,-0.0216,0.8627,-6.37,7.92,-0.06,24.74
11175,0.3335,-0.0242,0.8627,-6.37,7.8,-0.02,24.77
11185,0.332,-0.0223,0.8615,-6.32,7.83,0.02,24.77
11195,0.3334,-0.0245,0.8593,-6.35,7.76,-0.08,24.77
11205,0.3318,-0.0205,0.8596,-6.35,7.76,-0.05,24.75
11215,0.3342,-0.028,0.8632,-6.37,7.8,-0.02,24.78
11225,0.3339,-0.0231,0.8604,-6.38,7.73,-0.05,24.76
11235,0.3339,-0.0255,0.8636,-6.38,7.83,0.0,24.77
11245,0.3354,-0.022,0.8643,-6.35,7.74,-0.03,24.77
11255,0.3368,-0.0214,0.8593,-6.38,7.83,-0.05,24.77
11265,0.3346,-0.0223,0.8641,-6.37,7.85,-0.08,24.75
11275,0.3318,-0.0236,0.8641,-6.35,7.8,-0.06,24.77
11285,0.334,-0.0237,0.8617,-6.41,7.86,-0.03,24.75
11295,0.3323,-0.0242,0.8606,-6.4,7.83,-0.02,24.73
11305,0.3312,-0.0228,0.8622,-6.4,7.83,-0.03,24.77
11315,0.3337,-0.0234,0.8613,-6.34,7.8,-0.03,24.74
11325,0.3297,-0.0249,0.8641,-6.4,7.88,-0.05,24.76
11335,0.3356,-0.0254,0.8671,-6.46,7.85,-0.06,24.75
11345,0.3323,-0.0227,0.8654,-6.32,7.83,0.03,24.77
11355,0.3319,-0.0231,0.8596,-6.35,7.83,-0.05,24.76
11365,0.3335,-0.0231,0.8639,-6.32,7.79,-0.05,24.76
11375,0.3325,-0.0221,0.8607,-6.29,7.85,-0.02,24.78
11385,0.3351,-0.0269,0.8618,-6.35,7.82,-0.03,24.75
11395,0.3312,-0.0228,0.8636,-6.38,7.77,-0.11,24.78
11405,0.3361,-0.0251,0.8645,-6.29,7.79,-0.02,24.75
11415,0.3333,-0.024,0.8658,-6.38,7.83,-0.12,24.76
11425,0.3345,-0.0225,0.8611,-6.34,7.83,-0.02,24.77
11436,0.3345,-0.0254,0.8636,-6.34,7.8,-0.05,24.77
11446,0.332,-0.0226,0.8636,-6.4,7.8,-0.05,24.76
11456,0.3336,-0.0217,0.8602,-6.41,7.83,-0.08,24.78
11467,0.3339,-0.0232,0.8628,-6.4,7.8,-0.05,24.76
11477,0.3358,-0.0208,0.8644,-6.43,7.85,0.02,24.74
11487,0.3331,-0.0251,0.8628,-6.34,7.76,-0.03,24.76
11497,0.3325,-0.0233,0.8624,-6.38,7.79,0.0,24.77
11507,0.3323,-0.0222,0.8611,-6.4,7.8,-0.05,24.77
11517,0.3372,-0.0221,0.8604,-6.4,7.79,-0.08,24.75
11527,0.3347,-0.0231,0.8597,-6.29,7.8,0.0,24.78
11537,0.3353,-0.0233,0.8604,-6.37,7.82,-0.08,24.75
11547,0.3336,-0.0238,0.8606,-6.32,7.8,-0.05,24.77
11557,0.3348,-0.0239,0.8654,-6.41,7.86,-0.08,24.76
11567,0.3345,-0.0236,0.86,-6.34,7.77,-0.02,24.74
11577,0.3337,-0.0245,0.8658,-6.27,7.85,-0.06,24.77
11587,0.3335,-0.0251,0.8652,-6.41,7.82,0.0,24.75
11597,0.3339,-0.0237,0.8618,-6.32,7.82,-0.03,24.75
11607,0.3348,-0.0206,0.8658,-6.41,7.88,-0.09,24.74
11617,0.3333,-0.0237,0.8646,-6.35,7.77,-0.08,24.77
11627,0.3358,-0.0248,0.8605,-6.38,7.85,-0.02,24.79
11637,0.3364,-0.0237,0.8628,-6.37,7.73,-0.03,24.74
11647,0.3339,-0.0203,0.8635,-6.32,7.76,-0.06,24.76
11657,0.3358,-0.0256,0.8645,-6.38,7.82,0.0,24.77
11667,0.3322,-0.0227,0.864,-6.34,7.86,-0.05,24.77
11677,0.334,-0.024,0.8649,-6.35,7.77,0.0,24.75
11687,0.3315,-0.0232,0.8611,-6.32,7.77,-0.03,24.74
11697,0.335,-0.025,0.8619,-6.4,7.86,-0.03,24.77
11707,0.333,-0.0233,0.8634,-6.38,7.83,-0.11,24.77
11717,0.3375,-0.0233,0.8638,-6.37,7.79,-0.05,24.75
11727,0.3331,-0.0258,0.8661,-6.35,7.85,-0.03,24.77
11737,0.3335,-0.0238,0.8613,-6.47,7.79,-0.05,24.77
11747,0.3318,-0.0226,0.863,-6.31,7.86,-0.05,24.77
11757,0.3331,-0.0245,0.8647,-6.32,7.8,-0.08,24.74
11767,0.3344,-0.021,0.8604,-6.41,7.85,-0.05,24.78
11777,0.3315,-0.0256,0.8627,-6.4,7.8,-0.12,24.77
11787,0.3376,-0.0215,0.8594,-6.38,7.77,-0.05,24.77
11797,0.3333,-0.024,0.8617,-6.38,7.82,-0.08,24.76
11807,0.3337,-0.0242,0.8655,-6.37,7.82,-0.08,24.75
11817,0.3346,-0.0228,0.8647,-6.34,7.82,-0.05,24.77
11827,0.3317,-0.0242,0.8652,-6.34,7.76,-0.03,24.77
11837,0.3328,-0.0226,0.8602,-6.4,7.8,-0.08,24.78
11847,0.3315,-0.0208,0.8611,-6.32,7.88,-0.02,24.76
11857,0.3298,-0.0233,0.8638,-6.38,7.82,-0.06,24.77
11867,0.3342,-0.0251,0.866,-6.34,7.85,-0.05,24.77
11877,0.3353,-0.0228,0.861,-6.43,7.85,-0.06,24.79
11887,0.3307,-0.024,0.8667,-6.27,7.79,-0.02,24.79
11897,0.3352,-0.0238,0.8619,-6.4,7.76,-0.03,24.77
11907,0.3331,-0.0228,0.8643,-6.34,7.82,-0.09,24.77
11917,0.3339,-0.0227,0.863,-6.38,7.85,-0.06,24.78
11927,0.334,-0.0244,0.8666,-6.41,7.86,-0.14,24.77
11937,0.333,-0.0239,0.8625,-6.34,7.77,0.0,24.77
11947,0.3339,-0.0228,0.8632,-6.23,7.8,-0.06,24.79
11957,0.3368,-0.0222,0.8617,-6.32,7.89,-0.05,24.77
11967,0.334,-0.0227,0.8633,-6.34,7.83,-0.11,24.78
11977,0.3346,-0.022,0.8627,-6.32,7.86,-0.02,24.78
11987,0.3352,-0.0232,0.8628,-6.34,7.83,0.0,24.77
11997,0.332,-0.0204,0.8615,-6.34,7.77,-0.05,24.78
12007,0.3324,-0.021,0.8605,-6.35,7.76,-0.09,24.77
12017,0.3335,-0.0249,0.8645,-6.31,7.83,-0.03,24.79
12027,0.333,-0.0216,0.8613,-6.37,7.76,-0.02,24.78
12037,0.3348,-0.0232,0.86,-6.4,7.83,-0.08,24.74
12047,0.3339,-0.021,0.8589,-6.35,7.8,-0.09,24.76
12057,0.3334,-0.0221,0.8596,-6.32,7.85,-0.02,24.76
12067,0.3351,-0.0212,0.8593,-6.38,7.88,-0.05,24.74
12077,0.334,-0.0237,0.8602,-6.31,7.86,-0.05,24.77
12087,0.3331,-0.0198,0.864,-6.41,7.79,-0.05,24.78
12097,0.333,-0.0229,0.8628,-6.38,7.82,-0.06,24.77
12107,0.3303,-0.0237,0.863,-6.35,7.85,0.0,24.77
12117,0.3326,-0.025,0.8612,-6.35,7.82,-0.08,24.78
12127,0.3324,-0.0225,0.8604,-6.38,7.85,-0.02,24.75
12137,0.3319,-0.0228,0.8627,-6.38,7.98,-0.08,24.77
12147,0.3339,-0.0231,0.8634,-6.44,7.83,-0.08,24.77
12157,0.3334,-0.0238,0.8599,-6.35,7.85,-0.06,24.77
12167,0.3331,-0.0225,0.8624,-6.4,7.8,-0.06,24.79
12177,0.3324,-0.0242,0.8651,-6.29,7.82,-0.09,24.78
12187,0.3345,-0.0233,0.8662,-6.27,7.74,-0.03,24.78
12197,0.3342,-0.0234,0.8607,-6.31,7.76,-0.05,24.77
12207,0.3354,-0.0242,0.8616,-6.37,7.83,-0.06,24.78
12217,0.3373,-0.0214,0.8633,-6.29,7.82,-0.03,24.77
12227,0.3341,-0.0236,0.8604,-6.35,7.86,-0.05,24.79
12237,0.3337,-0.0233,0.8643,-6.32,7.8,-0.03,24.8
12247,0.3324,-0.0204,0.8654,-6.37,7.82,-0.09,24.8
12257,0.3328,-0.0249,0.8639,-6.38,7.8,-0.09,24.79
12267,0.3341,-0.0249,0.8618,-6.41,7.89,0.0,24.75
12277,0.337,-0.0214,0.8596,-6.37,7.82,-0.05,24.79
12287,0.3337,-0.0209,0.8645,-6.41,7.86,-0.06,24.79
12297,0.3329,-0.0258,0.8633,-6.35,7.79,-0.08,24.78
12310,0.3339,-0.0267,0.8594,-6.37,7.88,-0.06,24.79
12320,0.3359,-0.0201,0.8663,-6.37,7.86,-0.06,24.78
12331,0.3337,-0.0219,0.8668,-6.29,7.77,-0.02,24.8
12341,0.3351,-0.0208,0.8621,-6.46,7.85,-0.03,24.79
12351,0.3357,-0.0226,0.8605,-6.43,7.88,-0.03,24.79
12361,0.3339,-0.0221,0.8599,-6.35,7.85,0.02,24.79
12371,0.3339,-0.0232,0.8634,-6.38,7.76,-0.05,24.8
12381,0.332,-0.0249,0.8638,-6.32,7.82,-0.05,24.77
12391,0.3328,-0.0219,0.8618,-6.35,7.85,-0.08,24.79
12401,0.3351,-0.0223,0.8617,-6.35,7.76,0.0,24.78
12411,0.335,-0.0205,0.8601,-6.4,7.8,0.05,24.78
12421,0.3356,-0.0231,0.8593,-6.44,7.82,-0.08,24.77
12431,0.3372,-0.0256,0.8662,-6.31,7.82,-0.06,24.79
12441,0.3372,-0.0226,0.8627,-6.43,7.86,-0.05,24.78
12451,0.3336,-0.0262,0.861,-6.35,7.82,-0.03,24.79
12461,0.3346,-0.0234,0.8608,-6.35,7.86,-0.05,24.78
12471,0.3322,-0.0238,0.8639,-6.37,7.79,0.0,24.78
12481,0.3337,-0.0232,0.8658,-6.46,7.86,-0.03,24.78
12491,0.3328,-0.025,0.861,-6.35,7.79,0.02,24.8
12501,0.3345,-0.0255,0.86,-6.32,7.83,-0.05,24.81
12511,0.3344,-0.0244,0.865,-6.32,7.83,-0.03,24.78
12521,0.3319,-0.0245,0.8618,-6.34,7.83,-0.02,24.82
12531,0.3341,-0.0237,0.8634,-6.29,7.86,-0.06,24.78
12541,0.3342,-0.0229,0.8641,-6.29,7.8,-0.03,24.79
12551,0.3318,-0.0234,0.863,-6.38,7.89,-0.12,24.77
12561,0.3365,-0.0239,0.8636,-6.29,7.71,0.0,24.79
12571,0.3336,-0.022,0.8599,-6.24,7.86,-0.03,24.78
12581,0.3335,-0.0253,0.8606,-6.32,7.85,-0.05,24.79
12591,0.3324,-0.0197,0.8655,-6.47,7.83,-0.05,24.78
12601,0.3357,-0.0209,0.8666,-6.35,7.83,-0.09,24.79
12611,0.3352,-0.0204,0.8612,-6.34,7.82,-0.11,24.79
12621,0.3328,-0.0215,0.8638,-6.38,7.88,0.02,24.79
12631,0.3348,-0.0194,0.8656,-6.38,7.79,0.0,24.79
12641,0.3358,-0.0236,0.8586,-6.29,7.85,-0.02,24.79
12651,0.3337,-0.0231,0.8661,-6.37,7.86,-0.02,24.82
12661,0.3328,-0.0242,0.8593,-6.41,7.88,-0.08,24.79
12671,0.3333,-0.0226,0.8616,-6.29,7.86,-0.02,24.78
12681,0.3319,-0.0212,0.8627,-6.37,7.85,-0.05,24.79
12691,0.3342,-0.025,0.8635,-6.34,7.85,0.0,24.79
12701,0.3363,-0.0261,0.8605,-6.29,7.82,-0.06,24.79
12711,0.3339,-0.0244,0.8624,-6.41,7.88,0.0,24.79
12721,0.333,-0.026,0.8644,-6.4,7.88,-0.12,24.82
12731,0.3329,-0.0215,0.8627,-6.37,7.88,-0.05,24.79
12741,0.3346,-0.0237,0.8638,-6.38,7.82,-0.09,24.79
12751,0.3326,-0.0236,0.864,-6.46,7.89,-0.12,24.79
12761,0.3323,-0.0226,0.8639,-6.43,7.79,-0.09,24.79
12771,0.3328,-0.0247,0.858,-6.43,7.8,0.0,24.8
12781,0.3336,-0.024,0.8606,-6.41,7.8,-0.05,24.81
12791,0.3336,-0.0227,0.8641,-6.35,7.79,-0.05,24.8
12801,0.333,-0.0199,0.8624,-6.32,7.79,-0.08,24.81
12811,0.3328,-0.0238,0.8596,-6.34,7.76,-0.03,24.79
12821,0.3324,-0.026,0.8624,-6.41,7.88,0.0,24.81
12831,0.3342,-0.0211,0.8604,-6.35,7.83,-0.02,24.81
12841,0.333,-0.0237,0.8669,-6.4,7.85,-0.03,24.81
12851,0.3319,-0.0236,0.8668,-6.37,7.83,-0.08,24.8
12861,0.3346,-0.0211,0.8617,-6.41,7.83,-0.06,24.8
12871,0.3335,-0.0214,0.8613,-6.35,7.79,-0.11,24.8
12881,0.3337,-0.0214,0.8639,-6.34,7.86,-0.08,24.79
12891,0.3331,-0.0277,0.8628,-6.4,7.82,-0.05,24.82
12901,0.3342,-0.0237,0.8643,-6.35,7.85,-0.03,24.82
12911,0.3339,-0.0228,0.8639,-6.41,7.77,-0.03,24.81
12921,0.3358,-0.0222,0.8619,-6.35,7.74,-0.03,24.8
12931,0.3346,-0.0229,0.8618,-6.37,7.85,-0.08,24.82
12941,0.3337,-0.0248,0.8628,-6.37,7.88,-0.11,24.82
12951,0.3337,-0.0238,0.8646,-6.38,7.83,0.02,24.82
12961,0.335,-0.0227,0.8673,-6.37,7.79,-0.03,24.8
12972,0.3324,-0.0242,0.8611,-6.43,7.76,0.0,24.83
12982,0.3376,-0.0227,0.8618,-6.34,7.79,-0.06,24.79
12992,0.3339,-0.0231,0.8644,-6.34,7.79,-0.12,24.82
13003,0.3359,-0.0211,0.8605,-6.38,7.77,-0.09,24.82
13013,0.3322,-0.0243,0.8628,-6.32,7.77,-0.06,24.82
13023,0.3359,-0.0205,0.8623,-6.38,7.77,-0.08,24.81
13033,0.3359,-0.0227,0.8594,-6.35,7.79,0.03,24.83
13043,0.3312,-0.0234,0.8625,-6.31,7.86,-0.05,24.81
13053,0.3334,-0.0223,0.8678,-6.37,7.85,0.0,24.81
13063,0.3359,-0.0249,0.8608,-6.44,7.86,-0.08,24.8
13073,0.3342,-0.0231,0.8671,-6.4,7.8,-0.08,24.81
13083,0.335,-0.0221,0.8628,-6.41,7.8,0.02,24.84
13093,0.332,-0.0238,0.8611,-6.4,7.77,-0.05,24.82
13103,0.3358,-0.0265,0.8594,-6.37,7.77,-0.03,24.82
13113,0.3356,-0.0277,0.8617,-6.34,7.77,-0.03,24.83
13123,0.3333,-0.0232,0.8594,-6.32,7.88,-0.11,24.82
13133,0.335,-0.0217,0.8656,-6.27,7.8,-0.11,24.8
13143,0.3341,-0.022,0.8647,-6.46,7.85,-0.02,24.79
13153,0.3323,-0.0254,0.8628,-6.4,7.83,-0.08,24.82
13163,0.3342,-0.0278,0.8635,-6.29,7.8,-0.05,24.81
13173,0.3325,-0.0236,0.8628,-6.37,7.86,-0.03,24.82
13183,0.3326,-0.0232,0.8634,-6.38,7.74,-0.08,24.83
13193,0.3331,-0.0234,0.8639,-6.34,7.8,-0.09,24.83
13204,0.3348,-0.0242,0.8634,-6.43,7.74,-0.05,24.82
13214,0.3346,-0.0227,0.8635,-6.35,7.71,-0.05,24.82
13224,0.3363,-0.0225,0.8646,-6.38,7.76,0.02,24.81
13234,0.3341,-0.0214,0.8586,-6.35,7.77,0.05,24.83
13244,0.3324,-0.0232,0.8623,-6.32,7.77,-0.05,24.84
13254,0.3313,-0.0242,0.86,-6.34,7.74,-0.02,24.84
13264,0.3324,-0.0228,0.8634,-6.41,7.83,0.05,24.83
13274,0.3362,-0.0236,0.8601,-6.4,7.77,-0.02,24.81
13284,0.334,-0.0238,0.8636,-6.34,7.82,0.0,24.82
13294,0.3375,-0.0215,0.8656,-6.32,7.8,-0.05,24.82
13304,0.3346,-0.0226,0.8669,-6.38,7.8,-0.09,24.81
13314,0.3328,-0.0264,0.8617,-6.38,7.92,-0.05,24.8
13324,0.3342,-0.0245,0.8633,-6.37,7.82,-0.02,24.84
13334,0.3331,-0.0245,0.8634,-6.4,7.83,-0.02,24.8
13345,0.3353,-0.0225,0.8615,-6.35,7.89,-0.06,24.8
13355,0.3348,-0.0237,0.8624,-6.37,7.82,-0.02,24.83
13365,0.3324,-0.0221,0.8624,-6.4,7.82,-0.08,24.82
13375,0.3339,-0.0256,0.8629,-6.37,7.79,-0.02,24.82
13385,0.3333,-0.0248,0.8633,-6.35,7.8,-0.08,24.82
13395,0.3357,-0.0248,0.8622,-6.43,7.8,-0.03,24.83
13405,0.3345,-0.0231,0.8655,-6.32,7.86,-0.02,24.83
13415,0.3352,-0.0233,0.8604,-6.27,7.82,-0.06,24.82
13425,0.3314,-0.0236,0.864,-6.41,7.85,-0.06,24.84
13435,0.3331,-0.0231,0.8665,-6.34,7.8,-0.09,24.82
13445,0.3379,-0.0261,0.8651,-6.31,7.76,0.03,24.83
13455,0.3324,-0.0217,0.8649,-6.37,7.82,-0.06,24.79
13465,0.3361,-0.0217,0.8607,-6.34,7.8,0.09,24.83
13475,0.3365,-0.0206,0.8634,-6.31,7.77,-0.02,24.82
13485,0.332,-0.0251,0.865,-6.38,7.83,-0.03,24.82
13495,0.3345,-0.0219,0.8622,-6.34,7.82,-0.05,24.84
13505,0.3375,-0.0236,0.8644,-6.31,7.85,-0.06,24.81
13515,0.334,-0.0227,0.8668,-6.35,7.83,-0.06,24.8
13525,0.3342,-0.0225,0.8651,-6.4,7.82,-0.02,24.81
13535,0.3356,-0.0234,0.861,-6.38,7.8,-0.03,24.82
13545,0.3347,-0.0258,0.8634,-6.32,7.83,-0.02,24.84
13555,0.3374,-0.0254,0.8627,-6.46,7.83,-0.03,24.83
13565,0.335,-0.0248,0.8647,-6.37,7.79,0.0,24.82
13575,0.3361,-0.0216,0.8643,-6.41,7.8,-0.06,24.83
13585,0.3341,-0.0254,0.8671,-6.29,7.89,-0.08,24.82
13595,0.3358,-0.0256,0.865,-6.34,7.83,-0.05,24.83
13605,0.3333,-0.0209,0.8602,-6.44,7.83,-0.02,24.82
13615,0.3346,-0.0236,0.865,-6.29,7.79,-0.05,24.84
13625,0.3344,-0.0237,0.861,-6.34,7.8,0.02,24.85
13635,0.3334,-0.0253,0.8584,-6.34,7.79,-0.06,24.82
13645,0.3351,-0.0239,0.8652,-6.4,7.85,-0.05,24.82
13655,0.3361,-0.0242,0.8632,-6.35,7.82,-0.11,24.83
13665,0.3337,-0.0214,0.8616,-6.34,7.88,-0.03,24.8
13675,0.3359,-0.0221,0.8646,-6.32,7.82,-0.02,24.82
13685,0.337,-0.0214,0.8645,-6.34,7.82,-0.02,24.83
13695,0.3344,-0.0214,0.8599,-6.35,7.85,-0.05,24.83
13705,0.3358,-0.0255,0.865,-6.27,7.88,-0.08,24.83
13715,0.3345,-0.0258,0.863,-6.35,7.83,0.03,24.83
13725,0.3353,-0.0214,0.8638,-6.37,7.76,-0.09,24.86
13735,0.3368,-0.0236,0.8575,-6.35,7.82,-0.05,24.83
13745,0.3337,-0.0222,0.8622,-6.38,7.79,-0.08,24.84
13755,0.3341,-0.0251,0.8615,-6.35,7.83,-0.11,24.84
13765,0.3339,-0.0255,0.8662,-6.34,7.79,-0.03,24.81
13775,0.3335,-0.0231,0.8643,-6.35,7.82,-0.02,24.83
13785,0.3351,-0.024,0.8616,-6.29,7.77,0.02,24.83
13795,0.3313,-0.0228,0.8579,-6.38,7.82,-0.05,24.84
13805,0.3319,-0.0251,0.86,-6.37,7.88,-0.05,24.84
13815,0.3333,-0.0228,0.8655,-6.38,7.82,-0.06,24.81
13825,0.3323,-0.0236,0.865,-6.41,7.79,-0.02,24.84
13835,0.3336,-0.0217,0.8615,-6.4,7.83,-0.05,24.84
13845,0.3325,-0.0199,0.8635,-6.32,7.85,-0.06,24.83
13855,0.3319,-0.0239,0.8654,-6.37,7.77,0.0,24.84
13865,0.3344,-0.0225,0.8661,-6.35,7.77,-0.06,24.83
13875,0.3345,-0.0253,0.863,-6.35,7.85,-0.08,24.84
13885,0.3347,-0.0249,0.8643,-6.41,7.74,-0.05,24.84
13895,0.3347,-0.0222,0.8627,-6.27,7.8,-0.06,24.84
13905,0.3323,-0.0229,0.8616,-6.29,7.76,-0.11,24.84
13915,0.3353,-0.0219,0.8593,-6.34,7.83,-0.08,24.82
13925,0.3333,-0.0225,0.8657,-6.38,7.77,-0.03,24.84
13935,0.3351,-0.0216,0.8644,-6.34,7.85,-0.06,24.84
13945,0.3341,-0.0234,0.8625,-6.37,7.8,-0.05,24.84
13955,0.3347,-0.0222,0.8635,-6.37,7.79,-0.09,24.83
13965,0.3344,-0.0242,0.8666,-6.37,7.83,-0.08,24.81
13975,0.332,-0.0227,0.8621,-6.34,7.83,-0.08,24.83
13985,0.3346,-0.0244,0.8572,-6.41,7.8,-0.08,24.84
13995,0.3319,-0.0242,0.8661,-6.37,7.8,-0.06,24.84
14005,0.3334,-0.0206,0.8612,-6.38,7.85,-0.03,24.86
14015,0.3337,-0.0234,0.8623,-6.35,7.88,-0.03,24.84
14025,0.3367,-0.0221,0.8649,-6.37,7.83,-0.02,24.83
14035,0.3317,-0.0242,0.8601,-6.35,7.85,-0.06,24.85
14045,0.334,-0.0211,0.8647,-6.31,7.85,-0.05,24.85
14055,0.3317,-0.0266,0.8636,-6.29,7.77,-0.08,24.86
14065,0.3312,-0.0227,0.8591,-6.32,7.83,-0.06,24.84
14075,0.3339,-0.0214,0.8639,-6.35,7.85,0.02,24.86
14085,0.335,-0.0208,0.866,-6.26,7.83,-0.06,24.84
14095,0.3329,-0.0237,0.8612,-6.34,7.91,0.0,24.85
14105,0.3341,-0.0265,0.8649,-6.4,7.82,-0.06,24.84
14115,0.3296,-0.0212,0.8611,-6.44,7.88,-0.06,24.83
14125,0.3324,-0.0255,0.861,-6.46,7.77,-0.02,24.83
14135,0.3334,-0.0239,0.8646,-6.4,7.88,-0.06,24.82
14145,0.3367,-0.0245,0.8668,-6.37,7.79,-0.05,24.82
14155,0.3326,-0.0247,0.8617,-6.38,7.89,-0.12,24.83
14165,0.335,-0.0229,0.8619,-6.35,7.8,-0.11,24.84
14175,0.3331,-0.0228,0.8628,-6.31,7.82,-0.06,24.84
14185,0.3333,-0.0214,0.8601,-6.29,7.79,0.0,24.82
14195,0.335,-0.0217,0.8595,-6.41,7.83,-0.03,24.84
14205,0.3358,-0.0258,0.8622,-6.35,7.8,-0.05,24.86
14215,0.3329,-0.0247,0.8589,-6.38,7.8,0.0,24.83
14225,0.3357,-0.0243,0.8624,-6.29,7.79,-0.02,24.84
14235,0.3378,-0.0229,0.8616,-6.46,7.79,-0.02,24.85
14245,0.3348,-0.0262,0.8627,-6.41,7.77,-0.06,24.86
14255,0.334,-0.0261,0.8606,-6.35,7.82,-0.05,24.82
14265,0.3326,-0.0233,0.8644,-6.4,7.85,-0.05,24.84
14275,0.3358,-0.0216,0.8635,-6.34,7.8,-0.12,24.84
14285,0.3357,-0.0221,0.8671,-6.37,7.79,-0.06,24.88
14295,0.3342,-0.0262,0.8651,-6.32,7.88,-0.12,24.86
14305,0.3353,-0.0221,0.8613,-6.44,7.79,-0.06,24.86
14315,0.3322,-0.0222,0.8654,-6.38,7.85,-0.12,24.86
14325,0.3335,-0.0214,0.8667,-6.38,7.86,-0.05,24.86
14335,0.3339,-0.0233,0.8635,-6.37,7.82,-0.09,24.87
14345,0.3353,-0.0227,0.8604,-6.44,7.83,-0.12,24.84
14355,0.3322,-0.0242,0.8646,-6.41,7.88,-0.08,24.85
14365,0.3339,-0.0239,0.8625,-6.38,7.85,-0.12,24.87
14375,0.3331,-0.0261,0.8628,-6.37,7.82,0.03,24.84
14385,0.3331,-0.0244,0.8604,-6.41,7.8,-0.06,24.86
14395,0.3335,-0.0209,0.8654,-6.4,7.83,-0.02,24.84
14405,0.3331,-0.0244,0.8605,-6.38,7.79,-0.09,24.85
14415,0.3368,-0.0221,0.8623,-6.37,7.82,-0.12,24.85
14425,0.3345,-0.0244,0.863,-6.37,7.83,-0.03,24.85
14435,0.3331,-0.0234,0.8604,-6.43,7.83,0.05,24.84
14445,0.3344,-0.0237,0.8628,-6.37,7.83,-0.06,24.86
14455,0.3331,-0.0228,0.8615,-6.34,7.89,-0.06,24.85
14465,0.3315,-0.0188,0.8619,-6.31,7.86,-0.05,24.87
14475,0.3352,-0.0237,0.861,-6.31,7.79,-0.02,24.82
14485,0.3328,-0.0236,0.8597,-6.34,7.82,-0.06,24.83
14495,0.3335,-0.0225,0.864,-6.29,7.83,-0.11,24.84
14505,0.332,-0.0239,0.8632,-6.32,7.79,-0.03,24.87
14515,0.3336,-0.0223,0.8616,-6.38,7.77,-0.08,24.84
14525,0.3364,-0.0219,0.8652,-6.35,7.86,-0.05,24.84
14535,0.3329,-0.0206,0.8649,-6.34,7.85,0.02,24.87
14545,0.3337,-0.0242,0.8656,-6.34,7.83,-0.02,24.86
14555,0.3353,-0.022,0.8618,-6.23,7.83,-0.09,24.85
14565,0.3352,-0.0204,0.8605,-6.32,7.79,-0.09,24.87
14575,0.334,-0.0238,0.86,-6.29,7.82,-0.14,24.87
14585,0.3357,-0.0242,0.8636,-6.37,7.91,-0.12,24.84
14595,0.3322,-0.025,0.8618,-6.34,7.82,0.05,24.83
14605,0.335,-0.0228,0.8625,-6.41,7.77,-0.05,24.86
14615,0.3309,-0.0227,0.8621,-6.32,7.79,-0.02,24.84
14625,0.3337,-0.0234,0.8615,-6.32,7.85,-0.09,24.87
14635,0.3331,-0.0225,0.8616,-6.32,7.83,-0.08,24.86
14645,0.3347,-0.0254,0.8641,-6.37,7.79,-0.03,24.87
14655,0.3344,-0.0236,0.8574,-6.34,7.77,-0.05,24.87
14665,0.3325,-0.0223,0.8597,-6.47,7.85,-0.06,24.86
14675,0.3341,-0.0269,0.8643,-6.38,7.74,-0.06,24.86
14685,0.333,-0.0227,0.8607,-6.34,7.88,-0.09,24.84
14695,0.333,-0.0248,0.8658,-6.41,7.86,-0.05,24.86
14705,0.3341,-0.0244,0.8608,-6.4,7.82,0.0,24.88
14715,0.3301,-0.025,0.8636,-6.32,7.88,-0.08,24.84
14725,0.3352,-0.0245,0.865,-6.37,7.77,-0.09,24.87
14735,0.3356,-0.0228,0.8641,-6.32,7.89,-0.02,24.86
14745,0.3324,-0.0227,0.8649,-6.31,7.86,-0.09,24.85
14755,0.3328,-0.0229,0.8632,-6.32,7.8,-0.06,24.84
14765,0.3346,-0.0205,0.8643,-6.31,7.85,-0.02,24.87
14775,0.3347,-0.0238,0.8619,-6.38,7.83,-0.03,24.87
14785,0.3319,-0.0221,0.8665,-6.41,7.79,-0.03,24.84
14795,0.3329,-0.0232,0.8635,-6.43,7.83,-0.06,24.85
14805,0.3356,-0.026,0.8608,-6.32,7.8,-0.06,24.88
14815,0.3342,-0.0262,0.8611,-6.43,7.76,-0.12,24.85
14825,0.3341,-0.0237,0.8633,-6.37,7.82,-0.09,24.87
14835,0.3346,-0.0247,0.8615,-6.43,7.82,0.05,24.85
14845,0.3353,-0.0208,0.8632,-6.4,7.8,-0.08,24.86
14855,0.3362,-0.0247,0.8661,-6.37,7.91,0.03,24.88
14865,0.3357,-0.0232,0.8601,-6.38,7.85,-0.03,24.88
14875,0.3339,-0.0229,0.8651,-6.38,7.85,0.02,24.86
14885,0.3348,-0.0216,0.8627,-6.35,7.86,-0.06,24.87
14895,0.3334,-0.0216,0.8673,-6.41,7.86,-0.05,24.84
14905,0.3329,-0.0217,0.8663,-6.38,7.82,-0.08,24.86
14915,0.3363,-0.0233,0.8629,-6.41,7.76,-0.06,24.85
14925,0.3335,-0.024,0.8579,-6.32,7.69,-0.09,24.88
14935,0.3324,-0.0238,0.8628,-6.37,7.91,-0.03,24.84
14945,0.3337,-0.0242,0.8615,-6.26,7.85,-0.08,24.88
14955,0.3364,-0.0245,0.8606,-6.38,7.68,-0.12,24.84
14965,0.3317,-0.0231,0.8668,-6.31,7.82,-0.15,24.84
14975,0.3324,-0.0238,0.8665,-6.47,7.8,0.02,24.85
14985,0.3331,-0.0237,0.8627,-6.37,7.85,-0.02,24.87
14995,0.3372,-0.0199,0.8663,-6.34,7.76,-0.06,24.87
15005,0.3353,-0.0223,0.8623,-6.32,7.8,-0.05,24.85
15015,0.3356,-0.0247,0.8596,-6.41,7.77,-0.02,24.84
15025,0.3345,-0.0256,0.8622,-6.32,7.74,-0.03,24.85
15035,0.3315,-0.0234,0.8672,-6.38,7.88,0.0,24.85
15045,0.3356,-0.027,0.8632,-6.41,7.8,-0.03,24.87
15055,0.3357,-0.0233,0.8618,-6.32,7.85,0.03,24.87
15065,0.3348,-0.0229,0.8616,-6.38,7.83,0.02,24.87
15075,0.334,-0.021,0.8628,-6.4,7.76,0.0,24.88
15085,0.3359,-0.0227,0.8621,-6.38,7.73,-0.05,24.87
15095,0.3329,-0.0227,0.8666,-6.34,7.85,-0.12,24.86
15105,0.3335,-0.0237,0.8624,-6.37,7.8,-0.03,24.86
15115,0.3351,-0.0221,0.8623,-6.44,7.8,-0.06,24.85
15125,0.3336,-0.0234,0.863,-6.35,7.85,0.02,24.86
15135,0.3372,-0.0249,0.8594,-6.34,7.85,0.0,24.87
15145,0.3315,-0.0271,0.8578,-6.34,7.76,-0.06,24.87
15155,0.3284,-0.0302,0.8593,-6.2,7.76,-0.09,24.85
15165,0.3306,-0.0232,0.8666,-6.37,7.79,-0.08,24.86
15175,0.3308,-0.0203,0.8629,-6.37,7.77,-0.05,24.84
15185,0.3326,-0.0184,0.8593,-6.4,7.76,-0.06,24.84
15195,0.3353,-0.015,0.8644,-6.38,7.83,-0.06,24.86
15205,0.3369,-0.0173,0.8693,-6.35,7.86,-0.12,24.84
15215,0.3359,-0.0205,0.8682,-6.34,7.82,-0.15,24.86
15225,0.3354,-0.0266,0.8606,-6.32,7.83,-0.09,24.87
15235,0.338,-0.0337,0.8604,-6.26,7.8,-0.09,24.86
15245,0.3376,-0.0326,0.8583,-6.26,7.85,-0.06,24.87
15255,0.3337,-0.0297,0.8632,-6.34,7.83,-0.03,24.84
15265,0.3342,-0.024,0.8649,-6.32,7.76,0.05,24.87
15275,0.3318,-0.0198,0.8656,-6.29,7.79,0.0,24.85
15285,0.3281,-0.0122,0.8625,-6.38,7.88,0.03,24.86
15295,0.3291,-0.0129,0.8606,-6.4,7.76,-0.09,24.88
15306,0.3281,-0.0209,0.8593,-6.41,7.85,-0.11,24.84
15316,0.3289,-0.0236,0.8621,-6.41,7.73,-0.09,24.88
15326,0.3334,-0.0277,0.8602,-6.29,7.79,-0.14,24.88
15336,0.332,-0.0314,0.8625,-6.32,7.88,-0.09,24.85
15346,0.3311,-0.0328,0.8635,-6.34,7.77,-0.06,24.87
15356,0.3337,-0.0297,0.8667,-6.32,7.8,-0.14,24.87
15366,0.3334,-0.0211,0.8701,-6.31,7.8,-0.05,24.85
15376,0.3324,-0.0175,0.8667,-6.35,7.85,-0.08,24.86
15386,0.3304,-0.0162,0.8649,-6.35,7.88,-0.05,24.88
15396,0.3336,-0.015,0.8724,-6.38,7.83,-0.17,24.86
15406,0.3364,-0.016,0.8608,-6.34,7.82,-0.14,24.87
15416,0.3297,-0.0225,0.8639,-6.34,7.86,-0.17,24.86
15426,0.3341,-0.0302,0.8601,-6.27,7.8,-0.2,24.87
15436,0.3335,-0.0277,0.8584,-6.32,7.88,-0.14,24.88
15446,0.3362,-0.0302,0.86,-6.32,7.79,-0.15,24.86
15457,0.3383,-0.0265,0.8597,-6.35,7.85,-0.14,24.88
15467,0.3354,-0.0253,0.8638,-6.38,7.79,-0.11,24.89
15477,0.3353,-0.0197,0.8647,-6.27,7.76,-0.12,24.89
15487,0.3334,-0.0165,0.8655,-6.34,7.79,-0.09,24.87
15497,0.3361,-0.0146,0.8643,-6.34,7.91,-0.09,24.89
15507,0.3359,-0.0192,0.8634,-6.32,7.8,-0.15,24.87
15517,0.3351,-0.0208,0.8611,-6.27,7.82,-0.2,24.87
15527,0.334,-0.025,0.8579,-6.34,7.85,-0.17,24.87
15537,0.3324,-0.0275,0.8582,-6.35,7.8,-0.06,24.87
15547,0.3354,-0.0283,0.8569,-6.4,7.8,-0.11,24.88
15557,0.338,-0.0254,0.8594,-6.4,7.79,-0.14,24.87
15567,0.3396,-0.0253,0.8655,-6.34,7.82,-0.12,24.88
15577,0.3361,-0.0244,0.8618,-6.32,7.8,-0.12,24.87
15587,0.3374,-0.0217,0.8649,-6.35,7.77,-0.03,24.89
15597,0.3351,-0.0211,0.8649,-6.43,7.86,-0.02,24.88
15607,0.3346,-0.0204,0.8663,-6.44,7.8,-0.05,24.89
15617,0.3373,-0.0251,0.8605,-6.31,7.77,-0.05,24.87
15627,0.3367,-0.0216,0.8588,-6.35,7.85,-0.03,24.87
15637,0.333,-0.025,0.8601,-6.41,7.79,-0.02,24.88
15647,0.3352,-0.0277,0.856,-6.35,7.8,-0.02,24.87
15657,0.335,-0.0249,0.8624,-6.37,7.85,0.0,24.88
15667,0.3333,-0.0272,0.8627,-6.37,7.77,-0.03,24.88
15677,0.3342,-0.0248,0.8601,-6.34,7.82,-0.03,24.87
15687,0.3359,-0.0236,0.8633,-6.37,7.79,0.05,24.89
15697,0.3324,-0.0231,0.8627,-6.43,7.74,0.02,24.89
15707,0.3345,-0.0212,0.8647,-6.43,7.82,-0.03,24.9
15717,0.3337,-0.0251,0.8655,-6.32,7.79,-0.03,24.86
15727,0.3328,-0.0243,0.8606,-6.34,7.85,-0.03,24.91
15737,0.3348,-0.0237,0.8601,-6.37,7.85,-0.02,24.89
15747,0.3313,-0.0245,0.8628,-6.34,7.82,-0.09,24.89
15757,0.3302,-0.0264,0.864,-6.37,7.77,-0.12,24.87
15767,0.3328,-0.027,0.8669,-6.34,7.79,-0.03,24.89
15777,0.3337,-0.0243,0.8593,-6.35,7.8,-0.02,24.89
15787,0.3306,-0.028,0.8656,-6.37,7.85,-0.03,24.9
15797,0.3324,-0.0243,0.8622,-6.4,7.82,-0.06,24.89
15807,0.3354,-0.0221,0.8639,-6.4,7.76,-0.03,24.89
15817,0.332,-0.0214,0.8658,-6.44,7.82,-0.18,24.87
15827,0.3328,-0.0209,0.8643,-6.29,7.74,-0.08,24.9
15837,0.3337,-0.0221,0.8623,-6.29,7.83,-0.14,24.88
15847,0.3306,-0.0209,0.8666,-6.35,7.83,-0.18,24.87
15857,0.3313,-0.0193,0.8688,-6.38,7.82,-0.14,24.87
15867,0.3337,-0.0238,0.865,-6.4,7.91,-0.06,24.89
15877,0.3347,-0.0243,0.861,-6.38,7.83,-0.12,24.86
15887,0.3376,-0.0245,0.8596,-6.37,7.86,-0.08,24.87
15897,0.3369,-0.0264,0.8574,-6.35,7.83,-0.09,24.87
15907,0.3386,-0.025,0.8601,-6.34,7.79,-0.06,24.9
15917,0.3419,-0.0233,0.8662,-6.41,7.8,-0.05,24.86
15927,0.3395,-0.0222,0.8618,-6.35,7.83,-0.03,24.87
15937,0.3363,-0.0203,0.8644,-6.41,7.83,-0.05,24.87
15947,0.3356,-0.0217,0.8612,-6.43,7.88,-0.02,24.87
15957,0.3312,-0.0226,0.8658,-6.34,7.83,0.02,24.86
15967,0.3311,-0.0229,0.8585,-6.38,7.85,-0.02,24.89
15977,0.3307,-0.0222,0.8652,-6.34,7.82,-0.05,24.89
15987,0.3318,-0.0229,0.8607,-6.4,7.85,0.02,24.88
15997,0.33,-0.0242,0.8628,-6.43,7.76,0.02,24.88
16007,0.3326,-0.025,0.8619,-6.37,7.82,-0.03,24.87
16017,0.3334,-0.0247,0.8632,-6.43,7.77,-0.06,24.85
16027,0.3336,-0.0244,0.866,-6.4,7.86,-0.03,24.9
16037,0.335,-0.0221,0.8622,-6.26,7.88,-0.05,24.89
16047,0.332,-0.0249,0.8589,-6.38,7.82,-0.09,24.89
16057,0.3335,-0.0228,0.8658,-6.35,7.88,-0.03,24.87
16067,0.3339,-0.0227,0.8608,-6.34,7.83,-0.06,24.89
16077,0.3333,-0.0228,0.8636,-6.4,7.8,-0.05,24.88
16087,0.3346,-0.021,0.8623,-6.4,7.79,-0.03,24.89
16097,0.3352,-0.0205,0.8607,-6.37,7.79,-0.05,24.87
16107,0.3352,-0.0236,0.865,-6.38,7.83,-0.08,24.87
16117,0.3342,-0.0278,0.8657,-6.41,7.83,-0.11,24.85
16127,0.3346,-0.0227,0.8652,-6.37,7.86,-0.12,24.87
16137,0.3395,-0.0227,0.8647,-6.38,7.82,0.0,24.89
16147,0.3372,-0.0228,0.8629,-6.35,7.85,-0.02,24.89
16157,0.3359,-0.0203,0.8649,-6.41,7.82,-0.11,24.91
16167,0.3329,-0.0204,0.8617,-6.47,7.83,-0.05,24.88
16177,0.3319,-0.02,0.8645,-6.47,7.89,0.0,24.89
16187,0.332,-0.0249,0.8613,-6.27,7.82,-0.09,24.9
16197,0.3318,-0.0233,0.8662,-6.31,7.77,-0.08,24.89
16207,0.3307,-0.0236,0.8634,-6.4,7.89,-0.08,24.89
16217,0.3364,-0.0259,0.86,-6.4,7.79,0.03,24.89
16227,0.3379,-0.0222,0.8634,-6.37,7.79,-0.08,24.87
16237,0.3334,-0.0256,0.8605,-6.41,7.83,0.02,24.9
16247,0.3311,-0.0234,0.8639,-6.35,7.86,0.03,24.89
16257,0.3344,-0.0239,0.8661,-6.29,7.85,-0.02,24.89
16267,0.3346,-0.0205,0.8657,-6.44,7.83,-0.09,24.89
16277,0.3322,-0.0194,0.8632,-6.43,7.83,-0.03,24.89
16287,0.334,-0.0195,0.8615,-6.37,7.88,-0.03,24.89
16297,0.3341,-0.0217,0.8591,-6.31,7.76,0.02,24.88
16307,0.3319,-0.0239,0.858,-6.4,7.89,-0.05,24.87
16317,0.3319,-0.0238,0.8618,-6.35,7.82,-0.08,24.89
16327,0.3353,-0.0243,0.8635,-6.32,7.79,-0.05,24.9
16337,0.3353,-0.0255,0.8646,-6.38,7.77,-0.08,24.88
16347,0.3333,-0.0255,0.8608,-6.31,7.85,-0.05,24.88
16357,0.3357,-0.0236,0.8641,-6.37,7.86,0.05,24.87
16367,0.3328,-0.0223,0.8649,-6.29,7.85,-0.02,24.88
16377,0.3347,-0.0194,0.8599,-6.38,7.83,-0.09,24.86
16387,0.3385,-0.0216,0.8595,-6.29,7.8,-0.02,24.88
16397,0.3322,-0.0194,0.8596,-6.34,7.68,0.0,24.88
16407,0.3326,-0.0236,0.8622,-6.37,7.83,-0.03,24.88
16417,0.3346,-0.02,0.8575,-6.41,7.83,-0.12,24.89
16427,0.3374,-0.0249,0.861,-6.34,7.74,-0.12,24.89
16437,0.3347,-0.0226,0.8635,-6.34,7.77,-0.03,24.9
16447,0.3352,-0.0199,0.8645,-6.32,7.83,-0.05,24.88
16457,0.3323,-0.0238,0.8643,-6.4,7.86,-0.11,24.89
16467,0.3348,-0.0244,0.8623,-6.41,7.86,-0.06,24.89
16477,0.3335,-0.0294,0.8662,-6.37,7.77,-0.06,24.89
16487,0.3373,-0.0201,0.8568,-6.38,7.89,-0.06,24.88
16497,0.3356,-0.0243,0.8619,-6.41,7.73,0.03,24.88
16507,0.3381,-0.0249,0.8531,-6.32,7.91,-0.03,24.91
16517,0.33,-0.0192,0.8672,-6.56,7.65,-0.05,24.9
16527,0.3292,-0.0222,0.8634,-6.31,7.82,-0.06,24.91
16537,0.335,-0.022,0.8617,-6.35,7.83,0.0,24.92
16547,0.3319,-0.0238,0.8575,-6.37,7.91,0.0,24.88
16557,0.3323,-0.0212,0.8604,-6.35,7.79,-0.08,24.89
16567,0.3303,-0.0245,0.8621,-6.38,7.76,-0.15,24.87
16577,0.3342,-0.0231,0.8638,-6.4,7.8,-0.11,24.88
16587,0.3358,-0.0244,0.8601,-6.38,7.88,-0.15,24.89
16597,0.3368,-0.0244,0.8652,-6.38,7.85,-0.03,24.9
16607,0.334,-0.0233,0.8649,-6.32,7.8,-0.15,24.9
16617,0.3354,-0.0215,0.8655,-6.31,7.79,-0.11,24.88
16627,0.3379,-0.0236,0.8621,-6.35,7.8,-0.08,24.9
16637,0.3353,-0.0233,0.8641,-6.37,7.83,-0.05,24.9
16647,0.3353,-0.0238,0.8588,-6.31,7.86,-0.05,24.92
16657,0.3372,-0.0232,0.8646,-6.37,7.83,0.02,24.89
16667,0.337,-0.0231,0.8615,-6.41,7.82,-0.05,24.88
16677,0.3379,-0.0231,0.863,-6.37,7.77,-0.02,24.88
16687,0.3356,-0.0217,0.8623,-6.38,7.83,-0.06,24.91
16697,0.3341,-0.0238,0.8628,-6.38,7.85,0.02,24.89
16707,0.3331,-0.0232,0.8627,-6.38,7.8,-0.03,24.88
16717,0.3367,-0.0237,0.8625,-6.43,7.83,-0.08,24.87
16727,0.3315,-0.0247,0.8606,-6.38,7.86,-0.08,24.88
16737,0.3297,-0.0244,0.8588,-6.31,7.89,-0.08,24.91
16747,0.3303,-0.022,0.859,-6.32,7.85,-0.02,24.89
16757,0.3319,-0.0267,0.8624,-6.34,7.88,-0.03,24.89
16767,0.3324,-0.0203,0.8612,-6.35,7.79,-0.03,24.89
16777,0.3344,-0.0225,0.8606,-6.34,7.86,-0.02,24.92
16787,0.3365,-0.0245,0.8663,-6.44,7.73,0.0,24.93
16797,0.3363,-0.0253,0.8688,-6.34,7.77,-0.08,24.9
16807,0.3342,-0.0226,0.8716,-6.37,7.8,-0.06,24.91
16817,0.3363,-0.0258,0.8627,-6.37,7.85,0.0,24.91
16827,0.3336,-0.0237,0.8595,-6.32,7.85,-0.09,24.9
16837,0.3328,-0.0231,0.8562,-6.27,7.77,0.0,24.89
16847,0.333,-0.0225,0.8582,-6.31,7.85,-0.09,24.91
16857,0.333,-0.0209,0.8616,-6.37,7.83,-0.06,24.91
16867,0.3344,-0.0221,0.8571,-6.43,7.77,-0.03,24.87
16877,0.3356,-0.0236,0.8604,-6.34,7.79,-0.09,24.91
16887,0.3357,-0.0204,0.8618,-6.4,7.8,-0.03,24.88
16897,0.3375,-0.0208,0.8647,-6.41,7.8,-0.02,24.89
16907,0.3315,-0.0242,0.8641,-6.43,7.85,-0.03,24.88
16917,0.3361,-0.0259,0.8616,-6.34,7.83,-0.09,24.89
16927,0.3374,-0.0233,0.8656,-6.4,7.8,-0.02,24.88
16938,0.3341,-0.0236,0.8632,-6.35,7.77,-0.05,24.89
16948,0.3337,-0.0258,0.8643,-6.31,7.83,-0.03,24.89
16958,0.3323,-0.0258,0.8605,-6.37,7.85,-0.06,24.92
16969,0.3334,-0.0232,0.8611,-6.35,7.79,-0.08,24.9
16979,0.332,-0.0192,0.8621,-6.4,7.79,0.03,24.91
16989,0.3323,-0.0215,0.8652,-6.35,7.82,-0.08,24.9
16999,0.332,-0.0209,0.8615,-6.35,7.83,-0.08,24.91
17009,0.335,-0.0215,0.8624,-6.29,7.77,0.05,24.91
17019,0.3376,-0.0243,0.8638,-6.35,7.8,-0.06,24.9
17029,0.3368,-0.0243,0.8624,-6.32,7.83,-0.09,24.9
17039,0.3326,-0.0239,0.8615,-6.31,7.85,-0.03,24.92
17049,0.334,-0.0212,0.8623,-6.35,7.85,-0.05,24.92
17059,0.3359,-0.0226,0.8683,-6.4,7.82,0.03,24.9
17069,0.3347,-0.0222,0.8607,-6.37,7.79,0.02,24.88
17079,0.3296,-0.0239,0.8573,-6.4,7.83,-0.03,24.9
17089,0.3322,-0.0217,0.8579,-6.35,7.8,-0.11,24.92
17099,0.3351,-0.0239,0.8615,-6.38,7.85,-0.09,24.89
17109,0.3318,-0.0248,0.8634,-6.29,7.79,-0.05,24.9
17119,0.3335,-0.0243,0.8646,-6.32,7.73,-0.08,24.91
17129,0.3331,-0.0222,0.8645,-6.35,7.82,-0.12,24.92
17139,0.3317,-0.0208,0.8649,-6.35,7.82,-0.03,24.93
17149,0.3335,-0.0237,0.8628,-6.43,7.86,-0.09,24.92
17159,0.3344,-0.0203,0.8663,-6.37,7.82,-0.05,24.9
17169,0.3329,-0.019,0.8641,-6.35,7.85,-0.03,24.92
17179,0.3341,-0.0234,0.8632,-6.38,7.77,-0.02,24.92
17189,0.334,-0.0231,0.8589,-6.35,7.8,-0.06,24.92
17199,0.3357,-0.0243,0.8583,-6.34,7.83,-0.06,24.92
17209,0.3361,-0.024,0.861,-6.35,7.82,-0.06,24.92
17219,0.3345,-0.0251,0.8647,-6.37,7.79,-0.11,24.91
17229,0.3345,-0.0243,0.8613,-6.34,7.79,-0.06,24.92
17239,0.3358,-0.0256,0.8644,-6.35,7.85,0.02,24.88
17249,0.3335,-0.0222,0.8657,-6.37,7.79,-0.03,24.92
17259,0.3352,-0.0201,0.8629,-6.32,7.77,0.03,24.9
17269,0.3357,-0.0227,0.8615,-6.37,7.86,-0.06,24.92
17285,0.3359,-0.0228,0.8623,-6.35,7.76,-0.09,24.91
17295,0.3337,-0.0232,0.865,-6.43,7.79,-0.03,24.92
17305,0.3344,-0.0266,0.8621,-6.37,7.79,-0.06,24.89
17315,0.3348,-0.0226,0.8628,-6.31,7.77,-0.02,24.9
17325,0.3336,-0.0228,0.8662,-6.37,7.79,-0.02,24.89
17335,0.3359,-0.0215,0.8638,-6.29,7.85,0.0,24.91
17346,0.3333,-0.0219,0.8645,-6.4,7.86,-0.06,24.9
17356,0.3328,-0.0225,0.8594,-6.34,7.77,0.0,24.92
17366,0.334,-0.0231,0.8618,-6.37,7.85,0.05,24.9
17376,0.3335,-0.0228,0.8669,-6.32,7.88,-0.08,24.92
17386,0.3324,-0.022,0.8615,-6.29,7.8,0.05,24.91
17396,0.3363,-0.0227,0.8621,-6.4,7.85,-0.08,24.91
17406,0.3344,-0.0232,0.8633,-6.34,7.86,-0.03,24.91
17416,0.3364,-0.0225,0.8607,-6.35,7.86,-0.11,24.88
17426,0.3352,-0.021,0.8644,-6.35,7.85,-0.08,24.93
17437,0.3375,-0.022,0.8606,-6.31,7.82,0.0,24.9
17447,0.334,-0.0215,0.8624,-6.4,7.79,-0.09,24.92
17457,0.3352,-0.0217,0.8602,-6.41,7.88,-0.05,24.9
17467,0.3361,-0.0225,0.8612,-6.4,7.79,0.03,24.92
17477,0.3372,-0.0221,0.861,-6.41,7.83,-0.02,24.91
17487,0.3379,-0.0226,0.8636,-6.37,7.91,-0.05,24.93
17497,0.3395,-0.02,0.8619,-6.37,7.82,0.08,24.9
17507,0.3409,-0.0232,0.8618,-6.35,7.86,-0.05,24.92
17517,0.34,-0.0247,0.8612,-6.29,7.77,0.05,24.93
17527,0.3365,-0.0236,0.8591,-6.38,7.8,0.06,24.91
17537,0.3385,-0.0227,0.8652,-6.43,7.79,0.11,24.9
17547,0.3374,-0.0231,0.86,-6.47,7.86,0.12,24.9
17557,0.3395,-0.0248,0.8615,-6.4,7.89,0.06,24.92
17567,0.3362,-0.0217,0.8584,-6.38,7.86,0.14,24.92
17577,0.337,-0.0222,0.8617,-6.47,7.83,0.14,24.91
17587,0.334,-0.0259,0.8577,-6.32,7.83,0.23,24.9
17597,0.3344,-0.025,0.8622,-6.31,7.8,0.14,24.89
17607,0.3336,-0.0208,0.8608,-6.43,7.86,0.18,24.92
17617,0.3298,-0.0229,0.8616,-6.35,7.79,0.14,24.92
17627,0.3289,-0.0249,0.8641,-6.37,7.76,0.18,24.89
17637,0.3269,-0.0256,0.8643,-6.32,7.76,0.09,24.93
17647,0.3228,-0.0245,0.8679,-6.34,7.83,0.14,24.92
17657,0.3215,-0.0269,0.865,-6.32,7.85,0.08,24.92
17667,0.324,-0.0269,0.8661,-6.34,7.77,0.02,24.91
17677,0.321,-0.0222,0.8633,-6.34,7.77,-0.03,24.91
17687,0.3254,-0.0237,0.8647,-6.38,7.82,-0.05,24.9
17697,0.3251,-0.0243,0.8611,-6.46,7.77,-0.09,24.94
17707,0.3306,-0.0249,0.8589,-6.44,7.76,-0.12,24.89
17717,0.3319,-0.0205,0.8595,-6.34,7.86,-0.12,24.92
17727,0.3361,-0.0215,0.8628,-6.38,7.83,-0.11,24.92
17737,0.339,-0.0215,0.8611,-6.32,7.82,-0.11,24.94
17747,0.3385,-0.0232,0.8644,-6.34,7.77,-0.17,24.95
17757,0.3414,-0.0215,0.8647,-6.35,7.8,-0.18,24.92
17767,0.3408,-0.0294,0.8655,-6.41,7.91,-0.11,24.91
17777,0.3384,-0.0258,0.8643,-6.44,7.83,0.03,24.9
17787,0.3402,-0.0229,0.866,-6.34,7.82,-0.03,24.91
17797,0.3378,-0.0219,0.8635,-6.38,7.82,0.0,24.9
17807,0.3342,-0.0214,0.8606,-6.38,7.79,-0.06,24.93
17817,0.3334,-0.0211,0.8625,-6.35,7.8,0.02,24.94
17827,0.3315,-0.0209,0.8636,-6.35,7.79,0.06,24.9
17837,0.3356,-0.0237,0.8663,-6.35,7.82,-0.02,24.89
17847,0.3308,-0.0256,0.8665,-6.37,7.82,-0.03,24.92
17857,0.3308,-0.0238,0.86,-6.34,7.83,0.02,24.93
17867,0.3312,-0.0228,0.8588,-6.32,7.79,-0.03,24.91
17877,0.3304,-0.0249,0.8577,-6.32,7.83,-0.02,24.89
17887,0.3326,-0.0259,0.8585,-6.38,7.85,-0.08,24.93
17897,0.3348,-0.025,0.8636,-6.32,7.82,-0.11,24.92
17907,0.3375,-0.0238,0.863,-6.31,7.83,-0.06,24.94
17917,0.3347,-0.0206,0.8617,-6.34,7.77,-0.02,24.91
17927,0.3397,-0.0212,0.8621,-6.43,7.8,-0.02,24.94
17937,0.3344,-0.0219,0.8617,-6.35,7.83,-0.06,24.94
17947,0.337,-0.0234,0.861,-6.32,7.79,-0.06,24.94
17957,0.3369,-0.0271,0.8667,-6.4,7.82,0.0,24.93
17967,0.3318,-0.0234,0.8646,-6.37,7.8,-0.03,24.92
17977,0.3333,-0.0253,0.8625,-6.34,7.8,-0.09,24.92
17987,0.3323,-0.0264,0.8636,-6.26,7.85,-0.05,24.9
17997,0.3325,-0.0229,0.8628,-6.38,7.85,-0.09,24.92
18007,0.3325,-0.0194,0.8629,-6.35,7.82,-0.12,24.91
18017,0.3334,-0.021,0.8606,-6.44,7.82,-0.08,24.93
18027,0.3317,-0.0221,0.8606,-6.37,7.77,-0.03,24.9
18037,0.3319,-0.0203,0.8651,-6.34,7.69,-0.11,24.91
18047,0.334,-0.0232,0.8596,-6.34,7.8,0.02,24.9
18057,0.3368,-0.0258,0.8623,-6.38,7.85,-0.11,24.93
18067,0.3362,-0.025,0.8625,-6.46,7.86,-0.03,24.93
18077,0.3353,-0.024,0.8599,-6.37,7.83,-0.09,24.91
18087,0.3352,-0.0238,0.8599,-6.32,7.82,-0.02,24.94
18097,0.3318,-0.0212,0.8634,-6.41,7.79,0.0,24.91
18107,0.3319,-0.022,0.8657,-6.31,7.82,-0.05,24.92
18117,0.3336,-0.0249,0.8661,-6.38,7.83,-0.09,24.92
18127,0.3296,-0.0214,0.8654,-6.4,7.8,-0.06,24.93
18137,0.3319,-0.0229,0.8619,-6.37,7.8,-0.11,24.91
18147,0.3328,-0.0229,0.8636,-6.38,7.88,0.02,24.92
18157,0.3347,-0.0242,0.8612,-6.4,7.82,-0.08,24.89
18167,0.3345,-0.0271,0.8583,-6.37,7.83,-0.06,24.94
18177,0.3364,-0.0212,0.8629,-6.31,7.86,-0.05,24.94
18187,0.3357,-0.0234,0.8628,-6.4,7.85,-0.06,24.92
18197,0.3329,-0.0219,0.8599,-6.32,7.83,-0.06,24.95
18207,0.334,-0.0247,0.865,-6.38,7.8,-0.11,24.91
18217,0.3344,-0.0227,0.8634,-6.37,7.82,-0.08,24.92
18227,0.3346,-0.0245,0.8662,-6.44,7.8,-0.08,24.91
18237,0.3359,-0.0229,0.8629,-6.44,7.79,0.0,24.92
18247,0.3359,-0.0232,0.8654,-6.44,7.85,-0.02,24.92
18257,0.3306,-0.0221,0.8612,-6.38,7.85,0.0,24.94
18267,0.3346,-0.0247,0.8633,-6.34,7.83,-0.09,24.92
18277,0.3334,-0.0247,0.8591,-6.37,7.76,-0.06,24.93
18287,0.3341,-0.0247,0.8639,-6.4,7.79,-0.08,24.93
18297,0.3352,-0.0238,0.8599,-6.43,7.82,-0.08,24.91
18307,0.3348,-0.0242,0.8635,-6.37,7.82,-0.11,24.92
18317,0.3339,-0.0234,0.8585,-6.34,7.8,-0.06,24.94
18327,0.3324,-0.0209,0.8649,-6.34,7.8,-0.11,24.93
18337,0.3322,-0.0204,0.8607,-6.38,7.86,-0.11,24.9
18347,0.3363,-0.0233,0.8604,-6.47,7.79,-0.09,24.93
18357,0.3357,-0.0239,0.863,-6.4,7.79,-0.06,24.92
18367,0.3351,-0.0239,0.8641,-6.38,7.82,-0.06,24.92
18377,0.3336,-0.0238,0.8613,-6.26,7.82,0.0,24.92
18387,0.3334,-0.0244,0.8621,-6.29,7.85,-0.11,24.92
18397,0.3302,-0.0232,0.861,-6.37,7.82,-0.03,24.91
18407,0.333,-0.0243,0.8645,-6.31,7.79,-0.11,24.93
18417,0.3334,-0.0227,0.863,-6.32,7.8,-0.06,24.92
18427,0.3351,-0.0233,0.8608,-6.37,7.77,-0.03,24.92
18437,0.3347,-0.0239,0.8611,-6.31,7.8,-0.06,24.91
18447,0.3347,-0.0219,0.8612,-6.31,7.71,-0.05,24.94
18457,0.3312,-0.0239,0.8607,-6.37,7.79,0.02,24.92
18467,0.3328,-0.0228,0.8632,-6.35,7.83,-0.02,24.94
18477,0.3351,-0.0208,0.8627,-6.29,7.82,-0.02,24.94
18487,0.3337,-0.022,0.8623,-6.43,7.83,-0.11,24.92
18497,0.3334,-0.0225,0.863,-6.31,7.82,-0.06,24.94
18507,0.3319,-0.0217,0.8696,-6.34,7.79,0.03,24.9
18517,0.3336,-0.0226,0.8622,-6.4,7.83,-0.06,24.94
18527,0.3324,-0.0239,0.8635,-6.35,7.74,0.02,24.93
18537,0.33,-0.0254,0.8647,-6.37,7.77,-0.08,24.93
18547,0.3341,-0.0216,0.8652,-6.38,7.82,-0.08,24.95
18557,0.3356,-0.022,0.8607,-6.38,7.82,0.0,24.94
18567,0.3351,-0.0237,0.864,-6.32,7.8,0.02,24.93
18577,0.3342,-0.0255,0.8589,-6.35,7.77,-0.11,24.95
18587,0.3353,-0.0245,0.8589,-6.31,7.85,-0.06,24.97
18597,0.335,-0.021,0.8623,-6.38,7.86,-0.06,24.96
18607,0.3341,-0.0222,0.8625,-6.37,7.74,-0.06,24.94
18617,0.3318,-0.0227,0.8627,-6.35,7.82,0.0,24.94
18627,0.335,-0.0245,0.863,-6.35,7.85,-0.08,24.92
18637,0.3331,-0.0233,0.8649,-6.35,7.77,-0.02,24.92
18647,0.3318,-0.0247,0.8586,-6.38,7.85,0.0,24.94
18657,0.3337,-0.0243,0.8623,-6.4,7.82,-0.03,24.94
18667,0.3336,-0.0233,0.8625,-6.31,7.76,0.02,24.94
18677,0.3326,-0.0239,0.8618,-6.34,7.83,-0.02,24.96
18687,0.3342,-0.0247,0.8649,-6.38,7.8,-0.08,24.93
18697,0.3351,-0.0244,0.8616,-6.32,7.77,-0.09,24.97
18707,0.332,-0.0239,0.8652,-6.29,7.8,0.03,24.96
18717,0.3323,-0.0269,0.8639,-6.37,7.82,0.03,24.93
18727,0.3352,-0.0255,0.8645,-6.31,7.79,-0.03,24.93
18737,0.3342,-0.0238,0.8628,-6.34,7.73,-0.12,24.93
18747,0.3342,-0.0227,0.864,-6.32,7.86,-0.05,24.93
18757,0.3336,-0.0217,0.8645,-6.32,7.77,-0.06,24.94
18767,0.3341,-0.0238,0.8661,-6.29,7.82,-0.08,24.94
18777,0.3342,-0.0251,0.8607,-6.46,7.83,-0.11,24.92
18787,0.3311,-0.0251,0.8671,-6.35,7.79,0.0,24.92
18797,0.3337,-0.0249,0.8627,-6.35,7.82,-0.06,24.94
18807,0.3323,-0.0219,0.8602,-6.43,7.8,-0.09,24.95
18817,0.3359,-0.0251,0.8641,-6.37,7.85,-0.12,24.94
18827,0.3353,-0.0228,0.865,-6.29,7.82,0.02,24.94
18837,0.3333,-0.0243,0.8623,-6.34,7.74,-0.03,24.94
18847,0.3356,-0.0234,0.868,-6.31,7.8,0.02,24.93
18857,0.333,-0.0217,0.8582,-6.32,7.86,0.0,24.92
18867,0.3324,-0.0212,0.8623,-6.41,7.88,-0.05,24.92
18877,0.3346,-0.0278,0.8633,-6.4,7.83,-0.09,24.93
18887,0.3358,-0.0236,0.86,-6.38,7.8,-0.09,24.94
18897,0.3364,-0.0237,0.8632,-6.34,7.82,-0.08,24.93
18907,0.3322,-0.0214,0.8618,-6.37,7.79,0.02,24.92
18917,0.3331,-0.0249,0.8617,-6.37,7.82,-0.06,24.93
18927,0.3325,-0.0204,0.8624,-6.34,7.83,-0.08,24.95
18937,0.3344,-0.026,0.8604,-6.4,7.86,-0.03,24.94
18947,0.3348,-0.0253,0.8602,-6.35,7.83,-0.03,24.93
18957,0.3345,-0.0239,0.8641,-6.34,7.86,-0.12,24.95
18967,0.3354,-0.0225,0.8639,-6.38,7.8,-0.12,24.93
18977,0.3347,-0.0223,0.8651,-6.32,7.86,-0.08,24.94
18987,0.3348,-0.0227,0.8611,-6.31,7.86,0.0,24.93
18997,0.3335,-0.0244,0.8589,-6.37,7.79,-0.02,24.94
19007,0.3311,-0.0249,0.8605,-6.37,7.74,-0.08,24.95
19017,0.3325,-0.0221,0.8649,-6.34,7.79,-0.06,24.93
19027,0.3341,-0.0201,0.8607,-6.43,7.8,-0.05,24.93
19037,0.3303,-0.0261,0.8613,-6.4,7.82,0.03,24.96
19047,0.3313,-0.0245,0.861,-6.38,7.82,-0.05,24.93
19057,0.3353,-0.0233,0.8668,-6.32,7.86,-0.02,24.92
19067,0.3354,-0.0212,0.8618,-6.4,7.86,0.0,24.93
19077,0.3348,-0.0254,0.8599,-6.31,7.83,-0.08,24.94
19087,0.3361,-0.0217,0.8595,-6.37,7.85,-0.05,24.94
19097,0.3341,-0.0211,0.8646,-6.34,7.82,-0.02,24.92
19107,0.3348,-0.0216,0.8652,-6.43,7.8,-0.02,24.94
19117,0.3336,-0.021,0.8633,-6.37,7.79,-0.02,24.94
19127,0.3339,-0.0233,0.8619,-6.41,7.85,-0.03,24.94
19137,0.3357,-0.0233,0.8624,-6.44,7.79,-0.03,24.95
19147,0.3337,-0.0232,0.863,-6.41,7.89,-0.08,24.92
19157,0.3331,-0.0236,0.8624,-6.31,7.86,-0.11,24.93
19167,0.3346,-0.0227,0.858,-6.41,7.8,-0.05,24.94
19177,0.3337,-0.0204,0.8625,-6.4,7.85,-0.02,24.94
19187,0.3379,-0.0221,0.8643,-6.41,7.86,-0.09,24.94
19197,0.3335,-0.0232,0.8635,-6.43,7.79,0.02,24.94
19207,0.3323,-0.0228,0.8604,-6.29,7.85,-0.03,24.93
19217,0.3322,-0.0254,0.8615,-6.35,7.82,-0.06,24.95
19227,0.3344,-0.0239,0.8618,-6.34,7.82,-0.03,24.95
19237,0.3307,-0.022,0.865,-6.35,7.82,0.0,24.95
19247,0.3335,-0.0233,0.8606,-6.4,7.83,-0.08,24.93
19257,0.3337,-0.0237,0.8632,-6.4,7.8,-0.06,24.96
19267,0.3362,-0.0232,0.8649,-6.38,7.79,0.03,24.94
19277,0.3354,-0.0259,0.8684,-6.38,7.85,-0.06,24.92
19287,0.3354,-0.0256,0.859,-6.43,7.85,-0.02,24.95
19297,0.3325,-0.0254,0.8629,-6.34,7.88,-0.05,24.94
19307,0.3328,-0.0251,0.8634,-6.4,7.86,0.02,24.92
19317,0.3328,-0.024,0.8627,-6.4,7.83,-0.05,24.94
19327,0.3344,-0.0259,0.8618,-6.41,7.79,-0.05,24.94
19337,0.3342,-0.0219,0.8645,-6.37,7.85,0.02,24.93
19347,0.3362,-0.0233,0.8632,-6.34,7.79,-0.03,24.95
19357,0.3326,-0.0245,0.8624,-6.34,7.79,-0.08,24.97
19367,0.3323,-0.0229,0.8645,-6.35,7.83,-0.03,24.92
19378,0.3331,-0.0243,0.8607,-6.29,7.83,-0.02,24.93
19388,0.3317,-0.0214,0.8611,-6.34,7.82,-0.02,24.94
19398,0.3337,-0.0239,0.8623,-6.38,7.79,-0.05,24.95
19408,0.3335,-0.0223,0.8634,-6.43,7.77,0.0,24.94
19418,0.3361,-0.0227,0.8621,-6.32,7.79,-0.08,24.97
19428,0.3337,-0.0247,0.8669,-6.43,7.8,0.02,24.97
19438,0.3325,-0.0227,0.8644,-6.35,7.88,-0.02,24.96
19448,0.3345,-0.0232,0.8622,-6.35,7.82,-0.05,24.96
19458,0.3334,-0.0256,0.866,-6.43,7.82,-0.06,24.97
19468,0.334,-0.024,0.8595,-6.4,7.82,-0.08,24.95
19478,0.3356,-0.0214,0.8649,-6.4,7.85,-0.03,24.94
19488,0.3342,-0.0233,0.8615,-6.29,7.8,0.02,24.93
19498,0.335,-0.0236,0.8661,-6.41,7.86,-0.05,24.93
19508,0.3324,-0.0248,0.8608,-6.47,7.73,0.0,24.96
19519,0.3344,-0.0244,0.8629,-6.31,7.82,0.02,24.94
19529,0.332,-0.0225,0.8635,-6.4,7.8,-0.03,24.96
19539,0.3311,-0.0269,0.8668,-6.35,7.8,0.0,24.95
19549,0.3368,-0.0223,0.8616,-6.31,7.79,-0.05,24.94
19559,0.333,-0.0214,0.8556,-6.35,7.86,-0.08,24.95
19569,0.3311,-0.0225,0.8616,-6.47,7.77,-0.09,24.95
19579,0.3353,-0.0242,0.8616,-6.4,7.83,-0.02,24.95
19589,0.3373,-0.0239,0.8618,-6.44,7.85,0.0,24.94
19599,0.333,-0.0221,0.8672,-6.4,7.79,-0.03,24.93
19609,0.3361,-0.0248,0.8628,-6.26,7.85,-0.08,24.95
19619,0.3352,-0.0221,0.8625,-6.31,7.8,-0.08,24.94
19629,0.3333,-0.0227,0.8667,-6.35,7.89,-0.02,24.94
19639,0.3335,-0.0242,0.864,-6.41,7.83,-0.02,24.94
19649,0.3333,-0.0222,0.8643,-6.35,7.83,-0.03,24.96
19659,0.3323,-0.0217,0.8656,-6.34,7.79,-0.06,24.93
19669,0.3318,-0.0227,0.8622,-6.4,7.85,-0.03,24.92
19679,0.3373,-0.0256,0.8652,-6.46,7.85,-0.02,24.94
19689,0.3333,-0.0261,0.8618,-6.47,7.85,-0.02,24.94
19699,0.3345,-0.0229,0.8574,-6.37,7.83,-0.02,24.95
19709,0.3324,-0.0253,0.8621,-6.37,7.79,0.05,24.95
19719,0.3345,-0.0221,0.8627,-6.37,7.83,-0.06,24.93
19729,0.3354,-0.0203,0.8647,-6.37,7.77,-0.09,24.93
19739,0.3329,-0.0227,0.8615,-6.32,7.82,-0.05,24.94
19749,0.3344,-0.0243,0.8608,-6.34,7.79,-0.03,24.97
19759,0.3347,-0.0234,0.8618,-6.44,7.8,-0.11,24.94
19769,0.3334,-0.0244,0.8608,-6.43,7.86,-0.05,24.95
19779,0.3352,-0.0262,0.8615,-6.32,7.83,-0.11,24.95
19789,0.3323,-0.0232,0.8594,-6.32,7.77,-0.03,24.94
19799,0.3325,-0.0208,0.8584,-6.31,7.83,-0.03,24.95
19809,0.3361,-0.0228,0.8617,-6.38,7.82,-0.05,24.95
19819,0.3351,-0.0236,0.8597,-6.38,7.8,-0.03,24.96
19829,0.337,-0.021,0.8639,-6.34,7.82,-0.02,24.96
19839,0.3333,-0.0249,0.8649,-6.41,7.83,0.0,24.93
19849,0.3329,-0.0217,0.8628,-6.38,7.83,-0.05,24.96
19859,0.3328,-0.0237,0.8632,-6.35,7.76,0.0,24.96
19869,0.3326,-0.0236,0.8651,-6.41,7.83,-0.02,24.96
19879,0.3336,-0.0231,0.8654,-6.34,7.85,-0.03,24.96
19889,0.3318,-0.0211,0.8618,-6.37,7.79,-0.05,24.97
19899,0.3334,-0.0215,0.8629,-6.4,7.83,0.02,24.97
19909,0.3318,-0.0265,0.8623,-6.4,7.8,-0.05,24.95
19919,0.3357,-0.0228,0.8612,-6.32,7.8,-0.05,24.96
19929,0.3346,-0.0239,0.8666,-6.37,7.85,-0.02,24.95
19939,0.3353,-0.0245,0.8608,-6.34,7.86,-0.02,24.98
19949,0.3365,-0.0223,0.8661,-6.37,7.88,-0.03,24.95
19959,0.3331,-0.0212,0.8661,-6.34,7.82,-0.03,24.97
19969,0.3344,-0.0239,0.8651,-6.37,7.83,-0.02,24.95
19979,0.334,-0.0242,0.8639,-6.44,7.79,-0.03,24.95
19989,0.3325,-0.0221,0.8636,-6.37,7.8,-0.08,24.94
19999,0.3334,-0.024,0.8605,-6.38,7.82,-0.06,24.96
20009,0.3301,-0.0267,0.8595,-6.32,7.8,0.0,25.02
20019,0.3325,-0.0219,0.8596,-6.35,7.82,0.06,24.98
20029,0.3318,-0.0226,0.8627,-6.37,7.86,-0.03,24.94
20039,0.3328,-0.0225,0.8647,-6.44,7.8,-0.06,24.96
20049,0.3333,-0.0236,0.8624,-6.31,7.8,-0.05,24.97
20059,0.3348,-0.0239,0.8602,-6.4,7.8,-0.02,24.94
20069,0.3331,-0.0226,0.8605,-6.35,7.88,-0.06,24.96
20079,0.3333,-0.0219,0.8633,-6.38,7.82,-0.08,24.97
20089,0.3356,-0.0222,0.861,-6.37,7.79,-0.08,24.96
20099,0.3326,-0.0195,0.8635,-6.35,7.8,-0.08,24.96
20109,0.3326,-0.0226,0.8655,-6.37,7.86,-0.03,24.95
20119,0.3337,-0.0247,0.8617,-6.4,7.82,-0.08,24.94
20129,0.3323,-0.0234,0.8647,-6.35,7.8,-0.02,24.96
20139,0.3323,-0.0215,0.8658,-6.41,7.79,-0.02,24.96
20149,0.3326,-0.0223,0.8633,-6.26,7.8,-0.02,24.96
20159,0.3372,-0.0223,0.8593,-6.35,7.83,-0.05,24.96
20169,0.3362,-0.0239,0.8604,-6.4,7.77,-0.02,24.96
20179,0.3333,-0.0222,0.863,-6.41,7.8,-0.03,24.99
20189,0.3336,-0.0199,0.8633,-6.29,7.83,-0.03,24.98
20199,0.3357,-0.0219,0.8678,-6.4,7.86,-0.09,24.97
20209,0.332,-0.0231,0.8625,-6.37,7.82,-0.05,24.97
20219,0.3363,-0.0204,0.8615,-6.34,7.8,-0.03,24.97
20229,0.3356,-0.0264,0.8615,-6.4,7.83,-0.02,24.96
20239,0.333,-0.0255,0.8627,-6.4,7.79,-0.05,24.96
20249,0.3334,-0.0245,0.8654,-6.37,7.82,0.03,24.96
20259,0.3319,-0.0209,0.8616,-6.29,7.77,0.03,24.98
20269,0.3346,-0.0214,0.8641,-6.32,7.76,-0.06,24.96
20279,0.3329,-0.0221,0.8602,-6.44,7.77,-0.06,24.96
20289,0.3352,-0.0232,0.8584,-6.31,7.8,-0.02,24.96
20299,0.3329,-0.0234,0.8651,-6.31,7.82,-0.08,24.97
20309,0.3344,-0.0244,0.8647,-6.35,7.8,-0.05,24.99
20319,0.3341,-0.0238,0.8639,-6.31,7.83,-0.11,24.94
20329,0.3324,-0.0232,0.8618,-6.38,7.8,-0.06,24.98
20339,0.3314,-0.0236,0.8596,-6.37,7.79,-0.09,24.97
20349,0.3342,-0.0254,0.8582,-6.38,7.85,-0.06,24.97
20359,0.3365,-0.0232,0.8634,-6.43,7.85,-0.08,24.97
20369,0.3339,-0.0211,0.8613,-6.38,7.85,0.02,24.97
20379,0.3346,-0.0214,0.8655,-6.34,7.85,0.0,24.99
20389,0.3339,-0.0225,0.8671,-6.37,7.83,-0.06,24.98
20399,0.3334,-0.0198,0.8627,-6.43,7.79,-0.09,24.98
20409,0.3324,-0.0227,0.8657,-6.35,7.73,-0.08,24.98
20419,0.3365,-0.0253,0.8657,-6.35,7.82,-0.05,24.96
20429,0.3348,-0.0234,0.8613,-6.31,7.77,-0.03,24.97
20439,0.3317,-0.022,0.8612,-6.34,7.8,0.0,24.97
20449,0.3324,-0.0228,0.8616,-6.34,7.8,-0.11,24.97
20459,0.3326,-0.0228,0.8627,-6.31,7.85,0.03,24.99
20469,0.3328,-0.0233,0.8618,-6.34,7.77,-0.02,24.96
20479,0.3329,-0.0222,0.86,-6.35,7.82,-0.06,24.95
20489,0.3322,-0.0248,0.8644,-6.27,7.83,-0.06,24.95
20499,0.3362,-0.0231,0.8657,-6.38,7.83,-0.03,24.97
20509,0.3345,-0.0228,0.8635,-6.38,7.77,-0.02,24.96
20519,0.3357,-0.0208,0.8645,-6.37,7.83,-0.06,24.95
20529,0.3319,-0.0199,0.8649,-6.32,7.76,0.0,24.95
20539,0.3339,-0.0237,0.864,-6.37,7.79,-0.08,24.97
20549,0.3356,-0.0226,0.8645,-6.4,7.86,-0.03,24.99
20559,0.3348,-0.0239,0.8622,-6.41,7.77,-0.06,24.97
20569,0.3309,-0.0259,0.8635,-6.4,7.85,-0.11,24.96
20579,0.3314,-0.0266,0.8641,-6.4,7.82,-0.06,24.97
20589,0.3324,-0.0221,0.8596,-6.41,7.85,-0.08,24.97
20599,0.3335,-0.0212,0.8601,-6.47,7.85,-0.05,24.96
20609,0.3335,-0.0248,0.8646,-6.34,7.83,-0.05,24.99
20619,0.3304,-0.0227,0.8662,-6.4,7.85,-0.09,24.98
20629,0.3359,-0.0206,0.8588,-6.44,7.86,-0.05,24.96
20639,0.3341,-0.0225,0.8651,-6.29,7.76,-0.03,24.98
20649,0.3339,-0.0234,0.863,-6.29,7.79,-0.15,24.97
20659,0.3362,-0.0219,0.8625,-6.38,7.85,0.0,24.96
20669,0.3339,-0.0233,0.8597,-6.31,7.8,-0.02,24.97
20679,0.3374,-0.0221,0.8662,-6.44,7.82,-0.05,24.95
20689,0.335,-0.026,0.8655,-6.43,7.83,-0.06,24.95
20699,0.3326,-0.027,0.8634,-6.37,7.85,-0.08,24.96
20709,0.3334,-0.0225,0.864,-6.32,7.83,-0.08,24.98
20719,0.3354,-0.0225,0.8641,-6.38,7.76,-0.08,24.97
20729,0.3335,-0.0242,0.8621,-6.41,7.8,-0.06,24.99
20739,0.3323,-0.0239,0.8627,-6.37,7.79,-0.03,24.98
20749,0.3333,-0.0239,0.8635,-6.4,7.83,-0.05,24.99
20759,0.3356,-0.0225,0.8633,-6.38,7.82,0.03,24.99
20769,0.3324,-0.0227,0.8604,-6.34,7.82,-0.03,24.97
20779,0.3353,-0.0215,0.8643,-6.31,7.83,0.0,24.97
20789,0.3362,-0.0225,0.8641,-6.38,7.8,-0.06,24.96
20799,0.3329,-0.0217,0.8611,-6.34,7.85,-0.06,24.95
20809,0.3326,-0.0234,0.8616,-6.38,7.77,-0.03,24.96
20819,0.3359,-0.0233,0.8623,-6.4,7.82,-0.02,24.97
20829,0.332,-0.0203,0.8612,-6.34,7.76,-0.06,24.97
20839,0.3344,-0.0247,0.8625,-6.41,7.8,-0.08,24.96
20849,0.334,-0.0233,0.8629,-6.4,7.8,-0.06,24.96
20859,0.3308,-0.0231,0.8629,-6.34,7.83,-0.02,24.98
20869,0.3329,-0.0254,0.8656,-6.43,7.8,0.0,24.98
20879,0.334,-0.0232,0.8635,-6.43,7.8,-0.05,24.98
20889,0.3351,-0.0266,0.8644,-6.46,7.88,0.0,24.97
20899,0.3312,-0.0232,0.8604,-6.44,7.89,0.0,24.98
20909,0.3337,-0.0227,0.8621,-6.34,7.8,-0.03,24.95
20919,0.3358,-0.0223,0.863,-6.35,7.76,-0.06,24.95
20929,0.3352,-0.0242,0.868,-6.38,7.77,-0.03,24.98
20939,0.3348,-0.021,0.8654,-6.38,7.79,-0.05,24.98
20949,0.3352,-0.0217,0.8639,-6.43,7.8,-0.03,24.97
20960,0.3353,-0.0232,0.8671,-6.32,7.83,-0.06,24.95
20971,0.3357,-0.0198,0.8611,-6.34,7.82,-0.08,24.96
20981,0.3342,-0.0234,0.8606,-6.37,7.85,-0.02,24.98
20991,0.3352,-0.021,0.8651,-6.37,7.82,-0.08,24.97
21001,0.3345,-0.0228,0.8621,-6.4,7.82,-0.06,24.95
21012,0.3357,-0.0226,0.8645,-6.43,7.76,-0.11,24.98
21022,0.3361,-0.0254,0.8633,-6.29,7.83,-0.06,25.0
21032,0.334,-0.0229,0.8674,-6.32,7.82,-0.09,24.96
21043,0.3335,-0.0247,0.8654,-6.34,7.83,-0.05,24.99
21053,0.3354,-0.0227,0.8613,-6.29,7.77,-0.06,24.98
21063,0.334,-0.0204,0.863,-6.26,7.82,0.03,24.99
21073,0.3345,-0.0228,0.8639,-6.44,7.8,-0.08,25.0
21083,0.3328,-0.024,0.8644,-6.32,7.82,0.0,24.96
21093,0.3315,-0.0225,0.8602,-6.38,7.83,0.0,24.98
21103,0.3357,-0.0212,0.8617,-6.46,7.83,-0.05,24.99
21113,0.3375,-0.0216,0.8649,-6.44,7.82,-0.03,24.99
21123,0.3341,-0.0233,0.865,-6.35,7.82,-0.11,25.0
21133,0.334,-0.0222,0.8632,-6.38,7.83,-0.11,24.99
21143,0.3358,-0.0229,0.8647,-6.4,7.82,-0.11,25.0
21153,0.3352,-0.0227,0.8627,-6.35,7.83,-0.03,24.96
21163,0.3331,-0.0249,0.863,-6.37,7.8,-0.03,24.94
21173,0.3323,-0.0234,0.8651,-6.47,7.8,-0.05,25.01
21183,0.3356,-0.0214,0.8622,-6.41,7.8,-0.02,24.99
21193,0.3326,-0.0243,0.864,-6.41,7.79,-0.12,24.99
21203,0.3314,-0.0217,0.8632,-6.41,7.73,-0.05,24.98
21213,0.3309,-0.0225,0.8623,-6.43,7.82,-0.06,24.97
21223,0.3348,-0.0245,0.8618,-6.38,7.88,-0.06,24.99
21233,0.3345,-0.024,0.8634,-6.31,7.8,0.0,24.96
21243,0.3329,-0.0234,0.8633,-6.31,7.82,-0.02,24.97
21253,0.3325,-0.0226,0.8606,-6.43,7.83,0.06,24.99
21263,0.335,-0.025,0.8634,-6.37,7.83,-0.05,24.98
21275,0.3315,-0.0206,0.864,-6.35,7.74,-0.06,24.99
21285,0.3318,-0.0203,0.8624,-6.34,7.79,-0.08,25.01
21295,0.3354,-0.022,0.863,-6.35,7.86,0.02,24.99
21305,0.3331,-0.0227,0.8622,-6.38,7.77,-0.02,25.0
21315,0.334,-0.021,0.8654,-6.4,7.8,-0.06,24.98
21325,0.3361,-0.0215,0.8617,-6.37,7.79,-0.09,24.99
21335,0.3358,-0.0227,0.8606,-6.43,7.8,-0.03,24.99
21345,0.3374,-0.0253,0.8622,-6.37,7.77,-0.06,24.97
21355,0.3334,-0.0232,0.8665,-6.35,7.79,0.06,25.0
21365,0.335,-0.0228,0.8636,-6.29,7.82,0.02,25.0
21375,0.3303,-0.0231,0.8622,-6.38,7.79,-0.08,24.99
21385,0.3306,-0.0219,0.8627,-6.35,7.83,-0.05,24.99
21395,0.3347,-0.0238,0.8622,-6.38,7.85,0.02,24.99
21405,0.335,-0.0215,0.8622,-6.35,7.79,-0.08,24.99
21415,0.3341,-0.0239,0.8621,-6.38,7.77,-0.05,24.99
21425,0.3324,-0.022,0.8622,-6.34,7.8,-0.03,24.98
21435,0.334,-0.0255,0.863,-6.43,7.83,-0.02,24.96
21445,0.335,-0.0229,0.861,-6.35,7.82,0.02,24.99
21455,0.3333,-0.0236,0.8644,-6.32,7.82,0.0,25.02
21465,0.3352,-0.0238,0.8607,-6.35,7.83,-0.05,25.0
21475,0.335,-0.0216,0.8589,-6.37,7.74,-0.09,25.0
21485,0.3319,-0.0228,0.8649,-6.35,7.88,-0.05,24.97
21495,0.3329,-0.0227,0.8615,-6.31,7.85,0.02,24.99
21505,0.3329,-0.0225,0.8667,-6.27,7.85,-0.06,25.0
21515,0.3348,-0.0249,0.8633,-6.38,7.77,-0.08,24.99
21525,0.3359,-0.0238,0.8605,-6.41,7.76,-0.06,25.0
21535,0.3335,-0.0255,0.8612,-6.31,7.88,0.0,25.0
21545,0.3341,-0.0247,0.8627,-6.37,7.77,-0.03,24.98
21555,0.3351,-0.025,0.865,-6.37,7.77,-0.05,24.97
21565,0.3347,-0.0232,0.8624,-6.38,7.79,-0.14,25.01
21575,0.3344,-0.0227,0.8607,-6.32,7.85,-0.09,25.0
21585,0.3328,-0.0234,0.8643,-6.4,7.76,-0.08,25.0
21595,0.3342,-0.0244,0.8649,-6.4,7.83,-0.08,25.01
21605,0.3353,-0.0222,0.8645,-6.35,7.82,-0.09,24.97
21615,0.3331,-0.022,0.8617,-6.38,7.76,-0.06,24.98
21625,0.3337,-0.0225,0.8645,-6.37,7.82,-0.06,25.0
21635,0.3323,-0.0227,0.8619,-6.23,7.83,-0.09,24.99
21645,0.3344,-0.0251,0.8628,-6.38,7.8,-0.05,24.99
21655,0.3329,-0.0223,0.8635,-6.35,7.8,0.0,25.01
21665,0.3358,-0.0216,0.8611,-6.35,7.83,-0.03,24.97
21675,0.3323,-0.0198,0.8651,-6.37,7.73,0.0,24.97
21685,0.3333,-0.0229,0.8644,-6.4,7.89,-0.08,24.98
21695,0.3342,-0.0219,0.8628,-6.38,7.83,-0.02,25.0
21705,0.3325,-0.0203,0.8607,-6.41,7.85,-0.06,24.98
21715,0.3342,-0.0245,0.8585,-6.38,7.88,-0.03,24.97
21725,0.3357,-0.0251,0.8641,-6.26,7.79,0.0,24.98
21735,0.334,-0.0242,0.8602,-6.37,7.88,-0.03,25.0
21745,0.3346,-0.0205,0.8661,-6.4,7.82,-0.05,24.99
21755,0.3356,-0.0217,0.8615,-6.35,7.79,-0.09,24.99
21765,0.3328,-0.022,0.8632,-6.34,7.79,-0.02,25.0
21775,0.3333,-0.0249,0.8629,-6.35,7.85,-0.11,24.97
21785,0.3342,-0.0221,0.864,-6.38,7.83,0.06,24.99
21795,0.3339,-0.021,0.8658,-6.4,7.8,0.02,25.01
21805,0.3331,-0.0251,0.8625,-6.37,7.8,-0.06,24.98
21815,0.334,-0.024,0.8661,-6.34,7.79,0.02,24.99
21825,0.3323,-0.0247,0.8658,-6.43,7.83,-0.09,24.98
21835,0.3323,-0.0232,0.8652,-6.35,7.8,-0.03,24.99
21845,0.3345,-0.0232,0.861,-6.34,7.91,-0.08,25.0
21855,0.3353,-0.0239,0.8639,-6.38,7.79,-0.03,25.02
21865,0.3353,-0.0201,0.8597,-6.31,7.86,-0.06,24.99
21875,0.334,-0.0229,0.8628,-6.34,7.88,-0.03,24.99
21885,0.3356,-0.0231,0.8615,-6.46,7.91,-0.06,24.99
21895,0.3333,-0.0245,0.8667,-6.38,7.88,0.02,25.0
21905,0.333,-0.0209,0.8636,-6.31,7.85,-0.03,25.01
21915,0.3319,-0.0249,0.866,-6.29,7.82,-0.08,24.99
21925,0.3376,-0.0243,0.8636,-6.34,7.79,-0.06,24.99
21935,0.3333,-0.0239,0.8634,-6.29,7.79,-0.06,24.98
21945,0.3362,-0.0253,0.8594,-6.27,7.85,-0.02,24.99
21955,0.3356,-0.0259,0.8629,-6.29,7.89,-0.09,25.0
21965,0.3362,-0.0221,0.8599,-6.31,7.82,-0.05,25.0
21975,0.3319,-0.0233,0.864,-6.43,7.86,-0.09,24.98
21985,0.3354,-0.0248,0.8635,-6.38,7.79,-0.02,24.96
21995,0.3365,-0.0232,0.86,-6.38,7.83,0.02,24.97
22005,0.335,-0.0227,0.8586,-6.37,7.82,-0.03,25.0
22015,0.3339,-0.0249,0.8621,-6.41,7.8,0.06,24.99
22025,0.3348,-0.0245,0.86,-6.35,7.79,0.05,24.97
22035,0.3351,-0.0232,0.8644,-6.34,7.83,-0.05,24.99
22045,0.3356,-0.0247,0.8651,-6.27,7.76,-0.11,24.99
22055,0.3335,-0.025,0.8623,-6.38,7.83,-0.08,24.99
22065,0.3314,-0.0228,0.8625,-6.32,7.82,-0.17,24.99
22075,0.3359,-0.0255,0.8643,-6.34,7.82,-0.03,24.98
22085,0.334,-0.0264,0.863,-6.32,7.79,-0.05,24.97
22095,0.3307,-0.0272,0.8605,-6.35,7.88,-0.11,25.01
22105,0.3315,-0.0242,0.8618,-6.4,7.91,-0.08,24.99
22115,0.3362,-0.0232,0.8624,-6.38,7.8,-0.09,24.99
22125,0.3369,-0.0217,0.8622,-6.37,7.88,-0.06,24.99
22135,0.3334,-0.0242,0.8707,-6.32,7.86,-0.02,25.0
22145,0.3357,-0.0233,0.8605,-6.37,7.82,-0.05,24.98
22155,0.3347,-0.0215,0.8634,-6.41,7.82,-0.11,25.0
22165,0.3344,-0.0243,0.8619,-6.38,7.8,-0.12,25.01
22175,0.3331,-0.0244,0.8647,-6.37,7.89,-0.08,25.0
22185,0.3367,-0.0201,0.8641,-6.37,7.88,-0.05,24.98
22195,0.333,-0.0255,0.8644,-6.32,7.82,-0.05,25.02
22205,0.3344,-0.0245,0.8618,-6.4,7.82,-0.05,25.01
22215,0.3345,-0.0219,0.8639,-6.35,7.86,-0.06,25.0
22225,0.333,-0.0238,0.8678,-6.49,7.86,-0.05,25.01
22236,0.3368,-0.0245,0.8596,-6.31,7.83,-0.14,24.99
22246,0.3347,-0.0225,0.8627,-6.41,7.88,-0.02,25.0
22256,0.3336,-0.0247,0.8629,-6.32,7.85,0.02,25.0
22266,0.3323,-0.0245,0.8641,-6.4,7.77,-0.05,24.99
22276,0.3335,-0.0239,0.8645,-6.37,7.83,-0.05,25.0
22286,0.3339,-0.024,0.8596,-6.34,7.86,-0.02,24.99
22296,0.3337,-0.0234,0.8601,-6.38,7.79,-0.05,24.97
22306,0.3336,-0.0234,0.8591,-6.4,7.83,-0.06,25.0
22316,0.3315,-0.0231,0.8643,-6.4,7.8,-0.06,24.98
22326,0.335,-0.0255,0.8658,-6.38,7.82,0.03,25.01
22336,0.3351,-0.0254,0.8643,-6.41,7.83,-0.05,25.0
22346,0.3351,-0.0217,0.8628,-6.41,7.85,-0.06,24.99
22356,0.3319,-0.0249,0.861,-6.44,7.77,-0.06,24.99
22366,0.3328,-0.0227,0.8641,-6.41,7.77,0.0,24.99
22376,0.3324,-0.0242,0.8618,-6.35,7.82,-0.02,24.99
22386,0.3348,-0.0225,0.864,-6.38,7.85,-0.06,24.98
22396,0.3336,-0.0225,0.8634,-6.49,7.79,-0.05,24.99
22406,0.3301,-0.0238,0.863,-6.38,7.82,-0.08,25.01
22416,0.3337,-0.0215,0.8633,-6.31,7.86,-0.06,25.01
22426,0.3347,-0.0237,0.8634,-6.43,7.82,-0.11,25.01
22436,0.3307,-0.0222,0.8611,-6.46,7.82,-0.02,24.99
22446,0.3314,-0.0237,0.8636,-6.47,7.85,-0.06,24.99
22456,0.3339,-0.0219,0.8634,-6.4,7.82,-0.05,25.0
22466,0.3339,-0.0259,0.8622,-6.4,7.8,-0.09,24.99
22476,0.3356,-0.0223,0.8632,-6.35,7.85,0.02,24.99
22486,0.3311,-0.0222,0.8619,-6.46,7.83,-0.06,24.99
22496,0.3344,-0.0199,0.8623,-6.4,7.71,-0.11,25.01
22507,0.3348,-0.0233,0.8623,-6.34,7.8,-0.02,24.99
22517,0.3328,-0.0217,0.8638,-6.41,7.79,0.05,25.0
22527,0.3324,-0.0232,0.8636,-6.34,7.83,-0.05,25.02
22537,0.3317,-0.0236,0.8649,-6.34,7.85,-0.11,25.0
22547,0.3334,-0.0245,0.8602,-6.37,7.79,-0.09,25.01
22557,0.3352,-0.0234,0.8612,-6.27,7.79,0.02,25.01
22567,0.3335,-0.0233,0.8627,-6.38,7.77,0.0,25.02
22577,0.333,-0.026,0.8619,-6.31,7.8,0.02,25.01
22587,0.3357,-0.0223,0.8629,-6.38,7.86,0.08,25.01
22597,0.3354,-0.0229,0.8624,-6.44,7.82,0.02,24.99
22607,0.3342,-0.0233,0.8638,-6.35,7.8,-0.06,24.99
22617,0.3333,-0.0239,0.8611,-6.41,7.83,-0.03,24.98
22627,0.3351,-0.024,0.8644,-6.37,7.86,-0.05,24.98
22637,0.335,-0.0239,0.8622,-6.4,7.76,-0.09,25.02
22647,0.3347,-0.0204,0.8635,-6.4,7.86,-0.05,25.01
22657,0.3346,-0.022,0.8662,-6.34,7.69,-0.12,25.02
22667,0.3339,-0.022,0.86,-6.37,7.83,0.02,25.0
22677,0.3323,-0.0259,0.8636,-6.4,7.8,-0.08,25.01
22687,0.3331,-0.0223,0.8639,-6.35,7.79,-0.05,25.01
22697,0.3353,-0.0233,0.863,-6.43,7.77,-0.02,24.98
22707,0.3353,-0.0225,0.8618,-6.41,7.79,0.03,25.0
22717,0.3363,-0.0228,0.8643,-6.37,7.79,0.03,25.0
22727,0.3346,-0.0251,0.8628,-6.32,7.89,0.0,25.01
22737,0.3326,-0.0236,0.8606,-6.41,7.83,-0.06,24.98
22747,0.3348,-0.0216,0.8649,-6.43,7.8,-0.08,25.0
22757,0.3336,-0.0223,0.8652,-6.34,7.85,-0.09,24.99
22767,0.3325,-0.024,0.8628,-6.34,7.82,-0.09,25.02
22777,0.3364,-0.0228,0.8623,-6.41,7.8,-0.08,25.02
22787,0.3337,-0.0221,0.8604,-6.38,7.85,-0.06,24.98
22797,0.3357,-0.0254,0.8596,-6.34,7.79,-0.14,25.01
22807,0.3337,-0.0232,0.8613,-6.31,7.88,-0.05,25.02
22817,0.3337,-0.0251,0.8636,-6.4,7.85,-0.03,25.02
22827,0.3345,-0.0239,0.863,-6.44,7.86,-0.09,25.02
22837,0.3328,-0.0209,0.8636,-6.29,7.86,-0.03,25.02
22847,0.3333,-0.0244,0.8652,-6.34,7.83,-0.08,25.0
22857,0.3363,-0.0225,0.8655,-6.27,7.83,-0.05,25.01
22867,0.335,-0.0248,0.8608,-6.44,7.8,-0.06,24.99
22877,0.3365,-0.0249,0.8646,-6.43,7.82,0.0,25.02
22887,0.3344,-0.0217,0.8656,-6.37,7.86,-0.05,25.01
22897,0.3359,-0.0245,0.8625,-6.34,7.77,-0.06,25.01
22907,0.3347,-0.0227,0.8618,-6.35,7.77,-0.03,25.04
22917,0.334,-0.0217,0.8656,-6.31,7.85,-0.02,25.02
22927,0.3324,-0.0275,0.8615,-6.37,7.82,0.03,25.01
22937,0.3345,-0.024,0.865,-6.35,7.83,-0.09,24.99
22947,0.3367,-0.0217,0.8674,-6.37,7.85,-0.14,25.02
22957,0.3331,-0.0223,0.861,-6.37,7.82,-0.03,25.03
22967,0.3326,-0.0228,0.8634,-6.37,7.91,0.05,25.0
22977,0.3328,-0.0221,0.8615,-6.44,7.82,-0.11,25.0
22987,0.3346,-0.0244,0.8649,-6.35,7.89,-0.03,25.0
22997,0.3325,-0.0243,0.865,-6.41,7.76,-0.03,25.01
23007,0.3326,-0.0243,0.8615,-6.32,7.8,-0.03,25.04
23017,0.3324,-0.0212,0.8601,-6.37,7.85,-0.12,25.01
23027,0.3329,-0.0243,0.8656,-6.31,7.85,0.0,25.0
23037,0.3342,-0.0215,0.864,-6.43,7.86,-0.03,25.01
23047,0.3353,-0.0273,0.8643,-6.37,7.83,-0.03,25.0
23057,0.3317,-0.0228,0.8643,-6.37,7.83,-0.06,25.0
23067,0.3314,-0.0227,0.8638,-6.43,7.79,-0.05,25.01
23077,0.3337,-0.0231,0.8624,-6.38,7.83,0.0,25.0
23087,0.3348,-0.0223,0.8636,-6.35,7.82,-0.02,25.02
23097,0.3358,-0.0251,0.86,-6.35,7.77,-0.06,25.03
23107,0.3345,-0.0221,0.8628,-6.38,7.92,-0.06,25.03
23117,0.3354,-0.0242,0.8616,-6.37,7.83,-0.08,25.01
23127,0.3364,-0.0242,0.8608,-6.4,7.8,-0.03,25.01
23137,0.3372,-0.0236,0.8629,-6.35,7.77,-0.11,25.02
23147,0.3359,-0.0238,0.8641,-6.34,7.82,-0.02,25.04
23157,0.334,-0.0236,0.8632,-6.29,7.85,-0.02,25.03
23167,0.3325,-0.0226,0.8624,-6.37,7.86,-0.05,24.98
23177,0.3342,-0.0249,0.8625,-6.32,7.79,-0.08,25.02
23187,0.3317,-0.0216,0.8654,-6.38,7.82,-0.03,25.03
23197,0.3334,-0.022,0.8673,-6.43,7.79,-0.11,25.02
23207,0.3323,-0.0206,0.8636,-6.43,7.83,-0.05,25.01
23217,0.3344,-0.024,0.8602,-6.37,7.82,0.0,25.01
23227,0.333,-0.0237,0.8636,-6.37,7.79,-0.03,25.0
23237,0.3352,-0.0242,0.8595,-6.35,7.82,-0.08,25.02
23247,0.3304,-0.024,0.8638,-6.41,7.77,-0.11,25.01
23257,0.3354,-0.0225,0.8605,-6.34,7.82,-0.02,25.01
23267,0.332,-0.0228,0.8625,-6.4,7.77,-0.05,25.0
23277,0.3325,-0.0223,0.8636,-6.35,7.86,-0.12,25.02
23287,0.3346,-0.0226,0.8607,-6.46,7.91,-0.05,25.0
23297,0.3312,-0.0234,0.8646,-6.4,7.85,-0.05,25.01
23307,0.3351,-0.0223,0.8644,-6.46,7.82,-0.05,25.0
23317,0.334,-0.0244,0.8636,-6.37,7.85,0.03,25.02
23327,0.3328,-0.0244,0.859,-6.43,7.85,-0.05,25.02
23337,0.3329,-0.022,0.8673,-6.38,7.73,0.05,25.02
23347,0.334,-0.0236,0.8655,-6.31,7.83,-0.11,25.0
23357,0.3341,-0.0227,0.8636,-6.43,7.85,-0.08,24.99
23367,0.3341,-0.0236,0.8606,-6.35,7.79,-0.06,25.02
23377,0.334,-0.0254,0.8616,-6.32,7.8,-0.02,25.01
23387,0.335,-0.0215,0.8634,-6.32,7.82,-0.02,25.02
23397,0.3354,-0.0209,0.8663,-6.4,7.8,-0.09,25.03
23407,0.3347,-0.0231,0.8655,-6.35,7.88,-0.02,24.99
23417,0.3356,-0.0228,0.8639,-6.37,7.86,-0.02,25.02
23427,0.337,-0.0212,0.8651,-6.35,7.79,-0.06,25.01
23437,0.3325,-0.025,0.8623,-6.35,7.76,0.0,25.01
23447,0.3319,-0.0182,0.8625,-6.4,7.82,0.02,25.0
23457,0.3339,-0.0209,0.8597,-6.43,7.86,-0.03,25.02
23467,0.3329,-0.0239,0.861,-6.41,7.8,-0.02,25.04
23477,0.3329,-0.021,0.8644,-6.34,7.85,-0.06,25.02
23487,0.334,-0.025,0.8633,-6.4,7.86,-0.08,25.03
23497,0.3346,-0.0271,0.8649,-6.38,7.85,-0.06,25.03
23507,0.3334,-0.0239,0.8638,-6.35,7.82,-0.08,25.03
23517,0.3342,-0.0233,0.8623,-6.44,7.82,0.03,25.02
23527,0.3344,-0.0248,0.8597,-6.37,7.73,0.0,25.03
23537,0.3328,-0.0201,0.8606,-6.38,7.8,-0.08,25.02
23547,0.334,-0.0215,0.8615,-6.4,7.88,-0.08,25.0
23557,0.3346,-0.0245,0.8644,-6.41,7.83,-0.03,25.04
23567,0.3351,-0.0234,0.8645,-6.43,7.83,-0.08,25.0
23577,0.3341,-0.0212,0.8665,-6.43,7.77,-0.03,25.03
23587,0.3328,-0.0261,0.8623,-6.38,7.92,0.0,25.01
23597,0.3328,-0.0211,0.8625,-6.35,7.83,-0.02,25.01
23607,0.3341,-0.0228,0.8621,-6.41,7.83,-0.06,25.01
23617,0.3335,-0.0248,0.8622,-6.35,7.77,-0.05,25.02
23627,0.3357,-0.0244,0.863,-6.43,7.83,0.02,25.02
23637,0.3331,-0.0242,0.8654,-6.38,7.83,-0.06,25.03
23647,0.3361,-0.0236,0.8639,-6.34,7.77,-0.06,25.04
23657,0.3323,-0.0204,0.8629,-6.41,7.82,-0.03,25.02
23667,0.3342,-0.0229,0.866,-6.41,7.85,-0.02,25.01
23677,0.3346,-0.0233,0.8625,-6.34,7.77,-0.12,25.03
23687,0.3348,-0.0226,0.8645,-6.46,7.82,-0.11,25.03
23697,0.3341,-0.0236,0.8616,-6.43,7.88,-0.02,25.01
23707,0.333,-0.0238,0.8635,-6.41,7.83,-0.08,25.02
23717,0.3341,-0.0228,0.8613,-6.32,7.77,-0.03,25.03
23727,0.3344,-0.0234,0.8616,-6.4,7.71,-0.05,25.03
23737,0.3322,-0.0238,0.8628,-6.37,7.86,0.0,25.02
23747,0.3296,-0.021,0.8585,-6.37,7.83,-0.08,25.03
23757,0.3336,-0.0206,0.8636,-6.32,7.74,-0.08,25.04
23767,0.3352,-0.0254,0.8627,-6.35,7.82,-0.06,25.03
23777,0.3362,-0.0251,0.8661,-6.35,7.82,0.02,25.04
23787,0.334,-0.0242,0.8644,-6.43,7.83,-0.09,25.03
23797,0.332,-0.0229,0.861,-6.43,7.8,0.02,25.04
23807,0.3341,-0.0229,0.8644,-6.47,7.79,-0.02,25.02
23817,0.3356,-0.0247,0.8623,-6.38,7.79,-0.03,25.04
23827,0.3354,-0.0238,0.8602,-6.44,7.8,-0.05,25.04
23837,0.3339,-0.0234,0.8652,-6.44,7.86,0.0,25.03
23847,0.332,-0.0251,0.8606,-6.4,7.86,-0.06,25.03
23857,0.3342,-0.0237,0.8621,-6.34,7.83,-0.06,25.03
23867,0.3348,-0.0223,0.8632,-6.37,7.79,-0.08,25.03
23877,0.3318,-0.0234,0.8655,-6.41,7.76,-0.08,25.02
23887,0.3313,-0.0234,0.8632,-6.47,7.73,-0.03,25.02
23897,0.3323,-0.0225,0.8647,-6.38,7.83,-0.06,25.0
23907,0.3337,-0.0236,0.8651,-6.4,7.8,-0.05,25.01
23917,0.3333,-0.0258,0.8607,-6.38,7.77,-0.05,25.03
23927,0.3362,-0.0259,0.8635,-6.4,7.77,0.0,25.03
23937,0.3365,-0.0215,0.8655,-6.44,7.88,-0.02,25.03
23947,0.3342,-0.0238,0.8644,-6.29,7.79,0.03,25.02
23957,0.335,-0.0225,0.8605,-6.35,7.76,-0.12,25.01
23967,0.3346,-0.0227,0.8601,-6.38,7.79,-0.12,25.03
23977,0.3336,-0.0245,0.8638,-6.4,7.73,0.03,25.03
23987,0.3325,-0.0237,0.8611,-6.38,7.85,-0.03,25.04
23997,0.334,-0.026,0.8636,-6.44,7.8,-0.05,25.04
24007,0.3354,-0.0214,0.8644,-6.38,7.8,-0.03,25.04
24017,0.3336,-0.021,0.863,-6.37,7.89,-0.08,25.03
24027,0.3354,-0.0227,0.8654,-6.32,7.86,-0.11,25.02
24037,0.3339,-0.0222,0.8612,-6.37,7.88,-0.12,25.04
24047,0.3322,-0.0223,0.8644,-6.38,7.86,-0.09,25.04
24057,0.3342,-0.021,0.8621,-6.34,7.8,-0.08,25.02
24067,0.337,-0.0217,0.8616,-6.38,7.83,0.02,25.02
24077,0.3331,-0.025,0.8635,-6.32,7.8,0.0,25.02
24087,0.334,-0.025,0.864,-6.37,7.82,-0.02,25.0
24097,0.3356,-0.0221,0.8647,-6.37,7.83,-0.09,25.05
24107,0.3358,-0.0239,0.8633,-6.38,7.85,-0.03,25.01
24117,0.3375,-0.0212,0.8634,-6.34,7.92,-0.05,25.02
24127,0.3323,-0.0231,0.8604,-6.43,7.83,-0.03,25.03
24137,0.3322,-0.0248,0.8612,-6.38,7.8,-0.03,25.06
24147,0.3356,-0.0217,0.8651,-6.35,7.83,0.0,25.05
24157,0.3339,-0.0253,0.8636,-6.34,7.8,-0.02,25.02
24167,0.3337,-0.0223,0.8624,-6.34,7.85,-0.03,25.04
24177,0.3335,-0.0234,0.8611,-6.37,7.82,-0.08,25.04
24187,0.3357,-0.0261,0.8643,-6.4,7.83,-0.05,25.04
24197,0.3364,-0.0248,0.8595,-6.37,7.79,-0.06,25.02
24207,0.335,-0.0231,0.8613,-6.37,7.71,-0.02,25.04
24217,0.3357,-0.0214,0.8629,-6.37,7.82,-0.02,25.03
24227,0.3352,-0.0211,0.861,-6.34,7.89,0.0,25.02
24237,0.3341,-0.0206,0.8597,-6.4,7.92,-0.09,25.03
24247,0.3357,-0.0214,0.865,-6.35,7.91,-0.02,25.06
24257,0.3348,-0.0258,0.8601,-6.32,7.86,0.03,25.05
24267,0.3311,-0.0227,0.8647,-6.4,7.83,-0.03,25.06
24278,0.3323,-0.0242,0.8643,-6.34,7.82,-0.02,25.02
24288,0.3326,-0.0229,0.864,-6.4,7.86,-0.05,25.03
24298,0.3342,-0.0226,0.8643,-6.37,7.83,-0.03,25.04
24308,0.3347,-0.02,0.864,-6.35,7.83,-0.09,25.06
24319,0.3339,-0.0205,0.8622,-6.38,7.8,0.0,25.05
24329,0.3325,-0.0233,0.8633,-6.38,7.79,-0.03,25.03
24339,0.334,-0.0237,0.8613,-6.38,7.74,0.05,25.02
24349,0.3363,-0.0212,0.8601,-6.34,7.88,-0.08,25.04
24359,0.332,-0.0217,0.8601,-6.35,7.85,-0.09,25.02
24369,0.3341,-0.0234,0.8594,-6.32,7.8,-0.03,25.05
24379,0.3357,-0.022,0.865,-6.29,7.82,-0.05,25.0
24389,0.3331,-0.0229,0.863,-6.32,7.86,-0.06,25.02
24399,0.3345,-0.0215,0.8638,-6.4,7.85,-0.05,25.01
24409,0.3337,-0.0223,0.8632,-6.35,7.83,-0.08,25.03
24419,0.3336,-0.0226,0.8597,-6.37,7.82,-0.11,25.04
24429,0.3345,-0.0249,0.8627,-6.35,7.79,-0.06,25.06
24439,0.3325,-0.024,0.865,-6.43,7.86,-0.06,25.05
24449,0.3329,-0.0238,0.861,-6.35,7.86,-0.08,25.04
24459,0.3356,-0.0226,0.8658,-6.41,7.82,-0.06,25.03
24469,0.3345,-0.0237,0.8611,-6.46,7.83,0.0,25.03
24480,0.3335,-0.0216,0.8623,-6.27,7.85,-0.03,25.05
24490,0.3328,-0.0226,0.8662,-6.43,7.82,-0.05,25.04
24500,0.332,-0.0239,0.8617,-6.37,7.86,-0.03,25.02
24511,0.3341,-0.0222,0.8635,-6.37,7.79,-0.12,25.04
24521,0.3326,-0.0219,0.865,-6.46,7.74,-0.03,25.03
24531,0.3341,-0.0222,0.8632,-6.37,7.74,-0.11,25.04
24541,0.333,-0.0222,0.8593,-6.4,7.86,-0.05,25.0
24551,0.3368,-0.0211,0.8597,-6.4,7.88,0.0,25.02
24561,0.334,-0.0228,0.8619,-6.38,7.85,-0.02,25.02
24571,0.3329,-0.0232,0.863,-6.38,7.8,0.0,25.02
24581,0.3341,-0.0259,0.8629,-6.35,7.83,-0.09,25.01
24591,0.3317,-0.0229,0.8615,-6.43,7.85,0.0,25.03
24601,0.3348,-0.0233,0.8647,-6.43,7.83,-0.05,25.03
24611,0.3347,-0.0243,0.863,-6.37,7.79,-0.06,25.03
24621,0.3292,-0.0247,0.8613,-6.43,7.79,-0.02,25.03
24631,0.3346,-0.0237,0.8615,-6.35,7.89,-0.11,25.03
24641,0.3326,-0.0228,0.8628,-6.49,7.8,-0.09,25.02
24651,0.3325,-0.0232,0.8622,-6.4,7.82,-0.11,25.02
24661,0.3326,-0.0258,0.8617,-6.38,7.89,-0.03,25.02
24671,0.3367,-0.0247,0.8606,-6.4,7.85,-0.02,25.03
24681,0.3353,-0.0193,0.8644,-6.37,7.85,-0.09,25.04
24691,0.3357,-0.0222,0.864,-6.43,7.79,-0.06,25.04
24701,0.3357,-0.0229,0.8627,-6.41,7.77,-0.05,25.03
24711,0.3352,-0.0204,0.8607,-6.37,7.83,-0.05,25.02
24721,0.3341,-0.0228,0.8597,-6.32,7.85,-0.08,25.03
24731,0.3319,-0.0243,0.8588,-6.4,7.76,-0.06,25.04
24741,0.3358,-0.0227,0.8583,-6.4,7.79,-0.03,25.06
24751,0.3348,-0.0228,0.863,-6.34,7.85,-0.02,25.03
24761,0.333,-0.0258,0.8597,-6.37,7.82,-0.02,25.02
24771,0.3335,-0.0232,0.8656,-6.34,7.83,-0.02,25.04
24781,0.335,-0.022,0.8595,-6.37,7.82,0.0,25.04
24791,0.3326,-0.0215,0.8634,-6.37,7.76,0.03,25.04
24801,0.3319,-0.0228,0.8595,-6.4,7.86,-0.08,25.04
24811,0.3354,-0.0234,0.8679,-6.44,7.83,-0.09,25.06
24821,0.3328,-0.022,0.8644,-6.35,7.74,-0.02,25.05
24831,0.3339,-0.0254,0.8599,-6.4,7.82,-0.11,25.07
24841,0.3348,-0.0278,0.86,-6.35,7.77,-0.08,25.06
24851,0.3342,-0.0232,0.8621,-6.32,7.77,-0.06,25.04
24861,0.3352,-0.0178,0.8666,-6.38,7.85,-0.03,25.05
24871,0.3326,-0.0216,0.8616,-6.44,7.83,-0.12,25.05
24881,0.3346,-0.0231,0.8602,-6.37,7.76,-0.08,25.04
24891,0.3329,-0.0258,0.8661,-6.38,7.85,-0.11,25.05
24901,0.332,-0.028,0.8665,-6.37,7.88,-0.03,25.07
24911,0.3284,-0.0264,0.8602,-6.46,7.76,-0.03,25.04
24921,0.3326,-0.0256,0.8639,-6.41,7.79,-0.08,25.03
24931,0.3335,-0.0223,0.8644,-6.38,7.79,-0.03,25.04
24941,0.3362,-0.0187,0.8621,-6.4,7.82,0.02,25.04
24951,0.3312,-0.0201,0.866,-6.38,7.8,-0.02,25.04
24961,0.3331,-0.0206,0.8644,-6.32,7.82,-0.02,25.06
24971,0.3368,-0.0204,0.8638,-6.35,7.8,-0.02,25.07
24981,0.3345,-0.0266,0.864,-6.43,7.77,-0.08,25.04
24991,0.3342,-0.0231,0.8644,-6.43,7.85,-0.08,25.04
25001,0.3356,-0.0222,0.8632,-6.35,7.82,-0.03,25.06
25011,0.3334,-0.0293,0.8633,-6.41,7.86,-0.08,25.07
25021,0.3318,-0.0262,0.8627,-6.31,7.88,-0.05,25.06
25031,0.3359,-0.0234,0.8651,-6.34,7.8,-0.08,25.04
25041,0.3333,-0.021,0.8624,-6.37,7.82,0.0,25.06
25051,0.3291,-0.0217,0.8611,-6.43,7.83,-0.08,25.04
25061,0.3325,-0.0201,0.8607,-6.34,7.8,-0.08,25.04
25071,0.3329,-0.0249,0.866,-6.4,7.82,-0.08,25.04
25081,0.333,-0.0238,0.8647,-6.5,7.86,-0.02,25.06
25091,0.3347,-0.0265,0.8621,-6.49,7.82,-0.06,25.05
25101,0.3365,-0.0271,0.8617,-6.37,7.79,-0.11,25.03
25111,0.3363,-0.0231,0.8624,-6.38,7.82,0.0,25.04
25121,0.3381,-0.0215,0.8615,-6.44,7.85,-0.05,25.04
25131,0.333,-0.0199,0.8654,-6.31,7.77,-0.05,25.06
25141,0.3369,-0.0192,0.8689,-6.38,7.79,-0.11,25.05
25151,0.3348,-0.0195,0.8616,-6.31,7.86,-0.08,25.06
25161,0.3357,-0.0227,0.8667,-6.46,7.79,-0.02,25.04
25171,0.3309,-0.0249,0.8625,-6.43,7.85,-0.05,25.07
25181,0.333,-0.0288,0.8583,-6.34,7.82,-0.02,25.06
25191,0.3291,-0.0293,0.8608,-6.38,7.8,-0.08,25.06
25201,0.3325,-0.0244,0.8594,-6.34,7.77,-0.09,25.06
25211,0.3285,-0.0201,0.8683,-6.43,7.91,-0.06,25.07
25221,0.3347,-0.0179,0.8656,-6.37,7.83,-0.03,25.06
25231,0.3323,-0.0192,0.866,-6.41,7.88,-0.06,25.07
25241,0.3363,-0.0165,0.8618,-6.47,7.74,0.05,25.05
25251,0.3362,-0.0188,0.8674,-6.35,7.86,-0.05,25.06
25261,0.338,-0.0238,0.8695,-6.32,7.77,-0.08,25.06
25271,0.3457,-0.0234,0.8623,-6.34,7.71,-0.08,25.06
25283,0.3383,-0.0223,0.8623,-6.49,7.74,-0.09,25.06
25293,0.3302,-0.0287,0.849,-6.43,7.91,0.06,25.05
25303,0.334,-0.0331,0.8568,-6.41,7.63,0.0,25.02
25313,0.3351,-0.0294,0.8578,-6.32,7.69,-0.09,25.03
25323,0.3284,-0.0214,0.8643,-6.26,7.77,-0.03,25.04
25333,0.335,-0.0214,0.8634,-6.47,7.77,0.03,25.04
25343,0.3301,-0.0231,0.8733,-6.35,7.88,-0.12,25.05
25353,0.3354,-0.0226,0.868,-6.37,7.79,-0.17,25.07
25363,0.335,-0.0184,0.8678,-6.38,7.89,-0.14,25.07
25373,0.3373,-0.0231,0.8596,-6.58,7.82,0.05,25.06
25383,0.338,-0.0319,0.86,-6.35,7.89,-0.11,25.04
25393,0.3363,-0.0316,0.86,-6.34,7.79,-0.09,25.08
25403,0.3356,-0.0212,0.8658,-6.35,7.85,-0.02,25.06
25413,0.3358,-0.0188,0.8595,-6.46,7.88,0.08,25.06
25423,0.3342,-0.0276,0.8628,-6.43,7.89,0.06,25.09
25433,0.3362,-0.0216,0.8713,-6.32,7.73,0.05,25.06
25443,0.3317,-0.0157,0.8684,-6.37,7.74,-0.03,25.07
25453,0.3325,-0.0187,0.8635,-6.41,7.83,-0.05,25.07
25463,0.3314,-0.0286,0.8617,-6.37,7.79,-0.14,25.05
25473,0.3325,-0.024,0.8657,-6.27,7.82,-0.12,25.04
25483,0.3326,-0.0215,0.8599,-6.37,7.8,-0.09,25.05
25493,0.3324,-0.0255,0.8553,-6.43,7.89,-0.06,25.06
25504,0.3324,-0.0286,0.8573,-6.38,7.79,-0.09,25.06
25514,0.3364,-0.0242,0.8638,-6.46,7.77,-0.05,25.04
25524,0.3345,-0.0187,0.8665,-6.41,7.71,-0.08,25.08
25534,0.335,-0.0204,0.8611,-6.41,7.91,0.02,25.07
25544,0.3369,-0.0221,0.865,-6.4,7.85,-0.09,25.07
25554,0.337,-0.0204,0.8676,-6.31,7.85,-0.08,25.05
25564,0.335,-0.0232,0.8673,-6.38,7.82,0.0,25.04
25574,0.3331,-0.0283,0.8636,-6.46,7.88,0.03,25.04
25584,0.3319,-0.0298,0.8585,-6.34,7.83,0.06,25.06
25594,0.3324,-0.0231,0.8638,-6.29,7.82,-0.03,25.05
25604,0.3298,-0.0236,0.8601,-6.44,7.89,-0.03,25.05
25614,0.3318,-0.024,0.8633,-6.37,7.83,0.0,25.05
25624,0.3367,-0.0209,0.8606,-6.43,7.79,-0.12,25.05
25634,0.334,-0.0223,0.8691,-6.32,7.79,-0.09,25.06
25644,0.3336,-0.021,0.8655,-6.43,7.85,-0.05,25.06
25654,0.3374,-0.0238,0.8682,-6.32,7.88,-0.08,25.06
25664,0.3357,-0.0273,0.8643,-6.31,7.82,-0.08,25.04
25674,0.3345,-0.0262,0.8639,-6.37,7.86,0.0,25.04
25684,0.3334,-0.0236,0.8608,-6.4,7.8,0.05,25.05
25694,0.3329,-0.0243,0.8574,-6.37,7.85,-0.05,25.07
25705,0.3339,-0.0242,0.8596,-6.43,7.8,-0.02,25.05
25715,0.3322,-0.0214,0.8643,-6.32,7.85,0.0,25.06
25725,0.3308,-0.0237,0.8627,-6.38,7.85,-0.08,25.06
25735,0.334,-0.0211,0.8639,-6.26,7.85,-0.06,25.07
25745,0.3348,-0.0228,0.8604,-6.4,7.82,0.0,25.06
25755,0.3341,-0.0221,0.8618,-6.43,7.85,-0.11,25.07
25765,0.3337,-0.0205,0.8638,-6.4,7.88,0.02,25.06
25775,0.3369,-0.0243,0.8623,-6.34,7.8,-0.06,25.08
25785,0.3346,-0.0248,0.864,-6.34,7.82,-0.06,25.07
25795,0.3356,-0.0221,0.8625,-6.35,7.77,0.02,25.09
25805,0.335,-0.0182,0.8618,-6.4,7.82,0.0,25.1
25815,0.3336,-0.024,0.8601,-6.35,7.83,-0.05,25.06
25825,0.3342,-0.0239,0.868,-6.35,7.79,-0.02,25.08
25835,0.3346,-0.0221,0.8672,-6.41,7.88,-0.05,25.07
25845,0.3334,-0.0222,0.8655,-6.35,7.88,-0.05,25.06
25855,0.334,-0.0228,0.8638,-6.44,7.89,-0.14,25.05
25865,0.3348,-0.0253,0.8615,-6.35,7.85,0.02,25.08
25875,0.3344,-0.0245,0.8655,-6.27,7.8,-0.08,25.07
25885,0.3309,-0.0225,0.8627,-6.38,7.82,-0.03,25.07
25895,0.3346,-0.0199,0.8634,-6.4,7.77,-0.06,25.07
25905,0.3337,-0.0231,0.8621,-6.4,7.82,-0.06,25.07
25915,0.3312,-0.0226,0.863,-6.37,7.83,-0.03,25.06
25925,0.3356,-0.0222,0.8677,-6.37,7.82,-0.06,25.06
25935,0.3353,-0.0232,0.8652,-6.41,7.74,-0.08,25.05
25945,0.3379,-0.0242,0.8633,-6.4,7.82,0.02,25.06
25955,0.3318,-0.0243,0.8635,-6.35,7.82,-0.12,25.07
25965,0.3326,-0.0272,0.8646,-6.41,7.85,-0.05,25.07
25975,0.3312,-0.0242,0.8627,-6.4,7.76,-0.02,25.06
25985,0.3351,-0.0237,0.864,-6.38,7.83,-0.06,25.07
25995,0.3347,-0.0211,0.8625,-6.32,7.82,-0.06,25.08
26005,0.3307,-0.0226,0.8595,-6.32,7.83,0.0,25.08
26015,0.3339,-0.0227,0.8638,-6.38,7.82,0.02,25.08
26025,0.3356,-0.0249,0.8621,-6.47,7.76,-0.05,25.07
26035,0.3373,-0.0251,0.8616,-6.35,7.83,-0.06,25.07
26045,0.3376,-0.0265,0.8632,-6.35,7.8,-0.05,25.06
26055,0.3344,-0.0226,0.8657,-6.34,7.82,-0.03,25.07
26065,0.3347,-0.0232,0.8669,-6.41,7.82,-0.03,25.07
26075,0.3328,-0.0238,0.861,-6.31,7.8,0.02,25.06
26085,0.332,-0.0231,0.8646,-6.34,7.83,-0.14,25.07
26095,0.3341,-0.0215,0.8639,-6.4,7.82,-0.14,25.08
26106,0.333,-0.0239,0.8611,-6.43,7.85,-0.06,25.09
26116,0.3342,-0.025,0.8604,-6.35,7.82,-0.08,25.05
26126,0.3334,-0.0243,0.8625,-6.35,7.76,-0.06,25.08
26137,0.3359,-0.0233,0.8591,-6.4,7.8,-0.05,25.07
26147,0.3351,-0.0233,0.8639,-6.38,7.85,-0.03,25.06
26157,0.3337,-0.0234,0.8616,-6.41,7.83,-0.08,25.06
26167,0.3331,-0.0228,0.8654,-6.4,7.77,0.02,25.06
26177,0.3333,-0.025,0.8634,-6.27,7.82,-0.06,25.06
26187,0.3348,-0.021,0.8618,-6.44,7.8,-0.03,25.07
26197,0.3345,-0.0209,0.8608,-6.44,7.86,-0.06,25.07
26207,0.3334,-0.0229,0.8594,-6.44,7.85,-0.09,25.07
26217,0.3353,-0.0231,0.8632,-6.49,7.8,-0.03,25.06
26227,0.3313,-0.025,0.8599,-6.43,7.77,-0.03,25.07
26237,0.3317,-0.0233,0.8625,-6.38,7.82,0.02,25.08
26247,0.3339,-0.0233,0.8647,-6.34,7.77,0.03,25.08
26257,0.3353,-0.024,0.8658,-6.46,7.86,-0.03,25.07
26267,0.3344,-0.0204,0.8644,-6.37,7.79,0.02,25.07
26277,0.3359,-0.0201,0.8646,-6.34,7.85,-0.02,25.05
26287,0.3346,-0.0233,0.8632,-6.38,7.85,-0.09,25.06
26297,0.3344,-0.0219,0.8662,-6.4,7.8,-0.02,25.07
26307,0.3354,-0.025,0.8667,-6.31,7.82,-0.06,25.07
26317,0.3333,-0.0223,0.8622,-6.41,7.8,-0.08,25.06
26327,0.3341,-0.0251,0.8618,-6.38,7.8,-0.02,25.07
26337,0.335,-0.0229,0.8636,-6.41,7.79,-0.06,25.05
26347,0.3363,-0.0223,0.8674,-6.37,7.8,-0.05,25.07
26357,0.3354,-0.0243,0.8655,-6.37,7.79,-0.11,25.07
26367,0.334,-0.0262,0.8644,-6.37,7.79,-0.09,25.09
26377,0.3362,-0.0219,0.8619,-6.34,7.82,-0.14,25.08
26387,0.3342,-0.0242,0.8629,-6.35,7.85,-0.05,25.07
26397,0.3329,-0.0216,0.865,-6.41,7.85,-0.02,25.07
26407,0.3342,-0.0234,0.8596,-6.43,7.8,-0.06,25.09
26417,0.3353,-0.0243,0.8613,-6.37,7.8,-0.08,25.08
26427,0.3351,-0.0221,0.8671,-6.44,7.85,-0.12,25.08
26437,0.3333,-0.0233,0.8602,-6.4,7.83,-0.09,25.07
26447,0.334,-0.0222,0.8618,-6.44,7.8,-0.03,25.06
26457,0.3331,-0.0229,0.8676,-6.35,7.94,-0.05,25.07
26467,0.3359,-0.0239,0.8647,-6.46,7.85,-0.03,25.07
26477,0.3364,-0.0226,0.8657,-6.4,7.83,-0.14,25.09
26487,0.3333,-0.0286,0.8627,-6.27,7.8,-0.09,25.08
26497,0.3325,-0.0247,0.8599,-6.4,7.83,-0.02,25.07
26507,0.3334,-0.0247,0.8604,-6.49,7.8,-0.09,25.07
26517,0.3342,-0.024,0.8666,-6.44,7.86,-0.08,25.08
26527,0.3369,-0.0234,0.8652,-6.34,7.8,-0.02,25.08
26537,0.3364,-0.0217,0.8633,-6.29,7.85,-0.05,25.07
26547,0.3367,-0.0234,0.8629,-6.27,7.83,0.02,25.08
26557,0.3356,-0.0227,0.8649,-6.4,7.76,-0.03,25.09
26567,0.3351,-0.0265,0.8612,-6.4,7.82,0.06,25.1
26577,0.3352,-0.0256,0.8606,-6.38,7.83,-0.02,25.09
26587,0.3357,-0.0273,0.8588,-6.37,7.8,-0.03,25.08
26597,0.3347,-0.0259,0.8647,-6.4,7.86,-0.03,25.08
26607,0.3334,-0.0248,0.8613,-6.4,7.88,-0.09,25.1
26617,0.333,-0.025,0.8617,-6.34,7.82,-0.09,25.08
26627,0.3367,-0.0247,0.8612,-6.35,7.92,-0.12,25.08
26637,0.3337,-0.024,0.866,-6.49,7.8,-0.06,25.09
26647,0.3372,-0.0223,0.8696,-6.44,7.86,0.0,25.06
26657,0.333,-0.0236,0.8673,-6.35,7.79,0.0,25.07
26667,0.3334,-0.0237,0.8613,-6.44,7.79,-0.08,25.08
26677,0.334,-0.0226,0.8624,-6.41,7.83,-0.03,25.11
26687,0.3323,-0.0237,0.8618,-6.37,7.85,-0.06,25.08
26697,0.3367,-0.0242,0.8618,-6.38,7.8,-0.08,25.08
26707,0.335,-0.0243,0.8595,-6.38,7.74,-0.05,25.1
26718,0.3334,-0.0248,0.8612,-6.41,7.79,-0.06,25.08
26728,0.3373,-0.0234,0.8634,-6.47,7.83,0.02,25.08
26738,0.3358,-0.0215,0.8646,-6.41,7.77,-0.05,25.08
26748,0.3345,-0.0233,0.866,-6.41,7.89,-0.08,25.07
26758,0.3317,-0.0231,0.8625,-6.37,7.8,-0.03,25.06
26768,0.3328,-0.0222,0.8613,-6.31,7.77,-0.06,25.08
26778,0.3346,-0.0223,0.8634,-6.44,7.79,-0.03,25.05
26788,0.3329,-0.0239,0.8655,-6.32,7.77,-0.03,25.06
26798,0.3342,-0.024,0.8604,-6.32,7.82,-0.11,25.1
26808,0.3356,-0.0232,0.8602,-6.32,7.86,-0.12,25.07
26818,0.3334,-0.0221,0.8599,-6.49,7.83,-0.08,25.09
26828,0.3351,-0.0244,0.8623,-6.31,7.77,-0.05,25.09
26838,0.3364,-0.0227,0.8658,-6.35,7.77,-0.03,25.08
26848,0.3345,-0.0211,0.865,-6.26,7.8,-0.08,25.06
26858,0.3364,-0.0245,0.8621,-6.37,7.83,-0.08,25.08
26869,0.3337,-0.0232,0.8611,-6.34,7.79,-0.12,25.09
26879,0.3331,-0.0245,0.8649,-6.43,7.85,-0.08,25.09
26889,0.332,-0.0228,0.8607,-6.43,7.86,-0.06,25.08
26899,0.3319,-0.0248,0.8632,-6.31,7.88,-0.02,25.09
26909,0.3334,-0.0211,0.8623,-6.44,7.85,-0.08,25.07
26919,0.3367,-0.0227,0.863,-6.37,7.76,0.0,25.1
26929,0.3333,-0.0221,0.8634,-6.31,7.8,0.0,25.07
26939,0.3351,-0.0205,0.8627,-6.34,7.79,-0.11,25.08
26949,0.3335,-0.0238,0.864,-6.37,7.82,-0.03,25.07
26959,0.3342,-0.0261,0.8608,-6.41,7.76,-0.08,25.09
26969,0.3317,-0.0199,0.8601,-6.35,7.79,-0.02,25.1
26979,0.3342,-0.0265,0.8622,-6.4,7.86,0.03,25.07
26989,0.3333,-0.0237,0.8619,-6.35,7.86,-0.11,25.08
26999,0.338,-0.0236,0.8632,-6.46,7.83,-0.08,25.07
27009,0.3381,-0.0229,0.8617,-6.46,7.85,-0.09,25.08
27019,0.3345,-0.0237,0.8656,-6.41,7.79,-0.05,25.09
27029,0.333,-0.0223,0.8636,-6.37,7.89,0.0,25.07
27039,0.3362,-0.0238,0.8608,-6.32,7.91,-0.05,25.09
27049,0.3311,-0.0236,0.8632,-6.4,7.82,-0.05,25.09
27059,0.3354,-0.0225,0.8596,-6.41,7.83,-0.12,25.09
27069,0.3331,-0.0261,0.8635,-6.4,7.89,-0.05,25.09
27079,0.3353,-0.0232,0.8615,-6.44,7.79,-0.06,25.11
27089,0.3319,-0.0243,0.8608,-6.35,7.88,-0.02,25.09
27099,0.3361,-0.0272,0.8619,-6.4,7.83,-0.02,25.1
27109,0.3335,-0.0233,0.8649,-6.41,7.82,-0.02,25.11
27119,0.3376,-0.0232,0.864,-6.4,7.79,-0.06,25.1
27129,0.3368,-0.0248,0.8657,-6.37,7.83,-0.02,25.09
27139,0.3351,-0.0233,0.863,-6.4,7.83,-0.12,25.09
27149,0.3326,-0.0248,0.8647,-6.37,7.88,0.0,25.09
27159,0.3347,-0.0242,0.8595,-6.34,7.83,-0.03,25.09
27169,0.334,-0.0243,0.8618,-6.43,7.8,-0.08,25.09
27179,0.3365,-0.021,0.8633,-6.32,7.85,0.05,25.08
27189,0.3344,-0.0233,0.8597,-6.37,7.83,0.03,25.08
27199,0.3314,-0.0227,0.8635,-6.35,7.8,-0.06,25.07
27209,0.3363,-0.0254,0.8628,-6.38,7.76,-0.06,25.08
27219,0.3339,-0.0227,0.8638,-6.38,7.83,-0.15,25.08
27229,0.3353,-0.0249,0.8654,-6.35,7.83,-0.12,25.07
27239,0.3339,-0.0214,0.8624,-6.38,7.86,-0.05,25.08
27249,0.3311,-0.0244,0.8597,-6.37,7.85,-0.06,25.07
27259,0.3317,-0.0238,0.8618,-6.41,7.88,-0.08,25.08
27269,0.3361,-0.0255,0.8639,-6.43,7.79,0.0,25.09
27279,0.3341,-0.0223,0.8612,-6.38,7.83,-0.06,25.09
27289,0.3324,-0.022,0.861,-6.49,7.74,-0.05,25.1
27299,0.3351,-0.024,0.8624,-6.43,7.83,0.02,25.09
27309,0.333,-0.0225,0.8668,-6.47,7.83,-0.02,25.1
27319,0.3336,-0.0249,0.8619,-6.38,7.8,-0.09,25.05
27329,0.3326,-0.0227,0.8672,-6.46,7.76,-0.09,25.08
27339,0.3325,-0.0223,0.8621,-6.38,7.8,-0.06,25.09
27349,0.3331,-0.0237,0.8663,-6.37,7.85,0.0,25.07
27359,0.3331,-0.0229,0.8629,-6.43,7.77,-0.03,25.09
27369,0.3331,-0.024,0.865,-6.44,7.89,-0.11,25.09
27379,0.3347,-0.0228,0.8678,-6.41,7.85,-0.09,25.09
27389,0.3346,-0.0208,0.866,-6.4,7.88,-0.05,25.08
