t_ms,accel_x_g,accel_y_g,accel_z_g,gyro_x_dps,gyro_y_dps,gyro_z_dps,imu_temp_c
4196,0.137,-0.2484,0.86,-6.03,7.85,-0.06,19.38
4206,0.1365,-0.2452,0.8566,-5.95,7.8,0.0,19.39
4216,0.135,-0.2468,0.8604,-5.92,7.73,-0.12,19.38
4264,0.1346,-0.249,0.8585,-6.03,7.83,0.0,19.39
4274,0.1389,-0.2495,0.8589,-6.0,7.79,-0.06,19.39
4284,0.14,-0.2456,0.8582,-6.03,7.71,0.03,19.39
4294,0.137,-0.2441,0.8608,-6.05,7.6,-0.17,19.4
4304,0.1379,-0.2455,0.8562,-5.91,7.71,-0.05,19.4
4314,0.1384,-0.2476,0.8582,-5.98,7.73,-0.09,19.4
4324,0.1383,-0.2504,0.8619,-5.97,7.79,-0.03,19.4
4334,0.1384,-0.246,0.856,-5.95,7.68,-0.05,19.4
4344,0.1389,-0.2478,0.8611,-5.88,7.71,-0.03,19.41
4354,0.1395,-0.2461,0.8624,-5.83,7.77,-1.3,19.42
4364,0.1379,-0.243,0.8591,-5.92,7.69,-0.35,19.43
4374,0.1394,-0.2467,0.8644,-6.0,7.73,-0.06,19.42
4384,0.1362,-0.246,0.8623,-5.97,7.68,-0.02,19.4
4394,0.1368,-0.2438,0.8655,-5.95,7.76,0.0,19.39
4404,0.1373,-0.2461,0.8619,-6.05,7.66,-0.08,19.42
4414,0.1427,-0.2466,0.8585,-6.03,7.65,-0.06,19.44
4424,0.1377,-0.2474,0.8625,-5.94,7.6,-0.09,19.38
4434,0.1379,-0.2466,0.8638,-5.95,7.65,0.02,19.42
4444,0.1398,-0.2445,0.8607,-5.95,7.82,0.03,19.44
4454,0.1407,-0.2479,0.8608,-5.97,7.91,-0.03,19.42
4464,0.1371,-0.2463,0.8649,-6.02,7.74,-0.03,19.4
4474,0.1366,-0.244,0.8628,-6.0,7.56,-0.12,19.41
4484,0.1412,-0.2474,0.8617,-6.05,7.48,-0.11,19.44
4494,0.1396,-0.2445,0.8562,-6.05,7.59,0.0,19.41
4504,0.1417,-0.2448,0.8585,-6.06,7.82,-0.02,19.43
4514,0.1394,-0.2485,0.8567,-6.05,7.85,0.02,19.43
4524,0.1367,-0.2448,0.8575,-6.02,7.77,-0.08,19.41
4534,0.137,-0.2462,0.8561,-5.95,7.71,-0.03,19.44
4544,0.1373,-0.2467,0.8593,-6.02,7.65,-0.11,19.42
4554,0.1388,-0.2452,0.8601,-6.0,7.69,-0.05,19.39
4564,0.1383,-0.2455,0.8546,-6.02,7.79,-0.08,19.42
4574,0.1371,-0.2456,0.8569,-5.95,7.8,-0.03,19.43
4584,0.1398,-0.2402,0.8593,-5.98,7.76,-0.02,19.41
4594,0.1381,-0.2469,0.8586,-6.06,7.73,0.0,19.42
4604,0.1395,-0.2484,0.858,-6.09,7.66,-0.05,19.44
4614,0.1373,-0.2476,0.8611,-6.12,7.66,-0.06,19.42
4624,0.1401,-0.2474,0.8568,-6.12,7.71,-0.09,19.42
4634,0.1385,-0.2494,0.8553,-6.05,7.77,-0.05,19.39
4644,0.1387,-0.2478,0.8569,-5.98,7.74,-0.05,19.4
4654,0.1381,-0.2477,0.86,-5.85,7.73,-0.08,19.39
4664,0.1373,-0.2495,0.8605,-5.82,7.68,-0.08,19.44
4674,0.1376,-0.2461,0.8647,-5.86,7.66,-0.05,19.41
4684,0.1399,-0.2429,0.8629,-5.91,7.66,-0.09,19.43
4694,0.1384,-0.2448,0.8619,-6.05,7.77,-0.09,19.44
4704,0.1378,-0.2462,0.8619,-6.2,7.74,-0.05,19.43
4714,0.1359,-0.2477,0.8572,-6.11,7.73,-0.08,19.44
4724,0.1377,-0.2457,0.8553,-5.98,7.71,-0.11,19.43
4734,0.139,-0.2446,0.8608,-5.88,7.65,-0.03,19.43
4744,0.1378,-0.248,0.8618,-5.83,7.63,-0.06,19.43
4754,0.1385,-0.2448,0.8607,-5.86,7.71,-0.05,19.44
4765,0.1384,-0.2454,0.8611,-5.95,7.62,-0.03,19.45
4775,0.1392,-0.2482,0.8632,-6.06,7.68,-0.08,19.44
4785,0.1396,-0.2469,0.8605,-6.05,7.68,-0.08,19.43
4795,0.1365,-0.2479,0.8597,-6.18,7.71,-0.05,19.42
4805,0.1387,-0.2451,0.8571,-6.0,7.69,0.0,19.42
4815,0.14,-0.2452,0.8591,-5.95,7.69,-0.08,19.44
4825,0.1377,-0.2473,0.8584,-5.94,7.65,-0.12,19.42
4835,0.1376,-0.2456,0.8602,-5.94,7.63,-0.08,19.46
4845,0.1384,-0.2455,0.8635,-5.88,7.63,-0.09,19.44
4855,0.1368,-0.2454,0.8605,-6.02,7.6,-0.09,19.43
4865,0.1392,-0.2445,0.8607,-6.08,7.68,-0.05,19.44
4875,0.1428,-0.2456,0.858,-6.11,7.76,0.06,19.4
4885,0.1406,-0.2455,0.858,-6.2,7.82,0.05,19.44
4895,0.1388,-0.2462,0.8564,-6.05,7.79,-0.11,19.44
4905,0.1379,-0.2456,0.858,-5.97,7.66,0.0,19.44
4915,0.1354,-0.2451,0.8597,-5.94,7.65,0.0,19.45
4925,0.1385,-0.2455,0.8574,-5.94,7.71,-0.03,19.42
4935,0.1371,-0.243,0.8616,-6.02,7.92,0.03,19.43
4945,0.1387,-0.2463,0.8622,-6.03,8.0,-0.03,19.47
4955,0.1348,-0.2499,0.8557,-6.06,7.85,-0.05,19.44
4965,0.139,-0.2474,0.86,-6.03,7.73,-0.08,19.44
4975,0.137,-0.2448,0.8549,-6.03,7.56,-0.09,19.47
4985,0.1378,-0.2504,0.8596,-5.91,7.68,-0.06,19.49
4995,0.1381,-0.2465,0.8584,-5.98,7.73,0.05,19.46
5005,0.1378,-0.2463,0.8643,-5.92,7.79,0.06,19.42
5015,0.1381,-0.2488,0.8636,-5.92,7.73,-0.06,19.44
5025,0.1348,-0.2482,0.8636,-5.97,7.68,-0.15,19.46
5035,0.1412,-0.2502,0.8643,-5.92,7.65,-0.11,19.46
5045,0.1417,-0.2469,0.8633,-5.98,7.65,-0.08,19.46
5055,0.1421,-0.2495,0.8589,-6.12,7.77,0.03,19.47
5065,0.1412,-0.2458,0.861,-6.05,7.97,0.02,19.46
5075,0.139,-0.2478,0.8601,-6.08,7.89,0.02,19.47
5085,0.14,-0.2456,0.86,-5.97,7.76,-0.03,19.47
5095,0.1377,-0.2476,0.8599,-5.98,7.54,-0.06,19.47
5105,0.1364,-0.2469,0.8569,-5.91,7.56,-0.06,19.46
5115,0.1378,-0.246,0.8636,-5.89,7.62,-0.03,19.48
5125,0.1384,-0.2446,0.8613,-5.94,7.69,-0.14,19.46
5135,0.1379,-0.2466,0.8597,-6.02,7.74,-0.06,19.45
5145,0.1393,-0.2457,0.8628,-6.05,7.68,-0.03,19.45
5155,0.1395,-0.2465,0.8596,-6.09,7.63,0.0,19.49
5165,0.1395,-0.246,0.8617,-6.0,7.65,0.0,19.47
5175,0.1393,-0.2469,0.8574,-5.98,7.68,-0.05,19.45
5185,0.1398,-0.2449,0.8578,-5.94,7.69,-0.06,19.47
5195,0.1417,-0.2468,0.8582,-5.86,7.73,-0.03,19.46
5205,0.1384,-0.2454,0.8595,-5.92,7.79,-0.02,19.47
5215,0.1389,-0.2488,0.8568,-6.09,7.69,-0.09,19.46
5225,0.1394,-0.2465,0.8597,-6.15,7.63,-0.08,19.47
5235,0.14,-0.249,0.8599,-6.14,7.74,-0.03,19.45
5245,0.1395,-0.2496,0.8551,-6.0,7.79,-0.08,19.44
5255,0.1376,-0.2482,0.8607,-5.92,7.83,-0.03,19.46
5265,0.1368,-0.2482,0.8608,-5.8,7.77,-0.09,19.47
5275,0.136,-0.2439,0.8608,-5.82,7.69,-0.05,19.46
5285,0.1362,-0.2445,0.8618,-5.95,7.6,-0.03,19.47
5295,0.1392,-0.2452,0.8635,-5.97,7.6,-0.12,19.45
5305,0.136,-0.2454,0.861,-6.08,7.76,0.0,19.46
5315,0.1373,-0.245,0.8613,-6.12,7.82,0.02,19.48
5325,0.1355,-0.2463,0.86,-6.08,7.83,0.0,19.46
5335,0.1353,-0.2455,0.8569,-5.91,7.76,0.02,19.47
5345,0.1375,-0.246,0.8611,-5.82,7.71,-0.05,19.47
5355,0.1366,-0.2418,0.8623,-5.85,7.65,-0.06,19.49
5365,0.1353,-0.246,0.8632,-5.97,7.76,-0.03,19.48
5375,0.1376,-0.2449,0.8632,-6.03,7.8,-0.05,19.49
5385,0.1379,-0.2466,0.8596,-6.06,7.79,-0.02,19.47
5395,0.1394,-0.2462,0.8597,-6.14,7.79,-0.06,19.47
5405,0.1389,-0.2472,0.8542,-6.09,7.82,-0.05,19.46
5415,0.1378,-0.2499,0.858,-5.92,7.73,-0.05,19.48
5425,0.1379,-0.248,0.8623,-5.83,7.69,0.02,19.47
5435,0.1411,-0.2443,0.8589,-5.94,7.68,-0.05,19.48
5445,0.141,-0.2449,0.8623,-6.0,7.65,-0.03,19.47
5455,0.1393,-0.2473,0.8596,-6.09,7.68,-0.05,19.48
5465,0.1401,-0.245,0.8608,-6.23,7.73,-0.11,19.48
5475,0.1377,-0.2461,0.8541,-6.12,7.79,-0.08,19.48
5485,0.1376,-0.246,0.8585,-6.05,7.85,0.02,19.48
5495,0.1385,-0.2429,0.8595,-5.97,7.79,0.02,19.46
5505,0.1378,-0.2461,0.8606,-5.89,7.66,-0.06,19.5
5515,0.1362,-0.2446,0.8649,-5.91,7.63,-0.15,19.48
5525,0.1381,-0.2468,0.8617,-6.0,7.65,-0.08,19.47
5535,0.1379,-0.2443,0.8601,-6.09,7.65,-0.05,19.47
5545,0.1396,-0.2448,0.8578,-6.11,7.71,-0.06,19.46
5555,0.1395,-0.2482,0.8597,-6.17,7.73,-0.05,19.47
5565,0.1389,-0.2493,0.8574,-6.09,7.8,0.0,19.48
5575,0.1382,-0.248,0.8557,-6.05,7.73,-0.05,19.49
5585,0.1368,-0.2487,0.8604,-6.06,7.66,-0.05,19.45
5595,0.1364,-0.2476,0.8604,-5.95,7.69,-0.03,19.48
5605,0.1399,-0.2465,0.8588,-5.94,7.63,-0.02,19.48
5615,0.1375,-0.2467,0.861,-5.98,7.69,-0.06,19.47
5625,0.1365,-0.2455,0.858,-5.95,7.73,-0.11,19.5
5635,0.1375,-0.2494,0.8624,-5.95,7.76,-0.11,19.49
5645,0.1409,-0.2461,0.8601,-5.91,7.74,-0.08,19.5
5655,0.1361,-0.245,0.8636,-5.97,7.66,-0.03,19.49
5665,0.1389,-0.2449,0.8615,-5.97,7.65,-0.06,19.5
5675,0.1411,-0.2468,0.86,-5.92,7.68,-0.02,19.51
5685,0.1378,-0.2438,0.8574,-5.92,7.66,-0.05,19.54
5695,0.1392,-0.2448,0.8601,-6.02,7.73,0.05,19.5
5705,0.1384,-0.2461,0.8601,-5.95,7.77,-0.05,19.49
5715,0.1379,-0.2469,0.8617,-5.97,7.73,0.0,19.49
5725,0.1384,-0.2471,0.8644,-6.06,7.79,-0.03,19.48
5735,0.1393,-0.2477,0.8619,-5.95,7.83,-0.06,19.51
5745,0.1392,-0.248,0.8625,-6.02,7.73,0.02,19.51
5755,0.1392,-0.2495,0.8621,-6.0,7.73,-0.02,19.48
5765,0.1395,-0.2487,0.863,-5.98,7.74,0.06,19.49
5775,0.1392,-0.245,0.8644,-5.97,7.73,-0.05,19.49
5785,0.1385,-0.2445,0.8639,-5.98,7.73,-0.09,19.5
5795,0.1378,-0.2476,0.8616,-6.05,7.65,-0.11,19.51
5805,0.1372,-0.2457,0.8584,-6.05,7.71,-0.03,19.52
5815,0.1389,-0.2458,0.8605,-6.05,7.66,-0.08,19.51
5825,0.1387,-0.246,0.8568,-5.97,7.82,0.08,19.5
5835,0.1394,-0.2474,0.8627,-5.91,7.76,0.02,19.5
5845,0.1393,-0.244,0.8623,-5.97,7.74,-0.03,19.51
5855,0.1366,-0.2465,0.8617,-6.03,7.57,-0.09,19.5
5865,0.1388,-0.2454,0.8617,-6.12,7.68,-0.05,19.53
5875,0.1368,-0.2463,0.8579,-6.11,7.73,-0.05,19.51
5885,0.1364,-0.2456,0.8574,-6.15,7.8,0.02,19.52
5895,0.1392,-0.2456,0.8563,-6.11,7.83,-0.08,19.5
5905,0.1361,-0.2474,0.8546,-5.95,7.77,-0.02,19.52
5915,0.1367,-0.249,0.859,-5.95,7.66,-0.09,19.51
5925,0.1372,-0.2471,0.8568,-5.89,7.69,-0.14,19.51
5935,0.1389,-0.244,0.8595,-5.82,7.63,-0.09,19.53
5945,0.1375,-0.2461,0.859,-5.91,7.62,-0.02,19.51
5955,0.1392,-0.2469,0.8627,-6.02,7.79,-0.06,19.52
5965,0.1385,-0.2455,0.858,-6.02,7.73,-0.06,19.54
5975,0.1396,-0.2449,0.8545,-6.06,7.63,-0.11,19.52
5985,0.1364,-0.2456,0.8572,-5.98,7.66,-0.03,19.51
5995,0.1421,-0.246,0.8599,-6.0,7.69,-0.06,19.52
6005,0.1375,-0.2488,0.8571,-6.02,7.82,-0.02,19.52
6015,0.1389,-0.2435,0.861,-5.97,7.86,-0.03,19.52
6025,0.1375,-0.2485,0.8608,-5.97,7.83,-0.09,19.53
6035,0.1345,-0.2473,0.8573,-6.02,7.71,-0.11,19.52
6045,0.1381,-0.2477,0.8615,-6.02,7.57,-0.09,19.52
6055,0.1368,-0.2461,0.8639,-6.08,7.65,-0.08,19.52
6065,0.1398,-0.2495,0.8655,-6.03,7.82,-0.08,19.53
6075,0.1382,-0.2472,0.8651,-6.08,7.79,0.02,19.53
6085,0.1375,-0.2478,0.8584,-6.0,7.71,0.0,19.54
6095,0.1404,-0.2469,0.8599,-5.94,7.73,-0.02,19.54
6105,0.1398,-0.2469,0.861,-5.89,7.66,-0.12,19.53
6115,0.1405,-0.2463,0.8612,-5.97,7.6,0.03,19.55
6125,0.1406,-0.2461,0.8591,-5.95,7.66,-0.03,19.54
6135,0.1409,-0.2482,0.8591,-6.0,7.82,-0.02,19.53
6145,0.1379,-0.2474,0.8604,-6.0,7.83,0.02,19.54
6155,0.1373,-0.2477,0.8616,-6.05,7.82,-0.06,19.55
6165,0.1366,-0.2455,0.8601,-6.08,7.69,-0.03,19.54
6175,0.1368,-0.2469,0.8568,-6.08,7.73,-0.02,19.54
6185,0.1385,-0.2451,0.8585,-6.09,7.73,-0.08,19.53
6195,0.1396,-0.2458,0.8564,-5.98,7.76,-0.05,19.53
6205,0.1353,-0.2476,0.8588,-6.03,7.82,-0.09,19.53
6215,0.1384,-0.2476,0.8561,-5.94,7.77,0.0,19.57
6225,0.1361,-0.2478,0.8618,-5.88,7.68,-0.02,19.56
6235,0.1367,-0.2456,0.859,-5.95,7.62,-0.06,19.54
6245,0.1382,-0.2474,0.8591,-5.98,7.63,-0.06,19.54
6255,0.1381,-0.2452,0.8595,-6.06,7.68,-0.09,19.55
6265,0.1377,-0.2466,0.8593,-6.02,7.79,-0.08,19.54
6275,0.1359,-0.2443,0.8573,-5.94,7.82,-0.02,19.54
6285,0.137,-0.2445,0.8618,-5.95,7.89,-0.02,19.54
6295,0.1395,-0.2454,0.8605,-5.86,7.76,-0.03,19.55
6305,0.1379,-0.2496,0.861,-5.83,7.65,-0.12,19.56
6315,0.1359,-0.2456,0.8615,-6.08,7.56,-0.09,19.53
6325,0.1377,-0.2479,0.8613,-6.06,7.65,-0.05,19.53
6335,0.1383,-0.2466,0.8611,-5.98,7.76,-0.02,19.53
6345,0.1356,-0.2449,0.8624,-6.05,7.77,-0.05,19.55
6355,0.1411,-0.2446,0.8617,-5.89,7.74,-0.06,19.56
6365,0.1394,-0.2474,0.8629,-5.94,7.71,-0.12,19.56
6375,0.1399,-0.2444,0.8639,-6.03,7.74,-0.09,19.54
6385,0.14,-0.2448,0.8621,-6.03,7.8,0.0,19.55
6395,0.1379,-0.2449,0.8619,-6.17,7.69,0.06,19.54
6405,0.1381,-0.2496,0.8584,-6.08,7.83,-0.03,19.55
6415,0.1373,-0.2482,0.8594,-6.03,7.77,-0.03,19.56
6425,0.1382,-0.2452,0.859,-5.92,7.74,-0.02,19.53
6435,0.1381,-0.2462,0.8611,-5.91,7.66,-0.02,19.53
6445,0.136,-0.2443,0.8572,-5.94,7.65,0.89,19.56
6455,0.1346,-0.2456,0.8583,-5.94,7.69,0.0,19.54
6465,0.1406,-0.2461,0.859,-5.98,7.73,-0.08,19.54
6475,0.1375,-0.2493,0.8608,-6.05,7.65,-0.08,19.55
6485,0.1389,-0.2465,0.8606,-6.11,7.74,-0.02,19.55
6495,0.1416,-0.2477,0.8574,-6.0,7.62,-0.14,19.54
6505,0.1382,-0.245,0.8552,-5.83,7.65,-0.08,19.55
6515,0.1367,-0.246,0.8596,-5.83,7.65,-0.06,19.54
6525,0.1361,-0.2433,0.8616,-5.94,7.77,-0.08,19.53
6535,0.1379,-0.2461,0.8639,-6.02,7.74,-0.12,19.55
6545,0.1384,-0.2445,0.8608,-6.12,7.89,-0.17,19.54
6555,0.1377,-0.2494,0.8628,-6.18,7.83,-0.03,19.54
6565,0.1362,-0.249,0.8572,-6.17,7.82,-0.06,19.54
6575,0.1373,-0.2498,0.858,-5.97,7.76,-0.12,19.52
6585,0.1392,-0.2483,0.8593,-5.88,7.73,-0.09,19.54
6595,0.1387,-0.2496,0.8594,-5.8,7.69,-0.08,19.54
6605,0.1393,-0.2458,0.8621,-5.82,7.66,-0.02,19.55
6615,0.1382,-0.2467,0.8602,-5.91,7.71,0.03,19.54
6625,0.139,-0.2455,0.8646,-6.02,7.71,-0.09,19.56
6635,0.1385,-0.2448,0.8624,-6.09,7.65,-0.08,19.57
6645,0.1409,-0.2429,0.856,-6.05,7.69,-0.06,19.55
6655,0.1387,-0.2468,0.8551,-6.03,7.73,0.02,19.54
6665,0.1368,-0.2451,0.8634,-5.79,7.74,-0.03,19.55
6675,0.1378,-0.2467,0.8617,-5.8,7.76,-0.05,19.55
6685,0.1394,-0.2463,0.8618,-5.94,7.65,-0.12,19.53
6695,0.1395,-0.2446,0.8634,-6.17,7.65,-0.12,19.53
6705,0.1395,-0.2463,0.8618,-6.17,7.68,-0.09,19.56
6715,0.1375,-0.2473,0.8601,-6.14,7.73,-0.05,19.56
6725,0.1382,-0.2484,0.8553,-6.12,7.76,-0.06,19.56
6735,0.136,-0.2478,0.8551,-6.0,7.74,-0.08,19.54
6745,0.1373,-0.246,0.8628,-5.91,7.71,-0.03,19.56
6755,0.1393,-0.2465,0.8599,-5.89,7.68,-0.05,19.53
6765,0.1395,-0.246,0.858,-6.0,7.62,-0.03,19.52
6775,0.137,-0.2443,0.8566,-6.0,7.6,-0.09,19.56
6785,0.1381,-0.2443,0.8561,-6.03,7.77,-0.06,19.56
6795,0.139,-0.2465,0.8546,-6.08,7.79,-0.11,19.53
6805,0.1401,-0.2482,0.8571,-5.97,7.73,-0.08,19.56
6815,0.1377,-0.2465,0.8577,-5.92,7.74,-0.02,19.54
6825,0.1366,-0.2443,0.8575,-5.95,7.65,-0.03,19.54
6835,0.1384,-0.2446,0.8599,-5.98,7.69,-0.09,19.55
6845,0.1403,-0.2467,0.8552,-6.09,7.77,-0.02,19.52
6855,0.1377,-0.244,0.8621,-6.15,7.77,-0.09,19.54
6865,0.1392,-0.246,0.86,-6.14,7.83,-0.09,19.54
6875,0.1372,-0.246,0.8591,-6.03,7.74,0.03,19.56
6885,0.1385,-0.2477,0.8617,-5.98,7.68,-0.05,19.57
6895,0.1393,-0.2491,0.8635,-5.86,7.66,-0.03,19.58
6905,0.1388,-0.2471,0.863,-5.94,7.73,-0.02,19.57
6915,0.1394,-0.2461,0.8639,-6.05,7.59,-0.02,19.54
6925,0.1394,-0.2467,0.8613,-6.03,7.69,-0.06,19.57
6935,0.1398,-0.2484,0.859,-6.08,7.79,-0.08,19.57
6945,0.1377,-0.2451,0.8613,-6.02,7.86,-0.15,19.57
6955,0.1385,-0.2479,0.8579,-5.88,7.73,-0.03,19.56
6965,0.1375,-0.2473,0.8624,-5.97,7.68,0.02,19.59
6975,0.1383,-0.2456,0.8613,-5.97,7.74,-0.05,19.55
6985,0.1364,-0.2458,0.8618,-6.08,7.71,-0.14,19.54
6995,0.1373,-0.2466,0.8624,-6.08,7.76,-0.09,19.56
7005,0.1371,-0.2458,0.8612,-6.06,7.77,-0.05,19.59
7015,0.1372,-0.2451,0.8578,-6.09,7.77,0.0,19.58
7025,0.1366,-0.248,0.8602,-6.0,7.74,-0.05,19.57
7035,0.1362,-0.2468,0.8638,-5.95,7.69,-0.08,19.54
7045,0.137,-0.2443,0.8594,-6.02,7.74,-0.06,19.56
7055,0.1387,-0.2455,0.8607,-6.0,7.71,-0.06,19.56
7065,0.1418,-0.245,0.8618,-5.97,7.76,-0.03,19.55
7075,0.1382,-0.2461,0.8608,-6.03,7.76,-0.03,19.57
7085,0.1359,-0.2451,0.8641,-5.98,7.74,-0.02,19.55
7095,0.1377,-0.2467,0.8608,-6.05,7.73,-0.12,19.57
7105,0.1365,-0.2461,0.8628,-5.95,7.65,-0.09,19.57
7115,0.1389,-0.2446,0.8561,-5.98,7.74,-0.12,19.57
7125,0.1393,-0.2466,0.8606,-6.08,7.79,-0.09,19.56
7135,0.1383,-0.2482,0.8591,-6.17,7.76,-0.06,19.56
7145,0.1365,-0.2444,0.8599,-6.0,7.82,0.02,19.56
7155,0.1346,-0.2466,0.8599,-6.0,7.74,0.02,19.58
7165,0.1385,-0.2461,0.8544,-5.94,7.69,-0.05,19.58
7175,0.1376,-0.2449,0.8567,-5.85,7.6,-0.03,19.57
7185,0.1375,-0.2457,0.8618,-5.89,7.62,-0.05,19.57
7195,0.1376,-0.2451,0.8584,-5.95,7.68,-0.11,19.56
7205,0.1412,-0.2456,0.8621,-6.05,7.79,0.0,19.58
7215,0.1365,-0.2456,0.8584,-6.09,7.79,0.02,19.58
7225,0.1395,-0.2494,0.8613,-6.14,7.69,-0.05,19.57
7235,0.1392,-0.2471,0.8606,-6.09,7.77,-0.05,19.59
7245,0.1404,-0.2474,0.8579,-5.92,7.56,-0.03,19.57
7255,0.1395,-0.2511,0.8643,-5.88,7.6,-0.03,19.57
7265,0.1401,-0.2473,0.8658,-5.91,7.65,-0.06,19.57
7275,0.1387,-0.2477,0.8643,-5.91,7.66,-0.03,19.56
7285,0.1385,-0.2462,0.8632,-6.02,7.73,-0.11,19.56
7295,0.1381,-0.2454,0.8599,-6.09,7.82,0.02,19.57
7305,0.1376,-0.2479,0.8602,-6.15,7.79,0.02,19.55
7315,0.1367,-0.2484,0.8591,-6.02,7.74,0.0,19.58
7325,0.141,-0.2451,0.8568,-5.92,7.63,-0.05,19.6
7335,0.139,-0.2463,0.8583,-5.77,7.6,-0.03,19.57
7345,0.1357,-0.2457,0.8634,-5.83,7.73,-0.08,19.57
7355,0.1414,-0.2454,0.8662,-5.95,7.69,-0.08,19.57
7365,0.1382,-0.2456,0.8654,-6.0,7.73,-0.06,19.56
7375,0.1403,-0.245,0.8572,-6.14,7.8,-0.05,19.59
7385,0.1394,-0.2441,0.8572,-6.2,7.77,-0.03,19.57
7395,0.1396,-0.246,0.8566,-6.12,7.8,-0.06,19.57
7405,0.142,-0.2443,0.8535,-6.14,7.88,-0.08,19.56
7415,0.1344,-0.2463,0.8557,-5.94,7.83,-0.03,19.59
7425,0.1332,-0.2484,0.8606,-5.91,7.76,-0.03,19.59
7435,0.1382,-0.2438,0.8619,-5.88,7.74,-0.02,19.57
7446,0.1392,-0.2434,0.8607,-5.94,7.76,-0.08,19.59
7456,0.1383,-0.2439,0.8636,-6.09,7.74,-0.09,19.58
7466,0.136,-0.2482,0.8585,-6.11,7.82,0.0,19.58
7477,0.1357,-0.2478,0.8596,-6.06,7.85,-0.05,19.58
7487,0.1384,-0.2485,0.8611,-6.02,7.76,-0.02,19.6
7497,0.1377,-0.2466,0.8572,-5.94,7.73,-0.02,19.59
7507,0.1376,-0.2458,0.8588,-5.98,7.74,-0.09,19.59
7517,0.1371,-0.2427,0.861,-6.0,7.71,-0.02,19.59
7527,0.1383,-0.2479,0.8612,-6.02,7.65,0.0,19.59
7537,0.1385,-0.2473,0.8624,-6.08,7.68,-0.12,19.59
7547,0.1393,-0.2485,0.8611,-6.05,7.76,-0.08,19.59
7557,0.1376,-0.2493,0.8596,-6.05,7.69,-0.11,19.57
7567,0.14,-0.2483,0.8608,-5.97,7.71,-0.09,19.58
7577,0.1366,-0.2462,0.863,-5.88,7.66,-0.06,19.57
7587,0.1373,-0.2457,0.8596,-5.83,7.71,-0.08,19.56
7597,0.1384,-0.2468,0.8611,-5.98,7.77,-0.03,19.59
7607,0.1388,-0.2446,0.8617,-6.02,7.68,-0.11,19.59
7617,0.1403,-0.2461,0.8616,-6.05,7.69,-0.11,19.58
7627,0.1431,-0.2458,0.861,-6.18,7.74,-0.11,19.56
7637,0.1382,-0.248,0.8608,-6.02,7.77,-0.05,19.58
7647,0.1395,-0.2474,0.8582,-6.03,7.68,-0.11,19.59
7657,0.1417,-0.2443,0.8621,-6.02,7.73,-0.09,19.59
7667,0.1401,-0.2467,0.8585,-5.91,7.63,0.02,19.59
7677,0.1384,-0.2451,0.8585,-6.03,7.6,0.03,19.57
7687,0.1378,-0.2435,0.8635,-5.94,7.69,-0.08,19.57
7697,0.1371,-0.2454,0.8563,-5.89,7.74,-0.06,19.6
7707,0.1356,-0.2462,0.8588,-5.94,7.74,-0.09,19.58
7717,0.1414,-0.2495,0.8601,-6.03,7.74,-0.06,19.6
7727,0.1381,-0.2449,0.8585,-6.06,7.73,-0.02,19.6
7737,0.1396,-0.2473,0.8612,-6.21,7.79,-0.08,19.57
7747,0.1357,-0.2474,0.8567,-6.14,7.8,-0.12,19.59
7757,0.1362,-0.2478,0.8557,-6.02,7.76,-0.05,19.59
7767,0.1382,-0.2457,0.8572,-5.85,7.66,-0.06,19.61
7777,0.1417,-0.2448,0.8605,-5.8,7.69,-0.05,19.59
7787,0.1383,-0.2443,0.8624,-5.85,7.74,0.02,19.59
7797,0.1364,-0.2418,0.8634,-5.91,7.74,-0.06,19.6
7807,0.1375,-0.2446,0.8647,-6.09,7.77,-0.05,19.59
7817,0.1378,-0.2454,0.8606,-6.23,7.77,-0.06,19.59
7827,0.1372,-0.2478,0.8606,-6.34,7.77,-0.09,19.6
7837,0.1357,-0.2483,0.8584,-6.18,7.8,-0.03,19.6
7847,0.1388,-0.2468,0.8566,-5.98,7.8,-0.03,19.6
7857,0.1361,-0.2445,0.8568,-5.83,7.68,-0.02,19.57
7867,0.1385,-0.2462,0.8641,-5.63,7.63,-0.11,19.59
7877,0.1407,-0.2454,0.8652,-5.77,7.59,-0.08,19.6
7887,0.1434,-0.2448,0.8646,-6.0,7.62,-0.06,19.59
7897,0.1395,-0.2449,0.8625,-6.15,7.69,-0.05,19.59
7907,0.1364,-0.2451,0.8634,-6.26,7.8,-0.05,19.59
7917,0.1377,-0.244,0.8605,-6.17,7.89,-0.14,19.59
7927,0.137,-0.245,0.86,-6.12,7.85,-0.05,19.6
7937,0.1351,-0.2451,0.8597,-5.89,7.76,-0.11,19.59
7947,0.1381,-0.2482,0.8613,-5.92,7.66,-0.02,19.61
7957,0.1388,-0.2473,0.8634,-5.91,7.68,-0.11,19.59
7967,0.1375,-0.2469,0.8634,-6.0,7.71,-0.05,19.61
7977,0.1415,-0.2465,0.8608,-6.18,7.73,-0.11,19.6
7987,0.1382,-0.2469,0.8607,-6.17,7.91,-0.03,19.59
7997,0.1381,-0.248,0.8602,-6.11,7.86,-0.02,19.6
8007,0.1389,-0.2476,0.859,-6.09,7.71,-0.08,19.6
8017,0.1372,-0.2485,0.8553,-6.03,7.65,-0.14,19.6
8027,0.1367,-0.2446,0.8595,-5.98,7.71,0.03,19.59
8037,0.1366,-0.2446,0.8569,-5.98,7.76,0.08,19.63
8047,0.1394,-0.2467,0.8607,-6.02,7.79,-0.05,19.6
8057,0.1378,-0.2465,0.8597,-6.05,7.79,0.02,19.62
8067,0.1367,-0.2433,0.8584,-6.11,7.8,-0.02,19.61
8077,0.1375,-0.245,0.8627,-6.15,7.77,-0.06,19.62
8087,0.136,-0.2461,0.8557,-6.11,7.82,-0.02,19.6
8097,0.139,-0.2449,0.853,-6.2,7.86,0.02,19.61
8107,0.1409,-0.2479,0.8534,-6.09,7.74,-0.08,19.6
8117,0.137,-0.2489,0.8555,-5.97,7.8,0.0,19.61
8127,0.136,-0.2457,0.8599,-5.86,7.77,-0.03,19.6
8137,0.1383,-0.2484,0.8606,-5.82,7.68,-0.09,19.62
8147,0.1387,-0.251,0.8625,-5.79,7.66,-0.12,19.61
8157,0.1365,-0.25,0.8673,-5.92,7.77,-0.05,19.63
8167,0.1388,-0.2485,0.8625,-5.89,7.77,-0.03,19.6
8177,0.1372,-0.2485,0.863,-6.11,7.79,-0.05,19.6
8187,0.1372,-0.2501,0.8585,-6.18,7.83,-0.03,19.6
8197,0.1344,-0.2496,0.8605,-6.11,7.8,0.0,19.61
8207,0.1356,-0.249,0.8595,-6.02,7.8,-0.08,19.62
8217,0.1361,-0.2483,0.8629,-5.92,7.69,-0.03,19.61
8227,0.1342,-0.2482,0.8663,-5.91,7.66,-0.05,19.62
8237,0.1353,-0.2479,0.8628,-5.91,7.51,-0.06,19.61
8247,0.1378,-0.2469,0.8622,-5.91,7.54,-0.09,19.62
8257,0.1376,-0.2438,0.8615,-6.02,7.51,-0.09,19.62
8267,0.1423,-0.2393,0.8546,-6.12,7.62,-0.15,19.58
8277,0.1422,-0.2422,0.851,-6.06,7.63,-0.05,19.62
8287,0.1394,-0.2456,0.8568,-5.86,7.77,-0.03,19.63
8297,0.1378,-0.2418,0.856,-5.76,7.77,0.08,19.62
8307,0.1364,-0.2445,0.8567,-5.82,7.71,-0.02,19.62
8317,0.1353,-0.2462,0.8619,-5.85,7.68,0.0,19.6
8327,0.1348,-0.2441,0.8602,-5.97,7.62,-0.08,19.62
8337,0.136,-0.2452,0.8608,-6.11,7.73,-0.06,19.61
8347,0.1377,-0.2489,0.8562,-6.0,7.82,-0.09,19.59
8357,0.1387,-0.2482,0.8604,-6.06,7.83,-0.03,19.59
8367,0.1399,-0.2441,0.8602,-6.0,7.73,-0.06,19.59
8377,0.1355,-0.2478,0.8619,-5.95,7.66,0.0,19.6
8387,0.1382,-0.2448,0.8585,-6.11,7.62,-0.09,19.64
8397,0.1403,-0.244,0.8546,-6.12,7.71,-0.08,19.62
8407,0.1379,-0.2423,0.8589,-6.15,7.68,-0.05,19.59
8417,0.1367,-0.2457,0.8564,-5.88,7.66,-0.03,19.61
8427,0.1388,-0.2456,0.8662,-5.66,7.82,-0.03,19.61
8437,0.1414,-0.245,0.8706,-5.62,7.68,0.03,19.61
8447,0.1396,-0.244,0.8766,-5.65,7.62,-0.02,19.62
8457,0.1422,-0.2416,0.8724,-5.98,7.51,-0.06,19.6
8467,0.1422,-0.2421,0.8701,-6.38,7.68,-0.08,19.62
8477,0.1406,-0.2444,0.865,-6.75,7.98,-0.12,19.61
8487,0.1375,-0.248,0.8583,-6.76,7.98,-0.08,19.63
8497,0.1383,-0.2483,0.8541,-6.52,8.08,0.02,19.62
8507,0.1403,-0.2552,0.8571,-6.12,7.77,-0.08,19.62
8517,0.1355,-0.2531,0.8573,-5.91,7.5,-0.17,19.62
8527,0.1433,-0.248,0.86,-5.63,7.44,-0.14,19.62
8537,0.1409,-0.2468,0.8635,-6.0,7.63,-0.08,19.59
8547,0.1376,-0.252,0.8606,-6.52,7.56,-0.03,19.6
8557,0.1332,-0.2455,0.8401,-6.61,7.89,0.03,19.63
8567,0.1346,-0.2444,0.8411,-6.37,8.14,-0.09,19.62
8577,0.1313,-0.2444,0.8419,-6.06,7.77,0.0,19.61
8587,0.1338,-0.2394,0.8423,-5.59,7.62,0.06,19.62
8597,0.1383,-0.2423,0.8605,-5.28,7.53,-0.06,19.61
8607,0.1372,-0.2462,0.868,-5.24,7.28,-0.06,19.62
8617,0.1436,-0.2428,0.8672,-5.74,7.53,-0.06,19.62
8627,0.144,-0.2469,0.866,-6.15,7.85,-0.03,19.62
8637,0.1405,-0.2463,0.8628,-6.58,8.05,0.03,19.61
8647,0.1359,-0.251,0.8593,-6.75,8.35,0.08,19.61
8657,0.1355,-0.2556,0.8502,-6.78,8.41,0.14,19.61
8667,0.1346,-0.2516,0.8485,-6.26,8.11,0.0,19.62
8677,0.136,-0.2573,0.8569,-5.68,7.73,-0.06,19.62
8687,0.1335,-0.2559,0.8613,-5.59,7.39,-0.11,19.62
8697,0.1357,-0.2509,0.8655,-5.4,7.33,-0.09,19.6
8707,0.1377,-0.25,0.8727,-5.37,7.3,-0.08,19.61
8717,0.1454,-0.2482,0.8765,-5.5,7.45,-0.06,19.63
8727,0.1431,-0.2455,0.8787,-5.77,7.73,0.0,19.62
8737,0.1409,-0.2385,0.879,-6.02,7.83,-0.06,19.63
8747,0.1398,-0.2397,0.8789,-6.27,7.74,0.0,19.61
8757,0.1377,-0.2416,0.8652,-6.69,7.74,-0.12,19.61
8767,0.1396,-0.2443,0.8534,-6.79,7.73,-0.06,19.62
8777,0.1412,-0.2502,0.8477,-6.6,7.74,-0.03,19.62
8787,0.1388,-0.2522,0.8459,-6.31,7.97,-0.03,19.6
8797,0.1405,-0.2506,0.8481,-5.79,7.95,0.0,19.63
8807,0.1388,-0.2505,0.8579,-5.5,7.83,0.09,19.62
8817,0.1356,-0.2474,0.8632,-5.48,7.59,0.0,19.62
8827,0.1348,-0.2457,0.8621,-5.85,7.42,-0.14,19.63
8837,0.1357,-0.246,0.8595,-6.26,7.51,-0.06,19.62
8847,0.1389,-0.2488,0.8569,-6.44,7.54,-0.09,19.63
8857,0.1416,-0.2494,0.8505,-6.47,7.86,-0.05,19.62
8867,0.1415,-0.2472,0.8501,-6.32,8.0,0.03,19.63
8877,0.1398,-0.244,0.8518,-5.85,7.82,0.02,19.61
8887,0.1364,-0.2474,0.8615,-5.44,7.45,-0.11,19.64
8897,0.1375,-0.2428,0.8639,-5.51,7.48,-0.02,19.63
8907,0.1343,-0.2386,0.8618,-5.71,7.53,-0.03,19.63
8917,0.1339,-0.2397,0.8632,-6.02,7.69,-0.05,19.62
8927,0.135,-0.2401,0.8674,-6.34,7.82,-0.05,19.64
8937,0.1343,-0.2461,0.8582,-6.49,7.98,-0.11,19.64
8947,0.1333,-0.2478,0.8577,-6.5,8.02,-0.02,19.62
8957,0.1353,-0.2487,0.8621,-6.12,7.86,-0.02,19.64
8967,0.1387,-0.2513,0.8578,-5.86,7.76,-0.09,19.64
8977,0.135,-0.2513,0.8613,-5.79,7.68,-0.02,19.63
8987,0.1383,-0.2491,0.8645,-5.77,7.65,0.0,19.62
8997,0.1406,-0.2493,0.8656,-6.0,7.62,-0.08,19.64
9007,0.1417,-0.2472,0.8657,-6.06,7.48,-0.09,19.65
9017,0.1415,-0.2478,0.8646,-5.98,7.62,-0.12,19.63
9027,0.141,-0.2466,0.8601,-6.0,7.65,-0.15,19.64
9037,0.1396,-0.2458,0.8629,-6.0,7.86,-0.11,19.62
9047,0.1379,-0.2437,0.8619,-6.0,7.86,-0.03,19.64
9057,0.1372,-0.241,0.8621,-6.0,7.71,-0.09,19.63
9067,0.1351,-0.2443,0.8649,-6.09,7.68,-0.17,19.63
9077,0.1362,-0.2399,0.8534,-6.12,7.65,-0.06,19.62
9087,0.1368,-0.2397,0.8577,-6.14,7.71,-0.11,19.62
9097,0.1396,-0.2424,0.8571,-6.0,7.71,-0.05,19.63
9107,0.1376,-0.2404,0.858,-5.98,7.68,-0.05,19.63
9117,0.1421,-0.2438,0.8579,-5.95,7.8,-0.09,19.63
9127,0.1401,-0.2437,0.8624,-6.11,7.86,-0.05,19.64
9137,0.1381,-0.2494,0.86,-6.43,7.86,-0.08,19.63
9147,0.1404,-0.251,0.8549,-6.63,7.92,0.0,19.64
9157,0.1377,-0.2502,0.8501,-6.47,8.06,-0.03,19.61
9167,0.1353,-0.2561,0.8477,-6.29,8.02,0.0,19.64
9177,0.1381,-0.2506,0.85,-5.91,8.0,0.02,19.65
9187,0.1338,-0.2513,0.8586,-5.59,7.63,-0.03,19.64
9197,0.1355,-0.249,0.8632,-5.45,7.39,-0.09,19.62
9207,0.1356,-0.2467,0.8649,-5.6,7.36,-0.11,19.64
9217,0.1381,-0.2458,0.8704,-5.82,7.45,-0.09,19.64
9459,0.1364,-0.2485,0.8518,-6.6,7.8,-0.11,19.64
9469,0.1375,-0.2495,0.8472,-6.34,7.97,-0.05,19.65
9479,0.1329,-0.2499,0.8479,-6.05,8.11,-0.03,19.66
9489,0.1379,-0.2509,0.8569,-5.48,7.88,0.05,19.64
9499,0.1376,-0.2469,0.8593,-5.37,7.62,-0.05,19.65
9509,0.1339,-0.2458,0.8657,-5.37,7.28,-0.05,19.64
9519,0.1401,-0.241,0.873,-5.76,7.34,-0.14,19.63
9529,0.1396,-0.24,0.8772,-6.06,7.53,-0.02,19.64
9539,0.1436,-0.2421,0.8684,-6.41,7.82,-0.15,19.64
9549,0.1418,-0.2456,0.8629,-6.66,8.03,-0.03,19.65
9559,0.1375,-0.2441,0.8579,-6.64,8.09,-0.06,19.64
9569,0.1384,-0.2476,0.8541,-6.38,7.92,0.0,19.64
9579,0.1416,-0.2485,0.8512,-5.97,7.74,-0.03,19.65
9589,0.1412,-0.2474,0.8591,-5.48,7.66,-0.05,19.66
9599,0.1393,-0.2463,0.8639,-5.48,7.62,-0.03,19.62
9609,0.1365,-0.2412,0.8698,-5.8,7.66,-0.06,19.64
9619,0.1383,-0.2446,0.8711,-6.09,7.59,-0.09,19.63
9629,0.1382,-0.2423,0.8656,-6.52,7.62,-0.11,19.64
9639,0.1385,-0.2469,0.8589,-6.52,7.66,-0.11,19.66
9649,0.1403,-0.2482,0.854,-6.4,7.85,-0.05,19.64
9659,0.1426,-0.2474,0.8542,-6.12,7.92,0.0,19.62
9669,0.1421,-0.248,0.8575,-5.82,7.91,0.06,19.62
9679,0.1378,-0.2467,0.8612,-5.71,7.6,-0.03,19.65
9689,0.1364,-0.2451,0.8643,-5.85,7.27,-0.09,19.65
9699,0.1379,-0.2411,0.8595,-6.11,7.3,-0.11,19.67
9709,0.1388,-0.2426,0.8545,-6.15,7.6,-0.06,19.63
9719,0.14,-0.2455,0.8567,-6.23,7.85,0.03,19.64
9729,0.1365,-0.2449,0.858,-6.24,8.09,0.06,19.66
9739,0.1326,-0.2505,0.8573,-6.09,8.03,-0.02,19.65
9749,0.137,-0.2479,0.8534,-6.03,7.71,-0.09,19.65
9759,0.1396,-0.2498,0.8557,-5.98,7.45,-0.05,19.64
9769,0.1388,-0.2468,0.8566,-6.02,7.54,-0.11,19.6
9779,0.1365,-0.2495,0.8566,-5.97,7.68,-0.05,19.62
9789,0.1399,-0.2476,0.8552,-6.11,7.89,-0.06,19.64
9799,0.136,-0.2433,0.8588,-5.92,7.74,0.03,19.63
9809,0.1377,-0.2485,0.8612,-5.89,7.59,0.03,19.64
9819,0.1392,-0.2478,0.8604,-5.88,7.56,-0.12,19.63
9829,0.1348,-0.246,0.865,-5.97,7.73,-0.08,19.65
9839,0.1375,-0.2469,0.8616,-6.08,7.79,-0.02,19.64
9849,0.141,-0.2463,0.866,-6.15,7.91,-0.08,19.65
9859,0.1399,-0.2437,0.8636,-6.21,7.97,-0.08,19.63
9869,0.1421,-0.2467,0.8568,-6.03,7.79,-0.03,19.64
9879,0.1367,-0.2498,0.8597,-5.98,7.59,-0.12,19.66
9889,0.1393,-0.2491,0.861,-6.02,7.59,-0.05,19.62
9899,0.1448,-0.2489,0.8607,-5.89,7.65,-0.08,19.63
9909,0.1372,-0.249,0.8636,-5.94,7.71,0.03,19.65
9919,0.141,-0.245,0.8638,-6.05,7.69,-0.03,19.64
9929,0.1355,-0.2445,0.8562,-6.18,7.77,-0.08,19.64
9939,0.1384,-0.246,0.8566,-6.2,7.8,-0.08,19.65
9949,0.1394,-0.2485,0.8564,-6.17,7.77,-0.05,19.66
9959,0.136,-0.2487,0.8578,-6.0,7.69,-0.03,19.65
9969,0.1378,-0.2466,0.8595,-5.82,7.73,-0.06,19.65
9979,0.1368,-0.2471,0.8633,-5.85,7.68,-0.08,19.63
9989,0.1362,-0.2451,0.8589,-5.92,7.66,-0.09,19.66
9999,0.1378,-0.2434,0.8602,-6.09,7.63,-0.06,19.67
10009,0.136,-0.2418,0.8605,-6.08,7.63,-0.03,19.64
10019,0.1395,-0.2416,0.8593,-6.09,7.76,-0.03,19.65
10029,0.1382,-0.2395,0.8575,-6.03,7.83,-0.03,19.67
10039,0.1414,-0.2433,0.8584,-5.89,7.76,0.0,19.68
10049,0.1378,-0.2445,0.8617,-6.03,7.73,0.0,19.67
10059,0.1367,-0.2454,0.8569,-6.17,7.76,-0.08,19.64
10069,0.137,-0.2488,0.8611,-6.2,7.77,-0.08,19.65
10079,0.1388,-0.2469,0.8552,-6.23,7.76,-0.08,19.66
10089,0.1366,-0.2462,0.859,-6.11,7.73,0.0,19.64
10099,0.1355,-0.2477,0.8597,-5.98,7.77,-0.06,19.63
10109,0.1356,-0.248,0.8617,-5.82,7.68,-0.02,19.67
10119,0.1366,-0.2432,0.8597,-5.89,7.71,-0.02,19.64
10129,0.1349,-0.2454,0.8634,-5.94,7.56,-0.09,19.66
10139,0.1417,-0.246,0.8651,-6.03,7.56,-0.09,19.66
10149,0.139,-0.2439,0.8612,-6.2,7.74,-0.03,19.66
10159,0.1392,-0.2457,0.8595,-6.2,7.88,0.02,19.65
10169,0.1422,-0.2487,0.8611,-6.09,7.74,-0.03,19.63
10179,0.1403,-0.2506,0.8619,-5.94,7.62,-0.08,19.66
10189,0.1361,-0.2498,0.8663,-5.86,7.68,-0.06,19.67
10199,0.1384,-0.2493,0.8641,-5.94,7.63,-0.08,19.69
10209,0.1395,-0.2462,0.8633,-6.0,7.69,-0.08,19.67
10219,0.1377,-0.2458,0.8601,-6.17,7.79,-0.12,19.65
10229,0.1372,-0.2476,0.8617,-6.21,7.89,-0.02,19.67
10239,0.1381,-0.2499,0.8601,-6.23,7.95,0.03,19.67
10249,0.1359,-0.2489,0.8583,-6.2,7.83,-0.06,19.64
10259,0.1404,-0.2509,0.8612,-5.92,7.62,-0.14,19.65
10269,0.1406,-0.25,0.8597,-5.92,7.57,-0.11,19.64
10279,0.1407,-0.2444,0.8608,-5.89,7.66,-0.02,19.66
10289,0.1389,-0.2473,0.8595,-5.88,7.76,-0.05,19.66
10299,0.1376,-0.2487,0.8617,-5.97,7.83,0.03,19.65
10309,0.1394,-0.2469,0.8584,-6.09,7.79,0.02,19.67
10319,0.1357,-0.2455,0.8605,-6.15,7.85,-0.02,19.65
10329,0.1387,-0.2466,0.8562,-6.14,7.77,-0.09,19.69
10339,0.1392,-0.2467,0.8538,-6.12,7.73,-0.02,19.67
10349,0.1368,-0.2465,0.8514,-6.09,7.76,-0.02,19.65
10359,0.1379,-0.2484,0.8586,-5.97,7.83,-0.05,19.68
10369,0.1361,-0.2495,0.8612,-5.92,7.69,0.0,19.67
10379,0.1365,-0.2467,0.8611,-5.89,7.74,-0.05,19.68
10389,0.1353,-0.2466,0.864,-5.92,7.69,-0.08,19.66
10399,0.1382,-0.2467,0.8655,-5.92,7.6,-0.03,19.67
10409,0.1365,-0.248,0.863,-6.14,7.57,-0.03,19.69
10419,0.1367,-0.2489,0.8602,-6.08,7.62,-0.09,19.66
10429,0.1368,-0.2456,0.8597,-6.2,7.85,-0.05,19.66
10439,0.1343,-0.2454,0.8597,-6.12,8.02,0.0,19.67
10449,0.1394,-0.2478,0.8583,-6.09,7.85,-0.02,19.66
10459,0.1416,-0.2452,0.8601,-5.92,7.76,-0.09,19.68
10469,0.1431,-0.246,0.8579,-5.74,7.51,-0.05,19.67
10479,0.139,-0.2468,0.8689,-5.88,7.57,-0.12,19.66
10489,0.135,-0.2472,0.8652,-6.14,7.63,-0.15,19.68
10499,0.1383,-0.2483,0.8585,-6.15,7.68,-0.06,19.66
10509,0.1401,-0.2467,0.8562,-6.24,7.8,-0.06,19.65
10519,0.1403,-0.2467,0.8582,-6.08,7.79,-0.03,19.68
10529,0.1367,-0.2455,0.8561,-6.03,7.85,-0.12,19.67
10539,0.1357,-0.2415,0.8572,-5.91,7.73,-0.06,19.68
10549,0.1338,-0.2458,0.8593,-5.97,7.62,-0.12,19.67
10559,0.1398,-0.2456,0.8541,-6.11,7.48,-0.14,19.68
10569,0.1401,-0.246,0.855,-6.0,7.48,-0.08,19.68
10579,0.1415,-0.2457,0.8584,-6.0,7.71,-0.09,19.65
10589,0.141,-0.2469,0.8607,-5.98,7.73,-0.03,19.68
10599,0.1354,-0.2427,0.8643,-5.91,7.65,-0.09,19.69
10609,0.1372,-0.2454,0.8608,-5.92,7.47,-0.11,19.67
10619,0.1348,-0.2446,0.8622,-6.02,7.31,-0.12,19.67
10629,0.1399,-0.2446,0.8573,-6.24,7.45,-0.17,19.67
10639,0.1339,-0.2449,0.854,-6.31,7.76,-0.14,19.64
10649,0.1389,-0.246,0.8531,-6.27,8.05,-0.09,19.67
10659,0.1332,-0.2476,0.8538,-6.03,8.09,-0.03,19.67
10669,0.1357,-0.2433,0.861,-5.79,7.92,0.0,19.67
10679,0.1395,-0.2435,0.8687,-5.8,7.76,-0.03,19.67
10689,0.1392,-0.2467,0.8658,-5.95,7.66,-0.12,19.68
10699,0.1381,-0.2456,0.8647,-6.26,7.63,-0.08,19.69
10709,0.1377,-0.2505,0.8599,-6.37,7.62,-0.06,19.66
10719,0.14,-0.2515,0.8573,-6.44,7.77,0.03,19.68
10729,0.141,-0.2551,0.8569,-6.31,8.0,-0.03,19.67
10739,0.137,-0.2518,0.8551,-6.05,7.95,0.02,19.66
10749,0.1371,-0.2533,0.8558,-5.82,7.82,0.03,19.68
10759,0.1388,-0.2482,0.865,-5.73,7.65,-0.08,19.65
10769,0.1378,-0.2469,0.8654,-5.8,7.6,-0.08,19.65
10779,0.1377,-0.2491,0.8645,-5.97,7.62,-0.06,19.67
10789,0.1365,-0.2467,0.8599,-6.12,7.73,-0.03,19.65
10799,0.1357,-0.2507,0.8593,-6.17,7.82,-0.06,19.67
10809,0.1375,-0.2476,0.8579,-6.2,7.82,-0.12,19.67
10819,0.1366,-0.2433,0.8588,-5.94,7.71,-0.08,19.67
10829,0.1383,-0.2451,0.8585,-5.8,7.65,-0.06,19.68
10839,0.1389,-0.2426,0.8617,-5.79,7.53,-0.11,19.67
10849,0.1403,-0.2434,0.8619,-5.94,7.74,-0.05,19.67
10859,0.1412,-0.2446,0.8624,-6.18,7.82,-0.06,19.68
10869,0.137,-0.2435,0.8613,-6.34,7.92,-0.05,19.65
10879,0.1365,-0.2479,0.8563,-6.46,7.85,-0.06,19.69
10889,0.135,-0.251,0.8545,-6.35,7.76,-0.06,19.67
10899,0.1383,-0.2505,0.8503,-6.09,7.63,-0.09,19.67
10909,0.1384,-0.2513,0.854,-5.74,7.62,0.0,19.67
10919,0.1395,-0.2482,0.8607,-5.5,7.66,-0.05,19.68
10929,0.1281,-0.2435,0.8712,-5.47,7.69,0.03,19.68
10939,0.1211,-0.2401,0.8804,-5.86,8.21,-0.11,19.67
10949,0.1335,-0.2445,0.8684,-6.32,7.76,-0.14,19.67
10959,0.1458,-0.2407,0.8529,-6.56,7.31,-0.23,19.67
10969,0.1481,-0.2483,0.8458,-6.47,7.33,-0.11,19.68
10979,0.1421,-0.2463,0.8495,-6.27,7.86,0.02,19.65
10989,0.1395,-0.2439,0.8546,-5.8,8.12,0.17,19.66
10999,0.1322,-0.2456,0.8623,-5.54,8.2,0.03,19.69
11009,0.1348,-0.2432,0.8667,-5.69,7.68,-0.08,19.68
11019,0.1359,-0.2418,0.8708,-5.89,7.36,-0.06,19.67
11029,0.1401,-0.2489,0.8702,-6.24,7.33,-0.05,19.66
11039,0.1371,-0.2457,0.8674,-6.47,7.82,0.02,19.68
11049,0.141,-0.2491,0.8633,-6.47,8.24,-0.08,19.68
11059,0.1383,-0.2528,0.859,-6.34,8.32,0.06,19.68
11069,0.1361,-0.2516,0.8594,-5.94,7.94,0.06,19.67
11079,0.1362,-0.2494,0.8629,-5.86,7.51,-0.11,19.7
11089,0.1345,-0.2477,0.8591,-5.92,7.21,-0.18,19.68
11099,0.1404,-0.2455,0.8583,-5.8,7.25,-0.17,19.69
11109,0.1439,-0.2424,0.8596,-5.86,7.63,-0.09,19.69
11119,0.1407,-0.2458,0.8625,-5.83,7.88,0.08,19.67
11129,0.1415,-0.2468,0.869,-5.8,7.94,0.08,19.68
11139,0.1351,-0.2474,0.8718,-6.02,7.68,0.0,19.66
11149,0.1379,-0.2468,0.8666,-6.29,7.51,-0.15,19.67
11159,0.1409,-0.2451,0.8602,-6.41,7.45,-0.18,19.67
11169,0.142,-0.2445,0.8534,-6.43,7.57,-0.14,19.67
11179,0.1414,-0.2489,0.8483,-6.35,7.94,-0.12,19.69
11189,0.1368,-0.2517,0.8503,-6.0,8.05,0.03,19.69
11199,0.1337,-0.2457,0.8574,-5.68,7.73,0.03,19.69
11209,0.1345,-0.2468,0.8608,-5.5,7.42,-0.08,19.71
11219,0.1385,-0.2465,0.8656,-5.69,7.34,-0.08,19.72
11229,0.1383,-0.2467,0.8628,-5.98,7.54,-0.14,19.69
11239,0.1388,-0.2473,0.8643,-6.27,7.79,-0.03,19.7
11249,0.1379,-0.2434,0.8586,-6.41,8.15,0.02,19.69
11259,0.136,-0.2491,0.8542,-6.4,8.17,-0.03,19.7
11269,0.1366,-0.2488,0.8527,-6.11,7.82,-0.06,19.69
11279,0.1362,-0.2487,0.8591,-5.88,7.59,-0.05,19.69
11289,0.139,-0.2499,0.8583,-5.74,7.56,-0.17,19.68
11299,0.1404,-0.248,0.8615,-5.8,7.59,-0.05,19.69
11309,0.1396,-0.248,0.8617,-5.91,7.79,0.02,19.7
11319,0.1401,-0.249,0.8628,-6.06,7.82,0.0,19.67
11329,0.1382,-0.2454,0.86,-6.15,7.89,0.05,19.67
11339,0.1355,-0.2421,0.864,-6.24,7.8,-0.03,19.68
11349,0.1379,-0.2454,0.8611,-6.11,7.73,-0.03,19.7
11359,0.1405,-0.2472,0.8571,-6.08,7.66,-0.09,19.68
11369,0.1395,-0.249,0.8575,-5.94,7.65,-0.02,19.7
11379,0.1399,-0.2483,0.8573,-6.02,7.73,-0.12,19.67
11389,0.1399,-0.2474,0.8575,-6.0,7.79,-0.09,19.7
11399,0.1417,-0.2484,0.8586,-5.97,7.77,-0.03,19.71
11409,0.139,-0.2456,0.8624,-5.85,7.79,-0.05,19.69
11419,0.1364,-0.245,0.8628,-5.82,7.73,-0.02,19.7
11429,0.1355,-0.2457,0.8673,-5.85,7.63,-0.02,19.72
11439,0.1383,-0.2419,0.8643,-6.05,7.57,-0.14,19.71
11449,0.1423,-0.2449,0.8597,-6.09,7.63,-0.15,19.71
11459,0.1377,-0.2438,0.8615,-6.31,7.76,-0.09,19.72
11469,0.1364,-0.2435,0.859,-6.32,7.88,-0.05,19.69
11479,0.1378,-0.2474,0.8528,-6.2,7.92,-0.08,19.7
11489,0.1356,-0.2465,0.8553,-6.0,7.76,-0.02,19.71
11499,0.1356,-0.245,0.863,-5.8,7.65,-0.05,19.72
11509,0.1366,-0.244,0.8666,-5.66,7.65,-0.11,19.7
11519,0.1387,-0.243,0.8669,-5.83,7.53,-0.03,19.71
11529,0.1406,-0.2416,0.8679,-6.0,7.53,-0.08,19.71
11539,0.1409,-0.2443,0.8641,-6.46,7.68,-0.11,19.72
11549,0.1405,-0.2463,0.8596,-6.61,7.8,-0.09,19.68
11559,0.1381,-0.2513,0.8518,-6.44,7.98,0.02,19.69
11569,0.1364,-0.25,0.8572,-6.15,7.98,0.0,19.7
11579,0.1356,-0.2482,0.8588,-5.88,7.82,-0.03,19.68
11589,0.1359,-0.2472,0.8629,-5.74,7.69,0.06,19.71
11599,0.1342,-0.2467,0.861,-5.77,7.37,-0.08,19.7
11609,0.1392,-0.2468,0.8628,-6.03,7.31,-0.15,19.72
11619,0.1425,-0.2421,0.8618,-6.08,7.51,-0.15,19.68
11629,0.1409,-0.246,0.8562,-6.27,7.86,-0.02,19.71
11639,0.1398,-0.2452,0.8556,-6.23,8.11,0.02,19.69
11649,0.135,-0.2491,0.8604,-6.17,8.23,0.09,19.7
11659,0.1382,-0.2491,0.8573,-6.0,7.91,-0.06,19.68
11669,0.1394,-0.2478,0.8613,-5.97,7.65,-0.11,19.69
11679,0.1393,-0.2473,0.8616,-5.94,7.66,-0.02,19.69
11689,0.1395,-0.2469,0.8625,-5.92,7.66,-0.05,19.71
11699,0.1403,-0.2449,0.864,-6.0,7.69,-0.06,19.7
11709,0.1373,-0.2455,0.8589,-6.14,7.71,0.0,19.69
11719,0.1411,-0.2454,0.855,-6.14,7.68,-0.09,19.71
11729,0.1412,-0.2484,0.8539,-6.09,7.65,-0.05,19.72
11739,0.135,-0.2479,0.8542,-6.15,7.74,-0.08,19.7
11749,0.132,-0.2487,0.8574,-6.0,7.89,0.02,19.71
11759,0.1401,-0.2476,0.853,-5.95,7.86,-0.08,19.71
11769,0.141,-0.2465,0.8544,-5.94,7.68,-0.09,19.7
11779,0.1384,-0.2504,0.8551,-5.86,7.68,0.03,19.71
11789,0.1377,-0.2488,0.8634,-5.82,7.62,-0.08,19.7
11799,0.1394,-0.2493,0.8605,-5.98,7.57,-0.06,19.72
11809,0.1398,-0.2487,0.8606,-6.03,7.62,-0.09,19.69
11819,0.1362,-0.244,0.8605,-6.09,7.74,-0.03,19.7
11829,0.1384,-0.2445,0.8616,-6.21,7.83,-0.08,19.69
11839,0.1371,-0.246,0.8574,-6.09,7.86,0.0,19.68
11849,0.1337,-0.2474,0.855,-6.03,7.74,-0.09,19.7
11859,0.1376,-0.248,0.8579,-5.92,7.6,0.03,19.7
11869,0.1407,-0.2454,0.8571,-5.88,7.6,-0.06,19.71
11879,0.1383,-0.2469,0.8571,-5.92,7.63,-0.02,19.71
11889,0.1364,-0.2439,0.8568,-6.06,7.73,-0.06,19.71
11899,0.1372,-0.2467,0.8602,-6.11,7.8,0.0,19.7
11909,0.1357,-0.2487,0.8595,-6.09,7.76,-0.02,19.67
11919,0.1367,-0.2463,0.8602,-6.03,7.77,-0.03,19.71
11929,0.1355,-0.2456,0.8564,-6.06,7.68,-0.05,19.71
11939,0.1411,-0.2493,0.8536,-6.02,7.47,-0.05,19.71
11949,0.1389,-0.245,0.8557,-5.98,7.62,-0.02,19.72
11959,0.1375,-0.2424,0.8564,-5.95,7.82,-0.09,19.72
11969,0.1399,-0.2448,0.8606,-6.0,7.88,-0.05,19.7
11979,0.1375,-0.2454,0.8622,-5.94,7.85,0.11,19.7
11989,0.1368,-0.2458,0.8638,-6.02,7.79,-0.03,19.7
11999,0.1348,-0.243,0.863,-6.02,7.8,-0.09,19.71
12009,0.136,-0.2456,0.8628,-5.91,7.82,-0.05,19.72
12019,0.1368,-0.244,0.8676,-6.02,7.74,-0.06,19.72
12029,0.1368,-0.2468,0.8683,-5.89,7.71,0.05,19.73
12039,0.1393,-0.2484,0.8706,-6.15,7.73,-0.06,19.75
12049,0.1367,-0.2463,0.8645,-6.29,7.77,-0.09,19.72
12059,0.1394,-0.2468,0.8597,-6.27,7.74,-0.08,19.72
12069,0.1367,-0.2473,0.86,-6.29,7.76,-0.12,19.72
12079,0.1367,-0.2463,0.8556,-6.14,7.83,-0.11,19.73
12089,0.1384,-0.2446,0.8599,-5.92,7.66,-0.05,19.71
12099,0.1376,-0.245,0.8611,-5.79,7.53,-0.03,19.73
12109,0.1414,-0.2469,0.8615,-5.89,7.5,-0.08,19.73
12119,0.1407,-0.246,0.8594,-6.14,7.48,-0.08,19.73
12129,0.1376,-0.2455,0.8564,-6.21,7.6,-0.14,19.73
12139,0.1396,-0.2449,0.8529,-6.37,7.76,-0.03,19.71
12149,0.1399,-0.2461,0.85,-6.31,7.83,-0.08,19.73
12159,0.1392,-0.2485,0.8496,-6.08,7.83,-0.06,19.74
12169,0.1365,-0.2461,0.8483,-5.91,7.68,-0.05,19.72
12179,0.136,-0.2483,0.8472,-5.92,7.6,-0.06,19.74
12189,0.139,-0.2452,0.8499,-5.88,7.44,-0.14,19.73
12200,0.1381,-0.2468,0.8523,-5.86,7.51,-0.15,19.71
12210,0.1395,-0.2485,0.8563,-6.0,7.77,-0.02,19.71
12220,0.1381,-0.2463,0.8563,-5.98,7.92,0.03,19.74
12230,0.1389,-0.2469,0.8594,-6.06,7.91,-0.09,19.73
12241,0.1348,-0.2487,0.8525,-6.09,7.79,0.0,19.7
12251,0.1356,-0.2482,0.8484,-6.09,7.79,-0.03,19.73
12261,0.132,-0.2479,0.8506,-5.85,7.66,-0.08,19.72
12271,0.1345,-0.2462,0.8557,-5.57,7.57,0.02,19.73
12281,0.1379,-0.2462,0.8599,-5.5,7.69,-0.09,19.73
12291,0.1405,-0.2465,0.8698,-5.39,7.88,0.0,19.7
12303,0.1365,-0.2433,0.8789,-5.62,7.98,0.03,19.72
12313,0.1361,-0.2499,0.8805,-5.98,8.03,-0.02,19.72
12323,0.1415,-0.2527,0.8729,-6.35,7.76,-0.02,19.73
12333,0.1438,-0.2528,0.8737,-6.5,7.69,-0.23,19.73
12343,0.1432,-0.2582,0.8666,-6.44,7.83,-0.05,19.72
12353,0.1449,-0.2617,0.8621,-6.15,8.09,0.08,19.72
12363,0.1395,-0.2571,0.8667,-5.68,8.05,0.03,19.73
12373,0.1345,-0.2507,0.8707,-5.25,7.69,0.09,19.72
12383,0.1375,-0.2473,0.8741,-5.31,7.36,-0.08,19.71
12393,0.1346,-0.2438,0.873,-5.66,7.27,-0.11,19.73
12403,0.1384,-0.2393,0.8682,-6.03,7.42,-0.08,19.72
12413,0.1343,-0.24,0.8588,-6.49,7.74,-0.11,19.73
12423,0.1376,-0.2397,0.8516,-6.56,7.98,-0.09,19.72
12433,0.1332,-0.2406,0.8475,-6.37,7.83,-0.12,19.71
12443,0.1377,-0.2445,0.8422,-5.97,7.65,-0.05,19.7
12453,0.1367,-0.2427,0.8462,-5.65,7.37,-0.08,19.74
12463,0.139,-0.2382,0.8495,-5.56,7.34,-0.11,19.72
12473,0.1412,-0.2367,0.8512,-5.66,7.54,-0.03,19.74
12483,0.1428,-0.2377,0.8533,-5.97,7.85,0.06,19.72
12493,0.139,-0.2389,0.8591,-6.34,7.98,0.03,19.73
12503,0.139,-0.2432,0.8533,-6.47,8.02,-0.09,19.72
12513,0.1366,-0.2463,0.8466,-6.52,8.05,-0.06,19.72
12523,0.1323,-0.2515,0.8496,-6.41,7.98,-0.03,19.74
12533,0.1328,-0.2513,0.8484,-6.02,7.82,-0.08,19.7
12543,0.134,-0.251,0.851,-5.66,7.77,0.0,19.72
12553,0.1357,-0.2473,0.8627,-5.62,7.63,-0.02,19.72
12563,0.1346,-0.2446,0.8643,-5.6,7.6,-0.05,19.74
12573,0.1339,-0.2423,0.8687,-5.77,7.53,-0.09,19.72
12583,0.1335,-0.2422,0.8715,-5.97,7.54,-0.12,19.74
12593,0.1368,-0.2428,0.8696,-5.98,7.69,-0.06,19.74
12603,0.1382,-0.2444,0.8677,-6.11,7.83,-0.02,19.73
12613,0.1378,-0.2489,0.8707,-6.0,7.88,-0.03,19.73
12623,0.1406,-0.2496,0.8707,-5.91,7.88,-0.05,19.73
12633,0.1379,-0.2451,0.8695,-5.91,7.73,-0.05,19.72
12643,0.1377,-0.2472,0.8722,-5.88,7.57,-0.06,19.74
12653,0.1346,-0.2443,0.8759,-6.03,7.59,-0.09,19.72
12663,0.1381,-0.2454,0.8706,-6.11,7.59,-0.06,19.72
12673,0.1411,-0.2446,0.8644,-6.23,7.69,-0.12,19.73
12683,0.1372,-0.2498,0.8619,-6.32,7.79,-0.06,19.72
12693,0.1389,-0.2512,0.8561,-6.27,7.71,-0.08,19.74
12703,0.1362,-0.2466,0.8555,-6.11,7.63,-0.09,19.72
12713,0.1417,-0.2448,0.8534,-5.97,7.77,-0.03,19.72
12723,0.1395,-0.2421,0.8555,-5.77,7.57,-0.09,19.72
12733,0.1338,-0.2432,0.8601,-5.76,7.82,-0.14,19.72
12743,0.1393,-0.2428,0.8604,-5.91,7.45,-0.08,19.74
12753,0.1415,-0.2423,0.8568,-6.11,7.34,-0.14,19.71
12763,0.137,-0.2404,0.8517,-6.29,7.63,-0.12,19.73
12773,0.1433,-0.2401,0.8481,-6.44,7.89,0.05,19.75
12783,0.1423,-0.2435,0.8516,-6.35,8.23,-0.03,19.73
12793,0.1357,-0.2426,0.8528,-6.15,8.06,0.09,19.74
12803,0.1371,-0.2434,0.8538,-6.06,7.89,-0.03,19.74
12813,0.1361,-0.2438,0.8549,-5.98,7.85,-0.12,19.72
12823,0.1348,-0.2424,0.8621,-6.12,7.77,-0.03,19.74
12833,0.1373,-0.2483,0.8634,-6.26,7.92,-0.12,19.73
12843,0.1378,-0.249,0.8634,-6.32,8.0,-0.08,19.74
12853,0.1362,-0.2537,0.8628,-6.34,7.82,0.03,19.73
12863,0.139,-0.2521,0.8604,-6.18,7.73,-0.03,19.74
12873,0.1379,-0.2533,0.8611,-5.95,7.77,-0.08,19.72
12883,0.1376,-0.2548,0.8667,-5.85,7.59,-0.06,19.75
12893,0.1378,-0.2506,0.8684,-5.69,7.6,-0.08,19.74
12903,0.1357,-0.2461,0.8702,-5.71,7.59,-0.03,19.73
12913,0.1368,-0.2468,0.8716,-5.97,7.53,-0.03,19.74
12923,0.1348,-0.2468,0.8597,-6.2,7.48,-0.09,19.72
12933,0.1388,-0.2468,0.8667,-6.29,7.57,-0.14,19.7
12943,0.1392,-0.2467,0.8605,-6.27,7.69,-0.03,19.72
12953,0.142,-0.248,0.8595,-6.06,7.85,0.0,19.72
12963,0.1389,-0.2482,0.8595,-5.92,7.83,-0.03,19.75
12973,0.1351,-0.2471,0.8636,-5.83,7.5,-0.06,19.73
12983,0.1405,-0.2472,0.8616,-5.98,7.34,-0.17,19.73
12993,0.1381,-0.2441,0.8602,-5.95,7.28,-0.17,19.74
13003,0.1403,-0.246,0.8579,-6.02,7.48,-0.03,19.74
13013,0.1406,-0.2445,0.8495,-6.12,7.76,-0.08,19.71
13023,0.1388,-0.2429,0.8488,-6.12,7.79,-0.03,19.73
13033,0.139,-0.2428,0.8511,-6.0,7.71,0.05,19.75
13043,0.1388,-0.2426,0.8522,-6.03,7.65,0.0,19.74
13053,0.1393,-0.2434,0.8477,-6.06,7.73,-0.05,19.76
13063,0.1395,-0.2421,0.8512,-6.18,7.82,0.02,19.75
13073,0.1417,-0.2416,0.8539,-6.21,7.95,-0.05,19.74
13083,0.137,-0.2468,0.8571,-6.11,8.03,0.02,19.73
13093,0.1376,-0.2438,0.858,-6.0,7.98,-0.02,19.72
13103,0.1385,-0.2434,0.8649,-5.79,7.77,0.0,19.74
13113,0.1345,-0.2469,0.8684,-5.85,7.66,-0.11,19.73
13123,0.1367,-0.2471,0.8674,-6.08,7.62,-0.05,19.73
13133,0.139,-0.2468,0.8625,-6.23,7.76,-0.02,19.73
13143,0.1335,-0.2471,0.8663,-6.21,7.91,-0.05,19.74
13153,0.1373,-0.2483,0.8665,-6.24,8.02,-0.02,19.74
13163,0.1331,-0.2518,0.8691,-6.06,7.86,-0.02,19.72
13173,0.1348,-0.2504,0.8704,-5.89,7.66,-0.06,19.72
13183,0.1381,-0.2502,0.8677,-5.8,7.51,-0.09,19.72
13193,0.1395,-0.2523,0.8666,-5.98,7.42,-0.08,19.73
13203,0.1409,-0.249,0.8673,-6.15,7.53,-0.17,19.75
13213,0.1372,-0.2478,0.869,-6.14,7.74,-0.06,19.73
13223,0.1378,-0.2484,0.8634,-6.21,7.82,-0.03,19.7
13233,0.14,-0.2502,0.8662,-6.14,7.79,-0.05,19.73
13243,0.1372,-0.2468,0.864,-6.06,7.73,-0.08,19.74
13253,0.137,-0.2473,0.86,-5.88,7.53,-0.11,19.73
13263,0.1396,-0.2462,0.8593,-5.92,7.42,-0.11,19.74
13273,0.1368,-0.246,0.8495,-6.06,7.54,-0.11,19.73
13283,0.1379,-0.2439,0.8492,-6.14,7.68,-0.03,19.76
13293,0.1412,-0.2449,0.8525,-6.15,7.77,-0.06,19.75
13303,0.1392,-0.2434,0.8516,-6.14,7.83,-0.12,19.72
13313,0.1382,-0.2437,0.8512,-6.05,7.76,-0.08,19.74
13323,0.1388,-0.2457,0.8534,-5.98,7.66,-0.14,19.73
13333,0.1393,-0.2461,0.8539,-5.94,7.62,-0.09,19.74
13343,0.1392,-0.2449,0.8513,-6.03,7.76,-0.14,19.72
13353,0.1404,-0.2429,0.8544,-6.08,7.85,0.0,19.76
13363,0.1394,-0.2471,0.8519,-6.18,7.97,0.06,19.75
13373,0.1382,-0.2471,0.8508,-6.27,7.95,0.02,19.75
13383,0.1376,-0.2485,0.8539,-6.14,7.85,0.03,19.73
13393,0.1382,-0.2493,0.8545,-5.94,7.8,-0.05,19.75
13403,0.137,-0.2485,0.8579,-5.89,7.69,-0.05,19.75
13413,0.135,-0.2488,0.8605,-5.82,7.63,-0.02,19.72
13423,0.14,-0.2469,0.8616,-5.74,7.71,0.0,19.73
13433,0.1366,-0.2496,0.8655,-5.98,7.71,0.0,19.74
13443,0.1365,-0.2477,0.8647,-5.98,7.71,-0.08,19.73
13453,0.137,-0.2496,0.8638,-6.05,7.65,0.02,19.73
13463,0.1382,-0.2493,0.8704,-5.98,7.68,-0.02,19.74
13473,0.1412,-0.2482,0.8645,-5.97,7.71,-0.03,19.75
13483,0.1389,-0.2463,0.864,-5.95,7.77,-0.05,19.74
13493,0.134,-0.2467,0.8679,-5.92,7.69,-0.05,19.76
13503,0.1356,-0.246,0.869,-6.11,7.66,-0.08,19.74
13513,0.1377,-0.2463,0.8682,-6.08,7.69,-0.11,19.74
13523,0.1396,-0.2468,0.8634,-6.0,7.57,-0.12,19.73
13533,0.1403,-0.246,0.8589,-6.08,7.42,-0.11,19.71
13543,0.1442,-0.2474,0.8566,-6.05,7.59,-0.03,19.72
13553,0.14,-0.2469,0.8561,-5.98,7.74,-0.02,19.76
13563,0.1348,-0.244,0.8599,-6.05,7.97,-0.02,19.74
13573,0.1406,-0.2446,0.8552,-5.92,7.97,-0.06,19.74
13583,0.1429,-0.243,0.8547,-6.0,7.86,0.03,19.73
13593,0.1431,-0.2416,0.8571,-6.03,7.6,-0.11,19.72
13603,0.1387,-0.2428,0.8578,-6.05,7.53,-0.09,19.75
13613,0.137,-0.2454,0.855,-6.18,7.73,-0.08,19.73
13623,0.1415,-0.241,0.8542,-6.26,7.82,-0.02,19.76
13633,0.1384,-0.2456,0.8524,-6.2,7.86,0.03,19.75
13643,0.1373,-0.2458,0.8533,-6.15,7.89,0.12,19.75
13653,0.1324,-0.2477,0.8577,-6.06,7.89,0.09,19.74
13663,0.1344,-0.2461,0.853,-6.0,7.83,-0.05,19.74
13673,0.1416,-0.2457,0.8567,-5.82,7.66,-0.02,19.74
13683,0.1403,-0.246,0.8579,-5.91,7.57,-0.08,19.75
13693,0.1345,-0.2457,0.8628,-5.98,7.77,-0.05,19.74
13703,0.1333,-0.2468,0.8663,-6.05,7.74,-0.11,19.75
13713,0.1371,-0.2502,0.8601,-6.15,7.76,-0.08,19.74
13723,0.1384,-0.2474,0.86,-6.18,7.56,-0.05,19.74
13733,0.1388,-0.248,0.864,-6.05,7.6,-0.08,19.75
13743,0.1365,-0.2498,0.8663,-5.95,7.66,-0.06,19.74
13753,0.1337,-0.2462,0.8639,-5.91,7.83,-0.12,19.74
13763,0.1368,-0.2466,0.863,-5.97,7.63,-0.06,19.74
13773,0.1428,-0.2477,0.8638,-6.0,7.51,-0.02,19.78
13783,0.1375,-0.2463,0.8646,-6.03,7.59,0.0,19.74
13793,0.1345,-0.2461,0.8673,-6.02,7.82,-0.06,19.74
13803,0.1376,-0.2461,0.8679,-6.12,7.95,-0.14,19.74
13813,0.1428,-0.2477,0.8629,-6.08,7.85,-0.06,19.75
13823,0.1454,-0.2477,0.8555,-6.08,7.66,-0.05,19.71
13833,0.1437,-0.249,0.8596,-6.06,7.59,-0.03,19.74
13843,0.1384,-0.244,0.863,-6.03,7.69,-0.02,19.72
13853,0.1422,-0.2448,0.8588,-6.0,7.68,-0.09,19.73
13863,0.1309,-0.2476,0.8649,-6.08,7.91,-0.08,19.76
13873,0.1377,-0.2484,0.8602,-6.18,7.79,-0.11,19.74
13883,0.1401,-0.2468,0.8563,-6.23,7.83,-0.14,19.76
13893,0.1423,-0.2506,0.8536,-6.02,7.62,0.0,19.77
13903,0.1416,-0.2478,0.8546,-5.86,7.62,-0.08,19.76
13913,0.1407,-0.2474,0.8584,-5.82,7.68,0.03,19.76
13923,0.1376,-0.2456,0.8589,-5.71,7.77,-0.11,19.74
13933,0.139,-0.2424,0.86,-5.91,7.65,-0.06,19.74
13943,0.1382,-0.2427,0.8589,-5.97,7.57,-0.05,19.74
13953,0.1372,-0.2434,0.858,-6.18,7.65,0.0,19.76
13963,0.1368,-0.2429,0.8564,-6.31,7.69,-0.05,19.76
13973,0.1351,-0.2446,0.8593,-6.18,7.86,-0.09,19.74
13983,0.1392,-0.2432,0.8582,-6.09,7.85,-0.08,19.76
13993,0.1392,-0.2429,0.8579,-5.97,7.66,0.02,19.74
14003,0.1361,-0.2469,0.8588,-5.89,7.56,-0.03,19.77
14013,0.1376,-0.2435,0.8604,-5.76,7.39,-0.09,19.75
14023,0.1418,-0.2479,0.8627,-5.85,7.37,-0.03,19.75
14033,0.1382,-0.2465,0.8617,-5.97,7.6,-0.06,19.74
14043,0.1399,-0.2471,0.8646,-6.08,7.79,-0.06,19.74
14053,0.1393,-0.2461,0.8634,-6.24,7.91,-0.02,19.76
14063,0.1367,-0.2474,0.8584,-6.27,8.05,0.03,19.75
14073,0.1355,-0.2487,0.8608,-6.24,8.06,-0.05,19.77
14083,0.1372,-0.245,0.8545,-6.02,7.8,-0.08,19.77
14093,0.139,-0.2467,0.8601,-5.74,7.54,-0.06,19.77
14103,0.1359,-0.2444,0.865,-5.65,7.51,-0.12,19.78
14113,0.141,-0.2445,0.8644,-5.74,7.5,-0.11,19.74
14123,0.1398,-0.2443,0.868,-5.97,7.68,-0.08,19.75
14133,0.1407,-0.2441,0.863,-6.21,7.76,-0.03,19.77
14143,0.1382,-0.2452,0.8596,-6.26,7.74,-0.08,19.76
14153,0.1395,-0.2443,0.861,-6.24,7.79,-0.06,19.75
14163,0.1364,-0.2482,0.8616,-6.15,7.89,-0.09,19.77
14173,0.1392,-0.2468,0.8608,-5.95,7.83,-0.05,19.77
14183,0.1409,-0.2452,0.8534,-5.86,7.73,-0.05,19.76
14193,0.1388,-0.246,0.8597,-5.86,7.71,0.03,19.77
14203,0.1368,-0.2444,0.8633,-5.95,7.71,-0.05,19.78
14213,0.1377,-0.2455,0.8615,-6.02,7.62,-0.09,19.77
14223,0.1388,-0.2469,0.8593,-6.2,7.69,-0.08,19.77
14233,0.1384,-0.2483,0.8623,-6.21,7.77,-0.05,19.76
14243,0.1329,-0.2489,0.8575,-6.27,7.82,0.06,19.76
14253,0.1346,-0.2474,0.8611,-6.06,7.82,0.02,19.75
14263,0.1355,-0.2449,0.8594,-5.94,7.73,-0.05,19.76
14273,0.1355,-0.2422,0.8588,-5.92,7.62,-0.02,19.77
14283,0.1359,-0.2434,0.8586,-6.02,7.57,-0.02,19.78
14293,0.1409,-0.2454,0.865,-6.03,7.54,-0.03,19.76
14303,0.1372,-0.2487,0.861,-6.14,7.76,-0.03,19.76
14313,0.1392,-0.2496,0.8615,-6.14,7.88,0.0,19.75
14323,0.1389,-0.2504,0.8619,-6.08,7.86,0.05,19.73
14333,0.139,-0.2472,0.8577,-6.14,7.76,0.02,19.75
14343,0.1401,-0.2478,0.8644,-6.03,7.68,-0.08,19.76
14353,0.1392,-0.2469,0.8623,-6.05,7.6,-0.03,19.76
14363,0.139,-0.2485,0.8608,-6.03,7.6,-0.11,19.76
14373,0.1396,-0.2457,0.8605,-6.08,7.8,-0.02,19.75
14383,0.1411,-0.2482,0.8539,-6.03,7.73,-0.12,19.75
14393,0.1425,-0.2489,0.8568,-5.98,7.73,-0.05,19.75
14403,0.1414,-0.248,0.8584,-5.83,7.66,-0.06,19.74
14413,0.1381,-0.2467,0.8584,-5.83,7.66,-0.05,19.74
14423,0.14,-0.2467,0.8585,-5.82,7.6,-0.08,19.78
14433,0.1403,-0.2457,0.8644,-5.97,7.74,-0.08,19.75
14443,0.1396,-0.2456,0.8625,-6.03,7.73,-0.05,19.78
14453,0.1388,-0.2485,0.8625,-6.12,7.76,-0.11,19.75
14463,0.1417,-0.2444,0.8596,-6.15,7.73,-0.02,19.77
14473,0.1371,-0.2482,0.86,-6.27,7.74,-0.11,19.75
14483,0.1366,-0.2466,0.8564,-6.17,7.68,-0.08,19.77
14493,0.14,-0.2466,0.8542,-6.06,7.73,0.02,19.78
14503,0.1361,-0.2451,0.854,-5.86,7.63,-0.03,19.76
14513,0.1342,-0.2456,0.8571,-5.76,7.74,-0.05,19.76
14523,0.135,-0.2465,0.8644,-5.76,7.66,0.02,19.77
14533,0.137,-0.2439,0.8627,-5.88,7.69,-0.11,19.77
14543,0.14,-0.2467,0.8595,-6.02,7.65,-0.11,19.77
14553,0.1378,-0.2466,0.8588,-6.18,7.63,-0.05,19.76
14563,0.1384,-0.2477,0.8591,-6.21,7.83,-0.05,19.74
14573,0.1401,-0.2496,0.8643,-6.17,7.97,-0.02,19.78
14583,0.1378,-0.2471,0.8569,-6.08,7.92,0.02,19.77
14593,0.1378,-0.2498,0.8615,-5.95,7.71,-0.06,19.76
14603,0.1367,-0.2448,0.8628,-6.0,7.51,-0.09,19.76
14613,0.1378,-0.2468,0.8601,-6.0,7.54,-0.12,19.75
14623,0.1407,-0.2456,0.8597,-6.08,7.56,-0.02,19.76
14633,0.1405,-0.2474,0.8563,-6.02,7.69,-0.11,19.78
14643,0.1395,-0.2438,0.8595,-6.0,7.85,-0.02,19.75
14653,0.1382,-0.244,0.8643,-6.0,7.88,-0.11,19.75
14663,0.1394,-0.2456,0.8628,-6.03,7.68,-0.05,19.76
14673,0.1365,-0.2468,0.8613,-6.12,7.59,-0.05,19.75
14683,0.1412,-0.2479,0.8596,-6.2,7.62,-0.12,19.77
14693,0.1416,-0.2496,0.8573,-6.14,7.68,-0.03,19.77
14703,0.1388,-0.2451,0.8578,-6.11,7.71,-0.03,19.78
14713,0.1372,-0.2435,0.8621,-6.02,7.85,-0.08,19.77
14723,0.1349,-0.2466,0.8608,-5.85,7.82,-0.05,19.78
14733,0.137,-0.2458,0.8594,-5.92,7.62,-0.03,19.76
14743,0.1409,-0.2462,0.8622,-6.03,7.63,-0.09,19.77
14753,0.1393,-0.243,0.856,-6.15,7.63,-0.11,19.77
14763,0.1382,-0.2457,0.8632,-6.15,7.77,-0.05,19.77
14773,0.1364,-0.2469,0.8572,-6.11,7.88,-0.05,19.78
14783,0.1383,-0.2456,0.8552,-6.06,7.79,-0.08,19.76
14793,0.1372,-0.2451,0.8597,-5.98,7.71,-0.09,19.74
14803,0.1373,-0.2443,0.8589,-6.0,7.6,-0.02,19.77
14813,0.1375,-0.2473,0.8553,-6.03,7.65,-0.18,19.77
14823,0.1378,-0.2474,0.8536,-6.15,7.73,-0.08,19.74
14833,0.1373,-0.2462,0.8557,-6.17,7.8,-0.03,19.75
14843,0.1373,-0.2472,0.8508,-6.14,7.77,0.0,19.77
14853,0.1395,-0.2448,0.8591,-5.94,7.82,-0.06,19.76
14863,0.1376,-0.2468,0.8571,-5.74,7.71,-0.03,19.77
14873,0.1385,-0.2491,0.8608,-5.77,7.65,-0.08,19.75
14883,0.1385,-0.2444,0.8667,-5.97,7.66,-0.02,19.77
14893,0.1385,-0.2476,0.8607,-6.03,7.63,-0.08,19.75
14903,0.1403,-0.2471,0.8639,-6.24,7.68,0.0,19.76
14913,0.1426,-0.2483,0.8585,-6.35,7.76,-0.03,19.77
14923,0.1409,-0.2474,0.8583,-6.18,7.86,-0.03,19.78
14933,0.1389,-0.2445,0.8573,-5.97,7.85,0.02,19.78
14943,0.1401,-0.2476,0.8616,-5.82,7.69,-0.05,19.76
14953,0.14,-0.2456,0.865,-5.74,7.6,-0.14,19.79
14963,0.1398,-0.2472,0.8655,-5.95,7.47,-0.09,19.77
14973,0.139,-0.2433,0.8611,-6.21,7.66,-0.11,19.76
14983,0.1361,-0.2437,0.8662,-6.27,7.8,-0.05,19.77
14993,0.1393,-0.2473,0.86,-6.23,7.92,-0.05,19.75
15003,0.1364,-0.2488,0.8582,-6.18,7.97,0.0,19.78
15013,0.1396,-0.2483,0.8602,-6.03,7.83,0.02,19.78
15023,0.1406,-0.2458,0.86,-5.83,7.68,-0.03,19.78
15033,0.1367,-0.2463,0.8621,-5.83,7.51,-0.12,19.78
15043,0.1389,-0.245,0.8621,-5.94,7.57,-0.12,19.76
15053,0.1382,-0.2463,0.8624,-6.08,7.77,-0.02,19.77
15063,0.1334,-0.245,0.8608,-6.15,7.83,0.0,19.77
15073,0.1338,-0.2455,0.8574,-6.14,7.97,-0.03,19.74
15083,0.134,-0.243,0.8615,-6.05,7.88,0.03,19.78
15093,0.1345,-0.246,0.8602,-6.08,7.66,-0.08,19.79
15103,0.1353,-0.2458,0.8596,-6.02,7.6,-0.03,19.8
15113,0.1342,-0.2448,0.8563,-5.97,7.63,-0.05,19.78
15123,0.1373,-0.2437,0.8564,-6.02,7.69,0.02,19.78
15133,0.1401,-0.245,0.8539,-6.09,7.71,-0.05,19.77
15143,0.1355,-0.2448,0.8538,-6.02,7.89,-0.03,19.77
15153,0.1377,-0.2438,0.8583,-6.06,7.79,-0.08,19.77
15163,0.1382,-0.2495,0.8643,-6.03,7.71,-0.06,19.8
15173,0.1425,-0.2499,0.8617,-6.11,7.68,-0.02,19.81
15183,0.1383,-0.2468,0.8617,-6.08,7.8,-0.02,19.77
15193,0.1371,-0.246,0.865,-6.24,7.8,-0.05,19.8
15209,0.1387,-0.2462,0.8619,-6.26,7.82,0.0,19.77
15219,0.1384,-0.2461,0.8616,-6.11,7.76,-0.02,19.77
15229,0.1392,-0.2476,0.8563,-6.0,7.69,-0.05,19.79
15239,0.1407,-0.2471,0.8669,-5.88,7.68,-0.05,19.77
15249,0.1346,-0.2482,0.8639,-5.86,7.69,-0.08,19.77
15259,0.1382,-0.2485,0.8691,-6.02,7.68,-0.02,19.77
15269,0.1399,-0.244,0.8662,-6.08,7.79,-0.11,19.77
15279,0.1432,-0.2473,0.8682,-6.21,7.77,-0.08,19.78
15289,0.14,-0.2451,0.8585,-6.23,7.82,-0.02,19.81
15299,0.1378,-0.2466,0.859,-6.18,7.88,-0.06,19.77
15309,0.1378,-0.2473,0.8604,-6.11,7.83,-0.02,19.77
15319,0.1379,-0.2485,0.8584,-6.0,7.73,-0.03,19.78
15329,0.1423,-0.2473,0.8582,-5.89,7.66,-0.06,19.78
15339,0.1423,-0.2512,0.8596,-5.94,7.42,-0.08,19.79
15349,0.1324,-0.2487,0.8579,-6.03,7.54,-0.08,19.76
15359,0.1239,-0.2484,0.8734,-6.06,8.17,-0.14,19.8
15369,0.1338,-0.2445,0.8627,-6.11,8.18,-0.14,19.77
15379,0.1534,-0.2474,0.8448,-6.14,7.37,-0.05,19.76
15389,0.1484,-0.2458,0.8497,-6.03,7.16,-0.08,19.79
15399,0.1312,-0.2471,0.8563,-6.02,7.53,-0.11,19.79
15409,0.1301,-0.2472,0.86,-5.98,7.95,-0.11,19.78
15419,0.1329,-0.2443,0.8624,-5.97,7.95,-0.06,19.77
15429,0.1389,-0.2438,0.8625,-5.95,7.77,0.02,19.79
15439,0.142,-0.245,0.8557,-5.91,7.62,0.05,19.77
15449,0.1417,-0.245,0.8571,-6.06,7.59,0.05,19.79
15459,0.1378,-0.2456,0.8638,-6.11,7.65,0.0,19.8
15469,0.1366,-0.2461,0.8618,-6.14,7.77,0.0,19.78
15479,0.1373,-0.244,0.8595,-6.17,7.91,-0.03,19.77
15489,0.139,-0.246,0.8601,-6.12,7.8,-0.06,19.78
15499,0.1383,-0.2472,0.8604,-5.98,7.88,-0.02,19.78
15509,0.1385,-0.2476,0.8628,-6.0,7.74,0.0,19.77
15519,0.1383,-0.2471,0.8599,-5.95,7.56,-0.08,19.77
15529,0.1396,-0.2478,0.8601,-5.97,7.53,-0.02,19.77
15539,0.1377,-0.2461,0.8625,-5.98,7.59,-0.05,19.79
15549,0.141,-0.2466,0.8643,-5.97,7.68,-0.03,19.8
15559,0.1403,-0.2478,0.8591,-5.92,7.77,-0.06,19.79
15569,0.1384,-0.2461,0.8649,-5.95,7.69,-0.09,19.78
15579,0.1387,-0.2428,0.866,-6.03,7.65,-0.09,19.76
15589,0.1376,-0.2458,0.8585,-6.14,7.68,-0.06,19.78
15599,0.1371,-0.2468,0.8589,-6.18,7.71,-0.06,19.78
15609,0.1393,-0.246,0.8553,-6.21,7.76,-0.05,19.8
15619,0.1398,-0.2496,0.8608,-6.21,7.77,-0.03,19.79
15629,0.1381,-0.2479,0.8569,-6.06,7.76,0.0,19.78
15639,0.1387,-0.2469,0.8593,-5.89,7.79,-0.08,19.79
15649,0.1411,-0.2458,0.8623,-5.83,7.69,-0.08,19.78
15659,0.137,-0.2445,0.8657,-5.88,7.65,0.09,19.79
15669,0.1345,-0.2445,0.865,-5.91,7.69,-0.05,19.79
15679,0.1368,-0.2474,0.8615,-6.03,7.79,-0.11,19.76
15689,0.1354,-0.2449,0.8615,-6.18,7.8,-0.11,19.81
15699,0.1354,-0.2482,0.8625,-6.17,7.77,-0.06,19.79
15709,0.1375,-0.2473,0.8556,-6.14,7.73,-0.03,19.78
15719,0.1407,-0.2476,0.8547,-6.03,7.76,-0.05,19.79
15729,0.1339,-0.2471,0.8588,-6.02,7.74,-0.09,19.79
15739,0.1384,-0.2457,0.8593,-5.94,7.69,0.0,19.77
15749,0.139,-0.2476,0.8607,-5.92,7.68,-0.06,19.78
15759,0.1382,-0.2461,0.8636,-6.02,7.73,-0.02,19.77
15769,0.1396,-0.2456,0.8634,-6.06,7.69,-0.11,19.81
15779,0.1396,-0.2462,0.8615,-6.15,7.74,-0.08,19.78
15789,0.1378,-0.2446,0.8597,-6.2,7.86,-0.06,19.79
15799,0.1384,-0.2484,0.8621,-6.14,7.88,-0.11,19.79
15809,0.1379,-0.2462,0.8632,-6.09,7.82,-0.06,19.79
15819,0.1409,-0.2461,0.8627,-6.15,7.73,-0.11,19.78
15829,0.1359,-0.2468,0.8562,-6.17,7.66,0.03,19.79
15839,0.1392,-0.2457,0.8528,-6.15,7.59,-0.11,19.78
15849,0.1398,-0.2465,0.8574,-6.06,7.74,-0.05,19.77
15859,0.1385,-0.248,0.8572,-5.92,7.79,0.02,19.79
15869,0.1371,-0.2462,0.8639,-5.89,7.73,-0.06,19.8
15879,0.1382,-0.2455,0.8636,-5.89,7.6,-0.14,19.8
15889,0.1378,-0.2474,0.8668,-5.91,7.62,-0.08,19.79
15899,0.1405,-0.2485,0.8625,-6.06,7.66,-0.09,19.77
15909,0.1377,-0.2458,0.8611,-6.09,7.71,-0.03,19.8
15919,0.1371,-0.2473,0.861,-6.14,7.82,-0.03,19.8
15929,0.1377,-0.2472,0.8573,-6.12,7.86,-0.02,19.8
15939,0.1383,-0.245,0.8568,-6.0,7.77,-0.06,19.79
15949,0.1372,-0.2476,0.8591,-5.91,7.68,-0.06,19.79
15959,0.1393,-0.246,0.8579,-5.95,7.59,-0.08,19.81
15969,0.1387,-0.246,0.8624,-6.02,7.63,-0.08,19.79
15979,0.137,-0.2471,0.8644,-6.12,7.74,-0.05,19.79
15989,0.1383,-0.2474,0.8593,-6.11,7.83,-0.05,19.79
15999,0.1401,-0.2494,0.8566,-6.09,7.85,-0.14,19.8
16009,0.1388,-0.2449,0.8574,-6.05,7.73,-0.08,19.8
16019,0.1371,-0.2465,0.8611,-5.88,7.63,-0.06,19.8
16029,0.1399,-0.2468,0.8601,-5.85,7.56,-0.15,19.79
16039,0.1381,-0.2476,0.8575,-5.89,7.63,-0.03,19.79
16049,0.1392,-0.2458,0.8618,-5.91,7.63,-0.05,19.82
16059,0.1375,-0.2424,0.8634,-6.0,7.79,0.0,19.81
16069,0.1365,-0.2452,0.864,-6.11,7.74,0.05,19.79
16079,0.1393,-0.2444,0.8605,-6.12,7.71,0.0,19.81
16089,0.1381,-0.2452,0.86,-6.09,7.71,-0.02,19.79
16099,0.1392,-0.2473,0.8634,-6.14,7.68,-0.08,19.77
16109,0.1384,-0.2426,0.859,-6.09,7.69,0.02,19.77
16119,0.1415,-0.2493,0.8562,-6.08,7.74,0.0,19.81
16129,0.1385,-0.2463,0.858,-6.02,7.77,-0.03,19.79
16139,0.1375,-0.2477,0.8619,-5.95,7.79,-0.08,19.78
16149,0.1376,-0.2465,0.8601,-5.92,7.69,-0.02,19.8
16159,0.1379,-0.2443,0.8645,-5.92,7.66,-0.05,19.8
16169,0.1376,-0.2482,0.8628,-5.97,7.63,-0.06,19.81
16179,0.1389,-0.2465,0.8657,-6.15,7.65,-0.17,19.81
16189,0.1387,-0.2471,0.8605,-6.24,7.8,-0.06,19.8
16199,0.1364,-0.2494,0.8612,-6.21,7.82,0.02,19.8
16209,0.1377,-0.2487,0.8586,-6.11,7.88,-0.06,19.83
16219,0.1378,-0.2482,0.859,-5.91,7.89,0.05,19.8
16229,0.1367,-0.2449,0.8615,-5.89,7.74,-0.02,19.81
16239,0.1381,-0.2469,0.8597,-5.86,7.6,-0.11,19.79
16249,0.1375,-0.2465,0.8602,-5.89,7.56,-0.11,19.82
16259,0.136,-0.2443,0.8597,-5.98,7.6,-0.08,19.79
16269,0.1357,-0.2465,0.8608,-6.08,7.76,-0.02,19.8
16279,0.1385,-0.2461,0.8666,-6.15,7.85,-0.05,19.8
16289,0.1373,-0.2448,0.8566,-6.06,7.83,-0.03,19.81
16299,0.1389,-0.2479,0.8585,-6.09,7.82,-0.14,19.83
16309,0.1364,-0.2469,0.8612,-6.08,7.68,-0.02,19.8
16319,0.1378,-0.2479,0.8622,-5.94,7.68,-0.05,19.8
16329,0.1387,-0.2466,0.8604,-6.0,7.66,-0.03,19.8
16339,0.1387,-0.2491,0.859,-6.03,7.71,-0.06,19.8
16349,0.1399,-0.2485,0.8557,-6.11,7.73,-0.06,19.82
16359,0.1368,-0.2498,0.8596,-6.08,7.73,-0.12,19.79
16369,0.1371,-0.2454,0.8611,-6.15,7.71,-0.03,19.81
16379,0.1388,-0.2469,0.8564,-6.02,7.53,0.03,19.79
16389,0.1415,-0.2466,0.8564,-5.92,7.6,0.0,19.78
16399,0.1383,-0.2454,0.8633,-5.82,7.71,-0.08,19.8
16409,0.1383,-0.243,0.8621,-6.03,7.66,-0.05,19.81
16419,0.1356,-0.2456,0.8615,-6.27,7.69,0.0,19.81
16429,0.1423,-0.2446,0.8566,-6.29,7.71,-0.05,19.81
16439,0.1415,-0.2474,0.8553,-6.24,7.76,-0.06,19.8
16449,0.1377,-0.2477,0.8578,-6.09,7.83,-0.02,19.82
16459,0.1388,-0.2456,0.859,-5.79,7.86,-0.02,19.79
16469,0.1353,-0.2495,0.8639,-5.85,7.77,-0.05,19.79
16479,0.1379,-0.2472,0.8646,-5.97,7.63,0.02,19.8
16489,0.1366,-0.2476,0.865,-5.92,7.5,-0.06,19.8
16499,0.1394,-0.2502,0.866,-6.12,7.63,-0.05,19.8
16509,0.1405,-0.2473,0.859,-6.2,7.77,-0.08,19.8
16519,0.1401,-0.2473,0.8605,-6.15,7.89,-0.06,19.8
16529,0.1406,-0.2487,0.8639,-6.06,7.97,0.06,19.8
16539,0.1382,-0.249,0.8628,-5.83,7.71,0.02,19.79
16549,0.1356,-0.2477,0.8655,-5.8,7.62,-0.03,19.8
16559,0.1371,-0.2482,0.8676,-5.86,7.56,-0.08,19.8
16569,0.1394,-0.2478,0.8644,-5.98,7.54,-0.05,19.8
16579,0.1396,-0.2471,0.863,-6.14,7.73,-0.08,19.78
16589,0.1403,-0.2438,0.8654,-6.05,7.92,0.0,19.8
16599,0.136,-0.2487,0.8621,-6.02,7.86,-0.09,19.81
16609,0.1364,-0.2473,0.86,-6.09,7.68,-0.09,19.8
16619,0.14,-0.2452,0.8555,-6.09,7.6,-0.11,19.8
16629,0.14,-0.2433,0.8555,-6.03,7.6,-0.03,19.83
16639,0.1401,-0.2472,0.8595,-6.08,7.66,-0.05,19.81
16649,0.1373,-0.2485,0.8566,-6.05,7.74,-0.06,19.79
16659,0.1394,-0.2483,0.8551,-6.05,7.8,-0.05,19.79
16669,0.137,-0.2458,0.8593,-5.91,7.71,-0.05,19.79
16679,0.1364,-0.2471,0.8578,-5.89,7.59,-0.02,19.8
16689,0.1365,-0.2443,0.8571,-6.02,7.57,-0.02,19.79
16699,0.1382,-0.2449,0.8586,-6.15,7.59,-0.06,19.77
16709,0.1406,-0.2463,0.8594,-6.17,7.79,-0.12,19.81
16719,0.14,-0.2446,0.8578,-6.2,7.95,0.0,19.79
16729,0.1382,-0.2488,0.8588,-6.11,7.88,0.02,19.82
16739,0.1384,-0.2451,0.8585,-6.06,7.85,-0.02,19.81
16749,0.1381,-0.2495,0.8584,-5.98,7.69,-0.08,19.8
16759,0.1381,-0.2461,0.8594,-5.89,7.59,-0.05,19.8
16769,0.1401,-0.2468,0.8608,-5.94,7.68,0.02,19.84
16779,0.1398,-0.2468,0.8649,-5.92,7.77,0.09,19.82
16789,0.1381,-0.245,0.8613,-5.95,7.85,-0.05,19.81
16799,0.1388,-0.2515,0.8615,-6.06,7.76,0.0,19.84
16809,0.1387,-0.2489,0.8646,-6.15,7.76,-0.08,19.81
16819,0.135,-0.2488,0.8599,-6.06,7.73,-0.08,19.8
16829,0.1371,-0.2499,0.8606,-6.14,7.69,-0.08,19.82
16839,0.1371,-0.2483,0.86,-5.97,7.71,0.0,19.79
16849,0.1389,-0.2478,0.8668,-5.79,7.77,0.08,19.8
16859,0.1375,-0.2466,0.8652,-5.76,7.68,-0.09,19.8
16869,0.1382,-0.2446,0.8629,-5.88,7.63,-0.03,19.81
16879,0.1387,-0.2458,0.8671,-5.92,7.57,-0.11,19.82
16889,0.1383,-0.2457,0.8635,-6.09,7.63,-0.08,19.8
16899,0.1412,-0.246,0.8571,-6.11,7.69,-0.06,19.8
16909,0.1401,-0.2477,0.8583,-6.17,7.83,-0.02,19.81
16919,0.1377,-0.249,0.8572,-6.09,7.89,-0.05,19.83
16929,0.1351,-0.246,0.8588,-6.15,7.82,-0.05,19.82
16939,0.1398,-0.2469,0.8564,-5.95,7.63,-0.11,19.81
16949,0.1384,-0.2441,0.8604,-6.02,7.56,-0.14,19.84
16959,0.1385,-0.2458,0.8568,-6.0,7.57,-0.09,19.81
16969,0.1382,-0.246,0.858,-5.92,7.68,-0.11,19.82
16979,0.1403,-0.2443,0.8566,-5.98,7.8,0.0,19.82
16989,0.1365,-0.2433,0.8556,-6.08,7.74,0.0,19.82
16999,0.1376,-0.2457,0.8591,-6.18,7.77,0.0,19.81
17009,0.1377,-0.2457,0.8612,-6.18,7.77,-0.02,19.83
17019,0.1407,-0.2484,0.8542,-6.09,7.71,-0.05,19.83
17029,0.1406,-0.2468,0.8549,-6.02,7.74,-0.02,19.79
17039,0.1365,-0.2456,0.8594,-5.94,7.74,-0.05,19.81
17049,0.1364,-0.246,0.8612,-5.97,7.82,-0.02,19.79
17059,0.1385,-0.2444,0.8632,-5.92,7.77,-0.02,19.79
17069,0.1385,-0.2473,0.8666,-5.98,7.62,-0.08,19.82
17079,0.1357,-0.2477,0.865,-6.03,7.69,-0.05,19.81
17089,0.1356,-0.2455,0.8641,-6.2,7.79,-0.08,19.82
17099,0.1385,-0.2505,0.8655,-6.12,7.76,-0.09,19.83
17109,0.1412,-0.2494,0.8632,-6.15,7.79,-0.05,19.81
17119,0.1362,-0.2488,0.8641,-6.21,7.76,0.02,19.85
17129,0.1375,-0.2455,0.8638,-5.95,7.71,-0.09,19.81
17139,0.1416,-0.248,0.8569,-6.02,7.5,-0.06,19.82
17149,0.1411,-0.2483,0.8574,-6.05,7.53,-0.08,19.81
17159,0.141,-0.2471,0.8597,-5.88,7.66,-0.12,19.84
17169,0.1389,-0.2438,0.8613,-5.86,7.79,-0.05,19.81
17179,0.1392,-0.2467,0.8676,-5.86,7.83,-0.11,19.81
17189,0.1373,-0.2458,0.8673,-6.02,7.69,-0.08,19.82
17199,0.1371,-0.2444,0.8657,-6.2,7.68,-0.12,19.81
17209,0.1393,-0.2478,0.8593,-6.29,7.63,-0.12,19.81
17219,0.1403,-0.2476,0.8562,-6.24,7.69,-0.11,19.81
17229,0.1375,-0.2472,0.8508,-6.17,7.82,-0.05,19.84
17239,0.1384,-0.2445,0.8534,-5.97,7.86,-0.03,19.85
17249,0.1381,-0.2441,0.8564,-5.88,7.73,-0.08,19.85
17259,0.1366,-0.241,0.8567,-5.79,7.66,0.0,19.84
17269,0.1392,-0.2438,0.8578,-5.92,7.57,-0.02,19.83
17279,0.1372,-0.2458,0.8589,-6.03,7.6,-0.11,19.83
17289,0.1349,-0.2466,0.8596,-6.2,7.74,-0.02,19.84
17299,0.1375,-0.2448,0.8591,-6.15,7.97,0.03,19.85
17309,0.1368,-0.2463,0.8564,-6.09,7.88,0.0,19.83
17319,0.1366,-0.2483,0.8591,-6.0,7.76,-0.02,19.81
17329,0.1346,-0.2474,0.8579,-6.0,7.65,-0.08,19.83
17339,0.1375,-0.2452,0.8607,-6.02,7.65,-0.06,19.8
17349,0.14,-0.2432,0.8596,-6.09,7.59,-0.05,19.8
17359,0.1362,-0.248,0.864,-6.08,7.82,0.02,19.8
17369,0.1373,-0.2458,0.8641,-6.18,7.95,0.06,19.81
17379,0.1359,-0.248,0.8591,-6.08,7.92,-0.05,19.79
17389,0.1379,-0.2493,0.8636,-6.0,7.57,-0.06,19.81
17399,0.1412,-0.2468,0.8613,-6.0,7.5,-0.18,19.84
17409,0.1394,-0.245,0.8618,-6.05,7.57,-0.12,19.84
17419,0.1387,-0.2446,0.8645,-6.05,7.66,0.0,19.83
17429,0.1383,-0.2468,0.8679,-6.02,7.86,-0.06,19.82
17439,0.1366,-0.2471,0.8661,-6.06,7.89,-0.05,19.82
17449,0.1356,-0.2451,0.8635,-6.17,7.73,0.0,19.82
17459,0.1351,-0.246,0.8597,-6.12,7.51,-0.09,19.82
17469,0.1372,-0.248,0.858,-6.03,7.36,-0.17,19.82
17479,0.1404,-0.2463,0.8549,-5.95,7.65,-0.09,19.83
17489,0.1383,-0.2445,0.8553,-5.97,7.94,0.0,19.83
17499,0.1404,-0.2428,0.859,-5.85,8.05,-0.02,19.84
17509,0.1348,-0.2433,0.8638,-6.0,7.91,-0.05,19.84
17519,0.1343,-0.2416,0.8606,-6.05,7.62,-0.09,19.84
17529,0.1387,-0.2437,0.8607,-6.08,7.48,-0.08,19.83
17539,0.1366,-0.2433,0.8572,-6.08,7.56,-0.12,19.81
17549,0.14,-0.2482,0.8555,-6.14,7.82,0.02,19.83
17559,0.1389,-0.2449,0.8582,-6.08,8.02,-0.09,19.81
17569,0.1361,-0.2452,0.8568,-6.05,7.94,0.0,19.82
17579,0.1343,-0.2455,0.8591,-6.09,7.74,0.05,19.81
17589,0.1382,-0.2454,0.8616,-6.05,7.59,-0.09,19.82
17599,0.14,-0.2463,0.8577,-5.97,7.47,-0.02,19.82
17609,0.1396,-0.2441,0.8625,-6.02,7.66,-0.05,19.82
17619,0.1376,-0.2439,0.8601,-6.0,7.86,0.0,19.82
17629,0.1339,-0.2454,0.8621,-5.97,7.89,-0.03,19.81
17639,0.1376,-0.2457,0.8617,-6.08,7.85,-0.03,19.82
17649,0.1379,-0.2484,0.8638,-6.17,7.63,-0.09,19.83
17659,0.1395,-0.249,0.8628,-6.11,7.57,-0.08,19.83
17669,0.1412,-0.2485,0.8597,-6.09,7.59,-0.09,19.84
17679,0.1417,-0.2484,0.8574,-6.12,7.8,-0.11,19.82
17689,0.1403,-0.2489,0.8629,-6.14,7.89,0.02,19.82
17699,0.1392,-0.2468,0.8582,-6.03,7.88,-0.05,19.81
17709,0.1394,-0.2474,0.8622,-5.94,7.69,-0.05,19.82
17719,0.1403,-0.2449,0.8602,-5.91,7.6,-0.12,19.81
17729,0.1411,-0.2444,0.8645,-5.95,7.48,-0.11,19.82
17739,0.1427,-0.2474,0.8629,-5.86,7.68,-0.09,19.8
17749,0.1425,-0.246,0.8615,-6.03,7.86,-0.02,19.82
17759,0.1376,-0.2446,0.8613,-6.29,7.85,-0.11,19.82
17769,0.1379,-0.246,0.8595,-6.29,7.8,-0.12,19.83
17779,0.1361,-0.2455,0.8564,-6.21,7.74,-0.05,19.83
17789,0.1409,-0.2493,0.8545,-6.05,7.68,-0.05,19.82
17799,0.1375,-0.2466,0.8574,-5.79,7.82,-0.02,19.83
17809,0.1355,-0.2488,0.8655,-5.71,7.77,0.0,19.83
17819,0.136,-0.2456,0.8628,-5.86,7.56,-0.15,19.84
17829,0.1373,-0.2448,0.8666,-5.97,7.54,-0.15,19.83
17839,0.1381,-0.2441,0.8639,-6.2,7.59,-0.06,19.82
17849,0.1372,-0.2479,0.8527,-6.32,7.92,-0.15,19.84
17859,0.1403,-0.2454,0.8505,-6.21,7.98,-0.03,19.83
17869,0.1343,-0.249,0.8546,-6.08,7.95,0.05,19.83
17879,0.1366,-0.2467,0.8585,-5.91,7.71,-0.05,19.84
17889,0.1368,-0.2418,0.8597,-5.74,7.56,-0.09,19.82
17899,0.137,-0.2469,0.8601,-5.85,7.42,-0.12,19.85
17909,0.1366,-0.244,0.863,-6.11,7.54,-0.06,19.83
17919,0.1388,-0.2449,0.8624,-6.17,7.77,0.0,19.82
17929,0.1421,-0.246,0.8563,-6.27,7.89,0.06,19.84
17939,0.1367,-0.2451,0.8547,-6.14,7.92,-0.05,19.81
17949,0.1353,-0.2449,0.8616,-6.06,7.89,-0.06,19.83
17959,0.1362,-0.2463,0.8604,-5.95,7.73,-0.05,19.85
17969,0.1372,-0.2477,0.861,-6.05,7.56,-0.11,19.84
17979,0.1396,-0.2499,0.8607,-6.17,7.45,-0.14,19.84
17989,0.1378,-0.2467,0.8551,-6.15,7.68,-0.18,19.83
17999,0.1403,-0.2455,0.8608,-6.17,7.86,0.0,19.84
18009,0.1412,-0.244,0.8599,-5.89,7.94,0.06,19.83
18019,0.1388,-0.245,0.8619,-5.74,7.86,-0.02,19.83
18029,0.1359,-0.2452,0.8651,-5.73,7.74,-0.09,19.82
18039,0.1375,-0.2419,0.8649,-6.02,7.54,-0.08,19.82
18049,0.1392,-0.2446,0.8668,-6.27,7.5,-0.14,19.85
18059,0.1372,-0.2498,0.8579,-6.47,7.63,-0.17,19.83
18069,0.1377,-0.251,0.8564,-6.41,7.91,-0.12,19.84
18079,0.1412,-0.2493,0.8502,-6.17,8.02,-0.08,19.86
18089,0.1367,-0.2462,0.8585,-5.73,7.95,0.06,19.82
18099,0.1365,-0.244,0.861,-5.4,7.66,-0.02,19.82
18109,0.1366,-0.2446,0.8677,-5.45,7.39,-0.02,19.82
18119,0.1355,-0.2412,0.8676,-5.85,7.33,-0.11,19.83
18129,0.135,-0.2439,0.8605,-6.27,7.48,-0.18,19.85
18139,0.1353,-0.2462,0.8604,-6.52,7.76,-0.06,19.83
18149,0.1354,-0.249,0.8511,-6.55,8.15,-0.05,19.83
18159,0.1365,-0.2506,0.8502,-6.24,8.21,0.0,19.82
18169,0.1357,-0.2491,0.8573,-5.94,7.98,-0.05,19.83
18179,0.1354,-0.2452,0.8618,-5.65,7.53,-0.05,19.85
18189,0.1387,-0.2458,0.8632,-5.74,7.27,-0.08,19.83
18200,0.1393,-0.246,0.8628,-5.94,7.45,-0.15,19.84
18210,0.1412,-0.2479,0.8595,-6.18,7.59,-0.06,19.84
18220,0.1399,-0.2487,0.8624,-6.34,7.82,-0.05,19.82
18230,0.1393,-0.2467,0.8623,-6.2,8.02,0.02,19.83
18240,0.1372,-0.2499,0.8608,-6.05,7.91,0.03,19.82
18250,0.1338,-0.2462,0.8617,-5.77,7.85,-0.11,19.84
18260,0.1329,-0.2468,0.866,-5.92,7.53,0.02,19.82
18270,0.1368,-0.2417,0.8645,-6.03,7.51,-0.12,19.85
18280,0.1364,-0.2439,0.8591,-6.24,7.6,-0.06,19.86
18290,0.1373,-0.2468,0.859,-6.37,7.68,-0.12,19.84
18300,0.1405,-0.2451,0.8544,-6.26,7.85,-0.05,19.84
18310,0.1407,-0.2457,0.8512,-6.09,7.88,-0.03,19.84
18320,0.1389,-0.2498,0.8557,-5.71,7.76,-0.02,19.84
18330,0.1396,-0.245,0.8625,-5.66,7.63,-0.02,19.84
18340,0.1406,-0.2441,0.8668,-5.63,7.53,-0.08,19.84
18350,0.1381,-0.2421,0.8667,-5.97,7.66,-0.06,19.85
18361,0.1373,-0.2468,0.8569,-6.31,7.76,-0.11,19.85
18371,0.1378,-0.2479,0.8549,-6.49,7.85,-0.06,19.83
18381,0.1375,-0.2496,0.8562,-6.27,8.0,-0.05,19.84
18391,0.1378,-0.2472,0.8518,-6.0,7.92,0.02,19.83
18401,0.1351,-0.2476,0.8573,-5.65,7.68,0.02,19.84
18411,0.1357,-0.2446,0.8584,-5.57,7.66,-0.02,19.84
18421,0.1389,-0.2423,0.8611,-5.77,7.56,0.03,19.86
18431,0.1367,-0.244,0.8655,-6.08,7.66,-0.14,19.81
18441,0.1382,-0.2434,0.8619,-6.29,7.8,-0.08,19.83
18451,0.1385,-0.2473,0.8601,-6.24,7.88,-0.05,19.87
18461,0.1398,-0.2467,0.8661,-6.15,7.85,-0.08,19.86
18471,0.1401,-0.2482,0.8625,-6.09,7.85,-0.05,19.84
18481,0.1384,-0.2472,0.8628,-5.95,7.79,-0.06,19.84
18491,0.1365,-0.2465,0.861,-6.02,7.65,-0.05,19.84
18501,0.1365,-0.2458,0.8606,-6.0,7.62,-0.09,19.86
18511,0.1373,-0.2471,0.8644,-6.11,7.65,-0.05,19.84
18521,0.1379,-0.2449,0.8624,-5.97,7.77,-0.03,19.83
18531,0.1428,-0.2527,0.8668,-5.91,7.8,-0.09,19.85
18541,0.1425,-0.249,0.8643,-5.98,7.6,-0.06,19.84
18551,0.1414,-0.2499,0.8656,-6.14,7.63,-0.14,19.86
18561,0.1393,-0.2454,0.8553,-6.27,7.62,-0.05,19.84
18571,0.1387,-0.2471,0.8527,-6.26,7.73,-0.03,19.85
18583,0.1385,-0.2472,0.8514,-6.02,8.0,-0.03,19.85
18593,0.1354,-0.2465,0.8574,-5.89,7.83,-0.03,19.84
18603,0.1339,-0.2473,0.8656,-5.73,7.45,-0.05,19.87
18613,0.1401,-0.2451,0.8643,-5.73,7.05,-0.17,19.85
18623,0.142,-0.2465,0.8611,-5.86,7.21,-0.09,19.83
18633,0.1437,-0.2465,0.8572,-6.15,7.77,-0.02,19.84
18643,0.1432,-0.2427,0.8555,-6.27,8.32,0.09,19.84
18653,0.1373,-0.2458,0.8562,-6.32,8.47,0.09,19.86
18663,0.1355,-0.2448,0.8597,-6.23,8.2,0.06,19.87
18673,0.1344,-0.2441,0.856,-6.08,7.63,-0.06,19.86
18683,0.135,-0.2423,0.8596,-6.0,7.28,-0.15,19.85
18693,0.1384,-0.2437,0.8583,-5.83,7.33,-0.14,19.84
18703,0.1426,-0.2463,0.8597,-5.83,7.59,-0.05,19.87
18713,0.1412,-0.2465,0.8599,-5.89,8.05,-0.03,19.86
18723,0.1356,-0.2488,0.8638,-6.12,8.14,-0.02,19.85
18733,0.1385,-0.2468,0.8658,-6.12,7.86,-0.03,19.84
18743,0.1361,-0.2484,0.8594,-6.15,7.59,-0.03,19.87
18753,0.1372,-0.2458,0.8589,-6.09,7.48,-0.08,19.86
18763,0.1411,-0.2494,0.855,-6.06,7.65,-0.09,19.87
18773,0.1407,-0.2446,0.8582,-5.94,7.94,0.0,19.85
18783,0.1403,-0.2452,0.8643,-5.71,8.0,0.02,19.89
18793,0.1331,-0.2449,0.8671,-6.0,7.92,-0.08,19.84
18803,0.135,-0.245,0.8583,-6.38,7.56,-0.15,19.86
18813,0.14,-0.2463,0.8514,-6.53,7.3,-0.12,19.84
18823,0.1453,-0.2501,0.8505,-6.21,7.59,-0.08,19.85
18833,0.1427,-0.2504,0.8572,-5.62,8.21,0.15,19.84
18843,0.1415,-0.2461,0.8688,-5.16,8.18,0.17,19.84
18853,0.1335,-0.2465,0.8784,-5.31,7.79,-0.02,19.85
18863,0.1349,-0.2426,0.8741,-6.05,7.25,-0.15,19.87
18873,0.139,-0.2423,0.8599,-6.78,6.87,-0.23,19.87
18883,0.1467,-0.2449,0.849,-6.87,7.22,-0.23,19.85
18893,0.1484,-0.2487,0.8436,-6.56,8.14,-0.09,19.87
18903,0.1417,-0.25,0.8418,-6.02,8.76,0.15,19.84
18913,0.1357,-0.2491,0.8623,-5.33,8.58,0.21,19.85
18923,0.1331,-0.2444,0.8726,-5.18,7.69,0.02,19.86
18933,0.1342,-0.2419,0.8711,-5.66,6.85,-0.2,19.84
18943,0.1355,-0.2412,0.8633,-6.24,6.66,-0.31,19.85
18953,0.1409,-0.2456,0.8552,-6.53,7.07,-0.24,19.86
18963,0.1443,-0.2477,0.8511,-6.55,8.02,-0.05,19.87
18973,0.1417,-0.2472,0.8473,-6.24,8.49,0.11,19.85
18983,0.136,-0.2474,0.859,-5.86,8.32,0.08,19.84
18993,0.1271,-0.248,0.8656,-5.59,7.6,0.0,19.87
19003,0.1271,-0.246,0.8627,-5.69,7.02,-0.2,19.85
19013,0.1437,-0.246,0.8615,-5.92,6.72,-0.24,19.84
19023,0.144,-0.2483,0.8573,-6.05,7.63,-0.08,19.86
19033,0.1431,-0.2437,0.8558,-6.12,8.21,0.12,19.86
19043,0.1367,-0.243,0.8586,-6.09,8.55,0.12,19.86
19053,0.1312,-0.2474,0.8702,-5.98,8.12,0.02,19.85
19063,0.1343,-0.2463,0.8672,-5.94,7.34,-0.17,19.86
19073,0.1382,-0.2437,0.8584,-6.17,6.98,-0.2,19.84
19083,0.1417,-0.246,0.8588,-6.15,7.37,-0.17,19.85
19094,0.1432,-0.2507,0.8557,-6.24,8.09,-0.02,19.87
19105,0.1415,-0.248,0.8566,-6.18,8.58,0.06,19.86
19115,0.1376,-0.2484,0.8635,-5.86,8.24,0.05,19.83
19125,0.1327,-0.2517,0.8662,-5.82,7.48,0.0,19.85
19135,0.1351,-0.246,0.863,-5.79,7.08,-0.18,19.87
19145,0.1403,-0.2455,0.8663,-5.86,7.1,-0.17,19.84
19155,0.1431,-0.2434,0.8597,-6.18,7.62,-0.09,19.85
19165,0.1425,-0.2477,0.8593,-6.32,8.15,0.02,19.87
19175,0.1359,-0.2484,0.8557,-6.41,8.43,0.0,19.85
19185,0.134,-0.2495,0.8594,-6.35,8.11,0.02,19.87
19195,0.1346,-0.2478,0.8562,-5.89,7.56,-0.06,19.85
19205,0.1387,-0.2506,0.8566,-5.92,7.27,-0.05,19.84
19215,0.1404,-0.2454,0.8582,-5.76,7.39,-0.11,19.87
19225,0.1428,-0.2429,0.8591,-5.77,7.73,-0.03,19.85
19235,0.1375,-0.2426,0.8605,-5.97,7.97,-0.03,19.85
19245,0.1378,-0.245,0.8641,-6.21,7.98,-0.06,19.87
19255,0.1361,-0.2461,0.8594,-6.21,7.79,-0.09,19.84
19265,0.1394,-0.2469,0.864,-6.17,7.57,-0.08,19.87
19275,0.1393,-0.246,0.8568,-6.08,7.57,-0.15,19.84
19285,0.1377,-0.2468,0.8594,-6.03,7.69,-0.06,19.84
19295,0.1351,-0.2444,0.861,-6.06,7.86,-0.02,19.86
19305,0.139,-0.2466,0.8604,-6.05,7.92,0.08,19.85
19315,0.1409,-0.2468,0.864,-6.09,7.76,-0.06,19.83
19325,0.1381,-0.2427,0.8584,-6.0,7.63,0.03,19.85
19335,0.14,-0.2441,0.8617,-5.89,7.62,-0.08,19.85
19345,0.1377,-0.2448,0.8641,-5.97,7.73,-0.12,19.86
19355,0.1417,-0.245,0.8668,-6.15,7.86,-0.08,19.86
19365,0.1387,-0.2469,0.8615,-6.15,7.97,0.0,19.87
19375,0.1381,-0.2454,0.8649,-6.2,7.97,0.06,19.88
19385,0.1393,-0.2465,0.8638,-6.31,7.86,0.03,19.85
19395,0.1366,-0.2467,0.8567,-6.26,7.74,0.0,19.88
19405,0.1376,-0.2472,0.8555,-6.2,7.68,-0.11,19.88
19415,0.1393,-0.2467,0.8602,-5.94,7.59,-0.08,19.86
19425,0.1431,-0.2469,0.8613,-5.73,7.66,-0.02,19.85
19435,0.1372,-0.2456,0.8632,-5.68,7.68,-0.06,19.85
19445,0.1384,-0.2441,0.8632,-5.95,7.68,-0.03,19.85
19455,0.1355,-0.2432,0.8661,-6.12,7.6,-0.03,19.85
19465,0.1346,-0.2445,0.8601,-6.35,7.5,-0.14,19.85
19475,0.1382,-0.2452,0.8523,-6.43,7.57,-0.11,19.86
19485,0.1384,-0.2454,0.8597,-6.15,7.77,-0.03,19.88
19495,0.1382,-0.2469,0.8563,-6.03,7.86,-0.02,19.84
19505,0.1428,-0.246,0.8555,-5.91,7.88,0.03,19.86
19515,0.1414,-0.2469,0.8616,-5.79,7.8,-0.03,19.86
19525,0.137,-0.2449,0.8639,-5.86,7.71,0.0,19.86
19535,0.1381,-0.246,0.8625,-5.98,7.79,-0.06,19.87
19545,0.1382,-0.2438,0.8607,-6.26,7.82,-0.03,19.85
19555,0.1362,-0.2441,0.8607,-6.34,7.74,-0.03,19.84
19565,0.1381,-0.2439,0.8572,-6.34,7.76,-0.09,19.85
19575,0.1375,-0.2496,0.8552,-6.29,7.8,-0.05,19.87
19585,0.1368,-0.2509,0.8505,-6.18,7.85,-0.06,19.87
19595,0.1367,-0.2482,0.8519,-5.88,7.65,-0.03,19.85
19605,0.1406,-0.2457,0.8506,-5.73,7.57,-0.02,19.87
19615,0.1393,-0.2427,0.8588,-5.76,7.63,0.0,19.88
19625,0.1403,-0.2439,0.8638,-5.76,7.69,0.02,19.87
19635,0.1377,-0.2478,0.8656,-5.8,7.62,0.03,19.86
19645,0.1385,-0.2438,0.8658,-6.12,7.76,-0.11,19.86
19655,0.1387,-0.2435,0.8588,-6.31,7.74,0.02,19.89
19665,0.1427,-0.2468,0.8544,-6.37,7.8,0.02,19.87
19675,0.1399,-0.2489,0.849,-6.35,7.71,-0.08,19.86
19685,0.1368,-0.2469,0.8507,-6.12,7.85,-0.06,19.89
19695,0.136,-0.2463,0.856,-5.76,7.79,-0.05,19.87
19705,0.1361,-0.2456,0.8546,-5.65,7.74,-0.05,19.88
19715,0.1365,-0.2466,0.8654,-5.77,7.56,-0.06,19.87
19725,0.1405,-0.2478,0.8641,-5.89,7.54,-0.09,19.84
19735,0.1366,-0.2495,0.8616,-6.23,7.57,-0.06,19.91
19745,0.1411,-0.2393,0.8564,-6.41,7.94,-0.05,19.88
19755,0.1403,-0.2477,0.856,-6.14,8.0,-0.08,19.87
19765,0.1396,-0.2501,0.8585,-6.05,7.88,0.02,19.88
19775,0.1409,-0.2463,0.8569,-5.88,7.66,-0.03,19.89
19785,0.1392,-0.2495,0.8666,-5.28,7.47,-0.02,19.9
19795,0.1357,-0.2472,0.8689,-5.57,7.63,-0.08,19.87
19805,0.1379,-0.2448,0.8665,-6.24,7.8,-0.02,19.87
19815,0.1332,-0.2411,0.853,-6.63,7.94,-0.03,19.87
19825,0.1323,-0.2521,0.8547,-6.43,7.85,0.02,19.86
19835,0.1371,-0.254,0.8566,-6.21,7.95,-0.05,19.86
19845,0.1398,-0.2451,0.8591,-5.63,7.79,0.06,19.86
19855,0.1376,-0.2479,0.8682,-4.96,7.4,-0.05,19.88
19865,0.1381,-0.2478,0.8776,-5.24,7.36,-0.05,19.87
19875,0.1453,-0.2427,0.8762,-6.03,7.57,0.0,19.88
19885,0.1405,-0.243,0.8716,-6.29,7.76,-0.06,19.87
19895,0.1418,-0.2452,0.8623,-6.64,7.8,-0.06,19.88
19905,0.1309,-0.2511,0.8612,-6.96,8.17,-0.06,19.86
19915,0.1344,-0.2484,0.8551,-6.7,8.4,-0.06,19.89
19925,0.1458,-0.2523,0.8467,-5.86,7.71,0.05,19.91
19935,0.1464,-0.2515,0.858,-5.25,7.28,-0.03,19.89
19945,0.1366,-0.2504,0.873,-5.16,7.47,-0.05,19.87
19955,0.1353,-0.246,0.8748,-5.44,7.27,0.0,19.88
19965,0.1421,-0.2411,0.8663,-6.09,7.24,-0.15,19.88
19975,0.1434,-0.243,0.8589,-6.73,7.51,-0.12,19.9
19985,0.1366,-0.2438,0.848,-6.99,7.89,-0.06,19.85
19995,0.1353,-0.2471,0.8475,-6.5,8.05,-0.08,19.88
20005,0.1383,-0.2487,0.8464,-6.02,8.02,-0.08,19.88
20015,0.1389,-0.2465,0.8491,-5.48,7.76,-0.02,19.89
20025,0.1396,-0.2437,0.8575,-5.24,7.24,-0.03,19.88
20035,0.1396,-0.2449,0.8634,-5.5,7.25,-0.11,19.84
20045,0.1393,-0.2432,0.8635,-6.24,7.69,-0.09,19.87
20055,0.1357,-0.2415,0.8593,-6.49,8.02,-0.02,19.86
20065,0.1345,-0.2434,0.85,-6.46,8.11,0.03,19.9
20075,0.1387,-0.2448,0.849,-6.4,8.14,0.06,19.9
20085,0.1351,-0.2495,0.8525,-6.09,7.95,0.0,19.89
20095,0.136,-0.2495,0.8562,-5.65,7.63,0.02,19.87
20105,0.1389,-0.2482,0.8645,-5.54,7.44,-0.08,19.88
20115,0.139,-0.2461,0.8622,-5.69,7.47,-0.08,19.87
20125,0.1421,-0.245,0.8629,-5.95,7.6,-0.05,19.87
20135,0.1383,-0.2417,0.8601,-5.97,7.8,-0.08,19.87
20145,0.1348,-0.2412,0.8646,-6.03,7.89,0.02,19.89
20155,0.1396,-0.2433,0.8665,-6.06,7.88,-0.02,19.85
20165,0.1433,-0.2437,0.8667,-5.92,7.6,0.0,19.88
20175,0.1401,-0.2482,0.8667,-5.92,7.56,-0.06,19.85
20185,0.1381,-0.249,0.8712,-6.2,7.62,-0.12,19.87
20195,0.1376,-0.2457,0.8661,-6.2,7.91,0.0,19.87
20205,0.1361,-0.2452,0.8657,-6.14,8.02,0.11,19.87
20215,0.1355,-0.2448,0.8618,-6.14,7.92,-0.02,19.9
20225,0.139,-0.2478,0.8646,-6.14,7.79,-0.05,19.87
20235,0.1375,-0.2472,0.8663,-6.09,7.57,-0.14,19.86
20245,0.1401,-0.2463,0.8658,-6.0,7.54,-0.14,19.89
20255,0.1379,-0.2466,0.8611,-5.95,7.59,0.02,19.89
20265,0.14,-0.244,0.8616,-6.09,7.73,0.0,19.89
20275,0.1364,-0.2449,0.8586,-6.17,7.76,0.0,19.86
20285,0.1407,-0.2422,0.8562,-6.2,7.71,-0.14,19.89
20295,0.1392,-0.2446,0.8567,-6.12,7.69,-0.09,19.89
20305,0.1411,-0.2448,0.8549,-6.03,7.51,-0.03,19.87
20315,0.1384,-0.2452,0.8539,-5.98,7.6,-0.12,19.87
20325,0.137,-0.2437,0.8536,-5.94,7.8,-0.03,19.89
20335,0.1368,-0.2443,0.8567,-6.12,7.91,-0.02,19.88
20345,0.1395,-0.2469,0.8569,-6.15,7.89,-0.02,19.89
20355,0.1385,-0.2448,0.8615,-6.15,7.92,-0.08,19.89
20365,0.1311,-0.2423,0.8568,-6.06,7.82,-0.11,19.87
20375,0.1392,-0.2504,0.8514,-6.2,7.57,-0.08,19.86
20385,0.1398,-0.2489,0.8492,-6.23,7.4,-0.05,19.87
20395,0.1356,-0.2507,0.8542,-5.98,7.76,-0.08,19.89
20405,0.1377,-0.2483,0.8568,-5.69,7.91,0.02,19.86
20415,0.1432,-0.2448,0.8556,-5.71,7.69,0.06,19.87
20425,0.1343,-0.2511,0.8619,-5.83,7.65,0.05,19.86
20435,0.1331,-0.2474,0.8657,-5.89,7.88,-0.12,19.89
20445,0.1381,-0.2456,0.8647,-6.12,7.65,-0.15,19.87
20455,0.1383,-0.2469,0.86,-5.98,7.44,-0.08,19.9
20465,0.1388,-0.2463,0.8672,-5.92,7.66,-0.08,19.87
20475,0.1406,-0.2434,0.8658,-5.86,7.68,0.0,19.88
20485,0.1383,-0.2446,0.8669,-5.8,7.68,0.02,19.88
20495,0.1377,-0.2478,0.87,-5.94,7.68,0.02,19.89
20505,0.1422,-0.2432,0.8663,-6.14,7.71,-0.12,19.87
20515,0.1449,-0.245,0.8605,-6.23,7.79,-0.05,19.89
20525,0.1433,-0.2466,0.8611,-6.23,7.8,-0.02,19.91
20535,0.1385,-0.2472,0.861,-6.23,7.92,0.03,19.89
20545,0.1366,-0.2451,0.8629,-6.26,8.02,-0.03,19.87
20555,0.1385,-0.2458,0.8585,-6.21,7.79,-0.06,19.9
20565,0.1377,-0.2513,0.8622,-5.91,7.6,-0.03,19.87
20575,0.1393,-0.2457,0.856,-5.98,7.62,-0.05,19.87
20585,0.1379,-0.2457,0.8584,-5.89,7.63,-0.05,19.87
20595,0.1394,-0.2429,0.8625,-5.95,7.73,-0.11,19.87
20605,0.1356,-0.2428,0.8658,-6.02,7.74,-0.02,19.87
20615,0.1354,-0.2412,0.8584,-6.18,7.86,-0.09,19.89
20625,0.1326,-0.2407,0.8579,-6.21,7.71,-0.15,19.89
20635,0.1346,-0.2472,0.8567,-6.12,7.65,-0.14,19.88
20645,0.1349,-0.2451,0.8534,-6.06,7.68,0.02,19.88
20655,0.136,-0.2452,0.8569,-6.02,7.86,-0.02,19.88
20665,0.1335,-0.243,0.8575,-5.95,7.91,0.0,19.89
20675,0.1328,-0.2432,0.8558,-6.15,7.74,0.03,19.9
20685,0.1355,-0.2432,0.8557,-6.14,7.69,-0.12,19.9
20695,0.1361,-0.2451,0.8601,-6.11,7.74,-0.12,19.9
20705,0.1371,-0.2478,0.8629,-5.95,7.79,-0.06,19.88
20715,0.1384,-0.2484,0.8643,-5.95,7.86,-0.06,19.85
20725,0.1387,-0.2501,0.8645,-5.92,7.8,0.02,19.86
20735,0.1365,-0.25,0.8677,-6.11,7.69,-0.09,19.89
20745,0.139,-0.2494,0.8646,-6.18,7.63,-0.14,19.89
20755,0.1379,-0.2478,0.8563,-6.03,7.63,-0.08,19.88
20765,0.1398,-0.2444,0.8593,-5.95,7.71,-0.02,19.88
20775,0.1396,-0.2488,0.8597,-5.83,7.79,-0.02,19.89
20785,0.1366,-0.2465,0.8678,-5.76,7.76,-0.05,19.89
20795,0.1378,-0.2433,0.8691,-5.85,7.6,-0.08,19.87
20805,0.1395,-0.2426,0.8661,-6.12,7.48,-0.17,19.87
20815,0.142,-0.2463,0.8698,-6.27,7.65,-0.14,19.9
20825,0.1368,-0.2477,0.8621,-6.37,7.89,-0.09,19.9
20835,0.1428,-0.2489,0.855,-6.31,7.95,0.08,19.87
20845,0.1436,-0.2494,0.8553,-6.08,7.86,-0.05,19.88
20855,0.139,-0.2458,0.8617,-5.82,7.76,-0.09,19.89
20865,0.1368,-0.2468,0.8669,-5.82,7.69,-0.09,19.88
20875,0.1401,-0.248,0.8658,-5.91,7.57,-0.11,19.89
20885,0.1403,-0.2465,0.8607,-6.21,7.65,-0.11,19.88
20895,0.1388,-0.2462,0.8555,-6.41,7.88,0.0,19.88
20905,0.136,-0.2461,0.8539,-6.38,7.92,-0.02,19.89
20915,0.1346,-0.2479,0.8513,-6.18,7.83,-0.03,19.89
20925,0.1326,-0.2473,0.8544,-5.83,7.71,-0.03,19.89
20935,0.1356,-0.2451,0.8533,-5.66,7.51,-0.03,19.88
20945,0.1364,-0.2426,0.8606,-5.69,7.37,-0.09,19.88
20955,0.137,-0.2446,0.8621,-5.86,7.5,-0.09,19.88
20965,0.1388,-0.2461,0.8624,-6.09,7.79,-0.02,19.89
20975,0.1368,-0.2458,0.8574,-6.23,7.85,0.03,19.91
20985,0.1396,-0.2458,0.8512,-6.27,7.88,0.09,19.86
20995,0.135,-0.2445,0.861,-6.26,7.85,0.03,19.86
21005,0.1335,-0.2465,0.8617,-5.95,7.89,0.11,19.88
21015,0.1356,-0.2466,0.8628,-5.86,7.86,0.05,19.89
21025,0.1361,-0.2471,0.864,-5.82,7.68,-0.08,19.91
21035,0.1372,-0.2417,0.8629,-5.94,7.53,-0.08,19.89
21045,0.1389,-0.2471,0.8644,-6.14,7.56,-0.06,19.87
21055,0.1437,-0.2465,0.8604,-6.26,7.73,-0.06,19.87
21065,0.1383,-0.2448,0.8575,-6.12,7.89,-0.02,19.87
21075,0.1368,-0.2505,0.8635,-5.92,7.92,-0.02,19.89
21085,0.1385,-0.2478,0.8663,-5.79,7.76,-0.02,19.87
21095,0.1411,-0.2465,0.8672,-5.8,7.48,-0.06,19.89
21105,0.141,-0.2393,0.8682,-5.89,7.53,-0.14,19.89
21115,0.1398,-0.2422,0.8636,-6.05,7.53,-0.14,19.89
21125,0.1423,-0.2405,0.8607,-6.27,7.79,-0.03,19.89
21135,0.1427,-0.2455,0.8562,-6.18,7.95,-0.09,19.88
21145,0.134,-0.2461,0.8605,-6.12,7.94,-0.03,19.91
21155,0.14,-0.2451,0.8602,-5.94,7.79,-0.08,19.89
21165,0.1379,-0.2479,0.8654,-5.89,7.68,-0.06,19.89
21175,0.1382,-0.2444,0.8621,-5.85,7.5,-0.02,19.92
21185,0.1354,-0.245,0.8628,-6.05,7.69,-0.12,19.89
21195,0.1298,-0.2412,0.8615,-6.44,7.95,-0.08,19.9
21205,0.1422,-0.2445,0.8501,-6.46,7.94,-0.05,19.91
21215,0.1447,-0.2479,0.8466,-6.23,7.69,-0.03,19.88
21225,0.136,-0.2483,0.8531,-5.97,7.88,-0.02,19.88
21235,0.134,-0.2499,0.8594,-5.73,7.94,-0.03,19.88
21245,0.1383,-0.2493,0.8591,-5.73,7.82,-0.03,19.89
21255,0.1377,-0.2462,0.8623,-6.0,7.51,-0.08,19.89
21265,0.1348,-0.2448,0.8634,-6.24,7.74,-0.09,19.89
21275,0.14,-0.248,0.8539,-6.26,7.8,-0.11,19.91
21285,0.1328,-0.2496,0.8583,-6.18,7.86,-0.09,19.89
21295,0.1335,-0.2482,0.8568,-6.09,7.97,-0.03,19.91
21305,0.139,-0.2463,0.8538,-5.8,7.8,-0.08,19.88
21315,0.139,-0.2469,0.8601,-5.63,7.42,-0.03,19.9
21325,0.135,-0.2456,0.8629,-5.76,7.4,-0.05,19.89
21335,0.1405,-0.2458,0.8655,-5.94,7.45,-0.11,19.9
21345,0.1388,-0.2467,0.8612,-6.06,7.76,-0.08,19.89
21355,0.1395,-0.2493,0.8601,-6.26,7.95,-0.05,19.89
21365,0.1384,-0.2493,0.8623,-6.15,8.08,0.0,19.9
21375,0.1379,-0.2487,0.8629,-6.03,7.97,0.02,19.91
21385,0.1382,-0.2483,0.8643,-5.95,7.79,-0.02,19.9
21395,0.1388,-0.2469,0.8657,-5.8,7.56,-0.05,19.91
21405,0.1388,-0.244,0.8649,-5.95,7.56,-0.15,19.89
21415,0.1399,-0.245,0.8593,-6.03,7.68,-0.14,19.89
21425,0.1403,-0.2467,0.859,-6.14,7.82,-0.06,19.89
21435,0.1387,-0.2468,0.8577,-6.2,7.86,0.05,19.91
21445,0.1383,-0.2473,0.8588,-6.18,7.62,-0.08,19.89
21455,0.1388,-0.2478,0.8547,-5.94,7.57,-0.09,19.9
21465,0.1387,-0.2465,0.8577,-5.91,7.57,-0.05,19.92
21475,0.1384,-0.2433,0.86,-5.82,7.77,-0.05,19.9
21485,0.1378,-0.2435,0.8619,-5.95,7.85,-0.06,19.93
21495,0.1372,-0.2443,0.8564,-6.18,7.85,-0.09,19.88
21505,0.1412,-0.2451,0.8589,-6.27,7.71,-0.05,19.9
21515,0.1389,-0.2401,0.8628,-6.27,7.73,-0.02,19.88
21525,0.139,-0.2452,0.8572,-6.02,7.62,0.03,19.91
21535,0.1365,-0.2506,0.8623,-6.05,7.76,-0.06,19.89
21545,0.1342,-0.2432,0.855,-6.12,7.62,-0.05,19.9
21555,0.1353,-0.2422,0.8557,-6.21,7.94,0.02,19.9
21565,0.1456,-0.2449,0.8549,-6.09,7.8,-0.06,19.89
21575,0.1364,-0.2451,0.8586,-5.92,7.69,0.03,19.91
21585,0.1345,-0.2427,0.8671,-5.88,7.8,-0.11,19.89
21595,0.1389,-0.2473,0.8684,-5.95,7.82,-0.08,19.89
21605,0.1405,-0.2478,0.8611,-5.98,7.45,-0.08,19.89
21615,0.1367,-0.2463,0.866,-6.12,7.65,0.03,19.9
21625,0.1351,-0.2422,0.858,-6.32,7.91,-0.08,19.91
21635,0.1405,-0.2462,0.8564,-6.2,7.77,-0.05,19.9
21645,0.1394,-0.2435,0.8557,-6.17,7.74,0.0,19.89
21655,0.1426,-0.2452,0.8586,-5.92,7.74,-0.14,19.88
21665,0.1426,-0.2488,0.8643,-5.8,7.65,-0.12,19.9
21675,0.1417,-0.2448,0.8606,-5.86,7.59,-0.12,19.92
21685,0.1442,-0.2465,0.8633,-5.89,7.62,-0.12,19.92
21695,0.1414,-0.248,0.8655,-6.11,7.68,0.03,19.9
21705,0.135,-0.2461,0.8661,-6.26,7.91,-0.05,19.9
21715,0.1339,-0.246,0.8632,-6.15,7.94,-0.03,19.9
21725,0.1361,-0.2501,0.866,-6.11,7.68,-0.08,19.91
21735,0.1371,-0.2457,0.8649,-6.12,7.69,-0.21,19.92
21745,0.1389,-0.2458,0.8629,-6.06,7.62,-0.06,19.9
21755,0.1378,-0.2494,0.86,-5.92,7.63,-0.05,19.91
21765,0.1409,-0.2465,0.8602,-5.97,7.59,-0.11,19.91
21775,0.1388,-0.2454,0.8622,-6.11,7.63,-0.11,19.92
21785,0.1418,-0.2452,0.8595,-6.15,7.59,-0.05,19.92
21795,0.1384,-0.2441,0.8564,-6.11,7.68,0.0,19.92
21805,0.1422,-0.245,0.8604,-6.03,7.74,-0.11,19.9
21815,0.1373,-0.2417,0.8562,-6.05,7.74,-0.02,19.9
21825,0.1367,-0.2448,0.8617,-6.03,7.71,-0.11,19.89
21835,0.1349,-0.2457,0.8618,-6.2,7.77,-0.09,19.9
21845,0.1361,-0.2463,0.8593,-6.17,7.71,-0.03,19.89
21855,0.1367,-0.2469,0.8568,-6.2,7.66,-0.05,19.91
21865,0.1378,-0.2467,0.8558,-6.14,7.85,0.02,19.92
21875,0.1411,-0.2461,0.8566,-6.03,7.86,0.09,19.92
21885,0.1354,-0.2438,0.8594,-5.89,7.76,0.0,19.93
21895,0.1357,-0.2473,0.8618,-5.94,7.59,-0.05,19.93
21905,0.1378,-0.2427,0.8601,-6.09,7.54,-0.09,19.92
21915,0.1401,-0.2466,0.8578,-6.14,7.65,-0.09,19.89
21925,0.1448,-0.2482,0.8553,-6.15,7.85,-0.08,19.91
21935,0.1406,-0.2462,0.8536,-6.12,8.09,-0.05,19.92
21945,0.1366,-0.2466,0.8593,-5.98,8.14,0.03,19.91
21955,0.1345,-0.2463,0.8645,-5.83,7.86,0.02,19.92
21965,0.137,-0.2482,0.8667,-5.76,7.48,-0.11,19.9
21975,0.137,-0.2463,0.8687,-5.97,7.37,-0.15,19.91
21985,0.1398,-0.2448,0.8646,-6.06,7.63,-0.12,19.89
21995,0.1399,-0.244,0.861,-6.2,7.95,-0.05,19.91
22005,0.1381,-0.249,0.863,-6.14,8.06,-0.02,19.91
22015,0.1384,-0.2457,0.8621,-6.18,8.0,-0.03,19.89
22025,0.1328,-0.2429,0.8569,-6.06,7.83,-0.12,19.91
22035,0.1359,-0.2446,0.8564,-5.94,7.45,-0.14,19.91
22045,0.1395,-0.2471,0.8607,-5.98,7.44,-0.15,19.88
22055,0.1418,-0.2468,0.8625,-5.89,7.71,-0.14,19.92
22065,0.14,-0.2444,0.8668,-5.82,7.95,0.03,19.92
22075,0.1398,-0.2456,0.8687,-5.95,7.94,-0.03,19.93
22085,0.1377,-0.245,0.8662,-6.2,7.73,0.03,19.91
22095,0.1373,-0.2443,0.8612,-6.23,7.63,-0.12,19.93
22105,0.1371,-0.2465,0.8563,-6.27,7.57,-0.14,19.92
22115,0.1404,-0.2443,0.8531,-6.23,7.76,-0.09,19.92
22125,0.1392,-0.2446,0.8544,-6.14,7.91,0.06,19.93
22135,0.1346,-0.2461,0.8555,-5.83,7.88,0.05,19.93
22145,0.135,-0.2445,0.8618,-5.77,7.76,-0.05,19.92
22155,0.1368,-0.2458,0.8612,-5.88,7.56,-0.15,19.92
22165,0.1364,-0.2463,0.8656,-5.89,7.44,-0.09,19.92
22175,0.1388,-0.2469,0.8624,-6.14,7.53,-0.08,19.93
22185,0.1403,-0.2439,0.8595,-6.2,7.82,-0.11,19.9
22195,0.1378,-0.2456,0.8618,-6.24,8.02,0.06,19.91
22205,0.1295,-0.2455,0.8619,-6.31,8.09,-0.03,19.93
22215,0.1361,-0.2472,0.8528,-6.27,7.76,-0.09,19.94
22225,0.1409,-0.248,0.8529,-6.02,7.45,-0.12,19.9
22235,0.1372,-0.2445,0.8564,-5.68,7.59,-0.06,19.93
22245,0.1382,-0.2455,0.866,-5.62,7.88,0.0,19.92
22255,0.1394,-0.2465,0.8658,-5.8,7.89,0.03,19.92
22265,0.1361,-0.2466,0.8647,-6.14,8.03,-0.03,19.93
22275,0.1332,-0.2457,0.8636,-6.35,7.74,-0.11,19.93
22285,0.1385,-0.2471,0.8535,-6.43,7.6,-0.12,19.9
22295,0.1388,-0.2462,0.8528,-6.27,7.74,-0.09,19.89
22305,0.1393,-0.2468,0.8511,-6.0,7.88,-0.02,19.91
22315,0.1365,-0.2485,0.8558,-5.76,7.82,0.02,19.93
22325,0.1359,-0.2461,0.8617,-5.62,7.66,-0.08,19.93
22335,0.1395,-0.2493,0.8612,-5.79,7.45,-0.11,19.9
22345,0.1414,-0.2458,0.8657,-5.91,7.5,-0.17,19.91
22355,0.1425,-0.2473,0.8615,-6.14,7.79,-0.06,19.94
22365,0.1396,-0.2457,0.8619,-6.24,7.97,0.02,19.92
22375,0.1375,-0.2458,0.8615,-6.27,8.08,-0.05,19.92
22385,0.136,-0.2482,0.8625,-6.18,7.98,-0.06,19.93
22395,0.1364,-0.2482,0.8606,-6.18,7.65,-0.15,19.92
22405,0.1404,-0.2509,0.8533,-5.97,7.48,-0.17,19.93
22415,0.1394,-0.2487,0.8567,-5.8,7.5,-0.15,19.91
22425,0.1382,-0.2477,0.8645,-5.65,7.69,-0.06,19.92
22435,0.1376,-0.246,0.865,-5.85,7.79,0.03,19.93
22445,0.1345,-0.2437,0.8657,-5.98,7.71,-0.03,19.92
22455,0.1403,-0.2485,0.8627,-6.31,7.59,-0.17,19.88
22465,0.1399,-0.2423,0.8606,-6.29,7.6,-0.06,19.91
22475,0.1425,-0.2441,0.8542,-6.21,7.71,-0.09,19.91
22485,0.137,-0.2449,0.8572,-6.09,7.97,0.0,19.92
22495,0.1385,-0.2444,0.8531,-5.98,7.97,-0.11,19.92
22505,0.1316,-0.2432,0.8577,-5.98,7.8,0.02,19.91
22515,0.1371,-0.2448,0.8636,-6.0,7.57,-0.12,19.9
22525,0.1381,-0.2434,0.8636,-6.08,7.42,-0.09,19.93
22535,0.1431,-0.246,0.859,-6.11,7.59,-0.11,19.92
22545,0.1407,-0.2467,0.8584,-5.98,7.94,-0.03,19.92
22555,0.1378,-0.2465,0.86,-5.95,8.08,0.06,19.9
22565,0.1323,-0.2438,0.8641,-6.17,7.98,0.03,19.93
22575,0.1361,-0.2448,0.8566,-6.31,7.59,-0.09,19.91
22585,0.1367,-0.2477,0.8528,-6.4,7.44,-0.14,19.92
22595,0.1385,-0.2474,0.8536,-6.23,7.54,-0.02,19.92
22605,0.1438,-0.2488,0.8535,-5.91,7.79,0.08,19.93
22615,0.1387,-0.2445,0.8521,-5.69,8.09,0.03,19.94
22625,0.136,-0.2466,0.8624,-5.47,8.08,0.05,19.93
22635,0.1344,-0.2444,0.8693,-5.71,7.62,0.0,19.92
22645,0.1349,-0.244,0.868,-6.05,7.44,-0.11,19.91
22655,0.1387,-0.245,0.8624,-6.31,7.42,-0.11,19.92
22665,0.1399,-0.246,0.8612,-6.46,7.8,0.0,19.93
22675,0.1378,-0.2468,0.8616,-6.4,8.12,-0.02,19.94
22685,0.1373,-0.2439,0.8542,-6.2,8.26,0.09,19.92
22695,0.1356,-0.2467,0.8567,-5.92,7.98,0.05,19.91
22705,0.1383,-0.2455,0.8575,-5.82,7.45,-0.14,19.92
22715,0.1388,-0.2434,0.8579,-5.85,7.3,-0.15,19.93
22725,0.1415,-0.2446,0.861,-5.94,7.36,-0.2,19.93
22735,0.1423,-0.2491,0.8599,-6.08,7.83,-0.05,19.95
22745,0.1417,-0.2484,0.8651,-6.15,8.12,0.0,19.93
22755,0.1383,-0.2468,0.8638,-6.12,8.17,-0.05,19.93
22765,0.1379,-0.2496,0.863,-6.15,7.69,-0.03,19.94
22775,0.1389,-0.2446,0.8593,-6.15,7.47,-0.18,19.93
22785,0.1394,-0.2462,0.8606,-6.08,7.44,-0.14,19.93
22795,0.1388,-0.245,0.8578,-5.94,7.47,-0.11,19.93
22805,0.1389,-0.2476,0.8584,-6.08,7.62,-0.12,19.92
22815,0.1412,-0.25,0.8578,-6.03,7.66,-0.09,19.92
22825,0.1395,-0.2482,0.8564,-6.05,7.66,-0.08,19.91
22835,0.1394,-0.2477,0.8566,-5.95,7.76,-0.09,19.92
22845,0.1381,-0.246,0.8577,-5.88,7.85,-0.02,19.91
22855,0.1349,-0.2465,0.8623,-5.91,7.71,-0.02,19.94
22865,0.1406,-0.2471,0.8627,-5.97,7.62,-0.08,19.93
22875,0.1403,-0.2454,0.8632,-6.08,7.71,0.0,19.94
22885,0.1385,-0.2445,0.8613,-6.23,7.79,-0.03,19.94
22895,0.1407,-0.2478,0.8547,-6.23,7.8,-0.08,19.94
22905,0.1373,-0.2446,0.8567,-6.14,7.74,-0.09,19.93
22915,0.1349,-0.2449,0.8553,-6.0,7.97,0.0,19.94
22925,0.141,-0.2467,0.8618,-5.89,7.98,0.06,19.93
22935,0.1357,-0.2461,0.864,-5.88,7.89,-0.03,19.95
22945,0.1335,-0.2445,0.8652,-6.09,7.76,0.03,19.95
22955,0.136,-0.2433,0.86,-6.21,7.74,-0.09,19.92
22965,0.1406,-0.2441,0.8549,-6.35,7.68,-0.06,19.93
22975,0.1422,-0.2484,0.8582,-6.17,7.79,-0.08,19.94
22985,0.1376,-0.2466,0.8573,-5.88,7.77,-0.03,19.92
22995,0.1389,-0.2493,0.8604,-5.68,7.83,-0.03,19.93
23005,0.1334,-0.2472,0.8683,-5.82,7.82,0.03,19.92
23015,0.1362,-0.2441,0.864,-6.0,7.71,-0.08,19.93
23025,0.1348,-0.2454,0.8652,-6.23,7.62,-0.12,19.92
23035,0.1376,-0.2444,0.8585,-6.26,7.71,-0.05,19.93
23045,0.1396,-0.2428,0.8553,-6.17,7.8,-0.03,19.94
23055,0.136,-0.2449,0.8583,-6.08,7.74,0.0,19.93
23065,0.1382,-0.2449,0.8586,-5.97,7.77,-0.02,19.94
23075,0.1414,-0.246,0.8608,-5.92,7.59,-0.15,19.92
23085,0.1416,-0.2441,0.8578,-5.89,7.53,-0.11,19.96
23095,0.1405,-0.2423,0.8636,-5.86,7.71,-0.03,19.91
23105,0.1392,-0.2429,0.8624,-6.02,7.83,-0.02,19.9
23115,0.1353,-0.2412,0.8616,-6.17,7.91,0.0,19.93
23125,0.1365,-0.2448,0.86,-6.26,7.88,-0.12,19.94
23135,0.1354,-0.2477,0.8586,-6.27,7.69,-0.11,19.93
23145,0.1375,-0.2469,0.8547,-6.23,7.62,-0.12,19.94
23155,0.1409,-0.2488,0.8525,-6.02,7.59,-0.06,19.93
23165,0.1417,-0.2457,0.8593,-5.97,7.73,-0.03,19.92
23175,0.1373,-0.245,0.8635,-5.89,7.91,0.0,19.94
23185,0.1366,-0.2438,0.8663,-5.91,7.85,0.02,19.92
23195,0.1345,-0.2438,0.8593,-6.11,7.69,-0.06,19.95
23205,0.1381,-0.2457,0.8586,-6.24,7.54,-0.09,19.94
23215,0.1395,-0.2462,0.8602,-6.29,7.56,-0.12,19.93
23225,0.1394,-0.2444,0.8573,-6.05,7.5,-0.15,19.93
23235,0.1382,-0.2491,0.8613,-5.89,7.65,-0.05,19.92
23245,0.137,-0.2471,0.8649,-5.98,7.63,-0.09,19.93
23255,0.1365,-0.2441,0.8655,-6.06,7.62,-0.08,19.94
23265,0.1381,-0.2476,0.8591,-6.14,7.47,-0.14,19.92
23276,0.1412,-0.2502,0.8561,-6.2,7.62,-0.12,19.92
23286,0.1414,-0.2482,0.8594,-6.08,7.86,-0.05,19.95
23296,0.1394,-0.2482,0.8618,-6.03,8.0,0.05,19.96
23306,0.1376,-0.2485,0.8612,-5.94,8.0,0.0,19.96
23316,0.1384,-0.2496,0.8678,-5.91,7.77,0.02,19.93
23326,0.1375,-0.2495,0.8616,-6.08,7.5,-0.08,19.95
23336,0.1392,-0.248,0.8601,-6.0,7.51,-0.08,19.92
23346,0.1406,-0.2479,0.863,-6.12,7.54,0.02,19.96
23356,0.1366,-0.248,0.8619,-6.17,7.82,-0.02,19.93
23366,0.1372,-0.2444,0.8553,-6.17,8.02,-0.03,19.95
23376,0.1377,-0.2487,0.8585,-6.02,8.06,0.03,19.92
23386,0.1403,-0.2446,0.8578,-5.83,7.91,0.02,19.94
23396,0.1357,-0.2469,0.8661,-5.83,7.79,0.05,19.94
23407,0.1375,-0.2435,0.8666,-5.98,7.83,0.05,19.92
23417,0.1373,-0.2426,0.8611,-6.27,7.86,-0.02,19.91
23427,0.135,-0.2462,0.8562,-6.37,7.86,-0.09,19.92
23437,0.1355,-0.2466,0.8578,-6.41,7.8,-0.05,19.91
23447,0.1379,-0.2487,0.8511,-6.23,7.74,-0.03,19.94
23457,0.1375,-0.2498,0.855,-5.97,7.63,0.0,19.92
23467,0.1415,-0.248,0.8528,-5.65,7.68,0.03,19.92
23477,0.1392,-0.2485,0.8623,-5.6,7.62,0.03,19.93
23487,0.1392,-0.2451,0.8668,-5.74,7.83,0.03,19.93
23497,0.1403,-0.2457,0.8717,-6.05,7.66,-0.08,19.93
23507,0.1344,-0.244,0.8633,-6.35,7.6,-0.12,19.94
23517,0.1359,-0.2455,0.855,-6.53,7.73,-0.08,19.94
23527,0.1368,-0.2454,0.8517,-6.37,7.77,-0.09,19.93
23537,0.1401,-0.2465,0.8549,-6.0,7.91,0.02,19.94
23547,0.1355,-0.2463,0.8655,-5.62,7.91,0.05,19.95
23557,0.1323,-0.2446,0.8737,-5.59,7.8,0.02,19.97
23567,0.1383,-0.2457,0.8732,-5.69,7.48,-0.03,19.95
23577,0.1366,-0.2461,0.8715,-6.05,7.44,-0.06,19.95
23587,0.1403,-0.2457,0.8684,-6.34,7.48,-0.09,19.94
23597,0.1395,-0.2493,0.8605,-6.49,7.77,-0.02,19.94
23607,0.1431,-0.2516,0.8572,-6.37,7.98,0.03,19.92
23617,0.1356,-0.2527,0.858,-6.08,8.03,0.02,19.95
23627,0.1375,-0.2465,0.8574,-5.85,7.86,0.06,19.94
23637,0.1388,-0.2435,0.8582,-5.65,7.47,-0.02,19.95
23647,0.1414,-0.2477,0.8635,-5.62,7.24,-0.15,19.93
23657,0.1414,-0.2419,0.8645,-5.89,7.34,-0.17,19.93
23667,0.137,-0.2437,0.861,-6.12,7.59,-0.03,19.94
23677,0.1362,-0.2441,0.8547,-6.32,7.79,-0.08,19.94
23687,0.1377,-0.2469,0.8561,-6.26,7.94,-0.09,19.94
23697,0.1389,-0.2463,0.8557,-6.17,7.91,-0.09,19.94
23707,0.1372,-0.2461,0.8541,-5.97,7.62,-0.08,19.93
23717,0.1382,-0.2434,0.8539,-5.94,7.56,-0.09,19.92
23727,0.1396,-0.2433,0.8546,-5.89,7.56,-0.14,19.95
23737,0.1387,-0.2426,0.8566,-5.97,7.69,-0.08,19.97
23747,0.1368,-0.2419,0.8558,-6.08,7.83,0.02,19.92
23757,0.1393,-0.2462,0.8588,-6.09,7.85,0.0,19.92
23767,0.1367,-0.2469,0.8644,-6.08,7.89,0.02,19.94
23777,0.1364,-0.2466,0.861,-6.03,7.88,-0.03,19.92
23787,0.1385,-0.2457,0.8595,-6.08,7.76,-0.08,19.94
23797,0.1403,-0.2458,0.8564,-6.06,7.71,-0.05,19.94
23807,0.1383,-0.2449,0.8623,-5.97,7.73,-0.09,19.92
23817,0.1349,-0.2437,0.8635,-6.03,7.77,-0.09,19.95
23827,0.1361,-0.2433,0.8596,-5.95,7.66,-0.09,19.96
23837,0.1368,-0.244,0.8622,-6.0,7.65,-0.09,19.95
23847,0.1417,-0.2473,0.8671,-5.95,7.71,-0.05,19.95
23857,0.1366,-0.2434,0.8704,-6.02,7.77,-0.05,19.96
23867,0.1387,-0.2483,0.866,-6.15,7.76,-0.12,19.98
23877,0.1426,-0.2452,0.864,-6.32,7.82,0.0,19.94
23887,0.1431,-0.2469,0.8582,-6.38,7.73,-0.06,19.94
23897,0.1389,-0.2467,0.8571,-6.23,7.86,-0.05,20.0
23907,0.1365,-0.248,0.8535,-6.06,7.88,0.03,19.95
23917,0.1378,-0.2471,0.8582,-5.89,7.65,-0.11,19.95
23927,0.1383,-0.2465,0.8613,-5.77,7.62,-0.06,19.95
23937,0.1394,-0.2455,0.8624,-5.85,7.57,-0.06,19.95
23947,0.1404,-0.2455,0.8606,-6.08,7.54,-0.09,19.94
23957,0.14,-0.2488,0.861,-6.2,7.71,-0.08,19.94
23967,0.1403,-0.2441,0.8624,-6.23,7.92,-0.11,19.94
23977,0.1394,-0.2426,0.8597,-6.23,7.92,-0.02,19.96
23987,0.1385,-0.2428,0.8585,-6.11,7.77,0.0,19.98
23997,0.1377,-0.2458,0.8594,-5.95,7.6,-0.12,19.94
24007,0.1388,-0.2443,0.8617,-5.98,7.59,-0.05,19.96
24017,0.1368,-0.2448,0.8571,-6.11,7.6,0.0,19.94
24027,0.1372,-0.2445,0.8579,-6.15,7.79,-0.08,19.99
24037,0.1382,-0.248,0.8586,-6.17,7.91,0.03,19.96
24047,0.1373,-0.2449,0.8608,-6.14,7.79,0.0,19.95
24057,0.1371,-0.2478,0.859,-6.02,7.76,-0.06,19.94
24067,0.1373,-0.2454,0.8643,-5.95,7.56,-0.02,19.93
24077,0.1384,-0.2446,0.8611,-5.94,7.59,-0.03,19.94
24087,0.1405,-0.2466,0.8599,-6.06,7.68,-0.11,19.94
24097,0.1378,-0.2498,0.8588,-6.18,7.8,-0.11,19.94
24107,0.137,-0.2471,0.861,-6.18,7.76,-0.02,19.94
24117,0.1354,-0.2479,0.8589,-6.15,7.76,0.03,19.97
24127,0.1417,-0.2457,0.8616,-5.97,7.74,0.0,19.95
24137,0.1401,-0.2437,0.8619,-5.85,7.66,-0.03,19.93
24147,0.1372,-0.2446,0.8604,-5.88,7.66,-0.11,19.93
24157,0.1416,-0.2439,0.8661,-6.0,7.62,-0.08,19.94
24167,0.1359,-0.2449,0.8638,-6.03,7.74,-0.08,19.94
24177,0.1405,-0.2466,0.86,-6.15,7.74,0.0,19.94
24187,0.1423,-0.2474,0.8569,-6.17,7.79,-0.08,19.94
24197,0.1383,-0.2477,0.8612,-6.21,7.88,0.02,19.93
24207,0.1384,-0.2477,0.8601,-6.05,7.89,-0.03,19.94
24217,0.1367,-0.2494,0.8575,-6.0,7.8,-0.03,19.96
24227,0.1357,-0.2469,0.8613,-5.86,7.69,-0.06,19.93
24237,0.1383,-0.2457,0.8627,-5.97,7.71,-0.05,19.96
24247,0.1394,-0.2449,0.8669,-5.98,7.79,-0.15,19.96
24257,0.1384,-0.2445,0.8647,-6.02,7.86,-0.06,19.96
24267,0.1362,-0.2473,0.8613,-6.2,7.76,-0.08,19.95
24277,0.1398,-0.2485,0.8545,-6.4,7.59,-0.11,19.93
24287,0.1453,-0.251,0.8506,-6.35,7.66,-0.09,19.95
24297,0.1427,-0.2491,0.8557,-6.03,7.79,0.0,19.96
24307,0.1406,-0.2462,0.8578,-5.56,8.02,0.2,19.96
24317,0.1364,-0.2451,0.8657,-5.53,7.95,0.09,19.94
24327,0.1329,-0.2443,0.8716,-5.69,7.57,-0.05,19.95
24337,0.1356,-0.2421,0.8676,-6.12,7.31,-0.12,19.96
24347,0.137,-0.241,0.8594,-6.44,7.42,-0.14,19.97
24357,0.1379,-0.2427,0.8506,-6.55,7.77,-0.08,19.96
24367,0.1388,-0.2471,0.85,-6.37,8.15,0.08,19.94
24377,0.1334,-0.244,0.8564,-6.05,8.32,0.02,19.95
24387,0.1326,-0.2457,0.8563,-5.66,7.85,-0.14,19.94
24397,0.1356,-0.2454,0.8622,-5.62,7.28,-0.14,19.96
24407,0.1389,-0.2451,0.8589,-5.77,6.93,-0.17,19.97
24417,0.1442,-0.2445,0.859,-5.94,7.15,-0.15,19.96
24427,0.1455,-0.2471,0.8617,-6.05,7.76,-0.03,19.97
24437,0.1426,-0.2454,0.8594,-6.32,8.21,0.0,19.94
24447,0.1479,-0.2499,0.8467,-6.18,7.74,0.11,19.94
24457,0.1315,-0.2469,0.8608,-6.29,7.82,-0.03,19.96
24467,0.1329,-0.2477,0.8633,-6.17,7.71,-0.15,19.94
24477,0.1423,-0.249,0.8505,-5.94,7.28,-0.09,19.96
24487,0.1421,-0.245,0.8612,-5.69,7.28,0.05,19.98
24497,0.1368,-0.2484,0.8647,-5.76,7.68,0.03,19.97
24507,0.1318,-0.2451,0.8726,-5.97,7.95,-0.06,19.96
24517,0.1379,-0.2473,0.8672,-6.12,7.66,-0.08,19.96
24527,0.1395,-0.2452,0.8607,-6.2,7.5,-0.05,19.94
24537,0.1426,-0.2458,0.8621,-6.2,7.57,-0.06,19.96
24547,0.1407,-0.2458,0.855,-6.24,7.98,-0.05,19.96
24557,0.1385,-0.2461,0.8575,-6.08,8.08,-0.05,19.94
24567,0.1407,-0.249,0.8601,-6.11,7.94,-0.09,19.96
24577,0.1372,-0.2465,0.8577,-6.06,7.74,-0.03,19.96
24587,0.1366,-0.2483,0.8586,-5.88,7.62,-0.11,19.96
24597,0.1425,-0.2458,0.8588,-5.77,7.63,-0.09,19.94
24607,0.1389,-0.2468,0.8593,-5.88,7.69,-0.03,19.93
24617,0.1382,-0.2433,0.8593,-5.94,7.82,-0.02,19.93
24627,0.1361,-0.2404,0.8617,-6.03,7.83,-0.08,19.95
24637,0.1399,-0.2448,0.8577,-6.08,7.91,-0.08,19.95
24647,0.1379,-0.2461,0.8572,-6.17,7.91,0.0,19.95
24657,0.1357,-0.2469,0.856,-6.18,7.82,-0.02,19.96
24667,0.14,-0.2477,0.8523,-6.09,7.69,-0.05,19.95
24677,0.1373,-0.2478,0.8552,-5.89,7.73,-0.02,19.95
24687,0.1378,-0.245,0.8624,-5.82,7.65,0.05,19.96
24697,0.1368,-0.2411,0.8646,-5.8,7.66,0.0,19.96
24707,0.1373,-0.2428,0.8662,-5.95,7.65,-0.06,19.98
24717,0.1378,-0.2434,0.8677,-6.15,7.6,-0.02,19.95
24727,0.1381,-0.2418,0.8643,-6.27,7.79,-0.09,19.96
24737,0.1382,-0.2445,0.8597,-6.27,7.86,-0.08,19.97
24747,0.1377,-0.2452,0.8644,-6.2,7.88,-0.11,19.94
24757,0.1356,-0.2471,0.8599,-6.09,7.91,-0.03,19.96
24767,0.1429,-0.2485,0.861,-5.86,7.68,-0.09,19.97
24777,0.1389,-0.2452,0.8633,-5.83,7.54,-0.03,19.95
24787,0.1384,-0.2456,0.8596,-5.92,7.74,-0.05,19.95
24797,0.1373,-0.2404,0.8633,-6.02,7.79,-0.02,19.94
24807,0.1349,-0.2415,0.8641,-6.08,7.88,0.0,19.96
24817,0.1384,-0.2433,0.8601,-6.29,7.79,-0.15,19.96
24827,0.1389,-0.2495,0.8655,-6.4,7.59,-0.17,19.95
24837,0.1436,-0.2529,0.8549,-6.29,7.57,-0.06,19.95
24847,0.1412,-0.251,0.8567,-6.11,7.63,-0.09,19.96
24857,0.1409,-0.2465,0.8533,-5.8,7.94,-0.02,19.96
24867,0.1417,-0.2452,0.8571,-5.71,7.86,0.0,19.97
24877,0.1333,-0.2438,0.8655,-5.74,7.82,-0.02,19.97
24887,0.1344,-0.2439,0.8672,-6.06,7.82,-0.11,19.98
24897,0.1373,-0.2462,0.8582,-6.09,7.53,-0.08,19.98
24907,0.1387,-0.2456,0.8602,-6.14,7.56,-0.06,19.97
24917,0.1349,-0.2479,0.8582,-6.2,7.91,-0.06,19.98
24927,0.1382,-0.2479,0.8564,-6.23,7.92,-0.05,19.97
24937,0.1381,-0.2488,0.856,-6.14,7.69,-0.06,19.95
24947,0.1353,-0.2482,0.8586,-5.91,7.47,-0.08,19.95
24957,0.1392,-0.2467,0.8616,-5.8,7.48,-0.11,19.95
24967,0.1434,-0.2468,0.8611,-5.71,7.37,0.0,19.96
24977,0.1393,-0.2449,0.8677,-5.74,7.56,-0.03,19.96
24987,0.1395,-0.2458,0.8625,-5.98,7.83,-0.05,19.97
24997,0.136,-0.2462,0.8657,-6.18,7.91,-0.06,19.96
25007,0.1345,-0.2456,0.8628,-6.46,8.0,-0.09,19.96
25017,0.139,-0.2482,0.8563,-6.41,7.85,-0.05,19.98
25027,0.1359,-0.25,0.8605,-6.37,7.82,-0.14,19.96
25037,0.1368,-0.2461,0.8514,-6.17,7.73,-0.03,19.95
25047,0.1339,-0.2498,0.8556,-5.97,7.59,-0.11,19.95
25057,0.1328,-0.2457,0.8595,-5.8,7.44,-0.02,19.96
25067,0.1422,-0.2455,0.8578,-5.71,7.33,-0.03,19.97
25077,0.1381,-0.2455,0.866,-5.66,7.44,-0.08,19.97
25087,0.1403,-0.2465,0.8657,-6.0,7.73,-0.14,19.97
25097,0.1406,-0.2476,0.8561,-6.32,7.66,-0.03,19.96
25107,0.1343,-0.2478,0.8604,-6.49,7.91,-0.03,19.97
25117,0.1388,-0.2473,0.859,-6.38,8.09,-0.02,19.98
25127,0.1389,-0.2451,0.8499,-5.97,7.95,-0.02,19.97
25137,0.1366,-0.2462,0.8615,-5.73,7.74,0.05,19.99
25147,0.1354,-0.2457,0.8613,-5.47,7.6,0.0,19.99
25157,0.1384,-0.2433,0.8676,-5.76,7.56,-0.02,19.94
25167,0.1376,-0.2415,0.8643,-6.0,7.57,-0.03,19.98
25177,0.1392,-0.2446,0.8632,-6.4,7.88,-0.09,19.96
25187,0.14,-0.2485,0.8593,-6.53,8.09,0.02,19.98
25197,0.1381,-0.2458,0.8604,-6.38,8.23,0.02,19.98
25207,0.1375,-0.2474,0.8568,-6.05,8.02,0.02,19.96
25217,0.1357,-0.2476,0.8613,-5.77,7.74,-0.08,19.97
25227,0.1354,-0.2461,0.8644,-5.71,7.42,-0.08,19.96
25237,0.1384,-0.2465,0.8677,-5.68,7.24,-0.14,19.97
25247,0.14,-0.2463,0.8688,-5.94,7.47,-0.06,19.99
25257,0.1428,-0.243,0.8594,-6.24,8.15,-0.02,19.99
25267,0.1388,-0.2407,0.8568,-6.34,8.08,-0.27,19.96
25277,0.1332,-0.2427,0.8619,-6.21,7.48,0.08,19.97
25287,0.1429,-0.2512,0.8617,-6.35,7.76,0.08,19.97
25297,0.1346,-0.2463,0.8584,-6.2,7.98,-0.17,20.0
25307,0.1387,-0.2422,0.8473,-5.77,7.44,-0.02,19.95
25317,0.1428,-0.2433,0.8641,-5.68,7.69,0.02,19.96
25327,0.1414,-0.2443,0.8683,-5.85,8.02,-0.08,19.97
25337,0.1305,-0.2449,0.8717,-5.94,7.37,0.05,19.97
25347,0.1362,-0.2485,0.8735,-6.12,7.56,-0.15,19.98
25357,0.1471,-0.2455,0.8682,-6.5,7.28,0.0,19.97
25367,0.1438,-0.2463,0.8562,-6.37,7.88,-0.06,19.97
25377,0.1351,-0.2461,0.8607,-6.27,8.47,-0.02,19.96
25387,0.1384,-0.2484,0.8569,-6.12,8.08,0.14,19.96
25397,0.1357,-0.25,0.8583,-6.06,7.83,-0.12,19.93
25407,0.1371,-0.2468,0.8594,-5.86,7.24,-0.09,19.95
25417,0.1395,-0.2489,0.8624,-5.88,7.08,-0.17,19.99
25427,0.1431,-0.2468,0.8618,-6.05,7.54,-0.23,19.97
25437,0.1405,-0.2452,0.8649,-6.09,8.0,0.05,19.98
25447,0.1392,-0.2474,0.8625,-6.12,8.35,-0.03,19.97
25457,0.1307,-0.2491,0.8623,-6.24,7.88,-0.02,19.98
25467,0.1316,-0.2446,0.8585,-6.49,7.65,-0.11,19.95
25477,0.1432,-0.2495,0.8473,-6.47,7.47,-0.12,19.97
25487,0.1459,-0.2474,0.8462,-6.23,7.27,-0.05,19.97
25497,0.144,-0.2479,0.849,-5.66,7.74,-0.05,19.98
25507,0.1407,-0.2489,0.8602,-5.45,8.17,-0.03,19.98
25517,0.1406,-0.2461,0.8632,-5.63,7.88,0.05,19.96
25527,0.1382,-0.2449,0.8623,-5.89,7.39,-0.11,19.97
25537,0.136,-0.2408,0.8654,-6.23,7.31,-0.17,19.99
25547,0.1378,-0.241,0.8622,-6.52,7.63,-0.08,19.99
25557,0.1395,-0.2446,0.8525,-6.63,8.05,-0.05,19.96
25567,0.1398,-0.2418,0.8514,-6.35,8.27,0.02,19.98
25577,0.1331,-0.2455,0.8547,-5.97,8.2,0.06,19.99
25587,0.1381,-0.2511,0.8534,-5.76,7.68,0.02,19.96
25597,0.1377,-0.2479,0.8591,-5.66,7.16,-0.11,19.99
25607,0.1396,-0.2457,0.8657,-5.74,7.3,-0.12,19.99
25617,0.1439,-0.2454,0.8657,-5.95,7.66,-0.02,19.99
25627,0.1405,-0.2452,0.8624,-6.23,8.02,-0.05,19.96
25637,0.1379,-0.2502,0.8666,-6.37,8.12,0.03,20.0
25647,0.1316,-0.26,0.8661,-6.46,8.14,0.02,19.97
25657,0.135,-0.2604,0.8569,-6.99,7.89,-0.21,19.96
25667,0.1393,-0.2421,0.847,-6.17,6.82,-0.03,19.97
25677,0.1458,-0.254,0.8536,-5.07,7.27,0.02,19.97
25687,0.1392,-0.234,0.8716,-4.87,8.29,0.14,19.97
25697,0.1298,-0.2274,0.8794,-5.16,8.24,-0.02,19.99
25707,0.1255,-0.2418,0.8866,-5.85,7.15,-0.08,19.96
25717,0.132,-0.2445,0.8715,-6.92,6.78,-0.52,19.97
25727,0.1409,-0.2494,0.8469,-7.56,6.99,-0.35,19.99
25737,0.1498,-0.2471,0.8375,-6.85,8.08,0.0,19.99
25747,0.1417,-0.2426,0.8447,-5.77,8.98,0.27,19.98
25757,0.1438,-0.2581,0.8641,-5.57,9.08,0.23,19.96
25767,0.1323,-0.2438,0.8685,-5.54,8.05,0.11,19.97
25777,0.1327,-0.2441,0.8719,-5.51,6.6,-0.17,19.97
25787,0.1431,-0.2513,0.8695,-6.05,6.27,-0.31,19.97
25797,0.1472,-0.2417,0.855,-6.69,7.31,-0.17,19.97
25807,0.1464,-0.2426,0.8464,-6.41,8.35,0.17,19.99
25817,0.1376,-0.246,0.8567,-5.86,8.93,0.2,19.98
25827,0.1287,-0.2435,0.8647,-5.91,8.58,0.08,19.99
25837,0.1288,-0.2434,0.8646,-5.97,7.44,-0.18,19.98
25847,0.1316,-0.2424,0.8634,-5.79,6.31,-0.29,19.99
25857,0.1396,-0.2446,0.8578,-6.0,6.58,-0.35,19.97
25867,0.1477,-0.244,0.8535,-6.24,7.45,-0.09,19.96
25877,0.1445,-0.2427,0.855,-6.0,8.43,0.15,19.97
25887,0.1368,-0.2482,0.8593,-5.85,8.55,0.2,19.99
25897,0.1366,-0.2484,0.8627,-6.09,8.06,-0.05,19.99
25907,0.1339,-0.2422,0.8567,-6.09,7.3,-0.14,20.0
25917,0.1392,-0.2472,0.859,-5.94,6.85,-0.15,20.0
25927,0.1451,-0.2506,0.8632,-6.17,7.54,-0.17,20.0
25937,0.1442,-0.2488,0.8593,-6.32,8.37,0.08,19.98
25947,0.1373,-0.2482,0.8619,-6.2,8.44,0.2,20.02
25957,0.1346,-0.2513,0.8615,-6.18,8.12,0.02,19.97
25967,0.1293,-0.2487,0.8628,-6.06,7.45,-0.11,19.99
25977,0.137,-0.2473,0.8608,-5.8,6.98,-0.17,19.99
25987,0.1416,-0.2461,0.8582,-5.65,6.9,-0.23,19.98
25997,0.1449,-0.2465,0.8673,-5.76,7.6,-0.15,19.99
26007,0.1418,-0.2451,0.8655,-5.82,8.09,0.03,20.0
26017,0.1366,-0.2401,0.8734,-5.86,8.37,0.08,20.0
26027,0.1389,-0.2408,0.8691,-6.03,7.89,-0.06,20.02
26037,0.1384,-0.2444,0.8661,-6.27,7.48,-0.09,20.0
26047,0.1379,-0.2426,0.8612,-6.31,7.25,-0.17,19.99
26057,0.1404,-0.2473,0.8584,-6.17,7.56,-0.15,19.97
26067,0.14,-0.2456,0.854,-6.15,8.05,0.05,19.97
26077,0.1442,-0.2478,0.8496,-6.11,8.09,0.0,19.99
26087,0.1377,-0.25,0.8531,-6.08,7.95,0.02,19.98
26097,0.1361,-0.2489,0.8604,-5.86,7.54,-0.06,20.0
26107,0.1366,-0.2467,0.8624,-5.95,7.42,-0.09,19.95
26117,0.1416,-0.2494,0.8539,-6.02,7.36,-0.12,19.96
26127,0.1403,-0.2493,0.8505,-5.95,7.48,-0.08,19.98
26137,0.1396,-0.2502,0.8578,-6.06,7.91,-0.03,20.0
26147,0.1373,-0.2468,0.8584,-6.05,7.97,-0.03,19.99
26157,0.1349,-0.2466,0.8553,-5.91,7.8,0.0,19.97
26167,0.134,-0.2473,0.8568,-5.79,7.53,-0.09,19.97
26177,0.1366,-0.2469,0.861,-5.66,7.31,-0.12,19.99
26187,0.14,-0.2428,0.8616,-5.66,7.47,-0.08,19.98
26197,0.1411,-0.2433,0.8651,-5.73,7.63,-0.06,19.99
26207,0.1401,-0.2419,0.8705,-5.95,7.86,0.05,20.0
26217,0.1354,-0.2379,0.871,-6.0,7.92,-0.03,19.99
26227,0.1375,-0.2402,0.8628,-6.21,7.68,-0.05,20.0
26237,0.1304,-0.2408,0.8604,-6.4,7.6,-0.08,19.98
26247,0.1356,-0.2417,0.8568,-6.49,7.89,-0.15,19.99
26257,0.1429,-0.2478,0.8563,-6.21,7.86,0.05,19.97
26267,0.1407,-0.2444,0.8599,-6.02,7.85,-0.02,20.0
26277,0.1346,-0.2472,0.8649,-5.8,7.89,-0.02,20.01
26287,0.1327,-0.2469,0.8689,-5.8,7.85,-0.05,19.99
26297,0.1431,-0.2476,0.8669,-5.95,7.54,-0.08,19.99
26307,0.1375,-0.2476,0.8641,-6.23,7.42,-0.12,20.01
26317,0.1389,-0.2483,0.8617,-6.27,7.57,-0.18,19.99
26327,0.1416,-0.2478,0.8555,-6.14,7.71,-0.12,19.99
26337,0.1372,-0.2479,0.8591,-6.2,7.88,0.0,19.99
26347,0.1312,-0.2446,0.8611,-6.11,8.0,-0.09,20.01
26357,0.1365,-0.2429,0.8568,-5.94,7.79,-0.11,19.99
26367,0.1425,-0.2474,0.8545,-5.89,7.4,-0.18,20.0
26377,0.141,-0.2448,0.8586,-5.77,7.4,-0.03,20.01
26387,0.134,-0.2408,0.8634,-5.88,7.73,-0.14,19.98
26397,0.1351,-0.2399,0.861,-5.91,7.92,-0.06,19.99
26407,0.1387,-0.2438,0.8591,-6.17,7.77,0.02,19.99
26417,0.1381,-0.2446,0.8591,-6.06,7.71,-0.02,19.99
26427,0.1385,-0.2402,0.8555,-6.09,7.68,-0.11,19.99
26437,0.1371,-0.2465,0.8633,-6.09,7.8,-0.08,19.99
26447,0.1381,-0.2452,0.8623,-6.09,7.92,-0.05,20.0
26457,0.1417,-0.2449,0.8494,-6.09,7.68,-0.02,20.0
26467,0.1418,-0.2496,0.8583,-6.14,7.69,-0.03,20.0
26477,0.1364,-0.2515,0.8586,-6.03,7.86,-0.05,19.98
26487,0.1367,-0.2487,0.8572,-5.95,7.77,0.06,20.0
26497,0.1371,-0.2515,0.8624,-5.94,7.76,-0.02,20.0
26507,0.1335,-0.2493,0.8634,-5.89,7.69,0.03,19.98
26517,0.1398,-0.248,0.8615,-5.92,7.53,0.0,19.97
26527,0.1398,-0.2474,0.8623,-5.97,7.65,-0.06,20.01
26537,0.141,-0.2467,0.8665,-6.0,7.73,-0.03,20.0
26547,0.1354,-0.2471,0.8641,-5.97,7.74,0.02,19.98
26557,0.1377,-0.2478,0.863,-6.03,7.63,-0.03,20.01
26567,0.1392,-0.2443,0.8649,-6.05,7.6,-0.02,20.01
26577,0.1384,-0.2438,0.8639,-6.14,7.62,-0.06,20.01
26587,0.1406,-0.2438,0.8617,-6.21,7.56,-0.09,19.99
26597,0.1431,-0.2466,0.8588,-6.18,7.73,-0.09,20.01
26607,0.1373,-0.2449,0.8573,-6.17,7.88,0.0,20.02
26617,0.139,-0.2451,0.8577,-6.05,7.88,0.02,20.0
26627,0.1412,-0.2462,0.8601,-6.0,7.79,0.03,20.0
26637,0.1404,-0.2457,0.8538,-6.03,7.53,-0.05,19.99
26647,0.1328,-0.2474,0.8684,-6.18,7.68,-0.14,20.01
26657,0.1344,-0.2433,0.8613,-6.11,7.76,-0.15,20.01
26667,0.1467,-0.246,0.8534,-6.08,7.65,-0.09,20.02
26677,0.1373,-0.2421,0.8599,-5.94,7.85,-0.05,20.02
26687,0.1322,-0.244,0.8639,-5.82,8.08,-0.08,20.0
26697,0.1392,-0.2483,0.8638,-5.83,7.8,-0.05,19.98
26707,0.1378,-0.246,0.864,-5.89,7.36,-0.08,19.99
26717,0.1329,-0.2419,0.864,-6.23,7.51,-0.06,20.0
26727,0.1333,-0.2452,0.8615,-6.35,7.66,-0.11,20.02
26737,0.1403,-0.2441,0.8547,-6.29,7.74,-0.11,20.03
26747,0.1409,-0.2467,0.8523,-6.11,8.0,0.03,20.02
26757,0.1381,-0.2476,0.8534,-5.91,7.88,0.02,19.98
26767,0.1383,-0.2484,0.8612,-5.68,7.63,0.0,19.98
26777,0.1403,-0.2461,0.8693,-5.69,7.42,-0.09,20.0
26787,0.1418,-0.2458,0.8668,-5.86,7.45,-0.05,20.01
26797,0.1399,-0.2443,0.8623,-6.11,7.6,-0.15,20.0
26807,0.1417,-0.2473,0.8591,-6.2,7.88,-0.05,20.0
26817,0.1395,-0.2462,0.8563,-6.21,7.95,-0.03,20.01
26827,0.1389,-0.2441,0.8561,-6.05,7.88,-0.02,19.99
26837,0.1326,-0.2451,0.86,-6.03,7.8,0.0,20.0
26847,0.1349,-0.2462,0.8613,-5.85,7.42,-0.14,20.03
26857,0.1387,-0.2441,0.8618,-5.77,7.39,-0.09,19.99
26867,0.137,-0.2437,0.8634,-5.91,7.54,-0.11,19.98
26877,0.1393,-0.2411,0.8621,-6.12,7.88,-0.02,20.04
26887,0.1403,-0.243,0.8575,-6.15,7.79,-0.02,20.0
26897,0.1382,-0.2449,0.8611,-6.23,7.74,-0.05,19.98
26907,0.139,-0.2426,0.8613,-6.15,7.74,-0.03,19.97
26917,0.1383,-0.244,0.8601,-6.08,7.59,-0.05,20.0
26927,0.1382,-0.2456,0.8599,-6.0,7.6,-0.03,20.01
26937,0.1383,-0.2438,0.8579,-6.0,7.8,0.08,20.02
26947,0.1377,-0.2446,0.865,-6.02,7.86,-0.06,20.01
26957,0.1364,-0.2454,0.8586,-6.12,7.8,0.02,20.01
26967,0.1372,-0.2489,0.8632,-6.21,7.73,-0.05,20.01
26977,0.1395,-0.2469,0.8629,-6.14,7.68,0.0,19.99
26987,0.141,-0.2506,0.8605,-6.08,7.71,-0.09,20.01
26997,0.1403,-0.2483,0.8601,-6.11,7.73,-0.06,20.02
27007,0.1381,-0.2478,0.8621,-6.09,7.8,-0.09,20.01
27017,0.137,-0.252,0.86,-6.09,7.74,-0.03,20.0
27027,0.1346,-0.2483,0.8599,-6.09,7.68,-0.09,20.0
27037,0.1345,-0.2482,0.8596,-6.11,7.56,-0.08,20.0
27047,0.1459,-0.251,0.8521,-5.97,7.51,-0.05,19.99
27057,0.1443,-0.2504,0.8535,-5.77,7.48,0.02,20.02
27067,0.1362,-0.2438,0.8666,-5.73,7.83,0.0,20.0
27077,0.1387,-0.2408,0.865,-5.83,7.85,0.0,20.02
27087,0.1378,-0.2422,0.8633,-5.97,7.57,-0.02,20.0
27097,0.1387,-0.2457,0.8621,-6.17,7.51,-0.08,20.02
27107,0.1377,-0.2446,0.8536,-6.35,7.73,-0.06,19.97
27117,0.1428,-0.2406,0.8541,-6.43,7.69,-0.11,19.98
27127,0.1423,-0.2446,0.8488,-6.14,7.82,-0.02,20.01
27137,0.1409,-0.2482,0.8556,-5.76,7.85,0.06,19.98
27147,0.1382,-0.2458,0.8623,-5.56,7.83,-0.02,19.97
27157,0.1387,-0.2458,0.8627,-5.65,7.65,-0.09,20.02
27167,0.1387,-0.2444,0.8704,-5.94,7.44,-0.14,20.03
27177,0.1385,-0.2456,0.8656,-6.31,7.53,-0.08,20.0
27187,0.1392,-0.2443,0.8591,-6.47,7.8,-0.11,20.0
27197,0.1389,-0.2494,0.8575,-6.47,8.02,-0.02,20.0
27207,0.1375,-0.2478,0.8517,-6.23,8.14,0.0,20.01
27217,0.1398,-0.2487,0.8541,-5.88,7.85,0.05,20.04
27227,0.1362,-0.246,0.8601,-5.65,7.54,0.02,19.98
27237,0.1379,-0.2437,0.8636,-5.65,7.47,-0.05,20.02
27247,0.1418,-0.2418,0.8651,-5.68,7.4,-0.08,20.01
27257,0.141,-0.2422,0.8657,-6.12,7.69,-0.06,20.03
27267,0.1384,-0.2456,0.8633,-6.41,7.89,-0.02,19.99
27277,0.1387,-0.2456,0.8583,-6.52,7.98,-0.03,20.0
27287,0.1372,-0.2463,0.8585,-6.46,7.85,0.0,20.02
27297,0.1354,-0.2435,0.8564,-6.2,7.74,-0.02,20.02
27307,0.1364,-0.2454,0.8551,-5.94,7.6,-0.02,20.05
27317,0.1362,-0.245,0.8558,-5.77,7.53,-0.09,20.02
27327,0.1405,-0.2448,0.858,-5.77,7.53,-0.03,20.0
27337,0.1379,-0.2473,0.8619,-5.92,7.8,-0.09,20.01
27347,0.137,-0.2448,0.8616,-6.12,7.73,-0.08,20.0
27357,0.142,-0.2482,0.8585,-6.23,7.8,-0.06,20.02
27367,0.1396,-0.2471,0.8583,-6.32,7.73,-0.06,20.02
27377,0.1384,-0.2445,0.8552,-6.21,7.79,-0.05,20.02
27387,0.1381,-0.2462,0.8584,-5.94,7.82,-0.05,20.01
27397,0.1379,-0.243,0.8578,-5.95,7.8,-0.06,20.01
27407,0.1364,-0.2429,0.8579,-5.91,7.73,0.02,20.0
27417,0.1367,-0.2421,0.8635,-5.91,7.6,-0.08,19.99
27427,0.1415,-0.243,0.8588,-5.94,7.57,-0.12,20.0
27437,0.1379,-0.2457,0.8613,-5.97,7.59,-0.08,20.02
27447,0.1398,-0.2439,0.863,-6.03,7.8,-0.14,20.02
27457,0.1411,-0.2454,0.8606,-6.08,7.89,0.02,20.01
27467,0.1381,-0.2408,0.8593,-6.09,7.85,-0.05,20.01
27477,0.1382,-0.248,0.8568,-6.14,7.68,-0.08,20.01
27487,0.1379,-0.2446,0.8588,-6.2,7.71,-0.17,20.02
27497,0.1372,-0.2474,0.8561,-6.17,7.69,-0.14,20.02
27507,0.139,-0.2507,0.8566,-6.02,7.73,0.02,20.0
27517,0.1379,-0.2499,0.8619,-5.97,7.82,-0.03,20.02
27527,0.1381,-0.2493,0.8606,-5.95,7.79,0.03,20.03
27537,0.1385,-0.2484,0.8683,-5.88,7.69,-0.02,20.0
27547,0.1384,-0.2489,0.8672,-5.91,7.56,-0.06,20.01
27557,0.1409,-0.2463,0.8652,-6.11,7.57,-0.05,20.04
27567,0.1428,-0.246,0.8566,-6.05,7.59,-0.06,20.01
27577,0.1412,-0.2435,0.8582,-6.05,7.73,-0.08,20.01
27587,0.1409,-0.2451,0.8604,-6.02,7.83,-0.08,20.01
27597,0.1383,-0.2438,0.864,-5.82,7.82,-0.08,20.02
27607,0.1376,-0.2417,0.8643,-5.8,7.76,-0.05,20.01
27617,0.1409,-0.2426,0.8628,-5.95,7.66,-0.02,20.03
27627,0.1416,-0.2438,0.861,-6.17,7.63,-0.08,20.01
27637,0.1393,-0.2418,0.8607,-6.4,7.73,-0.06,20.02
27647,0.1407,-0.2439,0.8582,-6.47,8.03,0.02,20.01
27657,0.142,-0.2455,0.853,-6.32,7.92,0.09,20.01
27667,0.1393,-0.2498,0.8567,-6.26,7.74,-0.06,20.02
27677,0.1365,-0.2457,0.8558,-5.92,7.69,-0.03,20.01
27687,0.1353,-0.2429,0.8568,-5.73,7.66,-0.06,20.0
27697,0.1385,-0.2471,0.8638,-5.76,7.62,-0.03,20.03
27707,0.1412,-0.2446,0.8638,-5.91,7.69,-0.06,20.03
27717,0.1378,-0.2477,0.8622,-6.17,7.83,-0.02,20.01
27727,0.1346,-0.2424,0.8624,-6.27,7.83,-0.11,20.03
27737,0.1395,-0.2441,0.8546,-6.26,7.62,-0.05,20.01
27747,0.1371,-0.2435,0.8544,-6.12,7.62,0.03,20.02
27757,0.1373,-0.2427,0.8557,-5.85,7.79,0.02,20.03
27767,0.1367,-0.2443,0.8613,-5.76,7.71,-0.06,20.02
27777,0.1404,-0.2426,0.8627,-5.77,7.6,-0.02,20.03
27787,0.1394,-0.2399,0.8634,-5.98,7.59,-0.05,20.02
27797,0.1388,-0.2424,0.8695,-6.17,7.69,-0.12,20.0
27807,0.1395,-0.2448,0.8636,-6.37,7.89,-0.05,20.02
27817,0.1383,-0.2471,0.8582,-6.44,7.92,-0.02,20.01
27827,0.1372,-0.2463,0.8616,-6.37,7.95,0.05,20.01
27837,0.1398,-0.2466,0.8564,-6.15,7.91,-0.02,20.01
27847,0.1385,-0.249,0.8604,-5.95,7.74,-0.06,20.02
27857,0.1395,-0.249,0.8616,-5.76,7.56,-0.08,20.02
27867,0.14,-0.2478,0.8651,-5.91,7.51,-0.11,19.97
27877,0.1407,-0.2477,0.8687,-6.05,7.51,-0.08,20.03
27887,0.1418,-0.2488,0.8597,-6.23,7.73,-0.03,20.01
27897,0.1406,-0.2441,0.859,-6.29,7.8,-0.06,19.99
27907,0.139,-0.2449,0.8645,-6.15,7.88,-0.03,20.0
27917,0.1392,-0.2462,0.8589,-6.02,7.8,0.0,20.01
27927,0.1392,-0.2417,0.8625,-5.95,7.73,-0.05,20.01
27937,0.1393,-0.2451,0.8602,-5.95,7.6,-0.06,19.99
27947,0.1399,-0.2451,0.861,-6.06,7.69,-0.14,19.98
27957,0.142,-0.245,0.8618,-6.17,7.66,-0.05,19.99
27967,0.1422,-0.2456,0.8628,-6.21,7.76,0.0,20.02
27977,0.1388,-0.2449,0.8621,-6.15,7.97,0.0,20.02
27987,0.1399,-0.2465,0.8621,-6.02,7.92,-0.02,20.02
27997,0.1345,-0.2474,0.861,-5.91,7.8,-0.02,20.02
28007,0.1351,-0.2434,0.8624,-6.0,7.66,-0.08,20.02
28017,0.1399,-0.2477,0.8604,-6.12,7.51,-0.12,20.03
28027,0.1392,-0.2469,0.8584,-6.09,7.62,-0.03,20.02
28037,0.1415,-0.2487,0.8575,-6.03,7.82,0.06,20.0
28047,0.1362,-0.2483,0.8586,-6.08,7.85,-0.03,20.02
28057,0.1311,-0.2473,0.8663,-6.18,8.05,-0.06,19.99
28067,0.1405,-0.2488,0.8602,-6.14,7.6,-0.03,20.0
28077,0.1445,-0.2469,0.8525,-6.02,7.39,-0.12,20.03
28087,0.1353,-0.2462,0.8624,-6.03,7.66,-0.15,20.02
28097,0.1372,-0.2456,0.8646,-6.0,7.97,-0.12,20.02
28107,0.1439,-0.2457,0.8602,-5.97,7.91,0.03,20.04
28117,0.1407,-0.2471,0.8627,-6.02,7.69,0.06,20.02
28127,0.1357,-0.2438,0.8635,-6.05,7.56,-0.06,20.02
28137,0.1362,-0.2432,0.8595,-6.09,7.5,-0.03,20.02
28147,0.1418,-0.244,0.8596,-6.12,7.65,-0.12,20.02
28157,0.1461,-0.244,0.8534,-6.15,7.8,-0.11,20.03
28167,0.1353,-0.2451,0.8584,-6.12,7.97,-0.02,20.03
28177,0.1353,-0.2458,0.8621,-6.05,8.0,0.0,20.02
28187,0.137,-0.2448,0.8572,-6.09,7.74,-0.03,20.03
28197,0.1343,-0.2452,0.86,-6.08,7.57,-0.06,20.04
28207,0.1394,-0.2443,0.8586,-5.95,7.54,-0.09,20.02
28217,0.1417,-0.2494,0.8607,-5.89,7.69,-0.09,20.03
28227,0.1398,-0.2433,0.8646,-5.88,7.98,-0.02,20.02
28237,0.1409,-0.2446,0.8636,-6.08,7.89,0.03,20.01
28247,0.14,-0.2449,0.8625,-6.2,7.8,-0.06,20.02
28257,0.1372,-0.2471,0.859,-6.24,7.6,-0.06,20.02
28267,0.1378,-0.2469,0.8625,-6.12,7.71,-0.06,20.04
28277,0.1345,-0.2455,0.8623,-5.95,7.71,-0.05,20.03
28287,0.1376,-0.249,0.8621,-5.86,7.82,0.0,20.02
28297,0.1361,-0.2458,0.8615,-5.89,7.77,-0.03,20.02
28307,0.1364,-0.2482,0.8627,-6.05,7.6,-0.11,20.03
28317,0.1375,-0.2452,0.8605,-6.2,7.48,-0.12,20.03
28327,0.1401,-0.2419,0.8583,-6.11,7.53,-0.06,20.05
28337,0.1426,-0.2441,0.8585,-6.08,7.74,-0.02,20.03
28347,0.1414,-0.2428,0.8586,-6.0,7.89,-0.06,20.05
28357,0.1394,-0.2484,0.8624,-6.02,7.79,0.03,20.01
28367,0.1362,-0.2434,0.8619,-5.97,7.68,-0.08,20.03
28377,0.1382,-0.2423,0.8611,-6.18,7.44,-0.09,20.04
28387,0.1411,-0.2466,0.8608,-6.21,7.5,-0.09,20.0
28397,0.1388,-0.2424,0.8568,-6.09,7.83,-0.09,20.03
28407,0.1404,-0.2426,0.8584,-6.0,7.98,0.05,20.04
28417,0.1394,-0.2426,0.8606,-5.94,8.03,0.12,20.03
28427,0.1362,-0.2455,0.865,-5.97,7.79,0.0,20.02
28437,0.1398,-0.2461,0.8616,-6.18,7.59,-0.08,20.03
28447,0.14,-0.2419,0.8577,-6.18,7.48,-0.2,20.05
28457,0.1399,-0.2493,0.8601,-6.23,7.69,-0.12,20.04
28467,0.1407,-0.2485,0.8536,-6.09,7.98,0.03,20.0
28477,0.1371,-0.2488,0.8584,-6.09,8.03,0.03,20.05
28487,0.1333,-0.2499,0.8624,-5.95,7.86,0.02,20.03
28497,0.1364,-0.2451,0.8566,-5.91,7.62,-0.08,20.04
28507,0.1398,-0.2449,0.8654,-5.92,7.4,-0.12,20.04
