t_ms,accel_x_g,accel_y_g,accel_z_g,gyro_x_dps,gyro_y_dps,gyro_z_dps,imu_temp_c
3286,0.3336,-0.0221,0.8635,-6.76,7.95,-0.06,31.09
3296,0.3324,-0.0244,0.8643,-6.92,7.98,0.02,31.09
3306,0.3308,-0.0256,0.8621,-6.69,8.0,0.02,31.14
3316,0.3313,-0.0286,0.8656,-6.89,8.06,-0.02,31.13
3326,0.3301,-0.024,0.8567,-6.75,7.95,0.11,31.14
3336,0.3297,-0.0234,0.8677,-6.73,8.03,-0.05,31.14
3346,0.3301,-0.0267,0.8628,-6.75,7.92,0.0,31.11
3356,0.3281,-0.0273,0.865,-6.87,7.94,-0.06,31.11
3366,0.3293,-0.0259,0.8607,-6.85,8.02,0.0,31.14
3376,0.3315,-0.028,0.8629,-6.72,7.94,0.0,31.14
3386,0.33,-0.0273,0.8616,-6.78,7.92,0.02,31.14
3396,0.3313,-0.0298,0.8649,-6.81,7.97,0.0,31.15
3406,0.3308,-0.0254,0.8654,-6.79,7.92,-0.02,31.12
3416,0.3324,-0.0234,0.8683,-6.85,7.98,-0.08,31.15
3426,0.3317,-0.022,0.8629,-6.72,7.98,-0.11,31.13
3436,0.3317,-0.0256,0.865,-6.78,8.0,-0.05,31.13
3446,0.3325,-0.0231,0.8645,-6.84,7.97,-0.02,31.16
3456,0.3276,-0.0239,0.8615,-6.78,8.05,-0.09,31.15
3466,0.3315,-0.0239,0.8605,-6.89,8.06,-0.03,31.12
3476,0.3298,-0.0255,0.865,-6.79,7.91,-0.03,31.15
3487,0.3296,-0.0236,0.8683,-6.93,8.0,0.06,31.14
3497,0.3297,-0.0239,0.8632,-6.89,7.97,-0.03,31.12
3507,0.3302,-0.0275,0.8645,-6.81,8.05,-0.03,31.15
3517,0.3287,-0.0277,0.8632,-6.84,7.98,-0.11,31.14
3527,0.33,-0.0223,0.8657,-6.76,8.02,-0.06,31.15
3537,0.3319,-0.0254,0.8655,-6.9,7.98,-0.09,31.13
3547,0.3309,-0.0227,0.8665,-6.87,8.02,-0.02,31.14
3557,0.3325,-0.0247,0.8634,-6.78,7.97,0.0,31.16
3567,0.3325,-0.0245,0.8633,-6.82,7.92,-0.03,31.16
3577,0.3302,-0.0244,0.8635,-6.73,7.98,-0.05,31.16
3588,0.3331,-0.0229,0.8647,-6.84,8.02,0.05,31.14
3598,0.3329,-0.0253,0.8621,-6.81,7.98,0.02,31.18
3608,0.3284,-0.0253,0.8647,-6.81,7.98,-0.02,31.14
3618,0.3319,-0.0243,0.8652,-6.73,8.0,-0.06,31.16
3628,0.3301,-0.027,0.8651,-6.81,8.02,0.02,31.17
3638,0.334,-0.0234,0.861,-6.82,8.05,-0.05,31.16
3648,0.3319,-0.0248,0.8634,-6.63,8.02,-0.05,31.15
3658,0.3303,-0.0255,0.8661,-6.76,8.08,-0.05,31.17
3668,0.3312,-0.0248,0.8645,-6.75,8.06,-0.02,31.15
3678,0.3278,-0.027,0.8639,-6.79,7.92,-0.06,31.16
3689,0.3295,-0.024,0.8625,-6.76,7.94,-0.08,31.15
3699,0.3311,-0.0239,0.8636,-6.84,7.97,-0.03,31.16
3709,0.3309,-0.0222,0.8639,-6.76,8.0,-0.08,31.16
3719,0.3334,-0.0237,0.8613,-6.76,8.0,-0.05,31.16
3729,0.3325,-0.0262,0.8636,-6.81,8.03,0.02,31.16
3739,0.3295,-0.0262,0.8683,-6.84,8.0,0.09,31.16
3749,0.3279,-0.0261,0.8674,-6.67,7.95,-0.02,31.16
3759,0.3307,-0.0265,0.8695,-6.87,8.0,0.03,31.15
3769,0.3319,-0.0269,0.8665,-6.78,7.97,0.03,31.17
3780,0.3308,-0.0242,0.8668,-6.9,7.97,-0.03,31.17
3790,0.3286,-0.0264,0.8628,-6.78,7.92,-0.05,31.17
3800,0.332,-0.0215,0.8632,-6.81,7.97,0.02,31.14
3810,0.3314,-0.0243,0.8654,-6.81,8.02,-0.02,31.15
3820,0.3315,-0.0231,0.8628,-6.73,8.0,-0.09,31.15
3830,0.3287,-0.0271,0.8639,-6.87,7.95,-0.08,31.15
3840,0.329,-0.0266,0.8632,-6.89,8.02,0.05,31.17
3850,0.3293,-0.0256,0.8661,-6.85,7.97,-0.02,31.17
3860,0.3311,-0.0267,0.8608,-6.84,7.85,-0.09,31.17
3870,0.3302,-0.0259,0.8643,-6.81,8.03,0.02,31.17
3880,0.3291,-0.026,0.8644,-6.82,7.97,-0.03,31.15
3890,0.3289,-0.028,0.8634,-6.81,7.98,-0.02,31.18
3900,0.3291,-0.0272,0.86,-6.85,7.97,0.03,31.16
3910,0.3295,-0.0234,0.8668,-6.82,7.95,0.03,31.18
3920,0.3286,-0.0245,0.8652,-6.85,7.92,0.02,31.19
3930,0.3313,-0.0277,0.8656,-6.85,8.03,-0.11,31.18
3940,0.3323,-0.0244,0.8618,-6.75,8.05,-0.05,31.18
3950,0.3319,-0.0259,0.8612,-6.87,8.02,0.02,31.18
3960,0.3303,-0.0244,0.8638,-6.82,8.0,0.0,31.18
3970,0.332,-0.0259,0.8682,-6.82,8.0,0.06,31.19
3980,0.3284,-0.0261,0.8658,-6.82,8.03,0.0,31.2
3990,0.3295,-0.0229,0.8684,-6.78,8.06,-0.02,31.17
4000,0.3337,-0.0201,0.8679,-6.75,8.14,0.03,31.19
4010,0.3331,-0.0265,0.8641,-6.79,8.02,-0.06,31.17
4020,0.3289,-0.0264,0.8636,-6.73,8.03,-0.08,31.17
4030,0.3281,-0.0242,0.8643,-6.95,8.06,0.02,31.19
4040,0.3289,-0.028,0.8623,-6.81,7.95,0.02,31.16
4050,0.3313,-0.027,0.8605,-6.89,7.95,0.02,31.19
4060,0.3298,-0.0267,0.8674,-6.79,7.91,-0.03,31.17
4070,0.3292,-0.0233,0.8635,-6.85,7.95,0.06,31.17
4080,0.3309,-0.0267,0.8676,-6.79,8.0,-0.03,31.2
4090,0.3298,-0.0233,0.8646,-6.85,7.95,0.02,31.2
4100,0.329,-0.0265,0.8619,-6.81,8.0,-0.05,31.2
4110,0.3281,-0.0261,0.8666,-6.87,8.0,0.03,31.19
4120,0.332,-0.0245,0.8672,-6.84,7.91,-0.03,31.18
4130,0.3293,-0.0253,0.8672,-6.85,7.95,0.02,31.18
4140,0.3325,-0.0234,0.8662,-6.95,8.03,-0.06,31.17
4150,0.3313,-0.0228,0.8666,-6.81,7.98,-0.03,31.18
4160,0.3295,-0.0242,0.8649,-6.82,7.97,0.0,31.18
4170,0.3319,-0.0229,0.8665,-6.81,8.03,-0.15,31.19
4180,0.3329,-0.026,0.8627,-6.95,8.03,-0.08,31.2
4190,0.3291,-0.0266,0.8618,-6.73,8.0,0.02,31.18
4200,0.3308,-0.026,0.8623,-6.78,7.94,-0.02,31.18
4210,0.3309,-0.0273,0.8635,-6.81,8.03,0.05,31.19
4220,0.3296,-0.0247,0.8605,-6.85,8.02,0.03,31.21
4230,0.3318,-0.0259,0.8645,-6.73,7.98,-0.03,31.17
4240,0.3312,-0.025,0.8647,-6.85,8.02,-0.03,31.19
4250,0.3262,-0.0286,0.8671,-6.82,8.11,-0.06,31.18
4260,0.3311,-0.0247,0.8654,-6.82,7.94,-0.09,31.21
4270,0.3326,-0.0259,0.8661,-6.81,8.08,-0.09,31.21
4280,0.3325,-0.0276,0.863,-6.81,7.89,0.05,31.24
4290,0.3311,-0.0261,0.8644,-6.89,8.09,0.02,31.19
4301,0.3307,-0.0284,0.8658,-6.87,7.98,0.02,31.2
4311,0.3301,-0.0248,0.8632,-6.85,7.98,0.02,31.22
4321,0.3284,-0.0253,0.8613,-6.79,8.03,-0.05,31.18
4331,0.3306,-0.0277,0.8643,-6.87,7.95,-0.05,31.2
4341,0.3337,-0.0262,0.8597,-6.81,7.95,-0.06,31.21
4351,0.3292,-0.0271,0.8647,-6.87,8.03,0.0,31.19
4361,0.3301,-0.0273,0.8623,-6.82,8.05,0.02,31.19
4371,0.3357,-0.0264,0.8641,-6.78,8.03,0.06,31.2
4381,0.3339,-0.0266,0.8665,-6.87,7.97,-0.05,31.2
4391,0.3322,-0.0243,0.8651,-6.89,8.05,-0.03,31.19
4401,0.3296,-0.0255,0.8677,-6.82,7.97,0.06,31.2
4411,0.3296,-0.0251,0.8667,-6.84,8.02,-0.03,31.2
4421,0.3296,-0.0245,0.8646,-6.84,7.98,0.0,31.19
4431,0.3303,-0.0254,0.8602,-6.7,8.03,-0.08,31.21
4441,0.3298,-0.0251,0.8665,-6.93,8.12,-0.03,31.21
4451,0.3298,-0.0223,0.8644,-6.82,8.02,0.08,31.21
4461,0.3311,-0.0272,0.8671,-6.82,8.0,-0.08,31.2
4471,0.3285,-0.0221,0.8638,-6.79,8.03,-0.05,31.22
4481,0.3297,-0.0264,0.8607,-6.75,7.95,-0.05,31.21
4491,0.3275,-0.024,0.8632,-6.81,7.97,-0.02,31.22
4501,0.3325,-0.0245,0.8655,-6.7,7.91,-0.06,31.21
4511,0.3306,-0.0249,0.8633,-6.81,7.97,-0.02,31.21
4521,0.3336,-0.0253,0.8645,-6.87,8.02,-0.06,31.21
4531,0.3287,-0.0266,0.8649,-6.85,8.02,-0.06,31.22
4541,0.3334,-0.0237,0.8638,-6.78,7.91,-0.03,31.22
4551,0.3304,-0.0256,0.8655,-6.85,8.12,-0.06,31.22
4561,0.3331,-0.0251,0.8607,-6.84,8.05,0.02,31.2
4571,0.3297,-0.0254,0.8689,-6.81,7.98,-0.05,31.24
4581,0.3295,-0.024,0.8644,-6.78,7.95,0.08,31.23
4591,0.3295,-0.0226,0.8661,-6.78,8.09,0.02,31.19
4601,0.3295,-0.0231,0.8632,-6.82,8.0,-0.09,31.21
4611,0.3302,-0.0231,0.8636,-6.85,8.0,-0.02,31.2
4621,0.3282,-0.025,0.8652,-6.81,7.98,-0.06,31.22
4631,0.3302,-0.0266,0.8672,-6.79,7.98,-0.02,31.22
4641,0.3314,-0.0251,0.868,-6.87,8.02,0.02,31.21
4651,0.3304,-0.0231,0.8613,-6.76,7.98,0.0,31.22
4661,0.3292,-0.0222,0.8685,-6.78,7.97,-0.02,31.22
4671,0.3302,-0.0232,0.8684,-6.84,8.03,-0.08,31.24
4681,0.3302,-0.0247,0.8629,-6.84,8.0,-0.03,31.23
4692,0.3315,-0.0255,0.8652,-6.78,7.98,-0.06,31.22
4702,0.3295,-0.0215,0.866,-6.85,8.03,-0.02,31.21
4712,0.3319,-0.024,0.8663,-6.78,7.97,-0.05,31.26
4722,0.3271,-0.0275,0.8638,-6.89,8.03,-0.11,31.21
4732,0.3304,-0.0253,0.8651,-6.9,8.02,-0.12,31.23
4742,0.3302,-0.0253,0.8685,-6.85,8.08,0.05,31.24
4752,0.33,-0.0247,0.8671,-6.92,7.98,-0.08,31.24
4762,0.3303,-0.025,0.865,-6.81,7.83,0.02,31.24
4772,0.3337,-0.0277,0.8607,-6.9,7.89,0.02,31.26
4782,0.3292,-0.025,0.8651,-6.84,8.02,-0.02,31.24
4792,0.3284,-0.0248,0.8658,-6.92,8.03,-0.05,31.23
4802,0.3308,-0.0253,0.8667,-6.81,7.98,0.0,31.24
4812,0.3317,-0.0204,0.8632,-6.85,8.03,-0.15,31.24
4822,0.3309,-0.0217,0.8656,-6.84,7.97,-0.09,31.24
4832,0.3307,-0.0234,0.8676,-6.85,8.08,0.0,31.24
4842,0.3329,-0.0272,0.8625,-6.89,7.97,-0.11,31.24
4852,0.3356,-0.0264,0.8627,-6.9,7.89,0.05,31.25
4862,0.3329,-0.0261,0.8662,-6.75,7.91,-0.02,31.25
4872,0.3298,-0.0258,0.8701,-6.78,8.06,-0.03,31.23
4882,0.333,-0.0267,0.8665,-6.85,8.05,-0.03,31.22
4892,0.3351,-0.0262,0.8589,-6.82,7.95,-0.11,31.26
4902,0.3301,-0.024,0.8645,-6.89,7.95,-0.08,31.23
4912,0.3298,-0.0269,0.8634,-6.87,8.02,-0.03,31.27
4922,0.3302,-0.0245,0.8638,-6.82,7.98,-0.02,31.22
4932,0.3307,-0.0228,0.8634,-6.81,7.94,-0.02,31.23
4942,0.33,-0.0248,0.8621,-6.9,7.98,0.05,31.22
4952,0.3302,-0.0258,0.8605,-6.84,8.02,0.0,31.23
4962,0.3324,-0.0244,0.8647,-6.89,7.95,-0.02,31.24
4972,0.3323,-0.0261,0.8639,-6.95,8.06,-0.05,31.22
4982,0.3298,-0.0278,0.8613,-6.84,7.94,0.0,31.24
4992,0.3308,-0.0231,0.8619,-6.85,8.05,-0.02,31.23
5002,0.3311,-0.0236,0.8615,-6.89,7.95,-0.06,31.2
5012,0.3279,-0.025,0.8666,-6.89,7.92,-0.09,31.24
5022,0.3291,-0.0273,0.87,-6.81,7.94,-0.06,31.24
5032,0.3303,-0.0261,0.869,-6.92,7.97,-0.05,31.24
5042,0.3308,-0.0278,0.8611,-6.87,7.97,-0.06,31.25
5052,0.3286,-0.024,0.865,-6.87,7.94,-0.15,31.22
5062,0.3302,-0.0255,0.8643,-6.82,8.0,-0.03,31.23
5072,0.3293,-0.0259,0.8656,-6.84,7.95,-0.12,31.25
5082,0.3329,-0.0247,0.8656,-6.79,7.98,-0.02,31.23
5092,0.3284,-0.0258,0.8672,-6.79,8.03,0.02,31.25
5102,0.3309,-0.0234,0.8651,-6.85,8.02,-0.05,31.23
5112,0.3301,-0.0234,0.866,-6.79,8.03,-0.06,31.25
5122,0.3282,-0.0244,0.8644,-6.84,8.06,-0.05,31.26
5132,0.3295,-0.022,0.8636,-6.98,8.02,-0.09,31.25
5142,0.3309,-0.0254,0.8618,-6.89,8.0,-0.03,31.27
5152,0.3298,-0.026,0.864,-6.85,8.06,-0.03,31.24
5162,0.3314,-0.0237,0.8651,-6.79,8.0,-0.08,31.24
5172,0.3337,-0.0243,0.8644,-6.79,7.92,-0.11,31.26
5182,0.3328,-0.0266,0.8674,-6.85,7.97,-0.05,31.24
5192,0.3298,-0.0251,0.8663,-6.9,8.11,-0.08,31.25
5202,0.3289,-0.0244,0.8662,-6.89,8.08,-0.06,31.25
5212,0.3291,-0.0262,0.8636,-6.79,7.94,0.03,31.25
5222,0.3308,-0.0253,0.8666,-6.76,8.0,-0.05,31.25
5232,0.3282,-0.0259,0.8629,-6.87,8.03,-0.08,31.24
5242,0.3289,-0.026,0.8663,-6.87,7.94,-0.02,31.24
5252,0.3301,-0.0265,0.8617,-6.76,8.0,0.02,31.23
5262,0.3322,-0.0262,0.8628,-6.78,8.0,0.02,31.22
5272,0.3323,-0.0267,0.8658,-6.81,8.02,0.02,31.24
5282,0.3318,-0.0254,0.8655,-6.73,7.97,0.05,31.24
5292,0.3329,-0.025,0.8666,-6.84,7.98,0.05,31.24
5302,0.333,-0.0272,0.8647,-6.79,8.05,-0.09,31.24
5312,0.3292,-0.0245,0.8639,-6.73,8.02,0.03,31.24
5322,0.3317,-0.028,0.8599,-6.7,7.95,0.02,31.26
5332,0.329,-0.0237,0.8708,-6.85,7.94,-0.03,31.26
5342,0.3284,-0.0264,0.8662,-6.89,7.91,0.02,31.25
5352,0.3322,-0.0255,0.865,-6.84,7.92,0.02,31.27
5362,0.3309,-0.0242,0.865,-6.84,8.02,0.03,31.28
5372,0.3295,-0.024,0.8661,-6.76,7.98,-0.05,31.27
5382,0.3318,-0.0227,0.8647,-6.81,8.09,0.03,31.25
5392,0.3296,-0.0248,0.8674,-6.93,8.09,0.08,31.26
5402,0.3291,-0.0233,0.8647,-6.84,8.02,0.0,31.26
5412,0.3323,-0.0286,0.8616,-6.72,8.0,-0.03,31.27
5422,0.3319,-0.0254,0.8652,-6.89,7.94,0.0,31.27
5432,0.3314,-0.0254,0.8639,-6.84,7.94,-0.05,31.25
5442,0.3311,-0.0243,0.8641,-6.82,7.95,-0.08,31.25
5452,0.3315,-0.0249,0.8613,-6.82,7.98,-0.11,31.24
5462,0.3322,-0.0234,0.8669,-6.87,7.97,-0.02,31.24
5472,0.3304,-0.0234,0.8655,-6.84,8.08,-0.11,31.27
5482,0.3307,-0.0247,0.8629,-6.79,7.92,-0.05,31.25
5492,0.3315,-0.0244,0.8657,-6.89,7.98,0.0,31.25
5502,0.3303,-0.0245,0.8624,-6.76,7.97,0.0,31.25
5512,0.3326,-0.0248,0.8623,-6.92,7.97,0.06,31.28
5522,0.3306,-0.0272,0.8649,-6.9,7.97,-0.06,31.25
5532,0.3319,-0.0276,0.8678,-6.82,7.97,0.02,31.25
5542,0.3284,-0.0288,0.8622,-6.87,7.97,0.0,31.28
5552,0.3302,-0.0272,0.859,-6.87,7.92,-0.06,31.28
5562,0.3304,-0.0261,0.8602,-6.82,7.94,-0.03,31.26
5572,0.3306,-0.0266,0.864,-6.9,8.0,-0.05,31.27
5582,0.3306,-0.0239,0.8632,-6.81,8.02,-0.09,31.25
5592,0.3314,-0.0264,0.8628,-6.81,7.95,0.0,31.26
5602,0.3306,-0.0266,0.8636,-6.81,8.0,-0.05,31.28
5612,0.3324,-0.024,0.8662,-6.9,7.97,-0.05,31.27
5622,0.3311,-0.0259,0.8635,-6.9,7.98,-0.06,31.29
5632,0.3311,-0.028,0.8658,-6.82,8.02,-0.02,31.26
5642,0.3292,-0.0248,0.8684,-6.81,7.98,-0.03,31.24
5652,0.3293,-0.0269,0.8661,-6.82,8.03,0.0,31.27
5662,0.3279,-0.0286,0.8601,-6.87,8.03,-0.02,31.25
5672,0.3296,-0.0266,0.86,-6.87,7.95,-0.06,31.24
5682,0.3279,-0.0237,0.8644,-6.85,7.92,-0.03,31.27
5692,0.3293,-0.0265,0.8569,-6.78,8.0,0.02,31.27
5702,0.3271,-0.0238,0.8583,-6.85,7.95,0.02,31.28
5712,0.3274,-0.0258,0.8634,-6.85,7.89,-0.02,31.26
5722,0.3317,-0.0239,0.8674,-6.82,7.98,-0.05,31.24
5732,0.3311,-0.0225,0.8729,-6.9,7.92,0.02,31.28
5742,0.328,-0.024,0.8656,-6.75,7.97,-0.08,31.26
5752,0.3287,-0.0255,0.8684,-6.81,8.08,-0.05,31.26
5762,0.3286,-0.0209,0.863,-6.84,8.02,-0.06,31.25
5772,0.3304,-0.0256,0.8677,-6.87,7.97,-0.06,31.25
5782,0.3301,-0.0243,0.8602,-6.87,8.06,-0.03,31.26
5792,0.3298,-0.0248,0.861,-6.81,8.06,-0.05,31.28
5802,0.3308,-0.0261,0.8652,-6.87,7.97,-0.06,31.24
5812,0.3317,-0.0264,0.8599,-6.87,8.0,0.0,31.27
5822,0.3286,-0.0281,0.8618,-6.9,8.03,-0.05,31.26
5832,0.3282,-0.0247,0.8629,-6.89,8.03,-0.03,31.26
5842,0.3326,-0.0255,0.8679,-6.82,8.08,-0.09,31.29
5852,0.3342,-0.025,0.8683,-6.9,8.0,-0.12,31.27
5862,0.3323,-0.0261,0.8661,-6.89,7.97,-0.11,31.26
5872,0.3335,-0.0253,0.8685,-6.9,7.98,-0.06,31.25
5882,0.3333,-0.0261,0.8618,-6.81,7.95,-0.06,31.26
5892,0.3319,-0.0242,0.8652,-6.82,8.02,-0.06,31.27
5902,0.3335,-0.027,0.8694,-6.81,7.94,-0.08,31.29
5912,0.3312,-0.0236,0.8613,-6.81,7.97,0.03,31.29
5922,0.3313,-0.0265,0.8632,-6.79,7.97,-0.06,31.28
5932,0.3292,-0.027,0.861,-6.89,8.05,0.0,31.31
5942,0.3324,-0.025,0.8621,-6.95,8.0,0.05,31.29
5952,0.3319,-0.0259,0.8702,-6.75,8.05,-0.08,31.27
5962,0.33,-0.0288,0.8665,-6.87,8.0,0.02,31.29
5972,0.3298,-0.0266,0.8674,-6.73,7.94,-0.08,31.26
5982,0.3295,-0.0267,0.869,-6.85,7.95,0.02,31.28
5992,0.3318,-0.0281,0.8636,-6.79,8.02,-0.02,31.29
6002,0.3247,-0.0223,0.8629,-6.82,8.02,-0.08,31.28
6012,0.3307,-0.0272,0.8638,-6.84,8.0,-0.09,31.26
6022,0.3251,-0.0248,0.8644,-6.79,8.11,-0.03,31.28
6032,0.3265,-0.0225,0.8616,-6.82,8.0,-0.08,31.27
6042,0.3263,-0.0276,0.8632,-6.96,7.97,0.03,31.27
6052,0.327,-0.0259,0.8605,-6.82,7.97,0.02,31.26
6062,0.3309,-0.0245,0.8649,-6.76,8.03,-0.02,31.25
6072,0.3309,-0.0237,0.863,-6.82,7.98,0.02,31.25
6082,0.3346,-0.0308,0.8608,-6.78,7.92,-0.11,31.28
6092,0.3367,-0.0264,0.8496,-6.98,7.98,-0.06,31.27
6102,0.3232,-0.0219,0.8755,-6.76,8.0,-0.09,31.26
6112,0.3363,-0.0254,0.8441,-6.82,7.73,-0.05,31.24
6122,0.3319,-0.0227,0.8684,-6.81,7.97,0.0,31.25
6132,0.3365,-0.0206,0.8651,-6.92,7.85,0.03,31.29
6142,0.3303,-0.0221,0.871,-6.85,8.06,-0.09,31.28
6152,0.3342,-0.0265,0.8607,-6.89,7.98,-0.08,31.29
6162,0.3337,-0.0245,0.8677,-6.84,7.95,-0.02,31.24
6172,0.3344,-0.024,0.868,-6.78,7.89,-0.05,31.26
6182,0.3326,-0.0244,0.86,-6.78,8.05,-0.11,31.28
6192,0.3334,-0.0248,0.8616,-6.76,7.98,0.0,31.28
6202,0.3308,-0.0231,0.8619,-6.85,8.05,-0.06,31.3
6212,0.3328,-0.0277,0.8627,-6.92,8.02,-0.12,31.28
6222,0.3323,-0.0247,0.8619,-6.67,8.0,-0.06,31.28
6232,0.3322,-0.0259,0.8652,-6.79,8.05,-0.03,31.29
6242,0.3329,-0.0216,0.8636,-6.69,7.94,0.06,31.28
6252,0.3313,-0.024,0.8643,-6.81,8.03,0.03,31.27
6262,0.3326,-0.0271,0.8655,-6.75,8.06,0.02,31.29
6272,0.3306,-0.0249,0.8661,-6.81,8.02,0.06,31.28
6282,0.3302,-0.0273,0.8618,-6.85,7.94,-0.02,31.29
6292,0.3328,-0.0249,0.8651,-6.75,8.05,0.0,31.28
6302,0.3298,-0.0264,0.8624,-6.89,8.05,-0.02,31.31
6312,0.3302,-0.0271,0.8666,-6.85,7.97,-0.02,31.28
6322,0.3279,-0.027,0.8655,-6.78,7.97,0.02,31.29
6332,0.3285,-0.0245,0.8632,-6.69,8.02,0.03,31.25
6342,0.3274,-0.0254,0.8654,-6.81,7.92,-0.03,31.28
6352,0.3282,-0.0233,0.8667,-6.81,8.05,-0.06,31.27
6362,0.3293,-0.026,0.8656,-6.85,7.98,-0.03,31.27
6372,0.3303,-0.0258,0.8624,-6.78,8.02,0.02,31.31
6386,0.3318,-0.0272,0.8658,-6.85,8.08,0.0,31.28
6396,0.3318,-0.0255,0.8647,-6.82,8.0,-0.02,31.27
6406,0.3319,-0.0261,0.8654,-6.78,8.05,-0.11,31.29
6416,0.3346,-0.0238,0.8668,-6.82,8.02,0.0,31.28
6426,0.3312,-0.0237,0.8624,-6.89,7.91,-0.05,31.29
6436,0.3306,-0.0255,0.8634,-6.85,7.95,-0.15,31.27
6446,0.3337,-0.0256,0.8607,-6.64,7.91,0.37,31.27
6456,0.337,-0.0247,0.8635,-6.84,7.94,-0.03,31.29
6466,0.3341,-0.0272,0.8619,-6.81,7.94,-0.12,31.3
6476,0.3367,-0.027,0.8666,-6.84,7.92,0.03,31.29
6486,0.3315,-0.0242,0.8663,-6.89,7.97,-0.05,31.27
6496,0.3289,-0.0265,0.8629,-6.89,8.05,0.03,31.29
6506,0.3328,-0.0262,0.8635,-6.82,8.03,0.05,31.27
6516,0.3292,-0.0254,0.8639,-6.79,8.0,-0.06,31.28
6526,0.3306,-0.0243,0.8668,-6.85,7.95,-0.09,31.29
6536,0.3281,-0.0239,0.8658,-6.85,8.05,-0.05,31.27
6546,0.329,-0.0245,0.8597,-6.81,8.05,0.02,31.28
6556,0.3307,-0.026,0.8586,-6.67,7.98,-0.03,31.27
6566,0.3339,-0.026,0.8644,-6.81,8.0,-0.02,31.29
6576,0.3297,-0.0237,0.8657,-6.79,8.0,0.03,31.27
6586,0.3296,-0.0258,0.859,-6.79,7.91,0.03,31.27
6596,0.3282,-0.0251,0.8348,-6.92,7.71,-0.02,31.29
6606,0.3167,-0.0298,0.8618,-6.6,8.24,-0.05,31.3
6616,0.3331,-0.0411,0.8274,-7.19,6.66,-0.02,31.3
6626,0.3313,-0.0291,0.8885,-6.66,8.11,-0.02,31.28
6636,0.3431,-0.0233,0.8722,-7.07,8.17,-0.11,31.3
6646,0.3319,-0.0251,0.853,-6.73,8.44,-0.09,31.33
6656,0.3282,-0.0323,0.8542,-6.92,7.79,-0.02,31.31
6666,0.3292,-0.0256,0.8715,-6.78,8.0,0.0,31.31
6676,0.3268,-0.0184,0.8678,-6.9,8.14,-0.02,31.3
6686,0.3273,-0.0273,0.8525,-6.79,8.09,-0.02,31.29
6696,0.328,-0.03,0.859,-6.85,7.8,-0.05,31.29
6706,0.3336,-0.0226,0.8683,-6.98,7.94,-0.06,31.3
6716,0.3279,-0.0238,0.8684,-6.87,8.0,-0.02,31.28
6726,0.327,-0.0287,0.8619,-6.96,8.02,-0.05,31.3
6736,0.3298,-0.0247,0.8636,-6.82,7.92,0.0,31.32
6746,0.3308,-0.0217,0.8655,-6.92,8.02,0.02,31.32
6756,0.3324,-0.0266,0.8668,-6.93,8.09,-0.09,31.29
6766,0.3274,-0.0267,0.8652,-6.85,8.03,-0.05,31.32
6776,0.3311,-0.0258,0.8651,-6.9,7.91,-0.03,31.3
6786,0.3298,-0.024,0.8628,-6.85,8.06,-0.09,31.32
6796,0.3282,-0.0255,0.8634,-6.93,8.0,0.0,31.33
6806,0.3301,-0.026,0.87,-6.84,7.94,-0.02,31.33
6816,0.3335,-0.0238,0.8588,-6.81,7.95,-0.03,31.31
6826,0.33,-0.0258,0.8621,-6.85,7.98,0.05,31.33
6836,0.3267,-0.0287,0.8678,-6.82,8.08,0.0,31.33
6846,0.3293,-0.025,0.8606,-6.79,8.08,-0.02,31.31
6856,0.3156,-0.0236,0.87,-6.79,8.34,0.0,31.31
6866,0.3346,-0.019,0.8706,-6.76,8.03,-0.05,31.28
6876,0.3198,-0.026,0.8879,-6.72,8.32,-0.03,31.3
6886,0.3442,-0.0308,0.8524,-6.82,7.82,0.02,31.3
6896,0.3281,-0.0272,0.8633,-6.93,8.02,-0.03,31.32
6906,0.3185,-0.0256,0.8774,-6.85,8.05,-0.08,31.32
6916,0.3279,-0.026,0.868,-6.72,8.05,-0.02,31.33
6926,0.3281,-0.0251,0.8695,-6.76,8.06,-0.05,31.31
6936,0.3346,-0.0265,0.8618,-6.98,7.91,0.02,31.31
6946,0.3296,-0.0271,0.8706,-6.79,7.88,0.08,31.31
6956,0.3287,-0.0228,0.8711,-6.81,8.21,-0.08,31.31
6966,0.3334,-0.025,0.8613,-6.9,8.02,-0.08,31.3
6976,0.3243,-0.0264,0.8698,-6.81,8.05,-0.08,31.33
6986,0.3353,-0.022,0.8625,-6.89,7.97,-0.11,31.3
6996,0.3339,-0.021,0.8688,-6.99,8.0,-0.06,31.32
7006,0.332,-0.026,0.8662,-6.82,8.14,-0.05,31.33
7016,0.3353,-0.0256,0.8612,-6.84,7.92,-0.09,31.34
7026,0.3292,-0.0256,0.8707,-6.85,7.98,0.0,31.31
7036,0.3314,-0.021,0.865,-6.92,8.03,-0.06,31.31
7046,0.3296,-0.0248,0.8595,-6.81,8.0,0.03,31.33
7056,0.3302,-0.0277,0.8636,-6.64,8.08,-0.08,31.3
7066,0.3329,-0.026,0.8628,-6.82,7.92,-0.08,31.32
7077,0.3334,-0.0247,0.8616,-6.9,7.92,-0.05,31.3
7087,0.3284,-0.0281,0.866,-6.78,8.06,0.03,31.3
7097,0.3331,-0.0254,0.8601,-6.79,8.0,0.03,31.33
7107,0.3325,-0.0254,0.8646,-6.7,8.03,0.11,31.34
7117,0.3339,-0.0219,0.8607,-6.81,8.08,0.08,31.33
7127,0.3324,-0.0244,0.8641,-6.82,7.97,0.06,31.33
7137,0.3293,-0.0266,0.8654,-6.87,8.0,0.03,31.33
7147,0.3345,-0.025,0.8634,-6.78,8.06,-0.02,31.34
7157,0.33,-0.0269,0.8691,-6.81,8.05,0.02,31.32
7167,0.3306,-0.0265,0.8636,-6.75,8.02,0.06,31.32
7177,0.3311,-0.0266,0.8641,-6.82,8.02,0.06,31.32
7187,0.3276,-0.024,0.8663,-6.82,8.05,0.09,31.34
7197,0.3282,-0.0273,0.8608,-6.89,7.97,0.0,31.33
7207,0.326,-0.025,0.8661,-6.81,7.95,0.03,31.32
7218,0.3278,-0.0238,0.8679,-6.85,7.95,-0.06,31.32
7228,0.3276,-0.0256,0.8673,-6.81,7.94,-0.02,31.33
7238,0.327,-0.0258,0.8674,-6.81,7.98,-0.03,31.31
7248,0.3254,-0.0261,0.8684,-6.78,7.98,-0.05,31.32
7258,0.3265,-0.0283,0.8683,-6.84,7.98,-0.03,31.32
7268,0.3312,-0.0265,0.869,-6.92,8.0,-0.08,31.34
7278,0.3293,-0.0273,0.8605,-6.85,7.98,-0.08,31.34
7290,0.3274,-0.0233,0.8632,-6.81,8.05,-0.11,31.32
7300,0.3314,-0.0255,0.865,-6.78,7.97,-0.05,31.33
7310,0.3323,-0.0261,0.8625,-6.89,8.0,-0.14,31.33
7320,0.33,-0.0275,0.8667,-6.85,7.88,-0.11,31.32
7330,0.3292,-0.0277,0.8595,-6.81,7.89,-0.05,31.31
7340,0.3269,-0.0247,0.8625,-6.76,7.98,-0.02,31.32
7350,0.332,-0.0215,0.8674,-6.82,7.97,-0.09,31.32
7360,0.3336,-0.0222,0.8718,-6.82,7.97,-0.05,31.32
7370,0.3312,-0.0238,0.8716,-6.82,8.03,-0.11,31.35
7380,0.332,-0.0219,0.8699,-6.79,7.98,-0.02,31.35
7390,0.3309,-0.0242,0.8639,-6.84,8.0,-0.11,31.36
7400,0.3335,-0.0283,0.8624,-6.9,8.0,-0.12,31.33
7410,0.3326,-0.0265,0.8613,-6.89,8.02,-0.06,31.32
7420,0.3298,-0.0275,0.8601,-6.79,8.02,-0.14,31.32
7430,0.3301,-0.0276,0.8595,-6.85,8.0,-0.02,31.33
7440,0.3341,-0.0303,0.8618,-6.84,8.02,-0.05,31.32
7450,0.3314,-0.0234,0.8655,-6.85,7.97,0.02,31.35
7460,0.3335,-0.0227,0.8635,-6.82,8.0,0.02,31.33
7470,0.3348,-0.0209,0.8695,-6.82,7.98,-0.03,31.34
7480,0.3337,-0.028,0.8665,-6.79,7.98,-0.03,31.34
7490,0.3359,-0.0251,0.8634,-6.85,8.05,-0.02,31.31
7500,0.3325,-0.0267,0.8647,-6.85,7.92,-0.03,31.32
7510,0.3324,-0.027,0.868,-6.84,8.0,0.12,31.34
7520,0.3314,-0.0264,0.8649,-6.89,8.06,-0.03,31.31
7530,0.3298,-0.027,0.8654,-6.89,8.08,0.0,31.32
7540,0.3312,-0.0273,0.8561,-6.79,7.98,0.0,31.33
7550,0.332,-0.0247,0.865,-6.85,7.95,0.06,31.34
7560,0.3318,-0.0262,0.8608,-6.81,7.89,0.08,31.35
7570,0.3276,-0.024,0.8667,-6.9,7.94,0.02,31.34
7580,0.3275,-0.0232,0.8656,-6.79,7.91,-0.02,31.36
7590,0.3308,-0.0234,0.864,-6.79,7.91,-0.05,31.33
7600,0.3296,-0.021,0.8667,-6.81,7.88,-0.08,31.35
7610,0.3311,-0.0244,0.8694,-6.82,8.05,-0.06,31.34
7620,0.3304,-0.0259,0.8645,-6.87,7.94,-0.02,31.31
7630,0.3298,-0.0256,0.8602,-6.79,8.08,-0.03,31.34
7640,0.3307,-0.0243,0.8682,-6.81,8.06,0.03,31.33
7650,0.3318,-0.0234,0.8647,-6.84,8.06,0.0,31.33
7660,0.3296,-0.0278,0.8618,-6.73,7.94,0.02,31.34
7670,0.3285,-0.0231,0.8651,-6.87,8.0,0.08,31.37
7680,0.3328,-0.0231,0.8599,-6.76,7.95,-0.11,31.34
7690,0.3344,-0.0253,0.8644,-6.89,7.94,-0.05,31.35
7700,0.3323,-0.0259,0.8658,-6.84,8.0,-0.08,31.36
7710,0.3344,-0.0236,0.8693,-6.76,7.98,-0.03,31.34
7720,0.332,-0.0254,0.8671,-6.89,7.95,0.05,31.34
7730,0.3339,-0.0292,0.8641,-6.82,8.02,0.0,31.35
7740,0.3303,-0.0232,0.8625,-6.81,8.0,-0.02,31.36
7750,0.3334,-0.0248,0.8619,-6.85,7.94,0.03,31.33
7760,0.3296,-0.0253,0.8624,-6.84,7.95,0.05,31.36
7770,0.3304,-0.0259,0.8624,-6.93,7.91,-0.03,31.34
7780,0.3279,-0.0228,0.8657,-6.93,7.98,-0.09,31.32
7790,0.3286,-0.0256,0.8657,-6.87,8.06,-0.08,31.35
7800,0.3291,-0.0237,0.8676,-6.81,8.03,0.0,31.32
7810,0.327,-0.0251,0.8644,-6.79,8.05,-0.08,31.33
7820,0.3326,-0.0273,0.8635,-6.81,7.94,0.02,31.32
7830,0.3324,-0.0236,0.8634,-6.78,7.97,-0.03,31.33
7840,0.3302,-0.0266,0.8633,-6.81,8.02,0.02,31.33
7850,0.3296,-0.0242,0.8634,-6.85,8.09,-0.09,31.34
7860,0.328,-0.0216,0.8618,-6.79,8.08,-0.03,31.37
7870,0.3295,-0.0201,0.8605,-6.76,8.02,-0.03,31.34
7880,0.333,-0.0237,0.8668,-6.85,8.0,0.0,31.34
7890,0.3307,-0.0239,0.863,-6.85,8.03,0.05,31.36
7900,0.3342,-0.0275,0.8679,-6.85,7.94,-0.03,31.35
7910,0.3292,-0.0302,0.8645,-6.78,7.82,-0.09,31.34
7920,0.3367,-0.0271,0.8665,-6.79,7.53,-0.06,31.32
7930,0.3453,-0.0293,0.855,-6.76,7.66,-0.05,31.34
7941,0.3396,-0.0299,0.8542,-6.78,7.76,-0.02,31.35
7951,0.3281,-0.0204,0.8695,-6.92,7.98,-0.05,31.32
7961,0.3312,-0.0236,0.8691,-6.79,7.95,-0.05,31.35
7971,0.3293,-0.0288,0.8661,-6.85,7.94,-0.03,31.37
7981,0.3336,-0.0286,0.863,-6.87,7.95,-0.08,31.33
7991,0.3339,-0.0243,0.8658,-6.85,7.95,-0.05,31.34
8003,0.3274,-0.0262,0.8658,-6.82,8.03,-0.06,31.35
8013,0.3335,-0.0259,0.8644,-6.82,8.05,0.02,31.34
8025,0.3296,-0.0233,0.8606,-6.84,8.11,-0.05,31.34
8035,0.3285,-0.024,0.8629,-6.87,7.98,0.02,31.33
8046,0.3315,-0.024,0.8641,-6.84,7.97,0.03,31.35
8056,0.3325,-0.0238,0.8645,-6.82,8.06,-0.05,31.35
8066,0.3297,-0.0261,0.8657,-6.85,8.02,-0.06,31.35
8076,0.3306,-0.0269,0.8639,-6.76,7.92,0.0,31.34
8086,0.332,-0.0256,0.8695,-6.82,7.92,-0.03,31.3
8096,0.3278,-0.024,0.8701,-6.82,7.98,-0.03,31.33
8106,0.3301,-0.0258,0.8625,-6.84,8.02,-0.03,31.34
8116,0.3328,-0.0272,0.8635,-6.84,7.98,-0.05,31.36
8126,0.3301,-0.0254,0.8632,-6.76,7.98,0.02,31.34
8136,0.3297,-0.0264,0.8654,-6.87,8.02,0.02,31.36
8146,0.3296,-0.0242,0.8672,-6.87,8.05,0.03,31.38
8156,0.3317,-0.0256,0.8669,-6.78,8.02,-0.05,31.35
8166,0.33,-0.0243,0.8636,-6.87,8.0,-0.15,31.33
8176,0.3303,-0.0267,0.8649,-6.78,8.02,-0.02,31.35
8186,0.3315,-0.0259,0.8661,-6.87,8.02,-0.03,31.36
8196,0.3323,-0.0276,0.8667,-6.82,8.0,-0.05,31.37
8206,0.329,-0.0233,0.8658,-6.79,8.03,0.02,31.37
8216,0.3301,-0.0258,0.8656,-6.76,8.02,0.02,31.34
8226,0.332,-0.0247,0.8635,-6.78,7.98,0.02,31.36
8236,0.3318,-0.0236,0.8688,-6.76,8.03,-0.06,31.35
8246,0.3307,-0.0254,0.8658,-6.78,8.02,0.02,31.37
8256,0.3296,-0.0231,0.8651,-6.78,8.08,0.02,31.35
8266,0.3296,-0.0239,0.8634,-6.87,7.97,0.0,31.32
8277,0.3289,-0.0265,0.8635,-6.85,7.95,0.02,31.35
8287,0.3314,-0.0261,0.863,-6.89,8.02,-0.05,31.37
8297,0.33,-0.0239,0.8649,-6.78,7.89,0.0,31.38
8307,0.3295,-0.0244,0.8679,-6.84,7.98,0.0,31.37
8317,0.3309,-0.0253,0.8701,-6.9,7.92,-0.09,31.32
8327,0.3314,-0.0236,0.8683,-6.85,8.02,-0.06,31.33
8337,0.3292,-0.0264,0.8663,-6.85,7.94,-0.05,31.35
8347,0.3279,-0.0226,0.8593,-6.75,8.03,-0.06,31.35
8358,0.3322,-0.0244,0.8606,-6.78,8.03,-0.03,31.34
8368,0.3311,-0.0247,0.8636,-6.81,8.05,0.03,31.36
8378,0.3307,-0.0225,0.8611,-6.84,7.92,-0.02,31.38
8388,0.3287,-0.0264,0.8618,-6.79,7.86,-0.08,31.35
8398,0.3314,-0.026,0.8622,-6.81,7.94,-0.03,31.35
8408,0.3275,-0.0266,0.865,-6.85,7.91,-0.12,31.35
8418,0.3308,-0.0265,0.8638,-6.78,8.0,-0.05,31.38
8428,0.3301,-0.0259,0.8663,-6.79,7.88,0.02,31.34
8438,0.3309,-0.0251,0.8666,-6.81,7.98,-0.03,31.36
8448,0.332,-0.0273,0.8685,-6.82,7.95,-0.02,31.35
8458,0.3289,-0.0238,0.8645,-6.72,8.05,0.0,31.35
8468,0.3304,-0.0258,0.8645,-6.78,8.02,0.0,31.36
8478,0.3273,-0.0276,0.8616,-6.78,8.02,0.02,31.36
8488,0.3307,-0.0256,0.8593,-6.84,7.94,-0.03,31.37
8498,0.3326,-0.0223,0.8571,-6.92,7.97,-0.08,31.36
8508,0.3315,-0.0245,0.8607,-6.75,8.05,-0.08,31.34
8518,0.3293,-0.0228,0.8668,-6.79,8.0,-0.11,31.36
8528,0.3293,-0.0248,0.8663,-6.84,7.97,-0.02,31.36
8538,0.3276,-0.0264,0.8632,-6.84,7.98,-0.03,31.36
8548,0.3286,-0.0286,0.8658,-6.78,8.05,-0.02,31.37
8558,0.3308,-0.026,0.8671,-6.82,7.98,0.05,31.36
8568,0.3329,-0.0238,0.8649,-6.87,7.91,0.06,31.38
8579,0.3296,-0.0249,0.8636,-6.87,8.03,-0.05,31.37
8589,0.3275,-0.0238,0.8687,-6.84,7.94,-0.06,31.36
8599,0.3304,-0.0247,0.8643,-6.81,7.91,-0.14,31.39
8609,0.3309,-0.0239,0.8643,-6.85,7.98,0.0,31.38
8619,0.3303,-0.0254,0.866,-6.76,8.0,-0.12,31.36
8629,0.3269,-0.027,0.858,-6.79,8.05,-0.02,31.37
8639,0.3282,-0.0251,0.8612,-6.84,7.92,-0.11,31.38
8649,0.3297,-0.0231,0.8569,-6.87,8.12,-0.11,31.36
8659,0.3322,-0.0255,0.8624,-6.75,8.02,-0.05,31.35
8669,0.3278,-0.0232,0.8613,-6.79,8.0,-0.05,31.33
8679,0.3318,-0.0251,0.8624,-6.79,8.06,-0.03,31.34
8689,0.3328,-0.0232,0.8584,-6.81,8.05,-0.02,31.34
8699,0.3314,-0.0294,0.8596,-6.73,7.97,-0.03,31.37
8709,0.3347,-0.0251,0.8643,-6.84,7.95,-0.05,31.36
8719,0.3311,-0.0219,0.8636,-6.92,7.97,-0.05,31.4
8730,0.3303,-0.0251,0.8647,-6.85,7.95,0.02,31.35
8740,0.3314,-0.0226,0.8647,-6.76,8.02,0.02,31.36
8750,0.3273,-0.0244,0.8641,-6.9,7.97,0.09,31.38
8760,0.3285,-0.025,0.868,-6.89,8.02,0.02,31.36
8770,0.3312,-0.0256,0.8688,-6.82,7.98,-0.12,31.37
8780,0.3286,-0.0275,0.8607,-6.85,7.91,-0.09,31.36
8790,0.3314,-0.0245,0.8656,-6.85,8.05,0.02,31.33
8800,0.3286,-0.0245,0.8643,-6.87,7.98,-0.09,31.36
8810,0.3285,-0.0267,0.864,-6.82,8.02,-0.03,31.36
8820,0.3303,-0.0244,0.8645,-6.87,8.03,0.0,31.37
8830,0.3304,-0.0251,0.865,-6.93,7.94,0.0,31.35
8840,0.3298,-0.0266,0.868,-6.92,8.03,-0.05,31.37
8850,0.3307,-0.0254,0.8647,-6.96,8.02,-0.06,31.36
8860,0.3333,-0.0264,0.8666,-6.79,8.03,-0.06,31.34
8870,0.3312,-0.0231,0.8651,-6.84,8.0,0.0,31.37
8880,0.3313,-0.0271,0.8636,-6.76,7.98,0.0,31.37
8890,0.3296,-0.0275,0.8666,-6.82,8.03,-0.08,31.34
8900,0.33,-0.0256,0.8633,-6.92,8.03,-0.05,31.34
8910,0.3298,-0.0259,0.8627,-6.78,8.06,-0.03,31.38
8920,0.3293,-0.0272,0.8662,-6.85,8.03,-0.03,31.35
8930,0.3279,-0.0251,0.8624,-6.82,8.09,-0.08,31.38
8940,0.3308,-0.0247,0.8629,-6.79,8.02,-0.02,31.36
8950,0.3297,-0.0265,0.8645,-6.84,8.02,0.0,31.37
8960,0.3274,-0.0253,0.865,-6.85,8.02,-0.05,31.37
8970,0.3279,-0.0233,0.8649,-6.82,7.98,-0.02,31.38
8980,0.3301,-0.0259,0.8669,-6.82,8.02,-0.05,31.36
8991,0.3311,-0.0254,0.866,-6.89,7.95,-0.09,31.37
9001,0.3286,-0.0236,0.8717,-6.87,7.97,0.0,31.36
9011,0.333,-0.025,0.8669,-6.75,7.98,-0.05,31.38
9021,0.3315,-0.0258,0.86,-6.87,7.89,-0.05,31.35
9031,0.3315,-0.0267,0.8608,-6.78,7.94,-0.05,31.34
9041,0.327,-0.0248,0.863,-6.72,8.0,-0.08,31.36
9051,0.3296,-0.025,0.8622,-6.85,7.94,-0.03,31.34
9063,0.3278,-0.0253,0.8673,-6.82,7.95,0.03,31.38
9073,0.3292,-0.0264,0.8678,-6.92,8.0,-0.02,31.38
9083,0.3282,-0.027,0.8635,-6.81,8.02,0.03,31.37
9094,0.3314,-0.024,0.8663,-6.92,8.09,-0.06,31.37
9105,0.3317,-0.0223,0.8646,-6.89,8.03,0.02,31.37
9115,0.3301,-0.0217,0.8645,-6.87,7.98,-0.02,31.37
9126,0.3289,-0.0271,0.8624,-6.79,8.02,-0.02,31.34
9136,0.3334,-0.0237,0.8657,-6.79,8.02,0.0,31.36
9146,0.3303,-0.025,0.8671,-6.85,8.03,0.0,31.37
9156,0.3279,-0.0261,0.8671,-6.89,7.91,-0.08,31.37
9166,0.3296,-0.0238,0.8655,-6.92,7.92,0.03,31.36
9176,0.3309,-0.0245,0.8623,-6.84,7.92,-0.02,31.34
9186,0.3339,-0.0253,0.8652,-6.87,8.03,-0.02,31.36
9196,0.334,-0.0264,0.8663,-6.84,8.02,-0.06,31.38
9206,0.3284,-0.0253,0.869,-6.95,8.0,0.0,31.36
9216,0.3307,-0.0245,0.8623,-6.84,8.03,-0.03,31.37
9226,0.3315,-0.0264,0.8674,-6.82,8.02,-0.03,31.39
9236,0.3279,-0.0239,0.8668,-6.73,7.97,-0.05,31.38
9246,0.3312,-0.0243,0.8641,-6.9,8.0,-0.11,31.38
9256,0.3284,-0.0266,0.8656,-6.87,8.02,-0.08,31.37
9266,0.3291,-0.0226,0.8655,-6.85,7.91,-0.03,31.37
9276,0.3297,-0.0259,0.8666,-6.84,7.97,0.0,31.37
9286,0.3314,-0.0247,0.8684,-6.87,8.05,-0.09,31.38
9297,0.3291,-0.0253,0.8656,-6.76,8.0,-0.05,31.37
9307,0.3318,-0.0245,0.8629,-6.87,8.05,-0.02,31.36
9318,0.3309,-0.0232,0.8673,-6.85,7.95,-0.08,31.38
9328,0.3308,-0.0266,0.8657,-6.79,7.92,-0.05,31.39
9338,0.3324,-0.0237,0.866,-6.78,7.98,-0.14,31.37
9348,0.3309,-0.0259,0.8646,-6.82,7.98,-0.05,31.37
9358,0.3325,-0.0254,0.865,-6.9,7.95,-0.09,31.38
9368,0.3309,-0.0232,0.8668,-6.79,8.02,-0.08,31.35
9378,0.3302,-0.0225,0.863,-6.81,8.0,-0.05,31.36
9388,0.3313,-0.0254,0.8612,-6.85,8.0,0.03,31.37
9398,0.3307,-0.0253,0.8594,-6.82,8.0,-0.05,31.39
9408,0.3298,-0.0284,0.8634,-6.85,7.97,-0.03,31.37
9418,0.3301,-0.0258,0.8635,-6.93,8.05,-0.05,31.37
9428,0.3306,-0.0259,0.8646,-6.84,7.91,-0.09,31.38
9438,0.3312,-0.0272,0.8657,-6.84,7.97,0.05,31.37
9448,0.3337,-0.0244,0.8666,-6.95,7.97,0.03,31.37
9458,0.3308,-0.0244,0.8655,-6.84,8.06,0.09,31.38
9468,0.3323,-0.0269,0.8628,-6.75,7.94,-0.02,31.38
9478,0.332,-0.0289,0.8651,-6.81,8.03,-0.05,31.4
9488,0.3318,-0.026,0.8633,-6.96,7.92,-0.05,31.38
9498,0.3285,-0.0261,0.8645,-6.9,7.95,-0.11,31.37
9508,0.3292,-0.0248,0.8665,-6.79,7.97,-0.03,31.36
9518,0.3301,-0.0217,0.8617,-6.87,7.97,-0.03,31.37
9528,0.3309,-0.0232,0.8625,-6.81,7.91,-0.08,31.38
9538,0.3337,-0.0251,0.8617,-6.84,7.97,-0.03,31.37
9548,0.3315,-0.0233,0.8607,-6.87,8.02,-0.02,31.41
9558,0.3326,-0.026,0.8636,-6.76,8.06,0.02,31.39
9568,0.3329,-0.025,0.8658,-6.79,8.05,0.0,31.37
9578,0.3324,-0.026,0.8618,-6.81,8.05,-0.08,31.38
9588,0.3334,-0.0247,0.8656,-6.79,8.11,-0.02,31.39
9598,0.3284,-0.0251,0.8654,-6.81,7.97,0.02,31.38
9608,0.3308,-0.0206,0.8671,-6.87,7.97,-0.03,31.39
9618,0.3326,-0.0242,0.8673,-6.79,8.03,-0.03,31.41
9628,0.3282,-0.0234,0.8616,-6.85,7.98,0.08,31.4
9638,0.3303,-0.0234,0.8628,-6.9,8.02,-0.05,31.36
9648,0.3282,-0.0238,0.8628,-6.85,8.0,-0.02,31.37
9658,0.3308,-0.0221,0.8636,-6.78,7.94,-0.05,31.38
9668,0.3304,-0.0228,0.8661,-6.75,7.94,0.05,31.37
9678,0.3333,-0.0276,0.8641,-6.82,7.92,-0.06,31.37
9688,0.33,-0.0247,0.8616,-6.9,7.92,-0.02,31.38
9698,0.3323,-0.0289,0.8656,-6.84,7.97,0.03,31.38
9708,0.3331,-0.027,0.8669,-6.84,8.05,-0.02,31.37
9718,0.3348,-0.0234,0.8643,-6.84,7.92,-0.03,31.39
9728,0.333,-0.024,0.8676,-6.79,7.97,-0.06,31.39
9738,0.3297,-0.0254,0.8679,-6.85,8.03,-0.02,31.39
9748,0.3292,-0.0261,0.8684,-6.76,8.02,-0.02,31.4
9758,0.3303,-0.0262,0.8646,-6.84,8.06,-0.08,31.39
9768,0.3303,-0.027,0.863,-6.87,8.05,-0.08,31.38
9778,0.3292,-0.0267,0.8634,-6.87,7.97,-0.09,31.37
9788,0.3303,-0.0227,0.8605,-6.78,8.0,-0.03,31.38
9798,0.3271,-0.0258,0.8636,-6.78,8.05,-0.03,31.39
9808,0.3274,-0.0262,0.8671,-6.9,7.95,-0.11,31.38
9818,0.3313,-0.0288,0.8649,-6.79,7.92,0.03,31.4
9828,0.3278,-0.0282,0.8652,-6.84,8.09,-0.05,31.39
9838,0.3298,-0.0281,0.8608,-6.87,8.03,0.02,31.39
9848,0.3295,-0.0244,0.8645,-6.81,8.05,-0.05,31.4
9858,0.3302,-0.0259,0.8708,-6.84,8.12,-0.05,31.41
9868,0.3289,-0.0267,0.868,-6.87,8.05,-0.03,31.39
9878,0.3278,-0.0261,0.8683,-6.89,8.23,-0.15,31.4
9888,0.3308,-0.0244,0.8647,-6.87,7.89,-0.08,31.39
9898,0.3453,-0.0278,0.8527,-6.9,7.74,-0.03,31.41
9908,0.3271,-0.0242,0.8666,-6.85,8.15,-0.02,31.4
9918,0.3303,-0.0277,0.863,-6.82,8.05,0.0,31.42
9928,0.3245,-0.0275,0.8702,-6.82,8.24,-0.05,31.41
9938,0.3289,-0.0247,0.8624,-6.87,8.05,-0.06,31.4
9948,0.33,-0.0226,0.861,-6.85,8.05,-0.05,31.42
9958,0.3331,-0.0244,0.8666,-6.87,7.94,0.02,31.39
9968,0.3348,-0.0283,0.8646,-6.84,8.0,-0.05,31.4
9978,0.3347,-0.0244,0.8661,-6.76,8.05,0.02,31.42
9988,0.3309,-0.0234,0.8618,-6.89,7.92,0.03,31.41
9998,0.3271,-0.0262,0.8617,-6.85,7.91,-0.05,31.41
10008,0.3322,-0.0273,0.8625,-6.84,8.0,0.02,31.41
10018,0.33,-0.0247,0.8613,-6.7,8.02,-0.12,31.39
10028,0.3312,-0.022,0.8673,-6.84,7.97,-0.06,31.38
10038,0.3297,-0.0245,0.8628,-6.85,8.05,0.02,31.38
10048,0.3278,-0.0282,0.8636,-6.92,8.05,-0.02,31.42
10058,0.3302,-0.0248,0.8605,-6.87,8.05,-0.06,31.4
10068,0.3314,-0.0228,0.8707,-6.75,7.95,-0.15,31.43
10078,0.329,-0.0242,0.8649,-6.79,8.02,-0.09,31.39
10088,0.3313,-0.0276,0.8643,-6.87,7.94,0.0,31.41
10098,0.3312,-0.0278,0.8641,-6.81,8.0,-0.12,31.37
10108,0.3312,-0.0223,0.8665,-6.78,8.03,-0.08,31.41
10118,0.3311,-0.0248,0.8651,-6.79,8.02,-0.03,31.41
10128,0.3329,-0.028,0.8623,-6.85,7.95,0.0,31.39
10138,0.3314,-0.0262,0.8613,-6.84,8.05,-0.05,31.42
10148,0.3302,-0.024,0.8615,-6.87,7.92,-0.03,31.39
10158,0.3276,-0.0271,0.8649,-6.89,8.06,-0.05,31.41
10168,0.329,-0.0249,0.8652,-6.75,7.97,-0.03,31.4
10178,0.3274,-0.0292,0.8636,-6.84,8.0,-0.02,31.43
10188,0.3301,-0.0259,0.8661,-6.9,7.95,0.03,31.4
10198,0.3257,-0.0247,0.8657,-6.95,7.98,-0.02,31.4
10208,0.3286,-0.0247,0.8635,-6.87,8.06,-0.03,31.38
10218,0.3307,-0.025,0.86,-6.9,7.89,-0.08,31.41
10228,0.3311,-0.0261,0.8695,-6.85,8.0,0.02,31.4
10238,0.3301,-0.0234,0.8617,-6.93,8.02,-0.03,31.42
10248,0.3297,-0.0259,0.8639,-6.82,8.03,0.0,31.39
10258,0.3312,-0.0233,0.8628,-6.72,8.0,-0.12,31.42
10268,0.3314,-0.0265,0.8645,-6.79,7.94,-0.03,31.42
10278,0.3311,-0.0239,0.8652,-6.87,7.86,0.02,31.43
10289,0.3326,-0.026,0.8656,-6.89,7.94,-0.05,31.39
10299,0.3341,-0.0266,0.8662,-6.87,8.02,0.02,31.39
10309,0.3293,-0.0265,0.8662,-6.82,7.94,-0.03,31.4
10319,0.3318,-0.0255,0.8654,-6.84,7.92,0.0,31.4
10329,0.3318,-0.0242,0.8656,-6.82,7.97,-0.03,31.38
10339,0.3302,-0.0248,0.8689,-6.87,7.95,0.03,31.38
10350,0.33,-0.0253,0.8684,-6.89,8.02,0.03,31.42
10360,0.329,-0.026,0.8661,-6.92,8.02,-0.02,31.38
10370,0.328,-0.0294,0.8644,-6.96,8.02,-0.02,31.4
10380,0.3296,-0.027,0.8641,-6.79,7.98,-0.05,31.4
10390,0.3287,-0.024,0.8644,-6.9,7.94,-0.08,31.41
10400,0.3306,-0.0245,0.8617,-6.84,8.0,0.03,31.4
10410,0.3312,-0.0258,0.8643,-6.81,8.03,-0.05,31.38
10420,0.3324,-0.027,0.8601,-6.76,7.98,-0.02,31.4
10430,0.3325,-0.0239,0.8634,-6.79,7.97,0.03,31.42
10440,0.3295,-0.0223,0.8656,-6.79,7.92,-0.02,31.43
10450,0.3307,-0.0262,0.8644,-6.93,7.97,-0.05,31.41
10460,0.3314,-0.0247,0.8677,-6.81,8.08,-0.11,31.44
10470,0.3319,-0.0289,0.8644,-6.75,7.95,-0.03,31.43
10480,0.3296,-0.0261,0.8663,-6.75,7.89,-0.02,31.42
10490,0.3307,-0.0239,0.8633,-6.92,7.97,-0.08,31.39
10500,0.33,-0.0266,0.8627,-6.89,7.98,0.05,31.39
10510,0.3319,-0.0251,0.8634,-6.89,7.98,-0.09,31.4
10520,0.3284,-0.0261,0.8625,-6.81,7.97,-0.02,31.41
10531,0.3307,-0.0219,0.8657,-6.82,7.98,-0.03,31.4
10542,0.3291,-0.0233,0.8657,-6.84,7.97,-0.06,31.42
10552,0.333,-0.0254,0.8644,-6.84,8.03,0.06,31.41
10563,0.3333,-0.0258,0.865,-6.96,7.92,-0.08,31.4
10573,0.334,-0.0262,0.8646,-6.85,8.05,0.0,31.42
10584,0.3296,-0.0236,0.8579,-6.85,7.92,-0.02,31.42
10594,0.3296,-0.0272,0.8613,-6.84,8.02,0.02,31.41
10605,0.3306,-0.0259,0.8649,-6.75,8.0,-0.03,31.42
10615,0.3276,-0.0253,0.8644,-6.81,8.0,-0.03,31.42
10625,0.3281,-0.0242,0.8667,-6.9,8.02,-0.12,31.39
10635,0.3292,-0.0229,0.8613,-6.87,7.91,-0.03,31.41
10645,0.3279,-0.0247,0.8654,-6.9,8.03,-0.02,31.39
10655,0.3284,-0.0275,0.8647,-6.84,7.89,0.03,31.42
10665,0.3317,-0.0259,0.866,-6.82,7.92,-0.08,31.42
10675,0.3315,-0.0261,0.8633,-6.85,8.05,-0.08,31.41
10685,0.3298,-0.028,0.8584,-6.82,8.0,-0.02,31.41
10695,0.3308,-0.0262,0.8644,-6.73,8.03,-0.08,31.42
10705,0.3333,-0.0253,0.864,-6.95,8.03,-0.02,31.41
10715,0.3302,-0.0266,0.8646,-6.9,7.95,-0.06,31.41
10725,0.33,-0.0249,0.8667,-6.92,7.95,-0.09,31.41
10735,0.3311,-0.0254,0.8628,-6.84,8.0,-0.06,31.43
10745,0.3308,-0.0265,0.8624,-6.76,7.98,-0.06,31.41
10755,0.3313,-0.0234,0.8629,-6.79,7.95,-0.02,31.4
10765,0.3304,-0.0245,0.8622,-6.76,8.0,-0.08,31.41
10775,0.3311,-0.0247,0.8649,-6.81,7.97,-0.09,31.39
10785,0.3301,-0.0264,0.8651,-6.92,8.02,-0.06,31.39
10795,0.3322,-0.025,0.8638,-6.75,8.02,0.05,31.41
10805,0.329,-0.025,0.864,-6.81,8.08,-0.15,31.4
10815,0.3302,-0.0234,0.8621,-6.89,8.0,-0.05,31.41
10825,0.3311,-0.0239,0.8625,-6.89,8.02,-0.02,31.43
10835,0.3317,-0.0256,0.8605,-6.9,7.95,-0.05,31.4
10845,0.328,-0.0249,0.8638,-6.75,8.02,0.0,31.42
10855,0.3297,-0.0277,0.866,-6.81,7.98,-0.06,31.43
10865,0.33,-0.0267,0.8663,-6.89,8.05,-0.02,31.41
10875,0.3301,-0.0262,0.8633,-6.84,8.0,-0.11,31.4
10885,0.3284,-0.0256,0.8633,-6.89,8.0,-0.03,31.41
10895,0.3303,-0.0231,0.8679,-6.87,8.02,-0.03,31.42
10905,0.3325,-0.026,0.8655,-6.87,7.97,0.02,31.37
10915,0.3274,-0.0229,0.8672,-6.84,7.98,0.02,31.41
10925,0.3312,-0.0266,0.8667,-6.81,8.03,-0.06,31.41
10935,0.3304,-0.0245,0.8649,-6.87,7.97,-0.09,31.43
10948,0.3314,-0.025,0.8661,-6.75,8.03,-0.03,31.44
10958,0.3337,-0.0273,0.8622,-6.73,8.02,0.0,31.42
10968,0.3314,-0.0251,0.8682,-6.87,7.94,0.0,31.41
10978,0.33,-0.0236,0.8643,-6.89,8.08,-0.03,31.39
10988,0.3317,-0.0231,0.8636,-6.82,7.95,-0.03,31.42
10998,0.3298,-0.0248,0.8634,-6.89,8.0,-0.03,31.4
11008,0.3333,-0.0244,0.865,-6.84,7.92,-0.02,31.41
11018,0.3308,-0.0243,0.8688,-6.79,8.0,-0.05,31.43
11028,0.3304,-0.0256,0.8644,-6.87,8.03,-0.09,31.4
11038,0.3331,-0.0247,0.8621,-6.89,8.08,-0.03,31.41
11048,0.329,-0.0245,0.8618,-6.81,8.02,0.09,31.43
11058,0.3303,-0.0248,0.8624,-6.89,7.97,0.0,31.41
11068,0.3276,-0.0233,0.8621,-6.76,8.06,-0.03,31.41
11078,0.3301,-0.0249,0.8611,-6.79,8.0,-0.08,31.4
11088,0.3302,-0.0259,0.8655,-6.81,7.91,0.02,31.45
11098,0.3285,-0.0244,0.8647,-6.85,7.98,-0.05,31.43
11108,0.3317,-0.0277,0.8651,-6.87,8.0,-0.05,31.42
11118,0.329,-0.0267,0.8688,-6.9,7.97,-0.03,31.41
11128,0.3315,-0.0255,0.8634,-6.81,7.94,-0.02,31.44
11138,0.3329,-0.0238,0.8666,-6.81,7.95,-0.02,31.43
11148,0.3331,-0.0242,0.8628,-6.75,7.98,-0.06,31.44
11158,0.3296,-0.0249,0.8625,-6.9,8.0,0.05,31.41
11168,0.3295,-0.0244,0.8616,-6.81,7.97,0.06,31.44
11178,0.3302,-0.0259,0.8662,-6.73,8.0,0.02,31.42
11188,0.327,-0.0234,0.864,-6.78,8.03,0.03,31.44
11198,0.3303,-0.0256,0.8622,-6.89,7.97,0.05,31.42
11208,0.3303,-0.0255,0.864,-6.82,7.94,0.02,31.43
11218,0.332,-0.0245,0.8676,-6.9,7.95,-0.02,31.43
11228,0.3301,-0.0238,0.8654,-6.87,7.94,-0.06,31.42
11238,0.3335,-0.0243,0.8687,-6.85,8.05,0.02,31.41
11248,0.3302,-0.0254,0.8656,-6.85,7.98,0.03,31.44
11258,0.3313,-0.0248,0.8665,-6.84,8.06,0.0,31.44
11268,0.3273,-0.0259,0.8658,-6.85,7.98,-0.09,31.43
11278,0.3297,-0.0264,0.8622,-6.82,8.03,-0.06,31.42
11288,0.3313,-0.0237,0.8639,-6.84,7.98,-0.11,31.43
11298,0.3315,-0.0255,0.8658,-6.79,7.95,0.0,31.44
11308,0.33,-0.0243,0.8615,-6.99,8.05,-0.06,31.45
11318,0.3313,-0.0256,0.8644,-6.82,8.05,-0.06,31.42
11328,0.3301,-0.0261,0.8647,-6.81,8.06,0.0,31.44
11338,0.3322,-0.0221,0.8643,-6.89,7.95,0.03,31.41
11348,0.33,-0.0225,0.8649,-6.85,7.95,-0.03,31.44
11358,0.3307,-0.0254,0.8669,-6.85,8.03,-0.03,31.42
11368,0.3298,-0.0223,0.8633,-6.82,7.94,0.06,31.44
11378,0.3291,-0.027,0.8658,-6.84,8.02,0.0,31.44
11388,0.3328,-0.0283,0.8633,-6.87,8.08,-0.11,31.43
11398,0.3339,-0.0238,0.8645,-6.93,7.94,-0.03,31.42
11408,0.33,-0.0255,0.8611,-6.95,8.0,0.03,31.43
11418,0.3298,-0.0254,0.8667,-6.78,7.95,-0.02,31.41
11428,0.3293,-0.0271,0.8663,-6.76,8.05,0.05,31.43
11438,0.3309,-0.0277,0.8623,-6.95,8.0,0.03,31.42
11448,0.3302,-0.0261,0.8663,-6.78,8.05,-0.08,31.45
11458,0.3334,-0.0267,0.8635,-6.87,7.97,-0.06,31.45
11468,0.3314,-0.0259,0.8647,-6.87,7.95,0.02,31.46
11478,0.3304,-0.0233,0.8638,-6.72,7.94,-0.06,31.44
11488,0.3295,-0.0255,0.8646,-6.79,7.98,0.0,31.43
11498,0.332,-0.0255,0.864,-6.82,7.94,-0.08,31.44
11508,0.3344,-0.0229,0.8678,-6.78,8.06,0.0,31.46
11518,0.3328,-0.0276,0.8668,-6.9,7.95,0.05,31.44
11528,0.33,-0.0234,0.8632,-6.95,8.02,0.05,31.44
11538,0.3312,-0.0256,0.8649,-6.84,8.0,-0.06,31.44
11548,0.3296,-0.0254,0.8638,-6.93,7.95,-0.03,31.44
11558,0.3307,-0.0248,0.865,-6.85,8.11,0.0,31.41
11568,0.3298,-0.0254,0.8644,-6.95,7.88,-0.08,31.44
11578,0.3302,-0.0271,0.8607,-6.78,7.95,0.05,31.41
11588,0.3308,-0.0247,0.8636,-6.79,7.97,0.0,31.42
11598,0.3344,-0.0258,0.8599,-6.82,7.97,0.03,31.44
11608,0.3302,-0.026,0.8643,-6.87,7.98,0.0,31.42
11618,0.3285,-0.0236,0.8652,-6.78,7.94,0.03,31.44
11628,0.3318,-0.0267,0.8665,-6.87,8.0,-0.05,31.45
11639,0.33,-0.0286,0.8673,-6.79,7.98,0.02,31.44
11649,0.3328,-0.0273,0.865,-6.73,7.95,0.02,31.42
11659,0.3324,-0.0271,0.864,-6.92,8.05,0.02,31.43
11670,0.3308,-0.0255,0.8629,-6.92,7.94,-0.03,31.44
11680,0.3287,-0.0239,0.861,-6.9,7.92,0.03,31.42
11690,0.3314,-0.0273,0.8669,-6.85,7.92,-0.09,31.42
11700,0.3317,-0.024,0.8646,-6.87,8.03,-0.03,31.42
11710,0.3326,-0.0255,0.8633,-6.82,8.02,-0.05,31.41
11720,0.3312,-0.0259,0.866,-6.85,8.06,-0.06,31.42
11730,0.3325,-0.0253,0.8666,-6.79,7.98,-0.05,31.44
11740,0.3319,-0.0259,0.8674,-6.84,8.02,-0.05,31.43
11750,0.3309,-0.026,0.8665,-6.85,8.03,0.02,31.43
11760,0.332,-0.0247,0.8643,-6.85,8.0,0.0,31.41
11770,0.3319,-0.0264,0.8666,-6.87,8.06,-0.05,31.41
11780,0.3315,-0.0248,0.8661,-6.79,8.02,-0.06,31.42
11790,0.3311,-0.0271,0.8624,-6.75,7.94,-0.05,31.44
11800,0.3307,-0.0272,0.8623,-6.87,8.06,-0.03,31.44
11810,0.33,-0.0267,0.8666,-6.96,7.97,-0.08,31.43
11820,0.3297,-0.0262,0.8665,-6.99,7.97,-0.06,31.43
11830,0.3279,-0.0267,0.8665,-6.81,8.06,-0.03,31.42
11840,0.3273,-0.0261,0.8668,-6.85,7.94,0.05,31.44
11850,0.329,-0.0239,0.8647,-6.81,8.03,-0.02,31.42
11860,0.329,-0.0251,0.8643,-6.82,8.02,-0.02,31.44
11870,0.3287,-0.0247,0.8641,-6.82,8.0,0.03,31.45
11880,0.3307,-0.0251,0.8644,-6.84,7.92,-0.12,31.43
11890,0.3311,-0.0269,0.8679,-6.85,7.94,-0.03,31.42
11900,0.3282,-0.0261,0.8656,-6.87,7.95,-0.08,31.45
11910,0.3335,-0.0253,0.8651,-6.82,7.97,-0.06,31.45
11920,0.3292,-0.0229,0.8623,-6.92,7.97,-0.08,31.44
11930,0.33,-0.0254,0.8655,-6.81,8.02,-0.08,31.43
11940,0.3296,-0.0251,0.8634,-6.81,7.98,-0.05,31.44
11950,0.3303,-0.0239,0.864,-6.9,8.03,-0.09,31.44
11960,0.3311,-0.028,0.8629,-6.82,7.92,-0.12,31.44
11970,0.3293,-0.0284,0.8672,-6.85,7.97,-0.05,31.44
11980,0.33,-0.025,0.8641,-6.79,8.03,0.02,31.47
11990,0.3306,-0.0249,0.8632,-6.85,7.97,0.02,31.43
12000,0.332,-0.0243,0.8633,-6.81,7.98,-0.06,31.44
12010,0.3307,-0.0273,0.8641,-6.82,7.98,0.0,31.45
12020,0.3312,-0.0276,0.8613,-6.9,7.95,0.0,31.43
12030,0.3302,-0.0266,0.8668,-6.9,7.94,-0.08,31.44
12040,0.3307,-0.0234,0.8596,-6.95,7.97,-0.06,31.45
12050,0.3297,-0.0276,0.8636,-6.85,8.02,-0.05,31.46
12060,0.3292,-0.0267,0.8654,-6.78,8.03,-0.02,31.44
12070,0.3287,-0.025,0.8685,-6.96,8.02,-0.03,31.44
12080,0.3308,-0.027,0.8617,-6.78,8.06,0.0,31.45
12090,0.3317,-0.0253,0.8663,-6.84,8.05,-0.06,31.47
12100,0.3326,-0.0238,0.8669,-6.89,8.0,-0.02,31.42
12110,0.3304,-0.0254,0.8627,-6.84,7.98,-0.06,31.44
12120,0.3328,-0.028,0.8671,-6.82,7.98,-0.02,31.43
12130,0.3307,-0.0258,0.8628,-6.84,8.0,0.0,31.43
12140,0.3268,-0.0242,0.8677,-6.87,8.0,0.03,31.45
12150,0.3276,-0.0259,0.8677,-6.79,8.0,0.0,31.42
12160,0.3309,-0.0228,0.8647,-6.85,8.03,-0.09,31.42
12170,0.3322,-0.027,0.8665,-6.93,8.05,-0.02,31.44
12180,0.3317,-0.0256,0.8645,-6.84,8.0,0.0,31.4
12190,0.3312,-0.0251,0.863,-6.84,7.98,0.0,31.46
12200,0.3297,-0.025,0.8655,-6.85,8.0,0.03,31.43
12210,0.3333,-0.022,0.8658,-6.89,7.94,-0.06,31.44
12220,0.3304,-0.0264,0.8657,-6.84,7.98,-0.03,31.43
12230,0.3306,-0.0238,0.8684,-6.84,7.97,-0.06,31.45
12240,0.3329,-0.0237,0.8635,-6.76,7.92,0.05,31.45
12250,0.3289,-0.0242,0.8672,-6.79,8.02,0.02,31.45
12260,0.3303,-0.0256,0.8632,-6.79,7.91,0.02,31.43
12270,0.3311,-0.0255,0.8661,-6.81,7.95,-0.09,31.46
12280,0.3287,-0.0231,0.8647,-6.85,8.02,-0.02,31.44
12290,0.33,-0.0266,0.8625,-6.95,8.03,-0.02,31.45
12300,0.3331,-0.0239,0.8651,-6.81,8.09,-0.02,31.46
12310,0.3323,-0.0229,0.8674,-6.84,8.03,-0.11,31.45
12320,0.3291,-0.0232,0.8658,-6.76,8.06,-0.05,31.43
12330,0.3306,-0.0282,0.8652,-6.87,7.98,0.0,31.44
12340,0.3301,-0.0272,0.8625,-6.73,7.94,0.0,31.44
12350,0.3271,-0.0278,0.8661,-6.92,7.95,-0.03,31.45
12360,0.3311,-0.0248,0.868,-6.84,7.86,-0.05,31.46
12370,0.3308,-0.0266,0.8665,-6.87,7.98,0.0,31.44
12380,0.3293,-0.0256,0.8683,-6.89,7.97,0.0,31.45
12390,0.3308,-0.0245,0.8633,-6.81,7.97,-0.08,31.44
12400,0.3311,-0.0243,0.8646,-6.87,7.98,-0.02,31.44
12410,0.3303,-0.024,0.8619,-6.73,7.94,-0.03,31.44
12420,0.3298,-0.0272,0.8617,-6.84,8.06,0.03,31.46
12430,0.3309,-0.0264,0.8647,-6.79,8.0,0.0,31.46
12440,0.3309,-0.0269,0.865,-6.92,8.02,0.03,31.47
12450,0.3322,-0.025,0.8649,-6.89,7.86,0.0,31.46
12460,0.3302,-0.0233,0.8655,-6.92,7.95,-0.06,31.44
12470,0.3314,-0.0259,0.8595,-6.89,7.92,-0.09,31.45
12480,0.3304,-0.0251,0.8625,-6.84,7.92,0.05,31.44
12490,0.3333,-0.0234,0.8612,-6.95,7.98,-0.08,31.44
12500,0.3271,-0.0245,0.8618,-6.82,7.97,-0.03,31.46
12510,0.3317,-0.0248,0.8634,-6.75,7.95,-0.05,31.47
12520,0.3286,-0.0238,0.8661,-6.87,8.02,-0.11,31.44
12530,0.329,-0.0237,0.8651,-6.93,8.03,-0.03,31.46
12540,0.3324,-0.0229,0.8665,-6.92,7.97,-0.02,31.45
12550,0.3279,-0.0267,0.8647,-6.7,7.97,-0.03,31.46
12560,0.3296,-0.025,0.8638,-6.82,7.86,0.0,31.45
12570,0.3287,-0.0261,0.8633,-6.89,7.97,0.03,31.43
12580,0.3341,-0.0271,0.8628,-6.85,7.95,-0.02,31.48
12590,0.33,-0.0264,0.8624,-6.82,7.98,-0.12,31.45
12600,0.3308,-0.0256,0.8629,-6.89,7.94,-0.08,31.45
12610,0.3276,-0.0216,0.8635,-6.9,7.92,0.0,31.44
12620,0.3331,-0.0249,0.8625,-6.82,7.95,-0.08,31.44
12630,0.3317,-0.0244,0.8618,-6.79,7.98,0.02,31.42
12640,0.3301,-0.0266,0.8671,-6.85,7.92,0.06,31.46
12650,0.3306,-0.0248,0.864,-6.81,7.98,-0.03,31.45
12660,0.3306,-0.0259,0.8634,-6.9,7.95,-0.05,31.45
12670,0.3335,-0.0245,0.8647,-6.9,8.03,-0.03,31.44
12680,0.3293,-0.0248,0.8651,-6.87,8.03,0.05,31.45
12690,0.3303,-0.0229,0.8644,-6.81,8.05,0.03,31.44
12700,0.3285,-0.0261,0.865,-6.82,7.97,0.05,31.47
12710,0.3298,-0.0234,0.8622,-6.89,7.95,0.0,31.46
12720,0.335,-0.0234,0.8633,-6.95,7.97,0.0,31.46
12730,0.3323,-0.0272,0.8624,-6.84,8.02,-0.02,31.47
12740,0.3309,-0.0239,0.8649,-6.85,8.02,-0.11,31.46
12750,0.3323,-0.0277,0.8624,-6.89,7.98,-0.03,31.46
12760,0.3307,-0.0271,0.8672,-6.87,7.95,-0.15,31.46
12770,0.3319,-0.0234,0.8679,-6.87,7.94,-0.09,31.47
12780,0.3296,-0.0261,0.8635,-6.89,7.98,-0.11,31.48
12790,0.3303,-0.027,0.8676,-6.92,7.98,0.0,31.45
12800,0.3312,-0.0259,0.8666,-6.84,7.83,-0.08,31.47
12810,0.3303,-0.0253,0.8668,-6.84,8.05,-0.08,31.45
12820,0.3307,-0.0251,0.8663,-6.85,8.03,-0.09,31.44
12830,0.3301,-0.0253,0.8622,-6.9,8.05,-0.05,31.46
12840,0.3296,-0.0281,0.8643,-6.78,7.95,0.05,31.46
12850,0.3304,-0.0242,0.8615,-6.82,8.08,-0.06,31.43
12860,0.3334,-0.0233,0.8638,-6.81,8.02,-0.06,31.45
12871,0.3297,-0.0232,0.8646,-6.9,8.03,-0.05,31.45
12882,0.3304,-0.025,0.8669,-6.81,8.02,-0.02,31.48
12892,0.3334,-0.0286,0.8695,-6.9,7.98,-0.03,31.47
12902,0.327,-0.0236,0.8665,-6.78,7.94,-0.03,31.47
12912,0.3298,-0.0247,0.8632,-6.79,7.98,-0.08,31.47
12923,0.3293,-0.0283,0.8665,-6.89,8.03,-0.08,31.45
12933,0.3273,-0.0254,0.8696,-6.89,8.0,-0.03,31.47
12946,0.3298,-0.0214,0.8638,-6.79,8.08,-0.03,31.47
12956,0.3297,-0.0219,0.865,-6.85,8.06,-0.03,31.44
12967,0.3324,-0.0223,0.8618,-6.82,7.94,-0.06,31.47
12977,0.33,-0.0272,0.8646,-6.85,8.0,-0.03,31.46
12987,0.3314,-0.0271,0.8621,-6.82,8.03,0.0,31.47
12997,0.3318,-0.0271,0.8602,-6.84,8.05,-0.08,31.47
13007,0.3303,-0.0249,0.8629,-6.89,7.97,-0.06,31.49
13017,0.3284,-0.0225,0.8636,-6.89,8.03,0.02,31.44
13027,0.3314,-0.0237,0.8652,-6.85,7.98,-0.06,31.46
13037,0.3297,-0.0236,0.8655,-6.84,7.92,-0.09,31.44
13047,0.3348,-0.0239,0.8647,-6.82,7.94,-0.08,31.45
13057,0.3285,-0.0253,0.8666,-6.87,7.92,-0.09,31.45
13067,0.3308,-0.0255,0.8639,-6.82,8.11,-0.02,31.46
13077,0.3301,-0.0255,0.8615,-6.87,7.97,-0.09,31.44
13087,0.3312,-0.0238,0.8632,-6.92,8.02,-0.08,31.47
13097,0.3319,-0.0231,0.8632,-6.84,8.0,-0.06,31.44
13107,0.3298,-0.0243,0.8655,-6.89,8.05,-0.05,31.46
13117,0.3298,-0.0253,0.8674,-6.79,8.0,-0.02,31.46
13127,0.333,-0.0245,0.8651,-6.75,8.0,-0.05,31.44
13137,0.3293,-0.022,0.8665,-6.84,7.97,-0.02,31.48
13147,0.3289,-0.0225,0.8671,-6.85,8.03,-0.09,31.46
13157,0.3281,-0.026,0.8678,-6.89,8.08,0.06,31.45
13167,0.3297,-0.0238,0.8679,-6.89,8.02,0.03,31.47
13177,0.3278,-0.0229,0.8634,-6.85,8.06,0.03,31.46
13187,0.3293,-0.025,0.865,-6.93,8.03,-0.15,31.48
13197,0.3318,-0.0258,0.8672,-6.9,8.06,-0.02,31.45
13207,0.3314,-0.0242,0.8628,-6.84,8.0,0.0,31.44
13217,0.3286,-0.0242,0.8602,-6.9,8.03,0.0,31.46
13227,0.3307,-0.0234,0.863,-6.85,8.06,-0.05,31.47
13237,0.3281,-0.0229,0.8649,-6.85,8.05,0.02,31.47
13247,0.3291,-0.0267,0.8632,-6.84,8.03,0.05,31.46
13257,0.3289,-0.0254,0.8629,-6.85,8.08,0.05,31.47
13268,0.3298,-0.0259,0.8657,-6.78,7.95,0.0,31.46
13278,0.3298,-0.0249,0.8665,-6.76,7.98,0.05,31.48
13289,0.3312,-0.0249,0.8611,-6.73,8.11,-0.08,31.49
13299,0.3285,-0.0249,0.8624,-6.85,7.97,0.03,31.47
13309,0.3312,-0.0254,0.8621,-6.87,7.95,-0.06,31.46
13319,0.3295,-0.0225,0.8622,-6.85,8.02,-0.06,31.46
13329,0.3315,-0.0262,0.865,-6.87,8.02,0.06,31.44
13339,0.3292,-0.022,0.8638,-6.79,7.98,-0.06,31.47
13349,0.3323,-0.0262,0.8647,-6.81,8.02,-0.03,31.48
13359,0.3313,-0.0228,0.8676,-6.78,7.95,-0.02,31.47
13370,0.3328,-0.0262,0.8632,-6.81,7.95,-0.02,31.48
13380,0.3319,-0.0247,0.8645,-6.84,7.94,0.02,31.49
13390,0.3335,-0.0262,0.8696,-6.96,8.05,-0.12,31.48
13400,0.33,-0.0262,0.8646,-6.7,8.05,-0.03,31.45
13410,0.3284,-0.027,0.8605,-6.85,8.02,-0.06,31.47
13420,0.3278,-0.0245,0.8621,-6.79,7.95,0.02,31.47
13430,0.3267,-0.027,0.8668,-6.85,8.0,0.03,31.47
13440,0.3314,-0.0244,0.8606,-6.95,7.95,-0.02,31.49
13450,0.3311,-0.0239,0.8666,-6.89,8.0,-0.08,31.47
13460,0.3319,-0.0251,0.8636,-6.75,8.0,0.05,31.45
13470,0.3307,-0.026,0.868,-6.87,7.97,0.05,31.47
13480,0.33,-0.0259,0.8646,-6.85,7.98,-0.03,31.48
13490,0.3286,-0.024,0.8601,-6.95,7.97,0.02,31.48
13500,0.3293,-0.0238,0.8655,-6.87,8.02,0.05,31.46
13510,0.3326,-0.0233,0.866,-6.92,8.03,0.03,31.5
13520,0.3309,-0.0236,0.8682,-6.76,7.98,-0.02,31.49
13530,0.3303,-0.0287,0.8629,-6.84,7.98,-0.05,31.48
13540,0.3295,-0.0286,0.8691,-6.84,7.97,-0.11,31.46
13550,0.3279,-0.028,0.8656,-6.84,8.02,-0.11,31.45
13560,0.3311,-0.0261,0.8633,-6.79,8.05,-0.06,31.46
13570,0.3298,-0.0249,0.866,-6.81,8.03,-0.08,31.49
13580,0.3295,-0.0243,0.865,-6.72,8.0,-0.08,31.46
13590,0.3278,-0.0232,0.8654,-6.81,8.02,-0.02,31.48
13600,0.3324,-0.0206,0.8618,-6.7,7.97,0.0,31.49
13610,0.3296,-0.0264,0.8635,-6.79,7.94,-0.05,31.46
13620,0.3306,-0.0227,0.8661,-6.85,8.02,-0.09,31.46
13630,0.3331,-0.0291,0.8632,-6.73,8.03,-0.03,31.48
13640,0.3342,-0.0278,0.8654,-6.87,8.02,-0.02,31.47
13650,0.3311,-0.0282,0.8625,-6.89,7.98,-0.02,31.49
13660,0.3279,-0.0265,0.8645,-6.84,7.94,-0.03,31.46
13670,0.3314,-0.0238,0.8666,-6.78,7.91,0.0,31.46
13680,0.3284,-0.0225,0.8679,-6.82,7.94,-0.08,31.47
13690,0.3309,-0.0244,0.8647,-6.81,7.92,-0.08,31.47
13700,0.3312,-0.0259,0.8629,-6.82,8.0,-0.03,31.47
13710,0.328,-0.0243,0.8636,-6.87,7.94,-0.11,31.45
13720,0.3289,-0.0258,0.8617,-6.84,7.91,-0.09,31.48
13730,0.3279,-0.0266,0.8599,-6.79,8.0,-0.12,31.46
13740,0.3312,-0.0261,0.8682,-6.81,7.92,0.02,31.49
13750,0.3301,-0.0269,0.87,-6.82,8.0,-0.08,31.47
13760,0.3287,-0.0266,0.8671,-6.72,7.97,-0.02,31.47
13770,0.3275,-0.0251,0.8628,-6.84,8.0,-0.08,31.47
13780,0.3298,-0.0227,0.8651,-6.79,8.08,-0.02,31.49
13790,0.3319,-0.0291,0.8634,-6.85,8.05,-0.06,31.5
13800,0.3317,-0.0267,0.8608,-6.76,8.05,0.0,31.47
13810,0.3293,-0.0271,0.8624,-6.85,8.0,0.0,31.46
13820,0.3309,-0.026,0.8652,-6.89,8.03,-0.06,31.47
13830,0.3273,-0.0233,0.866,-6.85,7.92,0.0,31.48
13840,0.3307,-0.025,0.8621,-6.84,7.91,-0.08,31.48
13850,0.333,-0.027,0.8597,-6.89,8.02,-0.06,31.48
13860,0.3319,-0.0236,0.8671,-6.89,8.06,-0.03,31.47
13870,0.3326,-0.0228,0.865,-6.85,8.02,-0.02,31.48
13880,0.3331,-0.0261,0.8643,-6.85,7.98,-0.03,31.48
13890,0.3313,-0.024,0.8644,-6.81,7.95,0.03,31.47
13900,0.3289,-0.0244,0.8635,-6.81,7.95,-0.08,31.49
13910,0.3317,-0.0222,0.8647,-6.81,7.98,-0.09,31.48
13920,0.3282,-0.0225,0.8647,-6.84,7.97,0.02,31.49
13930,0.3312,-0.0239,0.863,-6.85,7.95,-0.02,31.47
13940,0.3315,-0.0261,0.8662,-6.81,8.02,-0.02,31.49
13950,0.3304,-0.0258,0.8671,-6.81,8.03,-0.03,31.49
13960,0.3308,-0.0277,0.8612,-6.93,7.94,-0.08,31.48
13970,0.3346,-0.0249,0.8622,-6.87,7.95,0.0,31.47
13981,0.3331,-0.0253,0.8667,-6.89,7.95,0.05,31.46
13991,0.3312,-0.0262,0.8669,-6.9,7.91,0.02,31.48
14001,0.3303,-0.0253,0.8634,-6.84,8.0,-0.05,31.46
14011,0.3268,-0.0251,0.8654,-6.76,8.06,0.06,31.49
14021,0.3309,-0.025,0.8655,-6.81,7.97,-0.02,31.5
14031,0.3297,-0.0258,0.863,-6.87,7.98,0.02,31.47
14041,0.3359,-0.0259,0.8654,-6.85,8.08,-0.03,31.47
14051,0.3292,-0.0245,0.8683,-6.76,8.03,-0.06,31.48
14063,0.3289,-0.0264,0.8647,-6.85,7.94,-0.12,31.47
14073,0.3308,-0.0253,0.8691,-6.87,8.03,-0.06,31.49
14084,0.3304,-0.0254,0.8643,-6.81,7.95,0.02,31.48
14094,0.3301,-0.0251,0.8605,-6.87,8.0,-0.03,31.5
14104,0.3295,-0.0253,0.8638,-6.89,7.97,-0.03,31.5
14114,0.3282,-0.026,0.8658,-6.92,7.97,-0.05,31.49
14124,0.3323,-0.0266,0.8669,-6.72,7.97,-0.06,31.49
14134,0.333,-0.0262,0.8673,-6.81,8.09,-0.09,31.48
14144,0.3331,-0.0243,0.8646,-6.84,7.98,-0.09,31.48
14154,0.3308,-0.0223,0.8674,-6.84,8.02,0.0,31.5
14164,0.3323,-0.0248,0.8663,-6.87,8.08,-0.08,31.48
14174,0.3311,-0.0249,0.866,-6.84,8.0,-0.09,31.48
14184,0.3309,-0.0249,0.8673,-6.89,8.08,-0.03,31.5
14194,0.3334,-0.0238,0.864,-6.87,8.02,-0.03,31.49
14204,0.3296,-0.0227,0.8617,-6.89,7.94,0.02,31.48
14214,0.3293,-0.0229,0.8602,-6.84,7.94,0.06,31.47
14224,0.3286,-0.0232,0.868,-6.89,8.03,-0.06,31.47
14234,0.3298,-0.0269,0.8622,-6.79,7.94,-0.06,31.47
14244,0.3307,-0.0237,0.8636,-6.79,7.91,-0.02,31.48
14254,0.3291,-0.028,0.8607,-6.89,7.98,-0.09,31.47
14264,0.3303,-0.0282,0.8627,-6.81,7.97,0.0,31.49
14274,0.3302,-0.0244,0.8651,-6.92,8.0,0.05,31.46
14285,0.3302,-0.0236,0.8641,-6.9,8.02,-0.09,31.47
14295,0.3287,-0.0221,0.8634,-6.84,7.95,-0.06,31.45
14305,0.3287,-0.0272,0.8662,-6.9,7.98,-0.03,31.46
14315,0.329,-0.0255,0.8625,-6.84,7.92,-0.06,31.44
14325,0.3301,-0.0251,0.8629,-6.85,7.94,-0.05,31.44
14335,0.3295,-0.0247,0.859,-6.81,8.03,-0.03,31.47
14345,0.3317,-0.0261,0.8646,-6.79,8.02,0.0,31.47
14355,0.3287,-0.0261,0.8654,-6.81,8.03,0.02,31.47
14365,0.3286,-0.0253,0.8641,-6.93,7.97,-0.11,31.46
14375,0.3296,-0.0255,0.8636,-6.87,8.02,0.0,31.48
14385,0.3281,-0.0256,0.8628,-6.82,8.02,0.03,31.47
14395,0.3303,-0.0265,0.8633,-6.75,7.98,-0.08,31.48
14405,0.3282,-0.0242,0.8622,-6.82,7.98,-0.09,31.49
14415,0.3309,-0.0253,0.8641,-6.85,8.02,-0.05,31.48
14425,0.3315,-0.0228,0.8649,-6.78,8.06,-0.12,31.51
14436,0.3313,-0.0255,0.8656,-6.9,8.08,-0.11,31.49
14446,0.3295,-0.0237,0.86,-6.87,8.06,-0.08,31.46
14456,0.33,-0.0245,0.8663,-6.78,7.98,-0.11,31.48
14466,0.3292,-0.025,0.8663,-6.81,8.03,-0.02,31.48
14476,0.3302,-0.025,0.8647,-6.93,8.06,0.02,31.48
14486,0.3307,-0.0281,0.8636,-6.78,8.03,-0.17,31.5
14496,0.3311,-0.0247,0.8639,-6.93,8.03,-0.09,31.48
14506,0.3323,-0.0226,0.8615,-6.93,7.98,0.0,31.49
14516,0.3325,-0.0254,0.8625,-6.87,7.98,-0.03,31.47
14526,0.3329,-0.0244,0.8666,-6.85,8.0,0.02,31.48
14536,0.3313,-0.0284,0.8658,-6.84,8.06,0.03,31.49
14546,0.3306,-0.0243,0.8652,-6.93,8.05,-0.11,31.51
14556,0.3311,-0.0269,0.8711,-6.85,8.0,-0.06,31.47
14566,0.3307,-0.0254,0.8667,-6.81,7.98,-0.06,31.48
14576,0.3307,-0.0261,0.8641,-6.9,7.97,0.0,31.47
14586,0.3292,-0.0267,0.8616,-6.93,7.95,0.0,31.5
14596,0.3319,-0.0239,0.8621,-6.87,7.95,-0.03,31.48
14606,0.3276,-0.0264,0.86,-6.81,7.92,-0.09,31.49
14616,0.3319,-0.0258,0.8644,-6.87,8.0,0.0,31.51
14626,0.3319,-0.0277,0.8634,-6.89,7.98,-0.02,31.48
14636,0.3279,-0.027,0.8655,-6.92,7.98,0.06,31.48
14646,0.3292,-0.0259,0.864,-6.92,7.97,0.0,31.48
14656,0.3334,-0.0251,0.8643,-6.87,7.97,0.02,31.49
14666,0.3312,-0.0266,0.8702,-6.84,7.97,-0.05,31.49
14676,0.3322,-0.0271,0.8676,-6.82,8.02,-0.05,31.49
14686,0.3281,-0.0251,0.8655,-6.87,8.08,-0.02,31.48
14696,0.3308,-0.0249,0.8633,-6.87,8.0,0.02,31.51
14706,0.327,-0.0284,0.8599,-6.87,7.95,-0.12,31.48
14716,0.3293,-0.0264,0.865,-6.82,8.08,0.0,31.49
14726,0.3291,-0.0248,0.8646,-6.87,8.14,-0.09,31.48
14736,0.3303,-0.0242,0.861,-6.73,7.94,0.02,31.5
14746,0.3295,-0.0242,0.8625,-6.87,7.95,-0.03,31.49
14756,0.3326,-0.026,0.8638,-6.89,7.97,-0.06,31.48
14766,0.3319,-0.026,0.8652,-6.9,8.02,-0.09,31.47
14776,0.3322,-0.0254,0.8665,-6.82,7.98,0.02,31.48
14786,0.3307,-0.0267,0.8644,-6.81,8.06,0.02,31.47
14796,0.332,-0.0262,0.8662,-6.76,8.0,0.05,31.5
14806,0.3329,-0.0258,0.8658,-6.78,7.92,0.0,31.49
14816,0.3287,-0.0271,0.8621,-6.85,8.05,-0.02,31.49
14826,0.3293,-0.0204,0.8683,-6.81,8.08,-0.02,31.48
14836,0.3291,-0.0273,0.8677,-6.84,7.98,-0.03,31.5
14846,0.3298,-0.0287,0.8611,-6.92,7.95,0.03,31.52
14856,0.3258,-0.0222,0.8608,-6.76,7.85,-0.02,31.48
14866,0.3333,-0.0228,0.8625,-6.67,7.95,-0.06,31.49
14876,0.3303,-0.0227,0.8611,-6.82,8.05,0.02,31.5
14886,0.3323,-0.0245,0.8638,-6.81,7.95,0.0,31.48
14896,0.3312,-0.0269,0.8702,-6.78,7.91,-0.03,31.49
14906,0.3334,-0.0239,0.8671,-6.85,8.05,0.0,31.5
14916,0.3289,-0.0256,0.8608,-6.82,7.94,-0.03,31.49
14926,0.3284,-0.0244,0.8665,-6.78,7.97,0.05,31.5
14936,0.3297,-0.0225,0.8617,-6.81,8.0,-0.02,31.48
14946,0.3296,-0.0216,0.864,-6.81,7.97,-0.06,31.49
14956,0.3281,-0.0249,0.8618,-6.92,7.95,-0.09,31.47
14966,0.3308,-0.0258,0.8655,-6.76,8.02,0.03,31.48
14976,0.3312,-0.0234,0.8649,-6.9,8.03,-0.09,31.51
14986,0.3328,-0.0243,0.8638,-6.81,8.02,-0.03,31.49
14996,0.3314,-0.0225,0.8685,-6.84,7.94,-0.05,31.51
15006,0.3298,-0.026,0.8634,-6.76,7.97,-0.02,31.49
15016,0.332,-0.0233,0.863,-6.89,8.03,-0.09,31.51
15026,0.3312,-0.0255,0.8644,-6.84,7.94,-0.06,31.49
15036,0.3323,-0.0225,0.8677,-6.82,8.05,-0.03,31.51
15046,0.3352,-0.0255,0.8654,-6.87,7.95,-0.06,31.5
15056,0.3309,-0.0254,0.8638,-6.87,7.89,0.0,31.5
15066,0.3292,-0.0244,0.8633,-6.9,8.06,-0.03,31.49
15076,0.3319,-0.0272,0.8649,-6.85,7.97,-0.08,31.49
15086,0.3296,-0.0267,0.8612,-6.84,8.02,-0.05,31.5
15096,0.3295,-0.0244,0.8625,-6.84,8.0,-0.05,31.49
15106,0.3319,-0.0265,0.8649,-6.85,7.98,-0.08,31.52
15116,0.3317,-0.0237,0.864,-6.82,8.02,-0.05,31.51
15126,0.3287,-0.028,0.8644,-6.85,8.06,0.0,31.49
15136,0.3271,-0.0254,0.864,-6.76,7.95,-0.15,31.49
15146,0.3268,-0.0239,0.8612,-6.84,7.91,-0.09,31.49
15156,0.3276,-0.0259,0.8627,-6.84,7.98,-0.03,31.49
15166,0.3319,-0.0261,0.865,-6.89,7.97,-0.03,31.49
15176,0.3336,-0.0258,0.8644,-6.79,8.03,-0.08,31.49
15186,0.3295,-0.0248,0.8669,-6.76,8.0,-0.08,31.5
15196,0.3309,-0.0248,0.8654,-6.93,8.0,0.05,31.52
15206,0.3308,-0.0256,0.8629,-6.87,7.97,-0.05,31.52
15217,0.3291,-0.0227,0.8668,-6.78,8.05,-0.03,31.5
15227,0.3309,-0.0256,0.8612,-6.78,8.05,-0.05,31.5
15237,0.3313,-0.0243,0.8644,-6.81,8.0,0.03,31.52
15247,0.3341,-0.0259,0.861,-6.84,8.02,-0.08,31.49
15257,0.3315,-0.0247,0.864,-6.81,8.0,0.05,31.51
15267,0.3323,-0.0259,0.8622,-6.78,7.95,0.03,31.5
15277,0.3313,-0.0203,0.8647,-6.78,7.94,-0.02,31.47
15287,0.332,-0.024,0.864,-6.76,7.95,0.05,31.52
15297,0.3291,-0.0239,0.8624,-6.73,7.97,0.02,31.5
15307,0.3322,-0.0237,0.8665,-6.79,7.95,-0.09,31.49
15317,0.3315,-0.0265,0.8608,-6.93,7.94,-0.03,31.49
15327,0.3286,-0.0259,0.8647,-6.78,7.95,-0.05,31.51
15337,0.3291,-0.0254,0.8629,-6.78,7.98,-0.08,31.48
15347,0.3339,-0.0266,0.8671,-6.82,8.05,0.02,31.51
15357,0.3286,-0.0267,0.8623,-6.78,8.02,-0.12,31.52
15367,0.3312,-0.0239,0.8619,-6.78,7.98,-0.12,31.51
15377,0.33,-0.0237,0.8669,-6.81,8.06,-0.09,31.51
15387,0.3287,-0.0262,0.8622,-6.82,8.02,-0.11,31.52
15397,0.3287,-0.0278,0.8646,-6.81,7.94,-0.05,31.52
15407,0.329,-0.0254,0.8661,-6.75,8.02,0.0,31.5
15417,0.3293,-0.0281,0.8641,-6.79,8.03,-0.03,31.51
15427,0.3301,-0.0275,0.8657,-6.82,7.95,-0.08,31.49
15437,0.3314,-0.0243,0.8636,-6.81,8.05,-0.02,31.51
15447,0.3317,-0.0278,0.8641,-6.98,8.02,-0.02,31.52
15457,0.33,-0.0244,0.8661,-6.82,8.06,-0.03,31.52
15467,0.3324,-0.0225,0.865,-6.92,7.98,-0.03,31.49
15477,0.3325,-0.0253,0.8651,-6.98,7.98,0.0,31.51
15487,0.3306,-0.0245,0.8646,-6.84,7.98,0.02,31.53
15497,0.3322,-0.024,0.866,-6.85,7.91,-0.06,31.54
15507,0.3326,-0.0237,0.8639,-6.9,7.98,-0.03,31.52
15517,0.3296,-0.0249,0.8618,-6.82,8.0,-0.05,31.5
15528,0.333,-0.0256,0.8654,-6.84,8.05,-0.11,31.5
15538,0.3289,-0.0256,0.8641,-6.81,7.98,0.02,31.53
15548,0.33,-0.0245,0.8643,-6.84,7.97,-0.02,31.49
15558,0.3297,-0.0254,0.8646,-6.87,8.02,-0.08,31.51
15568,0.3313,-0.0244,0.8613,-6.76,7.98,-0.05,31.49
15578,0.3314,-0.028,0.8647,-6.9,7.92,-0.03,31.52
15588,0.3291,-0.0267,0.8639,-6.89,8.02,-0.02,31.52
15598,0.3298,-0.024,0.8662,-6.89,7.95,-0.05,31.52
15608,0.3278,-0.025,0.8644,-6.79,7.94,0.03,31.5
15618,0.3306,-0.0272,0.8638,-6.89,7.91,-0.02,31.52
15628,0.3337,-0.0249,0.8657,-6.79,7.97,-0.05,31.52
15638,0.3307,-0.0233,0.8622,-6.93,8.02,-0.06,31.49
15648,0.3346,-0.025,0.8645,-6.78,8.03,-0.11,31.5
15658,0.3297,-0.0251,0.865,-6.92,8.05,-0.11,31.49
15668,0.3313,-0.0254,0.8632,-6.85,7.97,0.03,31.53
15678,0.3312,-0.0234,0.866,-6.76,8.02,-0.03,31.5
15688,0.3298,-0.0272,0.864,-6.92,8.06,-0.02,31.51
15698,0.3291,-0.0208,0.8712,-6.79,8.12,-0.03,31.5
15708,0.3296,-0.0244,0.8636,-6.76,8.03,0.03,31.51
15718,0.329,-0.0292,0.8595,-6.76,7.94,-0.05,31.51
15728,0.3312,-0.0248,0.8632,-6.87,7.94,0.0,31.51
15738,0.3264,-0.0266,0.8616,-6.7,7.98,-0.02,31.52
15748,0.3319,-0.0243,0.865,-6.78,8.06,-0.11,31.52
15758,0.3311,-0.0251,0.865,-6.87,8.0,-0.08,31.52
15768,0.3291,-0.0243,0.8652,-6.84,7.98,0.09,31.51
15778,0.3314,-0.0273,0.8685,-6.78,7.95,-0.03,31.51
15788,0.3289,-0.0249,0.8674,-6.87,7.88,-0.02,31.52
15798,0.3323,-0.0247,0.863,-6.87,7.92,-0.08,31.51
15808,0.3312,-0.0261,0.8596,-6.76,7.94,-0.08,31.49
15818,0.3311,-0.024,0.8613,-6.78,8.02,-0.06,31.52
15828,0.3291,-0.0222,0.866,-6.79,8.0,0.03,31.52
15838,0.3315,-0.0267,0.8627,-6.89,7.98,0.08,31.52
15848,0.333,-0.0259,0.8663,-6.85,7.92,0.0,31.52
15858,0.3308,-0.025,0.8661,-6.92,8.02,-0.09,31.5
15868,0.3287,-0.0266,0.8596,-6.85,7.98,-0.08,31.53
15878,0.3306,-0.0248,0.8645,-6.92,8.03,0.02,31.51
15888,0.327,-0.0259,0.8635,-6.89,7.98,-0.03,31.52
15898,0.3291,-0.0261,0.8672,-6.85,8.05,-0.02,31.51
15908,0.3297,-0.0211,0.8579,-6.82,7.97,0.0,31.54
15918,0.3279,-0.0225,0.8643,-6.92,8.0,-0.03,31.51
15928,0.3292,-0.0253,0.8678,-6.81,7.92,-0.05,31.5
15938,0.3334,-0.0253,0.8624,-6.92,7.97,-0.02,31.49
15948,0.3333,-0.0264,0.8663,-6.84,7.97,0.03,31.51
15958,0.3309,-0.0251,0.8687,-6.9,7.86,0.06,31.51
15968,0.3336,-0.0278,0.8669,-6.76,7.97,-0.03,31.53
15978,0.3313,-0.0259,0.8628,-6.76,8.06,-0.09,31.52
15988,0.3293,-0.0227,0.8635,-6.85,8.0,-0.02,31.51
15998,0.3284,-0.0239,0.8635,-6.9,7.97,0.03,31.52
16008,0.3304,-0.0251,0.865,-6.84,7.98,-0.06,31.5
16018,0.3296,-0.0242,0.8632,-6.85,7.95,0.02,31.51
16028,0.3295,-0.0225,0.8656,-6.78,8.09,-0.06,31.52
16038,0.3306,-0.0225,0.8662,-6.82,7.97,0.02,31.53
16048,0.3315,-0.025,0.8666,-6.92,8.08,0.02,31.51
16058,0.3303,-0.026,0.8662,-6.81,8.05,0.02,31.52
16068,0.3306,-0.0265,0.863,-6.9,7.95,0.0,31.51
16078,0.3303,-0.0258,0.8629,-6.89,8.03,-0.05,31.51
16088,0.3291,-0.0249,0.8635,-6.85,7.97,0.03,31.52
16098,0.3314,-0.0243,0.8616,-6.79,8.05,0.05,31.54
16108,0.3336,-0.0265,0.8607,-6.93,7.94,0.02,31.51
16118,0.3302,-0.0265,0.863,-6.82,8.0,0.0,31.52
16128,0.3307,-0.0225,0.8654,-6.96,7.98,0.06,31.52
16138,0.3312,-0.026,0.866,-6.84,7.94,-0.05,31.52
16148,0.328,-0.0233,0.8643,-6.82,7.95,-0.03,31.53
16158,0.3308,-0.0271,0.8652,-6.85,7.98,-0.03,31.51
16168,0.3317,-0.0286,0.8656,-6.93,8.0,-0.03,31.53
16178,0.3317,-0.0237,0.8621,-6.87,7.95,-0.05,31.52
16188,0.3314,-0.0231,0.8674,-6.73,7.98,0.0,31.5
16198,0.3284,-0.0266,0.8676,-6.89,7.92,-0.09,31.49
16208,0.3291,-0.0228,0.8599,-6.82,7.95,-0.03,31.52
16218,0.3317,-0.0238,0.8627,-6.81,7.95,-0.02,31.52
16228,0.3298,-0.0249,0.863,-6.78,8.03,0.03,31.51
16238,0.3323,-0.0267,0.8644,-6.87,8.02,0.02,31.5
16249,0.334,-0.0298,0.866,-6.84,7.98,-0.02,31.52
16259,0.3331,-0.0271,0.8682,-6.85,8.0,-0.09,31.52
16269,0.3297,-0.0255,0.8644,-6.87,7.97,-0.06,31.52
16279,0.3313,-0.024,0.8652,-6.81,8.03,0.02,31.5
16289,0.3315,-0.0269,0.868,-6.82,7.94,0.03,31.51
16299,0.329,-0.0262,0.8688,-6.87,7.98,0.02,31.52
16309,0.3307,-0.0243,0.8627,-6.81,7.89,-0.05,31.51
16320,0.3303,-0.0232,0.8618,-6.79,7.98,-0.12,31.5
16330,0.3341,-0.024,0.8649,-6.73,7.97,0.02,31.51
16340,0.3312,-0.0245,0.8652,-6.85,8.02,0.02,31.5
16350,0.3304,-0.0261,0.8651,-6.82,8.05,-0.05,31.51
16360,0.3306,-0.0255,0.8651,-6.82,7.97,0.03,31.52
16370,0.332,-0.0265,0.8623,-6.85,7.92,-0.06,31.53
16380,0.3308,-0.0269,0.864,-6.85,7.95,0.0,31.52
16390,0.329,-0.025,0.8599,-6.9,8.02,0.0,31.51
16400,0.3315,-0.026,0.8662,-6.9,7.97,-0.02,31.51
16410,0.3311,-0.0256,0.8617,-6.87,7.95,0.05,31.52
16420,0.3309,-0.0261,0.8636,-6.85,7.92,-0.05,31.52
16430,0.3297,-0.0227,0.8597,-6.85,8.02,0.03,31.52
16440,0.3298,-0.0251,0.8649,-6.76,8.0,-0.02,31.51
16450,0.3289,-0.0217,0.8661,-6.78,7.97,-0.03,31.51
16460,0.33,-0.0264,0.8638,-6.82,7.98,-0.02,31.52
16470,0.33,-0.0247,0.8627,-6.84,8.0,-0.05,31.52
16480,0.3287,-0.025,0.8641,-6.93,8.05,-0.03,31.49
16490,0.3329,-0.0226,0.866,-6.84,8.0,-0.06,31.48
16500,0.3303,-0.0244,0.8593,-6.93,7.97,-0.03,31.52
16510,0.3307,-0.0236,0.8611,-6.81,7.98,-0.12,31.49
16520,0.3304,-0.025,0.8619,-6.89,7.98,-0.02,31.51
16530,0.329,-0.0261,0.8671,-6.82,7.91,0.03,31.53
16540,0.3286,-0.0238,0.8617,-6.81,7.94,-0.03,31.51
16550,0.3296,-0.0234,0.863,-6.81,7.97,-0.03,31.5
16560,0.3307,-0.0283,0.8669,-6.95,7.94,0.0,31.49
16570,0.3324,-0.024,0.8651,-6.95,7.95,0.06,31.49
16580,0.3323,-0.0237,0.8636,-6.89,7.97,-0.02,31.52
16590,0.3325,-0.0231,0.8666,-6.76,7.95,-0.03,31.49
16600,0.334,-0.0237,0.8654,-6.92,7.91,-0.09,31.5
16610,0.3302,-0.0236,0.8623,-6.89,7.97,-0.06,31.52
16620,0.3326,-0.0243,0.8676,-6.84,7.97,-0.05,31.51
16630,0.3347,-0.0249,0.866,-6.81,8.02,0.0,31.5
16640,0.3317,-0.0234,0.8654,-6.78,8.03,0.02,31.53
16650,0.3306,-0.0258,0.8672,-6.84,8.02,0.0,31.52
16660,0.3285,-0.0272,0.8635,-6.93,8.08,0.08,31.51
16670,0.3308,-0.0226,0.8606,-6.93,7.97,-0.05,31.52
16680,0.3281,-0.0249,0.8666,-6.9,7.97,0.02,31.52
16690,0.3293,-0.0255,0.8633,-6.78,7.92,-0.03,31.53
16700,0.3268,-0.025,0.8647,-6.82,8.0,-0.05,31.51
16710,0.3313,-0.0249,0.8649,-6.85,8.0,-0.14,31.53
16720,0.3301,-0.025,0.8641,-6.81,7.95,0.06,31.52
16730,0.3312,-0.0259,0.8661,-6.87,7.88,0.0,31.53
16740,0.3292,-0.0276,0.8644,-6.9,8.02,-0.02,31.52
16750,0.3313,-0.0251,0.8676,-6.89,7.98,-0.05,31.51
16760,0.333,-0.0256,0.8608,-6.9,7.98,-0.08,31.55
16770,0.3319,-0.0245,0.8641,-6.85,8.03,-0.02,31.52
16780,0.3298,-0.025,0.8649,-6.82,8.0,-0.12,31.52
16790,0.3313,-0.0223,0.8629,-6.81,8.02,-0.08,31.54
16800,0.3325,-0.0256,0.8661,-6.84,7.86,-0.08,31.53
16810,0.3331,-0.0223,0.8617,-6.84,7.94,0.03,31.51
16820,0.3275,-0.0276,0.8632,-6.81,8.08,-0.03,31.52
16830,0.3293,-0.0258,0.8657,-6.93,7.94,-0.02,31.52
16840,0.3312,-0.024,0.8655,-6.92,8.12,-0.08,31.52
16850,0.329,-0.0243,0.8634,-6.89,7.97,-0.09,31.51
16860,0.3295,-0.0243,0.8667,-6.84,7.92,-0.03,31.52
16870,0.3303,-0.0225,0.8658,-6.78,7.98,0.0,31.52
16880,0.3302,-0.0232,0.8655,-6.81,7.98,-0.02,31.51
16890,0.3291,-0.0261,0.8663,-6.84,7.98,-0.03,31.5
16900,0.3298,-0.024,0.8662,-6.81,8.0,-0.05,31.51
16910,0.329,-0.0256,0.869,-6.82,7.98,-0.03,31.5
16920,0.3308,-0.0269,0.8612,-6.9,8.06,-0.12,31.49
16930,0.3309,-0.0253,0.8622,-6.84,7.98,-0.08,31.52
16940,0.3333,-0.0227,0.8645,-6.85,8.02,-0.06,31.51
16950,0.3301,-0.0249,0.8645,-6.93,7.95,0.0,31.51
16960,0.3335,-0.0262,0.8629,-6.87,7.94,-0.09,31.52
16970,0.3303,-0.0258,0.8656,-6.9,7.95,-0.06,31.53
16980,0.3323,-0.0221,0.8658,-6.72,8.02,-0.08,31.5
16990,0.3306,-0.024,0.8673,-6.85,7.98,-0.02,31.51
17000,0.3317,-0.024,0.8618,-6.82,7.98,-0.09,31.51
17010,0.3296,-0.0264,0.8662,-6.81,7.98,-0.08,31.51
17020,0.3341,-0.0269,0.8649,-6.85,7.94,0.08,31.53
17030,0.3292,-0.0238,0.866,-6.93,8.06,-0.06,31.52
17041,0.3325,-0.0275,0.864,-6.81,7.97,0.06,31.53
17052,0.3315,-0.0243,0.8629,-6.79,7.98,-0.08,31.52
17063,0.3304,-0.0247,0.8646,-6.82,8.0,-0.05,31.5
17073,0.3308,-0.0239,0.864,-6.82,7.97,-0.03,31.51
17084,0.3324,-0.0233,0.8635,-6.81,7.98,0.06,31.53
17094,0.3314,-0.0265,0.8627,-6.87,7.97,0.05,31.5
17104,0.3314,-0.0243,0.8667,-6.85,7.98,-0.02,31.54
17114,0.3274,-0.0269,0.8645,-6.84,7.97,-0.06,31.54
17124,0.3328,-0.0237,0.8661,-6.85,7.88,0.05,31.51
17134,0.3333,-0.026,0.8636,-6.82,7.95,-0.02,31.5
17145,0.3317,-0.0261,0.8646,-6.84,7.98,-0.03,31.51
17155,0.3344,-0.0272,0.8668,-6.9,8.05,-0.05,31.51
17165,0.3292,-0.024,0.8646,-6.85,8.08,0.05,31.5
17175,0.329,-0.024,0.8667,-6.87,7.95,-0.03,31.51
17185,0.3318,-0.0233,0.8623,-6.85,7.98,0.02,31.51
17195,0.3302,-0.0225,0.8654,-6.81,7.95,-0.06,31.51
17205,0.3289,-0.0267,0.8673,-6.87,8.0,-0.03,31.52
17215,0.3301,-0.0273,0.8623,-6.79,7.95,0.03,31.53
17225,0.3251,-0.0259,0.8606,-6.87,7.97,-0.05,31.54
17235,0.3287,-0.0272,0.8683,-6.89,8.02,-0.02,31.53
17245,0.3306,-0.0282,0.8663,-6.9,8.06,-0.11,31.55
17255,0.3295,-0.0261,0.8641,-6.84,8.0,-0.11,31.52
17265,0.3282,-0.025,0.8627,-6.85,8.05,-0.11,31.52
17275,0.3314,-0.0251,0.8635,-6.87,7.98,-0.06,31.53
17285,0.3313,-0.0243,0.8647,-6.79,7.92,-0.06,31.52
17295,0.3335,-0.0242,0.8636,-6.89,8.05,-0.08,31.53
17305,0.3268,-0.0251,0.8632,-6.95,8.06,-0.11,31.52
17315,0.3317,-0.0236,0.8661,-6.98,8.0,-0.02,31.56
17325,0.3309,-0.0251,0.8715,-6.9,8.05,-0.08,31.52
17335,0.3318,-0.0278,0.8668,-6.89,8.0,-0.03,31.54
17345,0.3326,-0.0269,0.8636,-6.84,7.97,-0.05,31.51
17355,0.3311,-0.0287,0.8628,-6.82,7.98,0.0,31.52
17365,0.3312,-0.0275,0.8638,-6.81,7.97,-0.06,31.53
17375,0.3307,-0.0245,0.865,-6.78,7.95,-0.08,31.52
17385,0.3314,-0.0251,0.8638,-6.78,8.06,-0.03,31.52
17395,0.3306,-0.0247,0.8651,-6.81,8.03,-0.05,31.53
17405,0.329,-0.022,0.8683,-6.78,8.06,0.0,31.52
17415,0.3322,-0.0256,0.866,-6.9,8.0,-0.05,31.54
17425,0.3284,-0.025,0.8638,-6.78,7.89,0.03,31.53
17436,0.3291,-0.0259,0.8649,-6.96,8.0,0.02,31.54
17446,0.3325,-0.026,0.8636,-6.78,7.92,0.0,31.53
17456,0.3334,-0.0262,0.8621,-6.85,7.94,-0.05,31.54
17466,0.3268,-0.0234,0.8696,-6.84,7.97,-0.02,31.51
17476,0.3297,-0.0244,0.8665,-6.89,7.94,-0.11,31.54
17486,0.3286,-0.026,0.8604,-6.78,8.02,-0.02,31.54
17496,0.33,-0.0254,0.8682,-6.9,7.92,0.0,31.53
17506,0.329,-0.0244,0.8632,-6.93,7.92,-0.06,31.52
17516,0.3331,-0.0254,0.8655,-6.87,8.03,-0.06,31.54
17526,0.3322,-0.0261,0.8627,-6.75,8.08,0.11,31.53
17536,0.3326,-0.0275,0.869,-6.96,8.03,-0.02,31.54
17546,0.3311,-0.0236,0.8634,-6.87,8.0,-0.02,31.56
17556,0.3289,-0.0233,0.8665,-6.87,8.03,0.05,31.54
17566,0.3309,-0.0229,0.8619,-6.95,7.97,-0.02,31.51
17576,0.3315,-0.0256,0.8649,-6.87,8.05,-0.05,31.57
17586,0.333,-0.0273,0.8672,-6.78,7.98,-0.03,31.53
17596,0.332,-0.0256,0.8656,-6.84,7.98,0.02,31.54
17606,0.3315,-0.0262,0.8657,-6.89,8.05,-0.05,31.53
17616,0.328,-0.0264,0.864,-6.87,8.05,-0.08,31.48
17626,0.3265,-0.0239,0.8629,-6.87,7.91,0.02,31.52
17636,0.3286,-0.0233,0.8668,-6.84,7.94,-0.02,31.52
17646,0.33,-0.0225,0.8605,-6.92,7.98,-0.06,31.54
17656,0.3301,-0.026,0.8621,-6.87,8.06,-0.05,31.53
17666,0.3322,-0.0256,0.8644,-6.87,8.05,-0.14,31.52
17676,0.3315,-0.0254,0.8668,-6.82,7.89,0.02,31.53
17686,0.3278,-0.0269,0.8621,-6.9,7.94,-0.06,31.52
17696,0.3318,-0.0238,0.8682,-6.85,7.98,0.03,31.52
17706,0.3308,-0.0286,0.864,-6.89,7.98,-0.02,31.5
17716,0.3317,-0.0253,0.8651,-6.84,8.0,0.03,31.54
17726,0.3298,-0.0273,0.8667,-6.84,8.05,0.0,31.53
17736,0.3309,-0.0249,0.8657,-6.84,7.94,-0.08,31.54
17746,0.3309,-0.0256,0.8651,-6.76,8.05,-0.06,31.53
17756,0.3295,-0.0261,0.8646,-6.78,7.94,-0.05,31.54
17766,0.3322,-0.0245,0.8677,-6.82,7.91,0.03,31.51
17776,0.3313,-0.0272,0.8656,-6.73,8.05,-0.02,31.53
17786,0.3303,-0.0258,0.866,-6.73,7.98,0.0,31.53
17796,0.3286,-0.0249,0.8669,-7.01,8.05,-0.09,31.54
17806,0.3281,-0.0266,0.8636,-6.9,7.94,0.02,31.53
17816,0.3296,-0.0221,0.8624,-6.81,7.92,0.03,31.57
17826,0.3301,-0.0264,0.8668,-6.85,8.0,-0.08,31.53
17836,0.3287,-0.0242,0.868,-6.73,8.02,-0.02,31.54
17846,0.333,-0.0261,0.8634,-6.85,7.85,-0.11,31.52
17856,0.3315,-0.0284,0.864,-6.9,8.02,-0.06,31.53
17866,0.3301,-0.0271,0.8679,-6.82,8.0,-0.06,31.51
17876,0.3306,-0.0259,0.8643,-6.81,8.0,0.0,31.55
17886,0.3302,-0.0269,0.8645,-6.95,7.98,-0.06,31.56
17896,0.3308,-0.0236,0.8651,-6.81,7.97,-0.05,31.52
17906,0.3326,-0.0227,0.8635,-6.82,8.03,-0.09,31.53
17916,0.3296,-0.0204,0.866,-6.81,8.02,-0.03,31.56
17926,0.3301,-0.0237,0.8645,-6.82,8.06,0.0,31.56
17936,0.3312,-0.0234,0.8655,-6.79,8.0,-0.02,31.56
17946,0.3309,-0.0269,0.8644,-6.87,7.88,-0.12,31.54
17956,0.3278,-0.0245,0.8602,-6.81,8.02,-0.05,31.55
17966,0.3298,-0.0251,0.865,-6.87,8.09,-0.05,31.56
17976,0.33,-0.026,0.8655,-6.82,7.98,-0.05,31.57
17986,0.3337,-0.025,0.8643,-6.9,8.0,0.02,31.53
17996,0.3295,-0.0259,0.8677,-6.89,7.89,-0.11,31.55
18006,0.3295,-0.0264,0.8644,-6.99,8.02,-0.06,31.56
18016,0.3308,-0.0259,0.8685,-6.9,8.03,0.0,31.56
18026,0.3324,-0.0264,0.8655,-6.92,7.97,-0.08,31.54
18036,0.3293,-0.0269,0.8601,-6.84,8.08,-0.05,31.56
18046,0.3291,-0.0259,0.8666,-6.92,7.97,0.0,31.57
18056,0.3279,-0.0244,0.8643,-6.81,8.03,-0.06,31.55
18066,0.3336,-0.025,0.8646,-6.81,8.02,0.02,31.57
18076,0.3307,-0.0248,0.8668,-6.84,7.98,0.0,31.55
18086,0.3325,-0.0243,0.8688,-6.87,8.03,-0.12,31.53
18096,0.3325,-0.0225,0.8622,-6.84,8.02,-0.09,31.54
18106,0.3302,-0.0281,0.8634,-6.87,7.94,0.05,31.53
18116,0.3296,-0.0238,0.8636,-6.93,8.03,-0.03,31.53
18126,0.3307,-0.0261,0.8625,-6.84,8.03,0.0,31.54
18136,0.3336,-0.0244,0.8646,-6.87,8.09,-0.03,31.54
18146,0.3313,-0.0277,0.8656,-6.89,8.03,-0.06,31.58
18156,0.3284,-0.0242,0.8658,-6.81,7.98,-0.05,31.54
18166,0.3319,-0.0266,0.864,-6.96,7.98,-0.05,31.55
18176,0.3284,-0.0264,0.8655,-6.89,7.95,-0.02,31.54
18186,0.3289,-0.0266,0.8649,-6.81,8.05,-0.09,31.56
18196,0.3267,-0.0247,0.863,-6.84,8.02,-0.09,31.55
18206,0.3311,-0.0223,0.8622,-6.89,7.97,-0.05,31.55
18216,0.3301,-0.0231,0.8602,-6.87,8.09,-0.05,31.55
18226,0.3304,-0.0267,0.8622,-6.9,7.92,-0.06,31.55
18236,0.3307,-0.026,0.8644,-6.85,7.94,-0.06,31.57
18246,0.329,-0.026,0.8657,-6.9,8.0,-0.03,31.55
18256,0.3302,-0.0277,0.8634,-6.85,8.05,0.06,31.54
18266,0.332,-0.027,0.8644,-6.85,8.02,-0.14,31.55
18276,0.3317,-0.0242,0.8634,-6.82,8.08,-0.09,31.56
18286,0.3331,-0.0261,0.8629,-6.82,7.94,-0.02,31.54
18296,0.3306,-0.0238,0.8591,-6.82,8.0,0.02,31.56
18306,0.3295,-0.0272,0.8654,-6.79,7.98,-0.02,31.54
18316,0.3298,-0.0228,0.8656,-6.75,7.98,-0.03,31.54
18326,0.3281,-0.0269,0.8629,-6.81,7.98,-0.03,31.57
18336,0.3279,-0.0256,0.8632,-6.84,8.05,0.03,31.54
18346,0.3318,-0.026,0.8654,-6.87,7.97,-0.08,31.52
18356,0.329,-0.024,0.8651,-6.92,7.94,-0.02,31.57
18366,0.3291,-0.025,0.8685,-6.82,7.91,-0.05,31.57
18376,0.3311,-0.0258,0.8662,-6.87,8.05,-0.03,31.54
18386,0.3311,-0.0276,0.8673,-6.85,8.03,-0.05,31.56
18396,0.3323,-0.0265,0.8635,-6.81,8.0,-0.06,31.54
18406,0.3311,-0.0239,0.8647,-6.95,8.06,-0.02,31.56
18416,0.3318,-0.0223,0.8645,-6.92,8.05,-0.09,31.57
18426,0.3293,-0.0283,0.8673,-6.82,7.95,-0.08,31.57
18436,0.3287,-0.0281,0.8633,-6.78,7.95,-0.05,31.56
18446,0.33,-0.0259,0.8622,-6.82,7.95,0.03,31.56
18456,0.3311,-0.0225,0.8663,-6.89,7.95,-0.05,31.56
18466,0.3297,-0.0233,0.8654,-6.92,8.02,-0.11,31.54
18476,0.3325,-0.0238,0.8667,-6.76,8.08,0.03,31.54
18486,0.33,-0.0249,0.8656,-6.79,7.95,-0.03,31.54
18496,0.3326,-0.0253,0.866,-6.81,7.97,0.08,31.54
18506,0.3307,-0.0259,0.8672,-6.76,7.98,0.0,31.55
18516,0.3311,-0.0253,0.8617,-6.79,7.95,-0.08,31.58
18526,0.3291,-0.0243,0.869,-6.78,8.02,-0.05,31.55
18536,0.3317,-0.0236,0.8654,-6.81,7.97,0.02,31.54
18546,0.3273,-0.0226,0.8638,-6.92,7.98,0.05,31.54
18556,0.3286,-0.0272,0.869,-6.92,8.02,-0.03,31.54
18566,0.3307,-0.0261,0.8644,-6.84,7.95,-0.08,31.55
18576,0.3312,-0.0267,0.8632,-6.81,7.98,-0.05,31.54
18586,0.3285,-0.025,0.8618,-6.81,7.98,-0.14,31.55
18596,0.3308,-0.0255,0.8688,-6.84,8.0,-0.03,31.58
18606,0.332,-0.0258,0.8645,-6.85,7.97,-0.05,31.57
18616,0.3285,-0.0245,0.8698,-6.9,8.0,-0.02,31.55
18626,0.3352,-0.0281,0.8676,-6.89,7.95,-0.06,31.56
18636,0.3324,-0.0266,0.8623,-6.84,7.98,0.03,31.56
18646,0.3323,-0.0242,0.8684,-6.93,8.0,-0.03,31.54
18656,0.3323,-0.0262,0.8672,-6.93,7.95,0.0,31.55
18666,0.3313,-0.0251,0.8693,-6.93,7.95,-0.06,31.56
18676,0.3293,-0.0258,0.8643,-6.9,8.03,-0.06,31.54
18686,0.3304,-0.0255,0.864,-6.89,7.97,0.0,31.55
18696,0.3296,-0.0239,0.8641,-6.82,7.95,-0.09,31.54
18706,0.3307,-0.0249,0.8643,-6.85,8.06,-0.05,31.55
18716,0.3296,-0.0265,0.8636,-6.73,7.98,-0.03,31.55
18726,0.3307,-0.0216,0.8647,-6.84,7.89,0.0,31.54
18736,0.332,-0.0249,0.8606,-6.78,8.03,-0.06,31.54
18746,0.3315,-0.0272,0.8647,-6.81,8.0,-0.02,31.55
18756,0.3309,-0.0247,0.8636,-6.89,8.08,-0.03,31.59
18766,0.3315,-0.0261,0.8663,-6.9,8.02,-0.02,31.54
18776,0.3315,-0.0275,0.8612,-6.9,8.0,0.03,31.55
18786,0.3322,-0.0261,0.8624,-6.85,7.95,-0.05,31.57
18796,0.33,-0.0293,0.8632,-6.92,8.03,0.0,31.57
18806,0.3323,-0.0234,0.8615,-6.89,8.05,-0.03,31.57
18816,0.3325,-0.0243,0.8647,-6.92,8.03,-0.08,31.55
18826,0.3292,-0.0215,0.8669,-6.84,7.98,-0.09,31.58
18836,0.3304,-0.0272,0.8654,-6.89,8.06,0.02,31.55
18846,0.3292,-0.0227,0.8678,-6.87,7.95,-0.09,31.56
18856,0.3301,-0.0259,0.865,-6.82,8.0,-0.06,31.57
18866,0.3301,-0.0239,0.8634,-6.78,7.92,-0.06,31.55
18877,0.3328,-0.0243,0.8619,-6.98,7.91,-0.03,31.54
18887,0.3313,-0.0236,0.8618,-6.89,8.03,0.02,31.54
18897,0.3297,-0.027,0.8638,-6.85,7.91,-0.05,31.53
18907,0.3309,-0.0248,0.8618,-6.9,8.03,-0.02,31.56
18917,0.3293,-0.0256,0.8657,-6.81,8.02,-0.05,31.54
18927,0.3286,-0.0247,0.8635,-6.87,7.98,-0.06,31.53
18937,0.3312,-0.0255,0.8682,-6.85,8.03,-0.08,31.54
18947,0.3318,-0.0254,0.8649,-6.9,7.91,0.03,31.57
18957,0.3312,-0.0236,0.8621,-6.89,7.97,0.0,31.56
18967,0.3335,-0.0264,0.8646,-6.92,8.06,-0.08,31.55
18977,0.334,-0.0261,0.8613,-6.93,7.95,0.05,31.57
18987,0.3313,-0.0256,0.8655,-6.79,7.94,0.03,31.56
18997,0.3293,-0.028,0.8668,-6.79,8.02,0.02,31.54
19007,0.328,-0.0237,0.8646,-6.89,8.02,-0.03,31.55
19017,0.3303,-0.0232,0.863,-6.93,8.03,-0.03,31.54
19027,0.3298,-0.0248,0.8649,-6.81,7.97,-0.06,31.54
19037,0.3312,-0.0256,0.8663,-6.87,8.0,-0.06,31.56
19047,0.3302,-0.0244,0.8639,-6.85,8.02,-0.05,31.54
19057,0.3292,-0.0245,0.8634,-6.84,8.03,0.03,31.57
19068,0.3312,-0.0293,0.8669,-6.84,7.92,0.05,31.55
19078,0.3329,-0.0298,0.8632,-6.99,8.02,-0.06,31.55
19088,0.3306,-0.0276,0.8636,-6.79,7.97,-0.02,31.56
19098,0.3292,-0.0228,0.8662,-6.87,7.92,-0.02,31.54
19108,0.3306,-0.0226,0.8655,-6.85,8.02,-0.02,31.56
19118,0.3317,-0.0232,0.8654,-6.92,8.0,-0.06,31.55
19128,0.3276,-0.0273,0.863,-6.92,8.05,0.03,31.54
19138,0.3284,-0.0245,0.864,-6.84,8.0,0.0,31.56
19148,0.3308,-0.0232,0.8636,-6.9,7.97,-0.03,31.54
19158,0.3287,-0.0267,0.8655,-6.82,8.0,-0.11,31.57
19168,0.329,-0.0228,0.8669,-6.76,8.06,0.02,31.59
19178,0.3289,-0.0236,0.8645,-6.84,8.09,0.0,31.55
19188,0.3307,-0.0223,0.8661,-6.79,8.02,-0.08,31.56
19198,0.3323,-0.0245,0.865,-6.89,8.02,0.02,31.57
19208,0.3284,-0.0277,0.8639,-6.96,8.02,0.0,31.55
19218,0.3313,-0.0244,0.8623,-6.92,8.0,0.02,31.55
19228,0.3297,-0.0269,0.8657,-7.01,7.95,-0.05,31.54
19238,0.3306,-0.0272,0.8618,-6.89,7.97,-0.11,31.55
19249,0.3303,-0.0247,0.866,-6.84,7.95,-0.08,31.56
19259,0.3313,-0.026,0.8636,-6.92,8.05,-0.02,31.57
19269,0.332,-0.0258,0.8645,-6.85,8.06,-0.03,31.57
19279,0.3304,-0.0276,0.8636,-6.89,7.95,0.02,31.54
19290,0.3308,-0.0258,0.8646,-6.84,7.97,-0.03,31.55
19300,0.3314,-0.0254,0.8656,-6.81,8.02,0.0,31.55
19310,0.3306,-0.0261,0.8619,-6.82,8.02,-0.09,31.57
19320,0.333,-0.0251,0.8628,-6.79,8.05,-0.03,31.56
19330,0.3315,-0.0237,0.8611,-6.87,7.97,-0.05,31.54
19340,0.3313,-0.0261,0.8651,-6.9,7.98,0.0,31.55
19350,0.3309,-0.0238,0.868,-6.93,7.95,-0.05,31.56
19360,0.3312,-0.0265,0.8651,-6.92,7.91,-0.02,31.53
19370,0.3282,-0.0253,0.8651,-6.93,8.0,-0.02,31.55
19380,0.3273,-0.0247,0.8643,-6.89,7.97,-0.08,31.58
19390,0.3293,-0.0276,0.868,-6.93,8.05,0.0,31.58
19401,0.3306,-0.025,0.8612,-6.85,7.92,0.0,31.57
19411,0.3317,-0.0249,0.866,-6.79,7.97,-0.06,31.57
19421,0.3303,-0.0281,0.8651,-6.73,7.97,0.0,31.55
19431,0.3324,-0.0242,0.8656,-6.85,8.03,0.06,31.54
19441,0.3319,-0.0239,0.8624,-6.82,8.05,-0.02,31.55
19451,0.3311,-0.0286,0.8691,-6.84,8.02,-0.03,31.58
19461,0.3308,-0.0255,0.8674,-6.92,7.98,-0.05,31.56
19471,0.3297,-0.0281,0.8655,-6.89,8.05,0.0,31.55
19481,0.3308,-0.0273,0.866,-6.95,8.05,0.08,31.57
19491,0.3306,-0.0236,0.8658,-6.72,7.98,-0.03,31.55
19501,0.3324,-0.0226,0.8643,-6.85,8.05,0.05,31.55
19511,0.3323,-0.0247,0.863,-6.87,8.02,-0.06,31.54
19521,0.3278,-0.0278,0.8654,-6.85,8.08,-0.15,31.57
19531,0.3311,-0.0233,0.8622,-6.9,7.98,0.0,31.55
19541,0.3307,-0.0226,0.8632,-6.78,8.03,-0.02,31.59
19551,0.3293,-0.0232,0.8658,-6.84,7.95,0.02,31.58
19561,0.3325,-0.0258,0.8673,-6.85,8.0,0.0,31.57
19571,0.3322,-0.0253,0.8646,-6.92,8.05,-0.06,31.54
19581,0.3312,-0.0258,0.8645,-6.81,8.03,-0.02,31.55
19591,0.3297,-0.0244,0.8628,-6.79,8.03,-0.09,31.55
19601,0.3317,-0.0262,0.8623,-6.9,8.0,0.0,31.54
19611,0.3333,-0.0255,0.8616,-6.9,8.02,-0.02,31.54
19621,0.3312,-0.026,0.8678,-6.89,8.09,-0.02,31.57
19631,0.3296,-0.0256,0.8652,-6.9,8.03,0.03,31.55
19641,0.3271,-0.0267,0.8657,-6.9,8.05,-0.05,31.54
19651,0.3298,-0.0259,0.8629,-6.75,8.0,-0.02,31.55
19661,0.3317,-0.0221,0.8672,-6.9,8.0,-0.08,31.54
19671,0.3306,-0.0259,0.8651,-6.92,8.06,0.03,31.57
19681,0.3273,-0.0262,0.8651,-6.82,8.02,-0.03,31.55
19691,0.3313,-0.0259,0.8661,-6.92,7.97,-0.02,31.55
19701,0.3325,-0.0248,0.866,-6.85,7.95,-0.05,31.52
19711,0.3282,-0.024,0.86,-6.81,8.09,0.02,31.56
19721,0.3311,-0.0265,0.8663,-6.87,8.02,0.0,31.55
19731,0.3295,-0.0259,0.8647,-6.93,8.0,-0.14,31.57
19741,0.3339,-0.0264,0.8671,-6.82,7.94,-0.08,31.57
19751,0.3326,-0.0262,0.864,-6.89,7.98,0.03,31.54
19761,0.327,-0.0245,0.8621,-6.89,7.98,-0.09,31.57
19771,0.3314,-0.0271,0.8639,-6.82,8.06,-0.02,31.56
19781,0.3291,-0.0249,0.863,-6.9,8.08,-0.03,31.57
19791,0.327,-0.0248,0.8652,-6.79,8.02,-0.02,31.56
19801,0.3285,-0.0236,0.8634,-6.79,7.95,0.05,31.57
19811,0.3319,-0.0249,0.8635,-6.84,7.97,-0.08,31.56
19821,0.3304,-0.0231,0.8618,-6.82,8.03,-0.02,31.55
19831,0.33,-0.0258,0.8654,-6.82,8.02,0.02,31.57
19842,0.3306,-0.0238,0.8672,-6.79,8.05,0.02,31.56
19852,0.3295,-0.0255,0.8672,-6.9,7.98,-0.02,31.58
19864,0.3289,-0.0259,0.8629,-6.87,7.98,-0.06,31.54
19874,0.3296,-0.0255,0.8615,-6.81,8.02,-0.06,31.55
19884,0.328,-0.0262,0.8622,-6.89,8.0,-0.15,31.57
19894,0.333,-0.028,0.8657,-6.92,8.03,-0.14,31.55
19904,0.3281,-0.0271,0.8617,-6.85,7.92,0.02,31.59
19914,0.3307,-0.0226,0.8628,-6.78,8.02,-0.03,31.55
19924,0.3307,-0.0259,0.8619,-6.84,7.94,0.05,31.55
19934,0.3286,-0.0267,0.8634,-6.89,8.06,0.03,31.58
19944,0.3309,-0.0243,0.8646,-6.89,7.92,0.05,31.56
19954,0.3279,-0.0245,0.8678,-6.87,7.95,0.05,31.58
19965,0.3285,-0.025,0.8613,-6.87,7.97,-0.05,31.55
19975,0.3295,-0.0249,0.8672,-6.89,7.95,-0.02,31.57
19985,0.3292,-0.0258,0.8639,-6.93,8.02,0.05,31.57
19995,0.3295,-0.0247,0.8663,-6.87,8.05,0.0,31.57
20005,0.3314,-0.0253,0.8679,-6.84,8.08,-0.05,31.57
20015,0.3281,-0.0225,0.8638,-6.85,8.06,-0.05,31.59
20025,0.3295,-0.0254,0.8708,-6.89,8.05,-0.06,31.59
20035,0.3301,-0.0253,0.8663,-6.9,7.98,-0.02,31.55
20046,0.3319,-0.028,0.8669,-6.9,8.05,0.02,31.56
20056,0.3285,-0.0245,0.8646,-6.82,8.06,-0.05,31.56
20066,0.3279,-0.0244,0.8658,-6.87,8.05,-0.06,31.57
20076,0.3296,-0.0223,0.8641,-6.82,8.06,0.06,31.57
20086,0.3311,-0.0255,0.8672,-6.89,8.03,-0.03,31.57
20097,0.3311,-0.0243,0.8662,-6.96,8.03,-0.12,31.57
20107,0.3292,-0.0267,0.8676,-6.79,7.98,-0.05,31.57
20118,0.3314,-0.0261,0.8665,-6.81,7.98,-0.02,31.57
20128,0.328,-0.0238,0.866,-6.81,7.95,0.0,31.56
20138,0.3317,-0.0236,0.8643,-6.92,7.92,0.0,31.55
20148,0.3297,-0.0248,0.8606,-6.89,8.0,0.0,31.57
20158,0.332,-0.0265,0.8629,-6.9,7.97,-0.08,31.57
20168,0.3322,-0.0267,0.8649,-6.87,8.08,-0.03,31.57
20178,0.3324,-0.0247,0.865,-6.72,8.03,-0.11,31.57
20188,0.3281,-0.0239,0.8613,-6.82,8.05,0.02,31.55
20198,0.3313,-0.0214,0.8633,-6.87,7.94,0.0,31.57
20208,0.3295,-0.0259,0.8622,-6.87,7.97,0.03,31.6
20218,0.3297,-0.024,0.8627,-6.85,7.97,-0.03,31.55
20228,0.3315,-0.026,0.8635,-6.75,7.91,0.02,31.59
20238,0.328,-0.0275,0.868,-6.81,8.05,-0.03,31.59
20248,0.3302,-0.0292,0.8678,-6.89,7.98,0.09,31.56
20258,0.3312,-0.0256,0.8667,-6.85,7.94,-0.03,31.57
20268,0.3311,-0.025,0.8644,-6.92,8.06,-0.02,31.56
20278,0.3285,-0.0255,0.8643,-6.9,8.05,0.02,31.58
20288,0.3311,-0.0249,0.8621,-6.93,8.08,0.06,31.57
20299,0.3322,-0.0225,0.865,-6.85,7.97,0.02,31.57
20309,0.3323,-0.027,0.8643,-6.78,8.02,0.02,31.59
20319,0.3319,-0.0259,0.8617,-6.92,7.95,0.08,31.56
20329,0.3292,-0.0256,0.8613,-6.84,8.0,0.0,31.56
20339,0.332,-0.0238,0.8643,-6.87,7.97,-0.08,31.57
20349,0.3325,-0.0242,0.8643,-6.87,7.95,-0.02,31.57
20359,0.3279,-0.0239,0.8629,-6.81,7.92,0.02,31.57
20369,0.329,-0.0245,0.8669,-6.73,7.91,0.03,31.58
20379,0.3302,-0.0256,0.8613,-6.9,8.08,-0.03,31.58
20389,0.3276,-0.025,0.8658,-6.9,7.98,-0.03,31.56
20399,0.3296,-0.0258,0.8665,-6.85,8.03,-0.02,31.56
20409,0.3348,-0.0255,0.8612,-6.87,8.05,-0.06,31.58
20419,0.3311,-0.0242,0.8629,-6.92,8.02,0.0,31.58
20429,0.3314,-0.0244,0.8618,-6.89,7.97,-0.03,31.58
20439,0.3329,-0.0219,0.8647,-6.85,7.95,-0.06,31.58
20449,0.3329,-0.0236,0.8665,-6.89,7.97,-0.03,31.58
20459,0.3293,-0.028,0.863,-6.95,8.03,-0.05,31.58
20469,0.3315,-0.0262,0.8668,-6.89,8.03,-0.05,31.57
20479,0.3318,-0.0282,0.8654,-6.81,8.09,-0.09,31.59
20489,0.329,-0.0259,0.8694,-6.87,8.05,-0.03,31.56
20499,0.3313,-0.0273,0.8654,-6.84,7.97,-0.06,31.59
20509,0.33,-0.0276,0.8628,-6.87,7.98,-0.08,31.59
20519,0.333,-0.0251,0.8647,-6.82,7.97,0.05,31.57
20529,0.3301,-0.0262,0.8656,-6.79,7.92,-0.11,31.58
20539,0.3279,-0.0255,0.8657,-6.89,8.03,-0.09,31.58
20550,0.3335,-0.0264,0.8601,-6.9,8.0,-0.03,31.54
20560,0.3308,-0.0248,0.8628,-6.82,8.0,-0.05,31.59
20570,0.3291,-0.0233,0.8655,-6.73,8.02,-0.09,31.58
20580,0.3293,-0.0244,0.8668,-6.9,7.97,-0.02,31.57
20590,0.3308,-0.0251,0.8669,-6.76,7.98,-0.05,31.59
20600,0.3285,-0.0228,0.8663,-6.85,8.0,-0.09,31.57
20610,0.3276,-0.0265,0.8651,-6.92,7.98,0.03,31.58
20620,0.3311,-0.025,0.8635,-6.92,8.08,-0.02,31.59
20630,0.3285,-0.0234,0.8629,-6.73,7.98,-0.03,31.58
20640,0.3304,-0.0248,0.8676,-6.81,7.92,-0.08,31.59
20650,0.3307,-0.0247,0.8596,-6.85,8.08,-0.12,31.57
20660,0.3312,-0.0276,0.8635,-6.82,7.97,0.02,31.57
20670,0.3296,-0.0264,0.8656,-6.82,8.08,0.03,31.6
20680,0.3295,-0.025,0.8646,-6.82,8.09,0.02,31.56
20690,0.3289,-0.0255,0.8652,-6.82,8.08,-0.02,31.55
20700,0.3295,-0.0223,0.8629,-6.87,8.03,-0.08,31.59
20710,0.3293,-0.028,0.8594,-6.98,7.98,-0.03,31.57
20720,0.3311,-0.026,0.8628,-6.96,7.91,-0.03,31.59
20730,0.3306,-0.0261,0.8612,-6.85,8.03,-0.06,31.58
20740,0.3301,-0.0251,0.8625,-6.79,7.95,-0.06,31.58
20750,0.3331,-0.0265,0.8618,-6.9,8.02,0.02,31.57
20760,0.3314,-0.0249,0.8665,-6.79,7.98,0.0,31.56
20770,0.3317,-0.0238,0.8658,-6.84,7.97,-0.08,31.57
20780,0.3311,-0.0248,0.8665,-6.92,8.02,-0.03,31.57
20790,0.3328,-0.0244,0.8699,-6.84,8.03,-0.06,31.61
20800,0.3293,-0.0253,0.8652,-6.78,8.08,-0.11,31.56
20810,0.3318,-0.0299,0.8651,-6.93,8.02,-0.02,31.58
20820,0.332,-0.0259,0.8638,-6.81,8.02,-0.06,31.59
20830,0.3309,-0.0272,0.865,-6.76,8.0,-0.08,31.58
20840,0.3331,-0.0266,0.8617,-6.89,8.03,-0.05,31.6
20850,0.3304,-0.0236,0.8617,-6.84,7.94,-0.06,31.61
20860,0.3286,-0.0249,0.8634,-6.87,7.98,-0.08,31.58
20870,0.3333,-0.0277,0.8615,-6.89,7.98,-0.06,31.59
20880,0.3312,-0.0232,0.8672,-6.9,8.03,0.02,31.56
20890,0.3289,-0.026,0.8655,-6.81,7.97,0.05,31.58
20900,0.3279,-0.0249,0.8665,-6.84,8.0,-0.02,31.58
20910,0.3315,-0.0244,0.8672,-6.82,8.0,0.0,31.56
20920,0.3328,-0.0269,0.8657,-6.82,7.98,-0.02,31.56
20930,0.3324,-0.0234,0.8644,-6.92,8.0,-0.06,31.59
20940,0.3292,-0.0225,0.8617,-6.92,8.06,0.05,31.58
20950,0.3318,-0.0234,0.8638,-6.87,8.03,-0.02,31.58
20960,0.3297,-0.025,0.8624,-6.89,8.02,-0.08,31.59
20970,0.3304,-0.0272,0.8644,-6.84,8.06,0.02,31.59
20980,0.3313,-0.0255,0.8632,-6.92,8.05,-0.05,31.58
20990,0.3314,-0.0264,0.8672,-6.9,7.92,0.03,31.57
21000,0.3304,-0.025,0.8665,-6.93,8.02,-0.08,31.57
21010,0.3307,-0.0242,0.863,-6.87,8.05,0.03,31.58
21020,0.3318,-0.0238,0.8636,-6.92,7.86,-0.09,31.6
21030,0.3307,-0.0272,0.8646,-6.84,8.0,0.02,31.58
21040,0.3289,-0.0272,0.8688,-6.95,7.97,0.09,31.6
21050,0.3323,-0.0245,0.8705,-6.92,8.03,0.0,31.58
21060,0.33,-0.0266,0.8684,-6.9,8.05,-0.02,31.59
21070,0.3312,-0.0239,0.8671,-6.82,8.03,-0.06,31.57
21080,0.3308,-0.0228,0.8649,-6.85,7.97,-0.05,31.57
21090,0.3317,-0.0233,0.8658,-6.85,7.92,0.0,31.59
21100,0.329,-0.0269,0.8635,-6.76,7.97,0.0,31.58
21110,0.3292,-0.0236,0.864,-6.85,7.98,-0.12,31.58
21120,0.3297,-0.0266,0.8661,-6.96,7.95,-0.08,31.58
21130,0.3281,-0.0269,0.8678,-6.82,8.06,0.0,31.58
21140,0.3304,-0.0267,0.8668,-6.92,7.95,-0.02,31.59
21150,0.3301,-0.0253,0.8669,-6.84,8.0,-0.03,31.62
21160,0.3314,-0.0247,0.8618,-6.9,8.0,0.03,31.6
21170,0.3313,-0.0259,0.8656,-6.84,8.02,-0.05,31.59
21180,0.3276,-0.0267,0.8636,-6.87,8.0,-0.05,31.58
21190,0.3301,-0.027,0.8655,-6.92,8.03,-0.03,31.57
21200,0.328,-0.0251,0.8644,-6.87,7.97,-0.05,31.57
21210,0.3291,-0.0267,0.8625,-6.79,7.97,0.02,31.59
21220,0.3298,-0.0265,0.8601,-6.76,8.05,-0.09,31.58
21230,0.3302,-0.0239,0.8651,-6.85,8.06,-0.03,31.57
21240,0.3286,-0.0267,0.8652,-6.82,7.98,-0.08,31.57
21250,0.33,-0.0261,0.8661,-6.85,8.03,-0.06,31.58
21260,0.3323,-0.0254,0.8636,-6.87,7.95,-0.03,31.59
21270,0.3308,-0.0231,0.8641,-6.92,7.97,-0.02,31.62
21280,0.3282,-0.0242,0.8639,-6.79,8.05,-0.03,31.58
21292,0.332,-0.0251,0.8668,-6.93,7.94,0.0,31.55
21302,0.3306,-0.0258,0.8684,-6.89,8.08,-0.05,31.58
21312,0.3264,-0.0247,0.8639,-6.89,7.97,-0.05,31.57
21322,0.3295,-0.0253,0.8689,-6.9,7.98,-0.05,31.57
21332,0.3284,-0.0248,0.8643,-6.76,8.0,0.0,31.59
21342,0.3287,-0.0259,0.8625,-6.89,7.95,0.0,31.6
21352,0.3269,-0.0232,0.8616,-6.82,7.98,-0.02,31.59
21363,0.3304,-0.0249,0.8618,-6.89,8.0,0.05,31.58
21373,0.3325,-0.0255,0.8682,-6.9,8.09,-0.11,31.59
21383,0.3295,-0.0269,0.8623,-6.87,8.05,-0.09,31.59
21393,0.3303,-0.0262,0.8666,-6.85,8.05,-0.03,31.59
21404,0.3313,-0.0243,0.8641,-6.92,8.06,-0.08,31.58
21414,0.3315,-0.0258,0.8611,-6.89,8.02,0.03,31.6
21424,0.3323,-0.0267,0.865,-6.89,7.95,-0.11,31.59
21434,0.3262,-0.0258,0.8676,-6.81,7.95,-0.03,31.59
21444,0.3304,-0.025,0.8655,-6.81,7.97,-0.05,31.59
21454,0.3302,-0.0261,0.8662,-6.84,8.05,-0.11,31.57
21464,0.3317,-0.0255,0.8649,-6.89,7.95,-0.02,31.57
21474,0.3303,-0.0267,0.8649,-6.78,8.03,0.0,31.59
21484,0.3309,-0.0253,0.8677,-6.85,8.02,0.02,31.59
21494,0.329,-0.0249,0.8627,-6.85,7.98,-0.03,31.58
21504,0.332,-0.0259,0.8644,-6.87,8.12,-0.02,31.6
21514,0.3319,-0.0248,0.8646,-6.9,7.98,0.0,31.61
21527,0.3278,-0.0277,0.8667,-6.87,8.11,-0.06,31.59
21537,0.3298,-0.025,0.8651,-6.92,7.95,-0.09,31.58
21547,0.3313,-0.0289,0.8625,-6.93,8.0,-0.06,31.59
21558,0.3291,-0.0236,0.864,-6.82,8.02,-0.05,31.56
21568,0.3284,-0.027,0.8677,-6.9,8.02,-0.02,31.6
21578,0.3335,-0.0273,0.8651,-6.87,8.0,-0.03,31.6
21588,0.3297,-0.0251,0.8662,-6.85,8.08,0.02,31.6
21598,0.3292,-0.0258,0.8634,-6.89,7.98,-0.02,31.59
21608,0.33,-0.0239,0.8627,-6.9,7.94,-0.08,31.58
21618,0.3315,-0.0222,0.8639,-6.89,7.97,-0.03,31.58
21628,0.3307,-0.0233,0.8694,-6.92,7.95,-0.08,31.59
21638,0.3302,-0.0233,0.8628,-6.87,7.98,-0.03,31.59
21648,0.3311,-0.0232,0.8627,-6.78,8.0,-0.03,31.59
21658,0.3319,-0.0228,0.8643,-6.84,7.95,-0.06,31.57
21668,0.3302,-0.0244,0.8658,-6.89,8.02,-0.06,31.57
21678,0.3298,-0.0247,0.8657,-6.89,8.05,0.09,31.57
21688,0.3312,-0.027,0.8641,-6.87,8.03,-0.05,31.6
21698,0.3293,-0.0253,0.8628,-6.87,8.03,-0.02,31.59
21708,0.3323,-0.0275,0.8651,-6.78,8.02,-0.02,31.58
21718,0.3291,-0.0221,0.8669,-6.9,8.0,-0.03,31.58
21729,0.3295,-0.0253,0.8618,-6.73,8.03,-0.08,31.58
21739,0.3314,-0.0233,0.8624,-6.84,8.02,0.05,31.61
21749,0.3313,-0.0236,0.8639,-6.87,8.03,0.0,31.62
21759,0.3313,-0.0245,0.8672,-6.93,8.03,-0.02,31.59
21769,0.3326,-0.024,0.8649,-6.89,7.95,-0.05,31.59
21779,0.329,-0.0273,0.8622,-6.85,7.94,0.0,31.6
21789,0.3307,-0.0254,0.8684,-6.79,8.0,-0.02,31.62
21799,0.3287,-0.0284,0.8628,-6.84,8.0,0.0,31.59
21809,0.3314,-0.0269,0.8651,-6.85,8.02,0.03,31.6
21819,0.3322,-0.0238,0.8618,-6.81,7.97,-0.03,31.57
21829,0.3312,-0.0234,0.8657,-6.85,7.98,-0.08,31.59
21839,0.3274,-0.0258,0.8652,-6.76,7.95,-0.06,31.6
21849,0.328,-0.0245,0.8643,-6.81,7.92,-0.03,31.61
21859,0.3301,-0.0245,0.863,-6.76,7.97,-0.02,31.61
21869,0.3281,-0.0237,0.8618,-6.81,7.97,-0.09,31.59
21879,0.3326,-0.024,0.8689,-6.93,8.05,-0.05,31.61
21889,0.3306,-0.0265,0.8668,-6.82,7.97,-0.05,31.61
21899,0.3295,-0.026,0.863,-6.81,7.97,-0.11,31.58
21909,0.3324,-0.0239,0.8639,-6.81,8.03,0.03,31.6
21919,0.3347,-0.0258,0.8662,-6.92,8.0,-0.03,31.59
21929,0.3289,-0.024,0.863,-6.87,8.02,-0.05,31.57
21939,0.3281,-0.0272,0.8646,-6.85,8.03,-0.12,31.6
21949,0.3292,-0.0248,0.8644,-6.95,7.88,-0.09,31.61
21959,0.3315,-0.0267,0.8655,-6.79,7.95,-0.11,31.59
21969,0.3322,-0.0277,0.8669,-6.9,8.05,-0.05,31.62
21979,0.3322,-0.025,0.8658,-6.9,8.03,-0.05,31.59
21989,0.3307,-0.0277,0.8654,-6.79,8.08,-0.03,31.6
21999,0.3308,-0.0239,0.8655,-6.85,7.97,-0.09,31.62
22009,0.3301,-0.021,0.8622,-6.79,8.0,0.02,31.61
22019,0.3304,-0.0254,0.8621,-6.84,7.97,-0.11,31.59
22029,0.3284,-0.0227,0.8663,-6.85,7.95,-0.03,31.59
22039,0.3285,-0.0265,0.8613,-6.9,8.02,-0.05,31.62
22050,0.3298,-0.0273,0.8662,-6.85,7.89,0.03,31.58
22060,0.3313,-0.0258,0.8625,-6.81,7.91,0.06,31.58
22070,0.332,-0.0237,0.8638,-6.76,7.97,0.08,31.59
22080,0.3289,-0.0258,0.8656,-6.84,8.02,0.08,31.59
22090,0.3309,-0.0242,0.8669,-6.85,8.02,0.05,31.58
22100,0.3285,-0.026,0.8672,-6.89,7.97,-0.02,31.59
22110,0.3281,-0.0253,0.8688,-6.9,7.91,-0.02,31.63
22120,0.3297,-0.0243,0.8666,-6.85,8.02,-0.11,31.59
22130,0.3302,-0.0248,0.8641,-6.81,8.03,-0.09,31.61
22140,0.3295,-0.0253,0.865,-6.85,8.08,-0.06,31.59
22150,0.3285,-0.0255,0.8622,-6.87,7.95,0.0,31.59
22160,0.3293,-0.0265,0.8633,-6.85,8.0,-0.08,31.6
22170,0.3308,-0.0245,0.8684,-6.89,8.0,0.03,31.6
22180,0.3322,-0.0236,0.8629,-6.95,8.03,-0.05,31.6
22190,0.3344,-0.0265,0.8655,-6.92,8.06,0.03,31.6
22200,0.329,-0.026,0.8639,-6.81,7.98,-0.03,31.62
22210,0.3308,-0.0272,0.869,-6.84,8.02,-0.03,31.61
22220,0.3319,-0.0253,0.8611,-6.85,7.98,-0.09,31.59
22230,0.3317,-0.0264,0.8645,-6.89,7.94,-0.05,31.58
22240,0.3292,-0.0259,0.8671,-6.89,8.08,-0.05,31.59
22250,0.333,-0.0264,0.8663,-6.85,8.08,-0.02,31.58
22260,0.3284,-0.0254,0.8661,-6.89,8.0,-0.09,31.61
22270,0.3311,-0.0239,0.863,-6.9,7.98,0.02,31.59
22280,0.3347,-0.0265,0.8643,-6.84,8.06,-0.03,31.6
22290,0.33,-0.0262,0.8645,-6.85,7.95,-0.05,31.62
22300,0.3296,-0.0271,0.8679,-6.96,7.94,-0.02,31.59
22310,0.3301,-0.0266,0.8662,-6.87,8.0,-0.2,31.6
22320,0.33,-0.0239,0.8647,-6.95,8.0,-0.05,31.58
22330,0.3325,-0.0251,0.8661,-6.92,8.06,-0.02,31.59
22340,0.334,-0.025,0.8672,-6.82,7.94,-0.05,31.6
22351,0.3304,-0.0237,0.8682,-6.82,8.09,-0.11,31.58
22361,0.3309,-0.0254,0.8667,-6.93,8.0,0.02,31.61
22371,0.3312,-0.0249,0.863,-6.81,8.02,0.06,31.6
22381,0.3304,-0.024,0.8639,-6.89,7.98,-0.02,31.6
22391,0.3308,-0.0267,0.8661,-6.93,8.02,-0.12,31.59
22401,0.3308,-0.0264,0.8662,-6.85,8.06,0.0,31.6
22411,0.3329,-0.0253,0.8652,-6.81,7.94,-0.06,31.59
22422,0.3319,-0.0272,0.8669,-6.84,8.02,-0.05,31.6
22432,0.3313,-0.0243,0.8618,-6.93,7.97,-0.12,31.6
22442,0.3287,-0.0249,0.8668,-6.87,8.0,-0.06,31.6
22452,0.3301,-0.0266,0.8651,-6.9,8.06,-0.11,31.59
22462,0.3329,-0.0234,0.8647,-6.84,8.12,-0.09,31.61
22472,0.3331,-0.024,0.863,-6.82,8.0,-0.02,31.59
22482,0.3312,-0.0223,0.8658,-6.89,8.0,-0.05,31.61
22492,0.3302,-0.0249,0.8643,-6.89,7.92,-0.02,31.62
22502,0.3293,-0.0271,0.869,-6.9,8.03,-0.02,31.61
22512,0.3292,-0.0277,0.8661,-6.76,8.05,-0.03,31.61
22522,0.3292,-0.0251,0.8643,-6.89,7.95,-0.02,31.61
22532,0.3296,-0.0255,0.8638,-6.84,8.02,0.02,31.61
22542,0.3317,-0.0254,0.8628,-6.9,8.0,0.02,31.61
22552,0.3296,-0.0234,0.8655,-6.81,8.0,0.02,31.6
22562,0.3295,-0.0273,0.8662,-6.85,8.0,0.02,31.57
22572,0.3308,-0.0228,0.8654,-6.85,8.08,0.03,31.6
22582,0.3331,-0.0261,0.8693,-6.79,8.08,0.0,31.6
22592,0.332,-0.0269,0.8671,-6.87,7.98,-0.08,31.59
22602,0.33,-0.0264,0.8618,-6.78,8.05,-0.08,31.61
22612,0.333,-0.0233,0.8638,-6.87,8.06,0.0,31.59
22622,0.3326,-0.0239,0.8636,-6.96,7.88,-0.02,31.61
22632,0.3311,-0.024,0.8668,-6.81,8.03,0.05,31.61
22643,0.3306,-0.0242,0.8644,-6.81,8.02,0.02,31.61
22653,0.3297,-0.0228,0.8677,-6.96,8.0,0.0,31.61
22665,0.3298,-0.0281,0.8656,-6.87,8.06,0.02,31.62
22675,0.3311,-0.0271,0.8632,-6.82,8.0,0.02,31.58
22685,0.3303,-0.0262,0.8679,-6.87,8.06,0.02,31.61
22695,0.3293,-0.027,0.866,-6.84,8.09,0.02,31.63
22705,0.328,-0.0255,0.8627,-6.84,8.05,-0.03,31.63
22715,0.3302,-0.0243,0.864,-6.98,8.03,-0.08,31.61
22726,0.3312,-0.0226,0.8647,-6.95,8.03,0.0,31.59
22736,0.3292,-0.0258,0.8606,-6.9,8.0,-0.06,31.6
22746,0.3295,-0.0262,0.8658,-6.85,7.97,0.05,31.6
22756,0.3302,-0.0243,0.868,-6.98,7.88,-0.05,31.62
22766,0.3318,-0.0271,0.8629,-6.87,7.92,0.03,31.62
22776,0.3318,-0.0269,0.8643,-6.73,8.03,-0.05,31.58
22786,0.3306,-0.0231,0.8662,-6.87,7.97,0.02,31.62
22796,0.329,-0.0229,0.8687,-6.89,7.97,-0.02,31.61
22806,0.3287,-0.0236,0.8649,-6.82,8.05,-0.02,31.61
22816,0.3314,-0.0253,0.8596,-6.85,7.98,-0.02,31.59
22826,0.3314,-0.0264,0.8625,-6.87,7.97,-0.05,31.6
22836,0.33,-0.025,0.8666,-6.87,8.02,-0.05,31.63
22846,0.3289,-0.0242,0.8663,-6.9,8.02,0.06,31.63
22856,0.3296,-0.0259,0.8633,-6.79,8.03,0.09,31.62
22866,0.3312,-0.0248,0.8671,-6.76,7.95,-0.06,31.61
22876,0.3308,-0.0276,0.8634,-6.89,8.0,-0.06,31.6
22886,0.3309,-0.0266,0.8668,-6.9,7.94,-0.08,31.59
22896,0.3289,-0.024,0.8652,-6.84,7.98,-0.05,31.63
22906,0.3345,-0.0242,0.8652,-6.82,8.02,-0.02,31.62
22916,0.3314,-0.0236,0.8625,-6.84,7.94,-0.11,31.6
22926,0.3278,-0.0264,0.8654,-6.89,8.0,-0.05,31.61
22936,0.3286,-0.0269,0.8678,-6.81,8.0,0.06,31.61
22946,0.3333,-0.0261,0.8613,-6.9,8.03,-0.02,31.62
22956,0.3302,-0.024,0.8667,-6.87,7.97,-0.02,31.6
22966,0.3325,-0.0262,0.8656,-6.87,8.0,-0.05,31.63
22976,0.332,-0.0238,0.8654,-6.9,8.05,-0.03,31.59
22986,0.3307,-0.0258,0.863,-6.85,8.0,-0.06,31.62
22996,0.3315,-0.0245,0.8629,-6.78,7.89,-0.08,31.61
23006,0.3329,-0.0259,0.8635,-6.87,7.98,0.02,31.64
23016,0.333,-0.0299,0.8671,-6.84,7.94,-0.05,31.62
23026,0.3309,-0.0247,0.8618,-6.78,7.95,0.03,31.61
23036,0.3296,-0.0231,0.8644,-6.9,7.97,-0.03,31.62
23046,0.3297,-0.0256,0.8661,-6.87,8.03,-0.06,31.62
23056,0.33,-0.0245,0.8676,-6.84,8.0,0.03,31.6
23066,0.3302,-0.0258,0.8663,-6.87,7.98,-0.06,31.62
23076,0.3318,-0.0256,0.864,-6.79,8.02,-0.06,31.61
23086,0.3311,-0.0243,0.8661,-6.82,7.98,-0.05,31.62
23096,0.3311,-0.0267,0.8652,-6.84,7.97,0.03,31.61
23106,0.3318,-0.0251,0.8676,-6.89,8.08,-0.03,31.62
23116,0.3314,-0.0256,0.8676,-6.89,7.95,-0.08,31.64
23126,0.328,-0.0283,0.8655,-6.93,8.03,-0.06,31.62
23136,0.3324,-0.0259,0.8669,-6.92,7.86,0.0,31.62
23146,0.328,-0.0251,0.8615,-6.78,7.88,-0.02,31.63
23156,0.3344,-0.0226,0.8622,-6.85,7.97,0.05,31.62
23167,0.3334,-0.0253,0.8619,-6.84,7.94,-0.03,31.61
23177,0.3315,-0.025,0.8672,-6.79,8.03,0.02,31.62
23187,0.3293,-0.0264,0.8652,-6.93,8.06,-0.02,31.63
23197,0.3279,-0.0266,0.8643,-6.89,8.06,0.0,31.6
23207,0.33,-0.0264,0.8616,-6.85,7.98,-0.05,31.63
23217,0.332,-0.0282,0.8629,-6.79,8.02,0.02,31.6
23227,0.3296,-0.0245,0.8667,-6.76,8.0,-0.08,31.62
23237,0.3291,-0.0259,0.8649,-6.89,8.0,-0.05,31.63
23247,0.3318,-0.0247,0.8612,-6.81,8.02,-0.03,31.63
23257,0.3287,-0.0234,0.8683,-6.9,8.02,0.05,31.59
23267,0.3302,-0.0258,0.8666,-6.89,7.89,0.02,31.62
23277,0.3319,-0.028,0.8615,-6.81,8.03,-0.08,31.61
23287,0.3344,-0.0264,0.8627,-6.85,7.92,-0.06,31.6
23297,0.3345,-0.024,0.864,-6.92,7.98,-0.08,31.63
23307,0.3289,-0.0262,0.8658,-6.81,8.09,-0.03,31.61
23317,0.3319,-0.0266,0.8634,-6.84,8.0,0.0,31.61
23327,0.3308,-0.0236,0.8679,-6.84,8.02,-0.03,31.59
23337,0.3311,-0.0267,0.8667,-6.82,8.0,0.0,31.62
23347,0.3335,-0.0244,0.8687,-6.79,8.06,0.02,31.61
23357,0.3314,-0.0264,0.8667,-6.82,7.98,-0.03,31.63
23367,0.3303,-0.025,0.8661,-6.85,7.94,-0.12,31.61
23377,0.3313,-0.0267,0.8666,-6.76,7.98,-0.03,31.64
23387,0.3303,-0.0214,0.8658,-6.93,8.11,-0.11,31.64
23397,0.3318,-0.0221,0.868,-6.84,8.03,0.06,31.63
23407,0.3291,-0.0237,0.8656,-6.78,7.95,-0.05,31.6
23417,0.3297,-0.0248,0.8711,-6.76,8.02,-0.05,31.61
23427,0.329,-0.0228,0.864,-6.87,7.98,0.0,31.61
23437,0.3296,-0.0243,0.8685,-6.82,8.03,0.0,31.6
23447,0.3314,-0.027,0.8636,-6.89,7.97,-0.12,31.61
23457,0.332,-0.0237,0.8617,-6.92,8.03,-0.05,31.62
23467,0.3292,-0.0249,0.8618,-6.89,7.98,-0.11,31.62
23478,0.3298,-0.0244,0.8612,-6.89,7.92,-0.14,31.61
23488,0.333,-0.0259,0.865,-6.9,8.02,-0.02,31.64
23498,0.3326,-0.0247,0.8617,-6.78,7.98,-0.02,31.62
23508,0.3313,-0.0271,0.8652,-6.96,8.0,0.02,31.61
23518,0.3278,-0.0256,0.8646,-6.76,7.92,0.0,31.61
23528,0.3287,-0.0226,0.864,-6.82,8.06,-0.03,31.63
23538,0.3323,-0.025,0.8649,-6.87,8.08,0.05,31.63
23548,0.3313,-0.0254,0.8623,-6.84,8.05,0.05,31.62
23558,0.3308,-0.027,0.8607,-6.76,8.03,0.05,31.63
23568,0.3291,-0.025,0.8623,-6.84,8.06,-0.08,31.62
23578,0.3293,-0.0262,0.8661,-6.89,8.05,-0.09,31.62
23588,0.3286,-0.0271,0.8672,-6.87,7.98,-0.11,31.64
23599,0.3304,-0.027,0.8607,-6.75,7.97,-0.05,31.64
23609,0.3319,-0.0266,0.8623,-6.75,7.92,0.06,31.62
23619,0.3276,-0.0248,0.8662,-6.87,8.0,-0.02,31.64
23629,0.3301,-0.0239,0.8673,-6.93,8.05,0.02,31.64
23639,0.3302,-0.024,0.8678,-6.81,8.08,-0.06,31.62
23649,0.3278,-0.0261,0.8671,-6.92,8.05,-0.06,31.63
23659,0.3317,-0.025,0.866,-6.85,8.09,-0.02,31.63
23669,0.3329,-0.0286,0.8668,-6.78,8.02,-0.03,31.61
23679,0.333,-0.026,0.8656,-6.95,7.92,-0.06,31.62
23689,0.3331,-0.0272,0.8608,-6.87,7.94,0.05,31.63
23699,0.3328,-0.0244,0.8657,-6.81,7.97,-0.02,31.62
23709,0.3342,-0.0272,0.8644,-6.76,8.05,0.0,31.62
23719,0.3325,-0.0292,0.864,-6.87,8.0,0.03,31.62
23729,0.3312,-0.0262,0.8644,-6.87,7.97,0.03,31.62
23739,0.3314,-0.0258,0.8685,-6.82,8.02,-0.09,31.61
23749,0.3281,-0.0234,0.8667,-6.82,8.03,0.0,31.64
23759,0.3297,-0.0243,0.8624,-6.73,7.94,0.03,31.64
23769,0.3309,-0.0258,0.865,-6.82,7.98,-0.02,31.61
23779,0.3318,-0.024,0.8665,-6.78,8.03,-0.06,31.64
23789,0.3314,-0.0244,0.8665,-6.92,8.05,-0.05,31.62
23799,0.3307,-0.026,0.8689,-6.87,7.97,-0.05,31.65
23809,0.3331,-0.0278,0.8597,-6.85,7.97,-0.02,31.64
23819,0.332,-0.0275,0.8619,-6.82,7.97,-0.06,31.63
23829,0.3324,-0.0249,0.8654,-6.81,8.0,0.0,31.63
23839,0.3292,-0.0236,0.8672,-6.9,7.97,0.0,31.59
23849,0.3312,-0.0247,0.8655,-6.89,8.03,0.06,31.64
23859,0.3302,-0.0243,0.8646,-6.92,8.05,-0.05,31.65
23869,0.3309,-0.0233,0.861,-6.84,7.97,-0.09,31.63
23879,0.3319,-0.0249,0.861,-6.81,7.94,-0.06,31.63
23889,0.3304,-0.0212,0.8629,-6.95,8.03,0.02,31.65
23899,0.3301,-0.0265,0.8635,-6.81,7.97,-0.09,31.61
23909,0.3275,-0.0277,0.8641,-6.89,7.92,-0.02,31.62
23919,0.3308,-0.0262,0.8646,-6.98,8.06,-0.11,31.61
23929,0.3268,-0.0242,0.863,-6.89,8.05,-0.11,31.63
23939,0.3278,-0.0272,0.8644,-6.85,8.05,-0.02,31.63
23949,0.3301,-0.0232,0.868,-6.87,8.02,-0.06,31.63
23959,0.3311,-0.0251,0.8662,-6.82,7.89,-0.02,31.63
23969,0.3285,-0.0248,0.8672,-6.82,8.12,-0.02,31.63
23979,0.3282,-0.0219,0.8621,-6.82,8.03,0.02,31.62
23989,0.3314,-0.0258,0.8616,-6.84,8.0,0.08,31.66
23999,0.3324,-0.0247,0.8608,-6.82,7.98,0.03,31.64
24009,0.3317,-0.0253,0.8685,-6.84,7.98,0.0,31.64
24019,0.3301,-0.0232,0.8625,-6.89,7.95,0.0,31.63
24029,0.3296,-0.0253,0.8674,-6.82,7.92,-0.05,31.62
24039,0.3301,-0.021,0.863,-6.93,7.98,0.06,31.64
24049,0.329,-0.0232,0.8641,-6.84,7.98,-0.08,31.64
24059,0.3308,-0.0261,0.8623,-6.99,8.03,-0.02,31.64
24069,0.3323,-0.0256,0.8621,-6.82,8.12,0.03,31.64
24079,0.3301,-0.0254,0.866,-6.85,7.97,0.06,31.62
24090,0.3307,-0.0255,0.865,-6.93,7.94,0.0,31.62
24100,0.3268,-0.026,0.868,-6.76,7.89,-0.02,31.63
24110,0.3313,-0.0238,0.8627,-6.85,7.95,0.05,31.64
24120,0.3306,-0.0253,0.8651,-6.85,8.05,-0.03,31.64
24130,0.328,-0.0259,0.8611,-6.73,8.09,-0.15,31.64
24140,0.3296,-0.0244,0.8641,-6.76,8.14,-0.08,31.65
24150,0.334,-0.0239,0.8602,-6.85,8.0,-0.05,31.63
24160,0.3314,-0.0238,0.8627,-6.78,8.02,-0.02,31.65
24170,0.328,-0.0222,0.8682,-6.87,7.97,-0.05,31.63
24180,0.3291,-0.0258,0.8672,-6.79,8.06,0.02,31.63
24190,0.3311,-0.0243,0.8668,-6.9,7.98,0.0,31.62
24200,0.3315,-0.0245,0.8639,-6.81,7.98,0.02,31.65
24210,0.3307,-0.0237,0.8662,-6.85,8.02,-0.05,31.64
24220,0.3325,-0.0236,0.8676,-6.85,7.91,0.02,31.62
24230,0.3292,-0.0262,0.8646,-6.84,8.08,-0.05,31.64
24240,0.3322,-0.0256,0.8652,-6.92,8.02,-0.02,31.63
24250,0.3314,-0.0261,0.8617,-6.89,7.95,0.05,31.64
24260,0.3315,-0.0282,0.8633,-6.9,7.97,-0.09,31.62
24270,0.3307,-0.0271,0.8663,-6.93,8.06,-0.05,31.62
24280,0.3306,-0.0232,0.8652,-6.93,7.98,-0.02,31.63
24303,0.33,-0.0282,0.8668,-6.79,7.95,-0.12,31.65
24313,0.3311,-0.0259,0.8611,-6.85,7.92,0.05,31.64
24323,0.3326,-0.0244,0.8624,-6.79,8.03,-0.02,31.65
24333,0.3308,-0.0245,0.8688,-6.81,7.97,-0.12,31.64
24345,0.3295,-0.0233,0.8641,-6.87,8.09,0.0,31.66
24355,0.3302,-0.0253,0.8689,-6.9,7.98,-0.09,31.64
24365,0.3318,-0.0231,0.8687,-6.87,8.09,-0.02,31.62
24375,0.3306,-0.0247,0.8599,-6.9,7.97,0.02,31.64
24385,0.3304,-0.0253,0.8628,-6.84,7.97,0.0,31.64
24395,0.3295,-0.0251,0.8647,-6.78,8.05,-0.08,31.64
24405,0.3315,-0.0225,0.865,-6.84,7.95,0.03,31.64
24415,0.3279,-0.0222,0.8634,-6.95,8.08,0.0,31.63
24425,0.3301,-0.0261,0.8674,-6.82,7.97,-0.03,31.64
24435,0.3301,-0.0244,0.8713,-6.81,7.97,-0.11,31.64
24445,0.3307,-0.0299,0.8638,-6.85,7.97,-0.09,31.63
24455,0.3341,-0.026,0.8658,-6.96,8.06,-0.02,31.63
24465,0.3302,-0.0249,0.8669,-6.89,8.0,-0.05,31.64
24475,0.3301,-0.0269,0.8657,-6.84,7.97,-0.12,31.67
24485,0.3318,-0.0236,0.8646,-6.84,7.94,-0.09,31.68
24495,0.335,-0.0247,0.866,-6.89,8.03,-0.02,31.63
24505,0.3308,-0.0245,0.8666,-6.75,8.05,-0.03,31.66
24515,0.3333,-0.0255,0.8619,-6.82,8.05,-0.02,31.66
24525,0.3297,-0.0256,0.8671,-6.82,8.0,-0.02,31.65
24535,0.329,-0.0253,0.8622,-6.79,8.06,0.05,31.65
24545,0.3295,-0.0234,0.8656,-6.76,8.0,0.05,31.63
24555,0.3298,-0.0222,0.8634,-6.81,8.05,0.09,31.64
24565,0.329,-0.0242,0.8638,-6.95,8.02,-0.03,31.62
24575,0.3252,-0.024,0.8672,-6.81,7.97,-0.06,31.65
24585,0.3276,-0.0254,0.8657,-6.85,8.02,-0.02,31.64
24595,0.3291,-0.0288,0.8644,-6.93,7.98,-0.08,31.65
24605,0.3304,-0.0272,0.8628,-6.98,8.03,0.03,31.62
24615,0.3315,-0.0271,0.8654,-6.9,8.06,-0.03,31.62
24625,0.3319,-0.0247,0.8657,-6.92,7.94,-0.03,31.65
24635,0.3285,-0.0239,0.866,-6.89,8.02,-0.06,31.65
24645,0.3304,-0.0243,0.8651,-6.87,8.03,-0.09,31.64
24655,0.3329,-0.0265,0.8605,-6.84,7.97,-0.02,31.65
24666,0.3307,-0.0249,0.8649,-6.87,8.02,0.02,31.64
24676,0.3344,-0.0239,0.8662,-6.9,8.02,-0.11,31.65
24686,0.332,-0.0244,0.864,-6.92,7.95,0.0,31.62
24696,0.3317,-0.0269,0.8571,-6.9,7.97,-0.03,31.64
24706,0.333,-0.0284,0.8662,-6.95,7.91,0.03,31.65
24716,0.3295,-0.0245,0.8627,-6.89,8.11,0.0,31.66
24726,0.3311,-0.0255,0.8629,-6.84,8.03,0.0,31.64
24736,0.3304,-0.0253,0.8669,-6.87,7.95,0.03,31.64
24746,0.3284,-0.025,0.8649,-6.81,8.06,0.03,31.66
24756,0.3318,-0.0243,0.8652,-6.85,8.02,0.02,31.64
24766,0.3284,-0.0229,0.8619,-6.84,7.95,-0.06,31.64
24776,0.3313,-0.0254,0.8633,-6.78,7.98,0.0,31.65
24786,0.329,-0.0247,0.8629,-6.92,8.0,-0.05,31.63
24796,0.3291,-0.0261,0.8593,-6.85,7.98,-0.03,31.64
24806,0.3298,-0.0259,0.8641,-6.79,7.95,0.06,31.62
24816,0.329,-0.0258,0.8647,-6.9,8.05,-0.15,31.63
24826,0.3312,-0.0256,0.8671,-6.84,8.0,-0.09,31.63
24836,0.3302,-0.0256,0.8671,-6.89,7.95,-0.05,31.64
24846,0.3295,-0.0267,0.8708,-6.87,8.09,-0.03,31.65
24856,0.3325,-0.0266,0.8706,-6.9,7.97,-0.11,31.64
24866,0.3319,-0.0256,0.864,-6.79,8.02,-0.05,31.67
24876,0.3302,-0.0271,0.864,-6.82,8.08,-0.03,31.65
24886,0.3331,-0.0239,0.8613,-6.85,8.05,0.03,31.65
24896,0.3293,-0.0248,0.8599,-6.87,7.97,0.0,31.63
24906,0.3302,-0.0237,0.8623,-6.98,8.05,-0.09,31.64
24916,0.3289,-0.0277,0.8676,-6.84,7.98,-0.09,31.62
24926,0.3312,-0.027,0.866,-6.87,7.97,0.02,31.63
24936,0.3307,-0.0232,0.8672,-6.93,7.97,0.03,31.65
24947,0.3307,-0.0227,0.8654,-6.87,7.91,-0.06,31.66
24957,0.3292,-0.022,0.8639,-6.87,7.95,0.0,31.64
24967,0.3333,-0.025,0.8635,-6.87,8.05,-0.03,31.64
24977,0.3335,-0.0243,0.8652,-6.89,8.0,0.02,31.64
24987,0.3302,-0.026,0.8668,-6.78,7.98,-0.03,31.66
24997,0.3295,-0.0231,0.8658,-6.87,8.02,-0.03,31.66
25007,0.3317,-0.0262,0.8663,-6.79,8.03,-0.03,31.65
25017,0.3314,-0.0251,0.8641,-6.93,7.98,-0.06,31.65
25027,0.3296,-0.0223,0.8629,-6.96,7.98,0.0,31.65
25038,0.3319,-0.0254,0.8646,-6.99,7.98,-0.08,31.67
25048,0.3265,-0.0262,0.8657,-6.82,7.92,-0.02,31.63
25058,0.3281,-0.025,0.868,-6.87,8.0,-0.03,31.65
25068,0.3307,-0.0214,0.8655,-6.89,8.03,0.02,31.66
25078,0.3313,-0.0234,0.8685,-6.9,7.97,0.03,31.64
25088,0.3302,-0.0255,0.8662,-6.85,7.92,-0.03,31.65
25099,0.3302,-0.0261,0.8647,-6.85,7.98,0.02,31.64
25110,0.3303,-0.0251,0.8647,-6.85,7.89,0.0,31.64
25120,0.3317,-0.024,0.8683,-6.9,8.02,-0.03,31.65
25130,0.3306,-0.0265,0.8672,-6.89,7.94,0.02,31.63
25140,0.3315,-0.024,0.865,-6.82,7.95,-0.05,31.64
25150,0.332,-0.0261,0.8646,-6.79,8.06,-0.02,31.65
25160,0.3311,-0.0227,0.8651,-6.9,7.98,0.03,31.65
25170,0.3285,-0.0262,0.8632,-6.82,7.95,-0.08,31.65
25180,0.3284,-0.0228,0.8621,-6.84,7.95,0.03,31.65
25190,0.3291,-0.0249,0.8663,-6.75,7.94,0.03,31.64
25200,0.3292,-0.0253,0.8646,-6.79,7.97,0.03,31.63
25210,0.3287,-0.025,0.8636,-6.92,8.03,0.02,31.65
25220,0.3301,-0.0228,0.8613,-6.81,8.0,0.0,31.65
25230,0.3291,-0.0248,0.8613,-6.81,7.95,0.03,31.64
25240,0.3307,-0.0247,0.8651,-6.84,7.92,-0.05,31.66
25250,0.3296,-0.0261,0.8658,-6.78,8.0,-0.03,31.66
25260,0.3304,-0.0245,0.8656,-6.78,7.98,0.05,31.67
25270,0.329,-0.0283,0.8667,-6.92,8.0,0.0,31.64
25280,0.3325,-0.0243,0.8646,-6.85,7.92,-0.03,31.64
25290,0.33,-0.0255,0.871,-6.87,7.97,-0.09,31.63
25300,0.3296,-0.0259,0.8656,-6.75,8.02,-0.05,31.63
25310,0.3301,-0.0262,0.8625,-6.76,8.09,-0.03,31.62
25320,0.3292,-0.0272,0.8608,-6.87,7.91,-0.08,31.64
25330,0.3301,-0.027,0.8651,-6.78,7.97,-0.09,31.66
25340,0.3325,-0.0239,0.8629,-6.87,8.03,-0.03,31.65
25350,0.3313,-0.0217,0.8635,-6.89,7.98,0.0,31.65
25360,0.3287,-0.0242,0.8594,-6.84,7.95,0.02,31.63
25370,0.328,-0.0266,0.8652,-6.93,8.08,-0.06,31.66
25380,0.3335,-0.0232,0.8651,-6.9,8.0,-0.05,31.63
25390,0.3317,-0.0256,0.8658,-6.9,7.95,-0.02,31.65
25400,0.3325,-0.025,0.8639,-6.79,8.0,-0.03,31.67
25410,0.3317,-0.0242,0.8645,-6.76,7.98,-0.05,31.66
25420,0.3287,-0.0233,0.8607,-6.89,8.11,-0.06,31.65
25430,0.3291,-0.0228,0.8639,-6.82,8.03,-0.05,31.65
25440,0.3317,-0.0245,0.8671,-6.82,8.02,-0.03,31.63
25450,0.3303,-0.0245,0.8645,-6.92,8.08,-0.08,31.64
25460,0.3293,-0.0272,0.8646,-6.82,8.02,0.03,31.66
25470,0.3303,-0.026,0.8612,-6.85,7.95,-0.06,31.65
25480,0.3281,-0.0266,0.8635,-6.81,7.92,0.03,31.66
25490,0.3312,-0.0225,0.8667,-6.85,7.92,-0.06,31.65
25500,0.3315,-0.0234,0.8668,-6.89,7.92,-0.06,31.66
25510,0.3317,-0.0271,0.8662,-6.95,7.94,-0.06,31.62
25520,0.3315,-0.0251,0.8635,-6.9,7.97,-0.12,31.65
25530,0.3289,-0.026,0.8689,-6.81,7.92,-0.03,31.67
25540,0.3311,-0.0237,0.8615,-6.87,7.94,0.05,31.64
25550,0.3335,-0.0261,0.8647,-6.95,7.82,-0.08,31.64
25560,0.3304,-0.0248,0.8633,-6.84,7.98,0.06,31.65
25570,0.329,-0.0269,0.8646,-6.81,8.0,-0.03,31.66
25580,0.3306,-0.0238,0.865,-6.9,8.03,-0.03,31.65
25590,0.3296,-0.0238,0.8645,-6.84,8.05,-0.08,31.66
25600,0.3298,-0.0233,0.8656,-6.7,8.05,0.0,31.66
25610,0.3311,-0.0258,0.863,-6.89,8.0,-0.06,31.65
25620,0.3319,-0.0237,0.864,-6.84,7.94,-0.05,31.66
25630,0.3314,-0.0258,0.8673,-6.89,8.03,-0.09,31.66
25640,0.3311,-0.027,0.8639,-6.96,7.95,-0.09,31.66
25650,0.3308,-0.026,0.8662,-6.85,7.97,-0.11,31.66
25660,0.3311,-0.0266,0.8666,-6.79,8.05,-0.05,31.67
25670,0.3323,-0.0248,0.8655,-6.82,8.02,0.06,31.63
25680,0.3297,-0.0249,0.864,-6.9,8.06,-0.03,31.64
25690,0.3334,-0.0226,0.864,-6.9,7.95,-0.11,31.65
25700,0.3326,-0.0226,0.8622,-6.85,7.92,-0.11,31.63
25710,0.3301,-0.0261,0.8666,-6.82,8.0,-0.03,31.65
25720,0.3287,-0.0243,0.8672,-6.85,8.05,-0.11,31.66
25730,0.3306,-0.0247,0.865,-6.98,7.92,-0.09,31.67
25740,0.3302,-0.0245,0.8582,-6.87,7.97,-0.02,31.63
25750,0.3285,-0.0272,0.8646,-6.81,8.05,-0.08,31.64
25760,0.3287,-0.0244,0.864,-6.79,8.03,-0.09,31.64
25770,0.3314,-0.0255,0.8669,-6.93,7.95,0.0,31.63
25780,0.3324,-0.0232,0.8657,-6.84,7.98,-0.11,31.65
25790,0.333,-0.0239,0.864,-6.82,8.02,-0.06,31.65
25800,0.3287,-0.0233,0.8646,-6.85,8.06,-0.09,31.65
25810,0.3307,-0.0249,0.8639,-6.87,7.95,-0.09,31.68
25820,0.3278,-0.0286,0.8655,-6.95,8.02,-0.14,31.65
25830,0.333,-0.0262,0.863,-6.79,8.08,0.0,31.63
25840,0.3312,-0.0238,0.8655,-6.76,7.98,-0.06,31.64
25850,0.3292,-0.0249,0.8673,-6.81,7.98,0.0,31.64
25860,0.3307,-0.0275,0.8671,-6.93,7.91,0.02,31.64
25870,0.3317,-0.027,0.868,-6.84,8.0,-0.05,31.64
25880,0.3306,-0.0255,0.8639,-6.93,7.97,-0.05,31.64
25890,0.3297,-0.0245,0.8654,-6.92,7.95,-0.02,31.65
25901,0.3318,-0.0229,0.8632,-6.82,8.0,-0.05,31.64
25911,0.333,-0.0236,0.8636,-6.84,8.0,-0.02,31.64
25921,0.3328,-0.0248,0.8624,-6.93,8.05,0.0,31.65
25931,0.3348,-0.0229,0.8645,-6.89,7.98,0.0,31.65
25941,0.3285,-0.024,0.8732,-6.73,8.0,-0.02,31.66
25951,0.3315,-0.028,0.8649,-6.84,8.06,-0.05,31.63
25961,0.3284,-0.0261,0.866,-6.87,7.98,-0.05,31.65
25971,0.3267,-0.025,0.8713,-6.9,8.0,-0.05,31.65
25981,0.3314,-0.0236,0.8649,-6.89,8.08,0.05,31.64
25992,0.3293,-0.0271,0.8615,-6.85,7.98,0.03,31.67
26002,0.3281,-0.0265,0.8683,-6.93,7.98,-0.06,31.65
26012,0.3307,-0.0238,0.8634,-6.81,7.92,-0.03,31.67
26022,0.3304,-0.0244,0.8655,-6.85,8.06,0.0,31.68
26032,0.33,-0.0245,0.8668,-6.85,8.03,0.0,31.66
26044,0.3314,-0.0242,0.8629,-6.9,8.02,-0.06,31.65
26054,0.3318,-0.0262,0.8643,-6.84,7.98,-0.03,31.65
26064,0.3303,-0.027,0.8669,-6.89,8.09,-0.09,31.68
26074,0.3298,-0.022,0.8667,-6.81,7.97,-0.03,31.67
26084,0.3308,-0.0277,0.8656,-6.89,8.02,0.09,31.64
26094,0.3314,-0.0242,0.8612,-6.9,8.06,0.03,31.66
26104,0.3314,-0.0266,0.8644,-6.92,8.02,-0.02,31.67
26114,0.3334,-0.0259,0.8673,-6.89,8.02,-0.02,31.64
26124,0.3296,-0.025,0.8634,-6.9,8.06,-0.02,31.65
26134,0.3293,-0.0237,0.8646,-6.75,8.03,-0.03,31.66
26144,0.3304,-0.024,0.8622,-6.79,8.08,-0.02,31.67
26154,0.3284,-0.0281,0.8656,-6.87,8.03,-0.02,31.66
26164,0.3317,-0.0266,0.8633,-6.87,7.95,-0.06,31.65
26174,0.3284,-0.0244,0.8669,-6.81,7.92,0.03,31.66
26184,0.327,-0.0271,0.8638,-6.84,7.95,-0.03,31.65
26194,0.3278,-0.0242,0.8643,-6.87,7.94,-0.03,31.64
26204,0.3274,-0.027,0.8616,-6.9,8.02,0.03,31.67
26214,0.3318,-0.0234,0.8634,-6.89,8.05,-0.06,31.67
26224,0.3317,-0.0266,0.8665,-6.79,7.98,-0.11,31.63
26234,0.3311,-0.0271,0.8641,-6.84,7.92,-0.05,31.63
26244,0.3326,-0.0265,0.8654,-6.78,8.0,0.03,31.67
26254,0.3296,-0.0248,0.8667,-6.93,8.09,0.0,31.67
26264,0.3311,-0.0271,0.8643,-6.85,8.0,-0.03,31.67
26274,0.3308,-0.0222,0.8649,-6.98,8.0,0.0,31.66
26284,0.3319,-0.0233,0.8654,-6.95,7.97,-0.12,31.64
26294,0.3311,-0.0272,0.8608,-6.79,8.0,-0.09,31.64
26304,0.3309,-0.0249,0.8618,-6.9,8.08,0.02,31.66
26314,0.3282,-0.0239,0.8678,-6.78,7.95,-0.06,31.64
26324,0.332,-0.024,0.8666,-6.81,8.03,-0.06,31.66
26334,0.3293,-0.0244,0.8647,-6.92,7.98,-0.12,31.68
26344,0.3286,-0.0278,0.8655,-6.9,8.03,-0.05,31.67
26354,0.3302,-0.0269,0.8662,-6.85,7.98,0.0,31.65
26364,0.3346,-0.025,0.8649,-6.78,8.0,-0.11,31.63
26374,0.3286,-0.025,0.866,-6.81,7.92,-0.09,31.64
26384,0.3301,-0.0237,0.8625,-6.87,8.0,-0.05,31.66
26394,0.3326,-0.0259,0.8629,-6.82,7.97,-0.09,31.65
26404,0.329,-0.0222,0.8666,-6.78,7.97,0.08,31.65
26414,0.3311,-0.0231,0.8683,-6.84,7.98,-0.03,31.66
26424,0.3279,-0.0251,0.8674,-6.84,8.03,-0.09,31.66
26434,0.3315,-0.0243,0.8676,-6.93,7.95,0.0,31.65
26444,0.3311,-0.0291,0.8655,-6.95,7.95,-0.11,31.65
26454,0.3315,-0.0247,0.8654,-6.81,8.0,-0.05,31.65
26464,0.3286,-0.0229,0.8662,-6.84,7.98,-0.03,31.67
26474,0.3289,-0.0232,0.868,-6.87,7.98,-0.02,31.68
26484,0.3315,-0.0248,0.8672,-6.89,8.0,0.03,31.65
26494,0.3309,-0.0251,0.8682,-6.79,7.97,-0.09,31.66
26504,0.3284,-0.0269,0.8665,-6.84,8.03,-0.08,31.65
26514,0.3308,-0.0248,0.8687,-6.9,8.03,-0.03,31.65
26524,0.3284,-0.027,0.863,-6.82,7.97,0.06,31.68
26534,0.3279,-0.0229,0.8639,-6.84,8.0,0.0,31.66
26544,0.33,-0.0233,0.8662,-6.99,8.0,-0.08,31.64
26554,0.3289,-0.0255,0.8652,-6.85,8.09,-0.03,31.68
26564,0.3328,-0.0255,0.8635,-6.85,8.0,-0.02,31.69
26574,0.3323,-0.0249,0.863,-6.79,7.91,0.0,31.65
26584,0.3279,-0.0293,0.868,-6.79,7.98,0.03,31.65
26594,0.3291,-0.0251,0.864,-6.78,8.0,-0.06,31.67
26604,0.3301,-0.0255,0.8641,-6.81,8.0,-0.12,31.62
26614,0.3297,-0.0239,0.8621,-6.81,8.05,-0.05,31.65
26624,0.3323,-0.0271,0.8663,-6.84,8.06,-0.05,31.67
26634,0.3301,-0.0267,0.8669,-6.84,8.03,-0.06,31.64
26644,0.3312,-0.0278,0.863,-6.9,8.0,-0.06,31.68
26654,0.3253,-0.0251,0.8678,-6.9,8.09,-0.06,31.66
26664,0.3333,-0.0255,0.8636,-6.79,7.97,-0.06,31.65
26674,0.3315,-0.0251,0.8593,-6.96,7.95,-0.08,31.66
26684,0.3329,-0.024,0.8665,-6.89,8.05,0.02,31.66
26694,0.3293,-0.0266,0.8678,-6.87,8.06,0.02,31.65
26704,0.3313,-0.0289,0.8661,-6.82,8.02,-0.08,31.63
26714,0.3325,-0.0284,0.8621,-6.82,8.02,-0.09,31.64
26724,0.3314,-0.0259,0.8627,-6.96,8.03,-0.06,31.68
26734,0.3322,-0.0236,0.8652,-6.89,7.91,-0.09,31.66
26744,0.3291,-0.0251,0.8643,-6.89,8.08,-0.03,31.66
26754,0.33,-0.0232,0.8654,-6.82,8.02,0.0,31.66
26764,0.3312,-0.0273,0.865,-6.89,7.97,0.02,31.64
26774,0.3296,-0.0277,0.8652,-6.9,7.97,-0.05,31.65
26784,0.3303,-0.0261,0.8674,-6.82,7.94,-0.03,31.66
26794,0.3268,-0.022,0.8678,-6.89,8.0,-0.05,31.66
26804,0.3329,-0.0258,0.8699,-6.85,8.0,-0.08,31.69
26814,0.3298,-0.0259,0.865,-6.78,8.02,-0.06,31.65
26826,0.3295,-0.0273,0.8683,-6.78,7.94,-0.02,31.67
26836,0.3307,-0.0264,0.8666,-6.93,7.94,-0.02,31.67
26846,0.33,-0.0275,0.865,-6.96,7.95,-0.06,31.67
26856,0.3322,-0.0243,0.866,-6.93,7.89,-0.03,31.68
26866,0.3307,-0.0242,0.8644,-6.87,8.0,0.0,31.66
26876,0.3333,-0.0238,0.8649,-6.82,7.97,0.03,31.66
26886,0.3322,-0.0251,0.8643,-6.82,8.03,0.0,31.65
26896,0.3291,-0.0228,0.8624,-6.87,8.03,0.09,31.68
26906,0.3311,-0.0208,0.864,-7.01,7.95,0.02,31.65
26916,0.3308,-0.0238,0.8651,-6.85,7.95,-0.08,31.68
26926,0.3325,-0.0239,0.8639,-6.84,8.0,0.0,31.67
26936,0.3319,-0.0233,0.8673,-6.84,7.97,-0.08,31.67
26946,0.3306,-0.0249,0.8652,-6.78,7.97,-0.06,31.67
26956,0.3318,-0.0242,0.8621,-6.85,7.95,-0.05,31.66
26966,0.3319,-0.028,0.8644,-6.87,7.92,-0.02,31.67
26977,0.3302,-0.0248,0.8601,-6.93,8.03,-0.03,31.69
26988,0.3306,-0.0253,0.8673,-6.82,7.97,-0.03,31.67
26998,0.3291,-0.0236,0.8677,-6.87,7.92,-0.05,31.64
27008,0.3286,-0.0247,0.8655,-6.85,8.06,-0.08,31.64
27018,0.3307,-0.0254,0.8679,-7.04,8.02,-0.05,31.66
27028,0.3312,-0.0276,0.8632,-6.87,7.98,-0.02,31.67
27038,0.3317,-0.0238,0.8604,-6.95,8.0,-0.09,31.68
27049,0.3322,-0.0231,0.8606,-6.84,7.91,0.02,31.66
27059,0.3303,-0.0262,0.8639,-6.89,7.98,0.11,31.64
27069,0.3295,-0.0267,0.8635,-6.85,8.0,-0.11,31.66
27079,0.3311,-0.026,0.8654,-6.9,7.97,-0.08,31.67
27089,0.3319,-0.0222,0.8658,-6.84,8.0,-0.05,31.64
27099,0.3323,-0.0264,0.8658,-6.92,8.0,0.02,31.66
27109,0.3315,-0.0286,0.8634,-6.85,8.03,0.02,31.66
27119,0.3285,-0.0292,0.866,-6.9,7.92,-0.08,31.67
27129,0.3315,-0.0245,0.8658,-6.93,8.0,-0.12,31.65
27139,0.3297,-0.0275,0.865,-6.79,8.06,-0.02,31.68
27149,0.3314,-0.0258,0.8668,-6.85,8.11,0.06,31.67
27159,0.3275,-0.024,0.8641,-6.93,8.08,-0.03,31.68
27169,0.3296,-0.0222,0.8628,-6.78,8.06,-0.03,31.68
27179,0.3287,-0.0215,0.8639,-6.85,7.92,0.0,31.69
27189,0.3298,-0.0216,0.8635,-6.82,7.98,-0.05,31.67
27199,0.3304,-0.0244,0.865,-6.87,8.0,-0.06,31.67
27209,0.3298,-0.0271,0.8647,-6.93,8.0,-0.05,31.66
27219,0.3317,-0.0273,0.8632,-6.82,7.95,-0.05,31.66
27229,0.3314,-0.0275,0.8661,-6.89,7.98,-0.02,31.69
27239,0.3323,-0.025,0.8652,-6.82,7.98,-0.05,31.67
27249,0.3289,-0.0223,0.8619,-6.84,8.02,-0.08,31.68
27259,0.3313,-0.024,0.8658,-6.84,8.06,-0.08,31.67
27269,0.3301,-0.0233,0.8668,-6.78,7.98,-0.05,31.67
27279,0.3292,-0.0244,0.8665,-6.9,7.95,-0.17,31.67
27292,0.3282,-0.0283,0.8651,-6.89,7.91,-0.02,31.68
27302,0.3311,-0.0229,0.8658,-6.9,8.03,-0.02,31.68
27312,0.3323,-0.0264,0.8678,-6.85,8.02,0.06,31.67
27324,0.3319,-0.0251,0.8629,-6.82,8.0,-0.03,31.66
27334,0.3287,-0.028,0.8657,-6.85,8.05,-0.03,31.67
27344,0.3315,-0.0238,0.8661,-6.84,8.08,0.02,31.67
27354,0.3322,-0.028,0.8644,-6.87,7.98,-0.02,31.65
27364,0.3307,-0.0247,0.8661,-6.95,7.88,-0.05,31.68
27374,0.3291,-0.0248,0.8677,-6.89,8.05,-0.03,31.68
27384,0.329,-0.0229,0.8663,-6.87,8.0,-0.02,31.67
27394,0.3309,-0.0261,0.8644,-6.85,8.03,0.0,31.67
27404,0.3281,-0.0261,0.865,-6.87,8.0,0.03,31.67
27414,0.3313,-0.0261,0.8624,-6.98,7.92,0.03,31.66
27424,0.3297,-0.0229,0.8633,-6.85,7.98,0.03,31.69
27435,0.33,-0.0244,0.8673,-6.9,7.98,-0.08,31.7
27445,0.3326,-0.0239,0.8635,-6.87,8.03,-0.06,31.67
27456,0.3314,-0.0239,0.864,-6.84,7.95,-0.08,31.68
27466,0.3291,-0.0266,0.8656,-6.73,7.94,-0.02,31.64
27476,0.3302,-0.025,0.8651,-6.84,8.05,-0.11,31.67
27486,0.3314,-0.0249,0.8635,-6.82,7.95,-0.05,31.66
27496,0.3319,-0.0264,0.8651,-6.78,8.06,-0.05,31.66
27506,0.33,-0.0238,0.8625,-6.9,7.94,0.02,31.66
27516,0.3325,-0.024,0.8623,-6.82,8.0,-0.02,31.68
27526,0.3322,-0.0239,0.866,-6.82,7.92,-0.06,31.68
27536,0.3337,-0.0229,0.8665,-6.84,8.02,-0.08,31.67
27546,0.3282,-0.0251,0.865,-6.85,7.95,-0.11,31.69
