t_ms,accel_x_g,accel_y_g,accel_z_g,gyro_x_dps,gyro_y_dps,gyro_z_dps,imu_temp_c
3277,0.2101,-0.0015,0.8901,-6.11,7.68,-0.06,22.85
3287,0.2094,-0.0012,0.8922,-6.18,7.73,0.06,22.87
3297,0.212,0.0006,0.8938,-6.17,7.65,0.05,22.86
3307,0.2075,-0.0024,0.8906,-6.18,7.71,-0.02,22.84
3317,0.2118,-0.0024,0.8914,-6.2,7.71,0.0,22.88
3327,0.2141,-0.0026,0.8923,-6.14,7.86,-0.06,22.86
3337,0.2113,-0.0035,0.8959,-6.09,7.74,-0.05,22.87
3347,0.2086,-0.0015,0.8904,-6.14,7.73,-0.05,22.87
3357,0.2123,0.0,0.891,-6.14,7.73,-0.12,22.85
3367,0.2119,0.0018,0.8937,-6.14,7.74,-0.09,22.86
3377,0.2115,-0.0023,0.8944,-6.12,7.79,-0.09,22.87
3389,0.2103,-0.0007,0.894,-6.24,7.77,-0.09,22.87
3399,0.2095,-0.0015,0.8943,-6.15,7.69,-0.11,22.86
3409,0.2096,-0.0018,0.8927,-6.12,7.73,0.06,22.86
3419,0.2125,-0.0012,0.8943,-6.18,7.76,0.02,22.88
3429,0.2124,0.0007,0.8922,-6.14,7.73,-0.05,22.87
3439,0.2108,0.0016,0.8911,-6.17,7.73,-0.06,22.87
3449,0.2094,-0.0002,0.8882,-6.09,7.76,0.02,22.89
3459,0.2085,0.0009,0.8912,-6.11,7.68,0.02,22.88
3469,0.2117,-0.0022,0.8895,-6.21,7.83,0.06,22.89
3479,0.2117,0.0021,0.8921,-6.2,7.82,-0.02,22.9
3489,0.2108,0.0023,0.8904,-6.14,7.76,-0.05,22.9
3499,0.2079,0.005,0.8907,-6.24,7.76,0.0,22.88
3509,0.2086,0.0009,0.8862,-6.11,7.77,0.02,22.9
3519,0.2111,0.0015,0.8921,-6.15,7.76,-0.05,22.91
3529,0.2102,0.0006,0.8912,-6.11,7.85,-0.03,22.89
3539,0.2108,-0.0026,0.8923,-6.14,7.69,-0.03,22.87
3549,0.2115,-0.0015,0.8915,-6.14,7.73,-0.14,22.86
3559,0.2096,-0.0005,0.8883,-6.12,7.77,0.0,22.88
3569,0.21,-0.0059,0.8925,-6.11,7.83,-0.03,22.88
3579,0.2092,-0.0038,0.8921,-6.02,7.83,0.0,22.88
3589,0.2136,-0.0037,0.8892,-6.06,7.74,-0.02,22.91
3599,0.2123,-0.0022,0.8889,-6.05,7.82,-0.02,22.9
3609,0.2135,-0.0022,0.891,-6.06,7.8,-0.06,22.88
3619,0.2124,-0.001,0.8956,-6.21,7.76,-0.03,22.9
3629,0.2084,-0.0022,0.8956,-6.11,7.69,-0.03,22.89
3639,0.2084,-0.0028,0.891,-6.18,7.65,0.03,22.88
3649,0.2098,-0.0048,0.8907,-6.11,7.66,-0.05,22.9
3659,0.2122,0.0002,0.8921,-6.21,7.77,-0.06,22.91
3669,0.2123,-0.0011,0.8905,-6.12,7.85,-0.09,22.88
3679,0.2097,-0.0001,0.8888,-6.15,7.82,-0.08,22.87
3689,0.209,0.0012,0.8892,-6.11,7.76,0.0,22.9
3699,0.2119,0.0005,0.8876,-6.21,7.71,0.02,22.91
3709,0.2091,-0.0002,0.89,-6.11,7.69,-0.08,22.9
3719,0.2078,-0.0005,0.8888,-6.06,7.71,-0.08,22.91
3729,0.2079,0.0022,0.8911,-6.24,7.79,-0.02,22.9
3739,0.2097,0.0009,0.8945,-6.06,7.68,-0.08,22.9
3749,0.2119,0.0016,0.8912,-6.18,7.76,0.0,22.9
3759,0.2085,-0.0035,0.889,-6.2,7.8,0.03,22.9
3769,0.2104,-0.0027,0.8904,-6.18,7.74,0.02,22.9
3779,0.2113,-0.0009,0.8895,-6.23,7.69,-0.02,22.92
3789,0.2106,-0.0031,0.8917,-6.17,7.79,-0.06,22.93
3799,0.2096,-0.0001,0.8933,-6.15,7.76,0.02,22.92
3809,0.2111,-0.004,0.8931,-6.12,7.71,0.03,22.92
3819,0.2117,-0.0006,0.8937,-6.12,7.82,-0.03,22.94
3829,0.2096,0.001,0.8942,-6.21,7.76,-0.02,22.92
3839,0.213,-0.0028,0.8918,-6.09,7.82,-0.06,22.88
3849,0.2113,-0.0035,0.8921,-6.2,7.74,-0.02,22.9
3859,0.2111,-0.0013,0.8866,-6.18,7.79,-0.03,22.89
3869,0.213,0.001,0.8877,-6.18,7.82,-0.02,22.9
3879,0.2124,0.0011,0.8903,-6.11,7.83,0.0,22.91
3889,0.2108,-0.0007,0.8907,-6.11,7.77,-0.05,22.91
3899,0.212,-0.0007,0.892,-6.21,7.56,-0.06,22.92
3909,0.2101,0.0005,0.8899,-6.18,7.73,0.02,22.91
3919,0.2128,-0.0027,0.8911,-6.14,7.76,-0.08,22.92
3929,0.2068,-0.0009,0.8917,-6.15,7.82,-0.03,22.92
3939,0.209,-0.0034,0.8936,-6.2,7.8,-0.12,22.9
3949,0.2096,0.0001,0.8875,-6.17,7.71,-0.03,22.93
3959,0.2081,-0.0029,0.8901,-6.2,7.77,-0.06,22.92
3969,0.2107,-0.0015,0.8901,-6.15,7.8,-0.06,22.9
3979,0.2117,-0.0018,0.8895,-6.17,7.8,0.03,22.92
3989,0.2101,-0.0015,0.8969,-6.15,7.79,-0.06,22.92
3999,0.2098,-0.0009,0.8904,-6.2,7.79,-0.06,22.9
4009,0.2113,0.0009,0.8928,-6.17,7.74,-0.05,22.92
4019,0.2117,-0.0009,0.8926,-6.14,7.68,0.03,22.9
4029,0.2076,0.0009,0.8892,-6.17,7.76,-0.12,22.91
4039,0.21,0.0007,0.8896,-6.18,7.77,-0.08,22.92
4049,0.2106,0.0009,0.8903,-6.12,7.69,0.02,22.89
4059,0.2106,0.0004,0.8909,-6.15,7.69,-0.06,22.94
4069,0.2107,-0.0031,0.8921,-6.26,7.69,-0.06,22.92
4079,0.2083,0.0016,0.89,-6.17,7.74,-0.02,22.92
4089,0.2072,-0.002,0.8916,-6.26,7.71,-0.03,22.93
4099,0.2124,-0.0001,0.8909,-6.12,7.71,-0.02,22.89
4109,0.2125,-0.0044,0.8872,-6.17,7.68,-0.05,22.92
4119,0.2092,-0.002,0.8893,-6.05,7.76,0.06,22.92
4129,0.2108,-0.0044,0.8931,-6.17,7.69,0.05,22.95
4139,0.2122,-0.004,0.8923,-6.12,7.65,-0.12,22.92
4149,0.2096,-0.0028,0.8865,-6.11,7.71,-0.05,22.92
4159,0.2085,-0.0026,0.892,-6.2,7.82,-0.02,22.92
4169,0.2094,-0.004,0.8937,-6.12,7.69,-0.05,22.93
4179,0.2102,-0.0044,0.891,-6.11,7.79,-0.03,22.92
4189,0.2081,-0.0037,0.8943,-6.15,7.76,0.0,22.94
4199,0.2096,-0.0015,0.8906,-6.17,7.71,-0.03,22.93
4209,0.2091,-0.0017,0.8901,-6.21,7.77,-0.09,22.92
4219,0.2106,0.0001,0.894,-6.17,7.74,-0.03,22.92
4229,0.2112,-0.0007,0.8947,-6.17,7.73,-0.08,22.94
4239,0.2124,-0.0015,0.8928,-6.2,7.82,-0.05,22.93
4249,0.2102,-0.0009,0.8882,-6.17,7.74,0.0,22.94
4259,0.2095,0.0001,0.8875,-6.14,7.8,-0.05,22.93
4269,0.2104,-0.0022,0.8914,-6.21,7.79,-0.02,22.94
4279,0.2109,-0.0004,0.8904,-6.09,7.65,-0.11,22.94
4289,0.2104,-0.001,0.8885,-6.08,7.74,0.02,22.95
4299,0.2125,0.0027,0.8938,-6.21,7.8,-0.03,22.94
4309,0.2115,0.0001,0.8949,-6.14,7.77,-0.05,22.91
4319,0.2097,0.0024,0.8876,-6.11,7.76,-0.02,22.94
4329,0.2102,0.0006,0.8898,-6.14,7.77,-0.06,22.93
4339,0.2106,-0.0018,0.8922,-6.21,7.77,-0.03,22.95
4349,0.2094,-0.0012,0.8921,-6.11,7.82,-0.05,22.95
4359,0.2087,0.0005,0.8907,-6.08,7.76,0.03,22.92
4369,0.2058,0.0001,0.8956,-6.02,7.79,-0.05,22.93
4379,0.212,0.0016,0.8947,-6.15,7.73,-0.02,22.94
4389,0.2076,0.0011,0.8921,-6.15,7.79,0.02,22.94
4399,0.2106,-0.0015,0.8907,-6.17,7.74,0.02,22.94
4409,0.2111,-0.0026,0.8923,-6.15,7.77,-0.09,22.96
4419,0.2095,0.0005,0.8867,-6.21,7.74,0.02,22.94
4429,0.2107,-0.0013,0.8879,-6.0,7.79,0.06,22.96
4439,0.2113,-0.002,0.8898,-6.11,7.68,-0.08,22.95
4449,0.2104,-0.0021,0.8911,-6.2,7.77,0.02,22.96
4459,0.209,-0.0002,0.8938,-6.15,7.74,-0.02,22.94
4469,0.2109,0.0002,0.89,-6.12,7.77,-0.06,22.94
4479,0.2111,-0.0021,0.8894,-6.09,7.82,-0.06,22.97
4489,0.2117,-0.0048,0.891,-6.17,7.71,-0.02,22.94
4499,0.209,-0.0002,0.8887,-6.12,7.73,-0.06,22.94
4509,0.2107,-0.0018,0.8914,-6.15,7.79,-0.08,22.97
4519,0.2137,-0.0021,0.8882,-6.11,7.76,-0.09,22.96
4529,0.2115,0.0001,0.8932,-6.2,7.79,-0.03,22.95
4539,0.2087,-0.0028,0.8927,-6.14,7.73,0.0,22.94
4549,0.2095,-0.0022,0.8927,-6.18,7.73,-0.05,22.94
4559,0.2174,-0.0012,0.8811,-6.17,7.63,-0.12,22.99
4569,0.2137,-0.0028,0.8887,-6.14,7.65,-0.02,22.98
4579,0.2115,-0.0017,0.8898,-6.12,7.6,0.05,22.99
4589,0.2097,0.0018,0.8922,-6.2,7.82,-0.06,22.98
4599,0.2096,0.0,0.894,-6.18,7.8,0.02,22.98
4609,0.2114,-0.0018,0.8903,-6.2,7.76,-0.05,22.96
4619,0.2098,0.0013,0.8889,-6.14,7.79,-0.08,22.93
4629,0.2092,-0.0011,0.8909,-6.12,7.76,-0.11,22.97
4639,0.2097,-0.0012,0.892,-6.2,7.85,-0.06,22.94
4649,0.2115,-0.002,0.8905,-6.26,7.71,-0.03,22.97
4659,0.2129,-0.0002,0.8907,-6.11,7.69,-0.08,22.97
4669,0.2119,-0.0026,0.8884,-6.2,7.74,-0.02,22.95
4679,0.2096,-0.0012,0.8909,-6.17,7.68,-0.03,22.96
4689,0.2097,0.0001,0.8938,-6.18,7.79,-0.06,22.97
4699,0.2124,-0.0016,0.8912,-6.09,7.8,-0.02,22.94
4710,0.2101,-0.0055,0.892,-6.2,7.68,0.0,22.98
4720,0.2131,-0.0024,0.8881,-6.15,7.79,-0.05,22.98
4730,0.21,-0.0023,0.8916,-6.21,7.74,-0.02,22.97
4741,0.2108,0.0012,0.8901,-6.08,7.77,-0.08,22.95
4751,0.2102,-0.002,0.891,-6.11,7.79,-0.05,22.97
4761,0.2083,-0.0049,0.8922,-6.12,7.79,-0.03,22.97
4771,0.2102,-0.0001,0.8901,-6.2,7.76,-0.03,22.97
4781,0.2094,0.0004,0.8925,-6.11,7.71,-0.09,22.97
4791,0.2097,-0.0009,0.8945,-6.11,7.82,-0.08,22.97
4801,0.2104,-0.0005,0.8906,-6.15,7.73,-0.08,22.97
4811,0.208,0.0033,0.8894,-6.14,7.79,-0.11,22.97
4821,0.2109,0.0026,0.8922,-6.02,7.74,0.03,23.0
4831,0.2111,0.0031,0.8916,-6.21,7.76,-0.02,22.95
4841,0.2102,0.0012,0.8915,-6.17,7.68,-0.06,22.98
4851,0.2091,0.0013,0.8909,-6.26,7.77,-0.02,22.97
4861,0.2102,-0.0004,0.8884,-6.18,7.77,0.08,22.96
4871,0.2094,-0.0029,0.8903,-6.12,7.73,0.02,22.95
4881,0.2119,0.0002,0.8896,-6.15,7.8,-0.08,22.97
4891,0.2107,0.0017,0.8898,-6.15,7.74,0.0,22.96
4901,0.2107,-0.0002,0.8895,-6.15,7.76,0.03,22.94
4911,0.2098,0.0021,0.8923,-6.12,7.77,-0.03,22.97
4921,0.2109,-0.0023,0.8929,-6.12,7.69,0.09,22.94
4931,0.2111,-0.0032,0.891,-6.26,7.69,-0.02,22.93
4941,0.2119,0.0007,0.8971,-6.18,7.86,-0.08,22.96
4951,0.2114,-0.0017,0.8912,-6.14,7.73,-0.05,22.96
4961,0.2135,-0.0017,0.8927,-6.15,7.73,0.08,22.95
4971,0.2128,-0.0007,0.8927,-6.18,7.66,-0.02,22.97
4981,0.2081,0.0001,0.8909,-6.12,7.77,0.05,22.96
4991,0.2087,-0.0023,0.8877,-6.17,7.77,-0.02,22.99
5001,0.21,-0.0015,0.8927,-6.2,7.77,0.0,22.96
5011,0.2062,-0.001,0.8949,-6.23,7.79,0.03,22.95
5021,0.212,0.0,0.8899,-6.24,7.8,-0.09,22.98
5031,0.21,-0.0011,0.89,-6.26,7.74,-0.02,22.97
5041,0.2107,0.0012,0.8917,-6.2,7.73,0.02,22.96
5051,0.2114,-0.002,0.8907,-6.12,7.82,-0.02,22.98
5061,0.2101,-0.0016,0.8911,-6.14,7.74,0.03,22.97
5071,0.2107,-0.0015,0.8953,-6.18,7.8,0.0,22.99
5081,0.2118,-0.0002,0.8906,-6.05,7.73,-0.05,22.98
5091,0.2142,-0.0032,0.8943,-6.0,7.74,-0.08,22.97
5101,0.2102,-0.0013,0.8947,-6.23,7.69,-0.03,22.99
5111,0.2101,-0.0017,0.8877,-6.17,7.73,-0.06,22.95
5121,0.2113,-0.0004,0.8959,-6.2,7.77,-0.03,22.98
5131,0.2102,-0.0009,0.8912,-6.21,7.77,-0.06,22.98
5141,0.208,-0.0015,0.8887,-6.18,7.71,-0.12,23.01
5151,0.2085,-0.0026,0.887,-6.2,7.71,0.02,22.99
5161,0.2094,0.0,0.8888,-6.08,7.82,-0.11,23.0
5171,0.2102,0.0002,0.8933,-6.17,7.82,-0.02,22.98
5181,0.2124,-0.0006,0.8922,-6.17,7.76,-0.11,22.99
5191,0.2131,-0.0015,0.8914,-6.14,7.79,-0.08,22.97
5201,0.2118,-0.0045,0.8907,-6.18,7.73,0.0,22.99
5211,0.21,-0.0023,0.8929,-6.18,7.77,-0.03,23.0
5221,0.2097,-0.0023,0.8898,-6.15,7.79,-0.11,22.99
5231,0.2117,-0.0018,0.8917,-6.21,7.73,-0.06,22.98
5241,0.2102,-0.0018,0.8914,-6.18,7.71,-0.05,22.97
5251,0.2091,-0.0004,0.89,-6.2,7.73,0.0,22.98
5261,0.2091,0.0002,0.8959,-6.2,7.76,0.03,23.01
5271,0.2085,-0.0004,0.89,-6.2,7.74,0.05,22.99
5281,0.2091,-0.0012,0.8889,-6.12,7.76,0.02,22.99
5291,0.2086,0.0037,0.8875,-6.18,7.73,0.0,22.98
5301,0.2087,-0.0001,0.8904,-6.17,7.77,0.03,23.0
5311,0.2085,-0.0007,0.8882,-6.09,7.76,0.02,23.01
5321,0.207,0.0002,0.8928,-6.2,7.8,-0.02,22.97
5331,0.208,0.0017,0.8909,-6.17,7.69,0.0,22.98
5341,0.2104,0.0005,0.8926,-6.17,7.82,-0.06,22.98
5351,0.2118,-0.0037,0.8885,-6.17,7.69,-0.06,23.0
5361,0.208,-0.0007,0.8932,-6.21,7.73,-0.02,23.0
5371,0.21,-0.0001,0.8885,-6.17,7.76,0.03,22.99
5381,0.2091,0.0016,0.8934,-6.27,7.77,-0.05,22.99
5391,0.21,0.0002,0.8888,-6.15,7.89,-0.06,22.98
5401,0.2126,0.0001,0.8868,-6.2,7.79,0.03,23.0
5411,0.2113,-0.0002,0.8878,-6.35,7.74,-0.06,23.0
5421,0.2119,0.0012,0.8929,-6.08,7.71,-0.03,22.99
5431,0.2102,-0.0015,0.8949,-6.2,7.76,-0.06,23.0
5441,0.2124,-0.002,0.8893,-6.21,7.65,-0.15,23.02
5451,0.2089,-0.0027,0.8926,-6.18,7.76,-0.09,23.0
5461,0.2125,-0.0034,0.8911,-6.17,7.73,-0.11,22.99
5471,0.2156,-0.0028,0.8896,-6.34,7.74,-0.11,23.02
5481,0.2131,-0.0062,0.8921,-6.18,7.71,-0.08,23.02
5491,0.2156,-0.0013,0.8893,-6.17,7.74,-0.06,22.99
5501,0.2058,-0.0034,0.8978,-6.18,7.83,-0.02,23.01
5511,0.2122,-0.0059,0.8914,-6.23,7.71,-0.05,22.98
5521,0.2097,-0.0032,0.9009,-6.17,7.77,0.05,23.01
5531,0.2091,-0.0035,0.8893,-6.15,7.79,-0.05,23.0
5541,0.2102,-0.0049,0.8885,-6.14,7.76,0.0,22.99
5551,0.2102,0.0011,0.889,-6.08,7.71,-0.02,23.0
5561,0.2097,-0.0001,0.8925,-6.09,7.68,0.08,23.01
5571,0.2108,0.0021,0.8943,-6.11,7.69,-0.05,23.01
5581,0.21,-0.0001,0.8894,-6.21,7.77,-0.02,23.01
5591,0.2098,0.0018,0.8882,-6.26,7.73,-0.08,22.98
5601,0.2096,0.0016,0.8864,-6.14,7.68,-0.03,22.99
5611,0.2111,0.0043,0.8944,-6.23,7.71,-0.09,23.02
5621,0.208,0.0004,0.8899,-6.15,7.98,-0.05,23.02
5631,0.2173,-0.0016,0.8881,-6.12,7.83,-0.14,23.01
5641,0.2151,-0.0007,0.8879,-6.18,7.59,-0.02,23.01
5651,0.2065,0.0,0.8933,-6.21,7.77,-0.03,23.0
5661,0.2043,-0.001,0.8953,-6.26,7.88,0.0,23.04
5671,0.2068,-0.0011,0.8979,-6.18,7.73,-0.14,23.02
5681,0.2119,-0.0004,0.8918,-6.15,7.71,-0.03,23.0
5691,0.2123,0.0006,0.8904,-6.14,7.74,-0.02,23.0
5701,0.2102,-0.0035,0.894,-6.23,7.76,0.11,23.0
5711,0.2111,-0.0013,0.8906,-6.21,7.71,-0.02,23.0
5721,0.2097,-0.0034,0.8939,-6.15,7.66,0.05,23.01
5731,0.2095,-0.0018,0.8885,-6.32,7.83,-0.02,23.03
5741,0.2111,-0.0016,0.8864,-6.2,7.76,0.08,23.02
5751,0.2094,-0.0024,0.8906,-6.24,7.73,0.0,23.0
5761,0.2111,-0.0018,0.8937,-6.24,7.74,-0.09,23.02
5771,0.2119,-0.0046,0.8915,-6.26,7.82,-0.03,23.0
5781,0.2113,-0.0009,0.8889,-6.14,7.79,-0.03,23.01
5791,0.2108,0.0013,0.8909,-6.12,7.79,-0.08,23.02
5801,0.2104,-0.0027,0.8942,-6.09,7.79,-0.02,23.02
5811,0.2098,-0.0065,0.8915,-6.18,7.79,-0.03,23.02
5821,0.2111,-0.0026,0.8926,-6.17,7.74,0.0,22.99
5831,0.2123,-0.0022,0.8948,-6.15,7.73,-0.06,23.02
5841,0.2104,-0.0016,0.8906,-6.24,7.76,0.0,23.02
5851,0.2095,-0.0022,0.8912,-6.15,7.76,-0.11,22.99
5861,0.2097,0.0015,0.8901,-6.27,7.73,-0.02,23.01
5871,0.2128,0.0011,0.8901,-6.17,7.76,-0.05,23.0
5881,0.2083,0.0013,0.8917,-6.14,7.71,-0.03,23.0
5891,0.2104,0.0012,0.8927,-6.17,7.86,-0.03,23.02
5901,0.2081,0.0032,0.8907,-6.12,7.73,-0.02,23.06
5911,0.2136,0.0027,0.8938,-6.21,7.74,-0.08,23.02
5921,0.2098,0.0021,0.8915,-6.08,7.71,-0.06,23.03
5931,0.2123,0.0017,0.8895,-6.15,7.69,-0.05,23.03
5941,0.209,0.0006,0.8927,-6.17,7.76,-0.05,23.01
5951,0.2095,0.0007,0.8948,-6.15,7.77,-0.05,23.03
5961,0.2086,-0.0004,0.8915,-6.23,7.8,-0.03,23.01
5971,0.2122,0.0021,0.8928,-6.26,7.74,-0.05,23.04
5981,0.2096,-0.0006,0.8888,-6.2,7.69,-0.02,23.01
5991,0.2119,-0.0023,0.8868,-6.12,7.77,0.06,23.04
6001,0.2108,-0.0043,0.8925,-6.2,7.63,0.02,23.04
6011,0.2076,-0.0024,0.8906,-6.21,7.77,0.06,23.03
6021,0.208,-0.005,0.8922,-6.11,7.71,-0.02,23.02
6031,0.2111,-0.0048,0.8947,-6.14,7.74,0.0,23.04
6041,0.2089,-0.0052,0.8936,-6.08,7.71,0.0,23.02
6051,0.2106,-0.0009,0.8921,-6.14,7.77,-0.03,23.02
6061,0.2118,-0.0033,0.8939,-6.15,7.76,-0.02,23.04
6071,0.2144,-0.0037,0.8949,-6.11,7.79,-0.02,23.02
6081,0.2131,-0.0044,0.8912,-6.17,7.74,-0.03,23.05
6091,0.2137,-0.0012,0.8923,-6.14,7.71,0.0,23.03
6101,0.2133,-0.0021,0.8953,-6.17,7.68,-0.05,23.03
6111,0.2106,-0.0029,0.8896,-6.15,7.65,-0.09,23.02
6121,0.2102,0.0013,0.8893,-6.09,7.77,-0.05,23.03
6131,0.2112,0.0015,0.8926,-6.15,7.76,-0.03,23.03
6141,0.2106,0.0026,0.8909,-6.18,7.73,-0.03,23.03
6151,0.2125,0.0026,0.8901,-6.21,7.71,0.03,23.05
6161,0.2081,0.0024,0.8905,-6.26,7.77,0.02,23.04
6171,0.2102,0.0026,0.8898,-6.14,7.73,-0.08,23.04
6181,0.2075,0.0023,0.8912,-6.17,7.73,-0.03,23.03
6191,0.2102,0.0034,0.8892,-6.2,7.77,0.0,23.04
6201,0.2112,0.0039,0.8936,-6.18,7.79,-0.03,23.04
6211,0.2102,0.0057,0.8898,-6.18,7.77,0.0,23.04
6221,0.2104,0.0016,0.8898,-6.2,7.73,-0.12,23.05
6231,0.2113,0.0028,0.8909,-6.11,7.69,-0.14,23.04
6241,0.2109,0.0018,0.8895,-6.21,7.77,0.05,23.04
6251,0.2072,0.0006,0.8867,-6.14,7.82,0.03,23.04
6261,0.2085,0.0,0.8901,-6.2,7.77,0.02,23.02
6271,0.209,-0.0028,0.8889,-6.23,7.65,0.03,23.07
6281,0.2122,-0.0011,0.8916,-6.14,7.74,-0.05,23.06
6291,0.2137,-0.0042,0.8922,-6.15,7.73,0.05,23.04
6301,0.2111,-0.0028,0.8892,-6.2,7.74,0.05,23.07
6311,0.2086,-0.0055,0.8911,-6.17,7.82,0.03,23.04
6321,0.213,-0.0068,0.8954,-6.09,7.63,0.02,23.04
6331,0.2101,-0.0043,0.8903,-6.09,7.82,0.05,23.06
6341,0.2113,-0.0057,0.8918,-6.12,7.76,0.05,23.07
6351,0.2122,-0.0044,0.8903,-6.23,7.68,-0.08,23.06
6361,0.2092,-0.0035,0.8916,-6.21,7.73,-0.06,23.06
6371,0.2109,-0.0037,0.892,-6.17,7.73,-0.02,23.06
6381,0.2098,-0.0051,0.8878,-6.15,7.68,-0.06,23.04
6391,0.2114,-0.0048,0.892,-6.2,7.74,-0.03,23.04
6401,0.2125,-0.0027,0.8909,-6.14,7.76,-0.08,23.05
6411,0.2098,0.0023,0.8879,-6.12,7.77,-0.06,23.04
6421,0.2102,0.0021,0.8918,-6.17,7.8,-0.03,23.06
6431,0.2097,0.0022,0.896,-6.12,7.79,0.02,23.07
6445,0.2159,0.0012,0.886,-6.09,7.71,0.69,23.05
6455,0.2086,0.0013,0.8997,-6.15,7.88,-0.12,23.02
6465,0.2068,0.0021,0.8917,-6.26,7.89,-0.02,23.04
6475,0.2092,0.0021,0.8904,-6.18,7.71,-0.14,23.05
6485,0.2084,0.0034,0.892,-6.17,7.66,-0.06,23.08
6495,0.2087,0.0034,0.8894,-6.2,7.74,-0.02,23.07
6505,0.2113,0.0009,0.8944,-6.12,7.73,0.02,23.06
6515,0.2117,-0.0026,0.8899,-6.11,7.73,-0.02,23.05
6525,0.2091,0.0023,0.8938,-6.18,7.73,0.0,23.05
6535,0.2089,0.001,0.8893,-6.11,7.69,-0.02,23.06
6545,0.2107,0.0,0.8928,-6.23,7.82,-0.03,23.08
6555,0.2129,-0.0016,0.8899,-6.14,7.73,-0.06,23.07
6565,0.2086,-0.0026,0.8925,-6.17,7.73,-0.08,23.06
6575,0.2107,-0.0037,0.8905,-6.17,7.82,-0.03,23.03
6585,0.2122,-0.005,0.8871,-6.18,7.79,0.03,23.03
6595,0.214,-0.0043,0.8887,-6.08,7.71,-0.02,23.05
6605,0.2124,-0.0039,0.8896,-6.17,7.71,-0.05,23.05
6615,0.2142,-0.0037,0.892,-6.06,7.8,-0.11,23.04
6625,0.213,-0.0029,0.8931,-6.09,7.68,-0.06,23.05
6635,0.2131,-0.0044,0.8928,-6.23,7.76,-0.08,23.06
6645,0.2104,-0.0055,0.8929,-6.2,7.66,0.0,23.07
6655,0.2117,-0.0033,0.8904,-6.24,7.76,-0.06,23.06
6665,0.2133,0.0007,0.8892,-6.27,7.71,-0.02,23.07
6675,0.2084,-0.0007,0.8943,-6.08,7.74,0.02,23.08
6685,0.2122,0.001,0.8944,-6.2,7.79,0.0,23.07
6695,0.2124,-0.001,0.8885,-6.15,7.71,-0.11,23.05
6705,0.2108,-0.0005,0.8928,-6.14,7.79,0.0,23.07
6715,0.2123,-0.0039,0.894,-6.18,7.82,-0.08,23.08
6725,0.2075,-0.0021,0.8912,-6.18,7.66,-0.02,23.06
6735,0.2075,-0.0015,0.892,-6.17,7.76,-0.09,23.05
6745,0.2096,0.0004,0.891,-6.08,7.73,-0.05,23.07
6755,0.2095,0.0017,0.8931,-6.09,7.74,-0.02,23.05
6765,0.2108,-0.0009,0.8929,-6.15,7.69,0.06,23.08
6775,0.2119,0.0001,0.8918,-6.09,7.77,-0.02,23.06
6785,0.2113,0.0017,0.891,-6.26,7.68,-0.08,23.08
6795,0.2118,-0.002,0.8933,-6.17,7.79,-0.12,23.05
6805,0.2098,-0.0007,0.8907,-6.14,7.69,0.02,23.05
6815,0.2101,-0.0007,0.8947,-6.21,7.73,-0.05,23.07
6825,0.2103,-0.0011,0.8947,-6.2,7.76,-0.06,23.07
6835,0.2131,0.0009,0.8894,-6.24,7.73,0.03,23.08
6845,0.2117,-0.0031,0.8879,-6.18,7.73,-0.06,23.07
6856,0.2126,-0.0042,0.8942,-6.15,7.71,0.05,23.08
6866,0.2117,-0.0065,0.8898,-6.26,7.66,0.02,23.07
6877,0.2126,-0.0029,0.892,-6.08,7.63,-0.02,23.06
6887,0.2107,-0.0048,0.8889,-6.15,7.69,0.03,23.07
6897,0.2111,-0.0054,0.8962,-6.18,7.77,0.02,23.07
6907,0.2091,-0.0052,0.8964,-6.24,7.74,-0.05,23.07
6917,0.212,-0.0021,0.8922,-6.17,7.73,-0.05,23.08
6927,0.2087,-0.0026,0.8915,-6.09,7.59,-0.02,23.07
6937,0.209,-0.0039,0.8912,-6.09,7.74,-0.09,23.07
6947,0.2119,-0.0042,0.8903,-6.09,7.73,0.0,23.07
6957,0.2107,-0.0012,0.8895,-6.17,7.74,0.05,23.08
6967,0.2133,-0.0017,0.8903,-6.17,7.74,-0.09,23.04
6977,0.2119,-0.001,0.8969,-6.23,7.8,0.08,23.05
6987,0.2122,-0.0011,0.8943,-6.15,7.71,-0.11,23.1
6997,0.2115,-0.0017,0.892,-6.18,7.83,-0.11,23.09
7007,0.21,-0.0016,0.8907,-6.18,7.77,-0.03,23.08
7017,0.2125,0.0007,0.8923,-6.17,7.73,0.02,23.08
7027,0.2076,0.0012,0.8911,-6.2,7.69,0.02,23.07
7037,0.2068,0.0011,0.8911,-6.15,7.76,0.06,23.06
7047,0.2096,0.0013,0.8904,-6.12,7.79,0.0,23.07
7057,0.2083,-0.0011,0.8929,-6.15,7.71,0.0,23.06
7067,0.2096,-0.0018,0.8962,-6.32,7.77,0.02,23.07
7078,0.2078,0.001,0.8943,-6.21,7.82,-0.12,23.09
7088,0.2118,-0.0012,0.8884,-6.17,7.66,-0.03,23.07
7098,0.2109,-0.0006,0.8892,-6.14,7.79,0.05,23.08
7108,0.2123,0.0009,0.8893,-6.14,7.82,-0.14,23.07
7118,0.2113,-0.0021,0.8911,-6.23,7.71,-0.02,23.05
7128,0.2096,-0.0009,0.8899,-6.2,7.79,0.03,23.06
7138,0.2098,-0.0018,0.8893,-6.12,7.74,0.0,23.08
7148,0.2136,-0.0017,0.8934,-6.2,7.71,-0.05,23.09
7158,0.213,-0.0026,0.8909,-6.11,7.74,-0.08,23.08
7168,0.2123,-0.0012,0.8889,-6.17,7.69,0.06,23.09
7178,0.2111,-0.0013,0.8931,-6.14,7.8,-0.05,23.09
7188,0.2109,-0.0051,0.8909,-6.17,7.73,0.02,23.05
7198,0.2125,-0.0011,0.8898,-6.12,7.77,0.02,23.07
7208,0.2095,-0.0039,0.8967,-6.17,7.77,-0.02,23.05
7219,0.2112,-0.0024,0.8904,-6.21,7.74,-0.05,23.08
7229,0.2118,-0.0011,0.892,-6.14,7.76,-0.05,23.07
7239,0.2106,-0.0009,0.8895,-6.12,7.69,-0.08,23.09
7249,0.2107,-0.0032,0.891,-6.2,7.76,0.0,23.09
7259,0.2113,-0.0016,0.8921,-6.18,7.74,-0.06,23.08
7269,0.2096,0.0009,0.8933,-6.17,7.8,-0.03,23.09
7280,0.2102,-0.0001,0.8926,-6.23,7.68,-0.03,23.08
7291,0.2097,0.0001,0.8942,-6.15,7.82,-0.05,23.07
7301,0.2119,0.0011,0.892,-6.24,7.69,-0.02,23.09
7311,0.2118,0.0023,0.8903,-6.2,7.76,-0.06,23.06
7321,0.2095,0.0021,0.8926,-6.24,7.73,-0.06,23.06
7331,0.2107,0.001,0.8904,-6.14,7.62,0.06,23.08
7341,0.2095,0.001,0.891,-6.27,7.76,-0.11,23.09
7351,0.2102,0.0006,0.8895,-6.2,7.69,-0.06,23.09
7361,0.2101,-0.0018,0.8895,-6.14,7.71,-0.05,23.05
7371,0.2101,0.0032,0.8904,-6.09,7.74,0.0,23.07
7381,0.2107,0.0015,0.8915,-6.27,7.73,-0.08,23.09
7391,0.2109,-0.0011,0.8975,-6.18,7.8,-0.08,23.07
7401,0.2123,-0.0056,0.8915,-6.23,7.77,-0.02,23.1
7411,0.2113,-0.0042,0.8905,-6.21,7.8,0.02,23.07
7421,0.2104,-0.0022,0.8884,-6.15,7.74,0.02,23.09
7431,0.2095,-0.0012,0.8933,-6.12,7.77,-0.03,23.06
7441,0.2113,-0.0042,0.892,-6.21,7.74,-0.08,23.09
7451,0.2094,-0.0044,0.8949,-6.11,7.77,0.02,23.11
7461,0.2097,-0.0005,0.8898,-6.18,7.74,-0.09,23.08
7471,0.2091,-0.0021,0.887,-6.17,7.69,-0.03,23.07
7481,0.2098,-0.0018,0.8932,-6.14,7.8,-0.02,23.07
7491,0.2136,-0.001,0.8929,-6.12,7.8,0.05,23.09
7501,0.2107,-0.0023,0.8937,-6.11,7.76,-0.05,23.07
7511,0.2115,-0.0018,0.8939,-6.2,7.74,-0.02,23.08
7521,0.2096,-0.0015,0.8933,-6.15,7.76,0.05,23.11
7531,0.2124,-0.0021,0.8911,-6.11,7.8,-0.02,23.07
7541,0.2083,-0.0001,0.8867,-6.15,7.79,-0.05,23.09
7551,0.207,0.0013,0.8904,-6.17,7.71,-0.03,23.09
7561,0.2104,-0.0004,0.8917,-6.26,7.74,-0.05,23.09
7571,0.2123,0.0001,0.8895,-6.27,7.69,-0.05,23.1
7581,0.2109,0.0012,0.8912,-6.11,7.77,-0.06,23.08
7591,0.2109,0.0,0.8955,-6.12,7.76,-0.06,23.11
7601,0.2117,0.0013,0.8923,-6.03,7.77,-0.06,23.1
7611,0.2096,0.0017,0.8877,-6.14,7.77,-0.05,23.1
7621,0.2114,0.0,0.8928,-6.12,7.77,-0.03,23.08
7631,0.2102,-0.0012,0.8885,-6.2,7.82,-0.06,23.07
7641,0.2119,-0.0005,0.8906,-6.15,7.82,-0.02,23.12
7651,0.2113,-0.0018,0.8895,-6.17,7.8,-0.08,23.1
7661,0.2134,0.0,0.8911,-6.2,7.77,0.08,23.1
7671,0.2101,0.0007,0.8898,-6.14,7.77,0.0,23.09
7681,0.2133,0.0001,0.8933,-6.12,7.79,-0.05,23.06
7691,0.2134,0.0001,0.8936,-6.2,7.74,0.0,23.07
7701,0.2123,-0.0043,0.886,-6.14,7.73,-0.08,23.11
7711,0.2119,-0.0015,0.8879,-6.23,7.77,-0.02,23.09
7721,0.2126,-0.0016,0.8912,-6.23,7.68,0.05,23.07
7731,0.2087,0.0,0.8931,-6.15,7.73,0.02,23.09
7741,0.2079,-0.0012,0.8914,-6.17,7.77,0.0,23.1
7751,0.2111,-0.0044,0.892,-6.15,7.73,0.03,23.09
7761,0.2109,-0.0027,0.8932,-6.24,7.69,-0.06,23.1
7771,0.2111,-0.0031,0.891,-6.21,7.83,0.0,23.08
7781,0.2126,-0.0029,0.8892,-6.17,7.82,-0.02,23.1
7791,0.2133,-0.0024,0.8868,-6.17,7.73,-0.05,23.09
7801,0.2091,-0.0015,0.8912,-6.2,7.79,-0.03,23.08
7811,0.2101,-0.0011,0.8896,-6.18,7.73,-0.05,23.1
7821,0.212,-0.0021,0.8926,-6.14,7.68,-0.03,23.09
7831,0.212,-0.0028,0.8881,-6.11,7.76,-0.08,23.1
7841,0.21,0.001,0.8904,-6.09,7.74,-0.03,23.11
7851,0.2102,0.0015,0.8917,-6.11,7.68,-0.06,23.11
7861,0.21,-0.0002,0.892,-6.2,7.85,-0.08,23.09
7871,0.2111,-0.0006,0.8901,-6.11,7.79,0.0,23.09
7881,0.2096,-0.0032,0.8926,-6.2,7.77,-0.11,23.1
7891,0.2067,-0.0007,0.8929,-6.15,7.73,-0.03,23.11
7901,0.2098,-0.0016,0.8947,-6.11,7.79,-0.03,23.09
7911,0.209,-0.0027,0.892,-6.12,7.74,-0.05,23.12
7921,0.2085,0.0007,0.8933,-6.11,7.73,-0.05,23.12
7931,0.2125,0.0002,0.8898,-6.15,7.68,0.02,23.09
7941,0.2095,0.0001,0.8936,-6.12,7.69,0.02,23.13
7951,0.2112,0.0027,0.8916,-6.14,7.8,-0.02,23.11
7961,0.2098,0.0016,0.8921,-6.12,7.76,-0.11,23.09
7971,0.2104,-0.0024,0.8895,-6.12,7.82,-0.11,23.07
7981,0.2085,-0.0011,0.8903,-6.21,7.79,-0.14,23.11
7991,0.2109,-0.0039,0.8903,-6.14,7.8,0.03,23.08
8001,0.2123,-0.0002,0.892,-6.18,7.79,0.03,23.07
8011,0.2128,-0.0027,0.8969,-6.21,7.76,-0.03,23.1
8021,0.2122,-0.0029,0.8883,-6.24,7.74,0.0,23.09
8031,0.2145,-0.0039,0.8907,-6.17,7.8,-0.06,23.1
8041,0.212,-0.0012,0.8896,-6.2,7.82,-0.02,23.08
8051,0.2119,-0.0017,0.8927,-6.23,7.77,-0.05,23.11
8061,0.2133,-0.0016,0.8931,-6.11,7.76,-0.05,23.14
8071,0.2115,-0.0032,0.8951,-6.15,7.73,0.06,23.13
8081,0.2104,-0.0002,0.8909,-6.15,7.77,-0.08,23.1
8091,0.2074,-0.0031,0.891,-6.2,7.8,-0.05,23.12
8101,0.212,-0.0028,0.8956,-6.17,7.74,-0.12,23.12
8111,0.2118,-0.001,0.8903,-6.12,7.73,-0.06,23.13
8121,0.2129,-0.0028,0.8903,-6.2,7.73,0.02,23.12
8131,0.2126,-0.0029,0.8899,-6.21,7.82,0.0,23.1
8141,0.2078,-0.0018,0.8914,-6.2,7.76,0.02,23.1
8151,0.2106,-0.0012,0.8944,-6.24,7.73,-0.08,23.13
8161,0.2115,-0.0001,0.8906,-6.17,7.74,-0.03,23.13
8172,0.2107,-0.0005,0.8973,-6.21,7.74,-0.11,23.1
8182,0.2094,0.0023,0.8933,-6.29,7.69,-0.02,23.11
8192,0.2111,-0.0018,0.889,-6.26,7.8,-0.02,23.11
8202,0.2094,0.0007,0.8954,-6.2,7.79,-0.03,23.13
8212,0.2117,-0.0007,0.8901,-6.14,7.77,-0.03,23.12
8222,0.2087,-0.0022,0.8933,-6.15,7.77,-0.02,23.13
8232,0.2119,-0.0026,0.8916,-6.17,7.76,-0.09,23.12
8242,0.2092,-0.0004,0.8928,-6.23,7.76,0.02,23.12
8252,0.2102,-0.0006,0.8911,-6.12,7.76,-0.11,23.12
8263,0.2109,-0.0017,0.8875,-6.21,7.77,-0.02,23.14
8273,0.2084,-0.0037,0.8888,-6.11,7.76,-0.03,23.13
8283,0.2135,-0.002,0.8918,-6.2,7.76,0.02,23.12
8293,0.2126,-0.0021,0.8883,-6.11,7.68,0.0,23.11
8303,0.2097,-0.0038,0.8921,-6.24,7.71,-0.03,23.11
8313,0.2096,-0.0017,0.8899,-6.17,7.77,-0.03,23.13
8323,0.2122,-0.0018,0.8939,-6.21,7.79,-0.03,23.14
8333,0.2107,-0.004,0.8871,-6.15,7.8,-0.06,23.13
8343,0.2123,-0.0039,0.8883,-6.2,7.68,0.0,23.14
8353,0.2101,-0.0031,0.8912,-6.15,7.74,-0.09,23.15
8363,0.2094,-0.0037,0.8904,-6.2,7.82,-0.14,23.13
8373,0.2109,-0.0018,0.8928,-6.21,7.85,-0.03,23.14
8383,0.21,0.0002,0.8909,-6.2,7.83,0.03,23.12
8393,0.2103,-0.002,0.89,-6.18,7.82,-0.02,23.11
8403,0.208,0.0013,0.8889,-6.05,7.79,-0.11,23.12
8413,0.208,-0.0049,0.8901,-6.2,7.79,-0.09,23.11
8423,0.2107,-0.0034,0.8907,-6.2,7.74,0.02,23.14
8433,0.2124,-0.0026,0.8928,-6.08,7.8,-0.03,23.13
8443,0.2111,-0.0011,0.8906,-6.14,7.79,-0.11,23.12
8453,0.2104,-0.0005,0.8895,-6.2,7.8,-0.14,23.14
8463,0.2112,-0.0009,0.8904,-6.15,7.79,0.03,23.12
8473,0.2107,0.0016,0.8928,-6.11,7.71,-0.05,23.13
8483,0.2097,0.0001,0.8916,-6.18,7.74,0.0,23.14
8493,0.209,-0.0002,0.8906,-6.17,7.76,-0.02,23.13
8503,0.2067,-0.0006,0.8922,-6.17,7.76,-0.02,23.12
8513,0.2118,0.0002,0.8943,-6.17,7.82,-0.05,23.14
8523,0.2119,-0.0023,0.8947,-6.24,7.77,0.02,23.16
8533,0.2126,-0.0005,0.8911,-6.18,7.79,0.05,23.14
8543,0.2104,-0.0007,0.8933,-6.17,7.74,-0.08,23.14
8553,0.2131,-0.0032,0.8932,-6.12,7.77,-0.05,23.12
8563,0.2141,-0.0024,0.8904,-6.2,7.71,-0.02,23.14
8573,0.2095,-0.0034,0.8933,-6.18,7.74,0.0,23.14
8583,0.2113,-0.0007,0.8945,-6.12,7.77,0.02,23.13
8593,0.2106,-0.0017,0.8895,-6.2,7.71,-0.09,23.12
8603,0.2095,-0.0024,0.8953,-6.23,7.71,0.03,23.14
8613,0.2125,-0.0029,0.8954,-6.11,7.71,-0.06,23.14
8623,0.2076,-0.0023,0.8918,-6.05,7.71,0.0,23.16
8633,0.2097,-0.0018,0.8926,-6.14,7.73,-0.08,23.14
8643,0.212,-0.0024,0.8905,-6.17,7.79,-0.14,23.11
8653,0.2137,-0.002,0.8945,-6.06,7.66,-0.06,23.14
8663,0.2111,-0.0011,0.8922,-6.14,7.8,-0.12,23.14
8673,0.2091,0.0001,0.8899,-6.17,7.73,0.0,23.13
8683,0.2118,0.0,0.8905,-6.17,7.82,-0.06,23.14
8693,0.2136,-0.0013,0.8923,-6.18,7.77,-0.03,23.13
8703,0.2111,0.0007,0.89,-6.12,7.74,-0.09,23.14
8713,0.2113,-0.0012,0.8917,-6.11,7.8,0.03,23.13
8723,0.2104,-0.0015,0.8912,-6.17,7.76,0.0,23.17
8733,0.2128,-0.0026,0.8884,-6.17,7.69,-0.05,23.16
8743,0.2102,-0.0024,0.8931,-6.17,7.68,-0.06,23.13
8753,0.2114,0.0013,0.89,-6.15,7.74,-0.06,23.14
8763,0.212,-0.0018,0.8917,-6.17,7.79,0.05,23.14
8773,0.2104,-0.0013,0.8947,-6.23,7.76,0.0,23.16
8783,0.2125,-0.0039,0.8912,-6.24,7.69,0.03,23.15
8793,0.2117,-0.0017,0.8906,-6.15,7.73,-0.06,23.13
8803,0.2097,0.0033,0.8903,-6.12,7.71,-0.06,23.13
8813,0.2103,0.0028,0.8921,-6.2,7.79,0.03,23.16
8823,0.2119,-0.0018,0.8877,-6.24,7.76,0.0,23.15
8833,0.2111,0.0016,0.8892,-6.14,7.76,-0.02,23.14
8843,0.2094,-0.0018,0.8903,-6.26,7.68,-0.05,23.15
8853,0.2118,-0.001,0.8918,-6.15,7.76,-0.05,23.16
8863,0.2119,-0.0015,0.89,-6.17,7.79,-0.06,23.14
8873,0.2108,-0.0007,0.8894,-6.18,7.74,-0.08,23.14
8883,0.2126,-0.0002,0.8911,-6.17,7.77,-0.12,23.13
8893,0.212,-0.004,0.8901,-6.08,7.86,0.0,23.16
8903,0.2112,-0.0023,0.8922,-6.18,7.76,-0.09,23.16
8913,0.2109,-0.001,0.8948,-6.11,7.77,-0.03,23.15
8923,0.2089,-0.0013,0.892,-6.21,7.73,0.03,23.16
8933,0.2096,-0.0027,0.8887,-6.23,7.74,-0.09,23.14
8943,0.2107,-0.0031,0.8934,-6.14,7.76,-0.08,23.14
8953,0.2126,0.0009,0.8927,-6.14,7.8,0.02,23.12
8963,0.2115,-0.0012,0.8915,-6.11,7.69,0.14,23.14
8973,0.2134,-0.0009,0.89,-6.18,7.69,-0.05,23.14
8983,0.2117,-0.0013,0.89,-6.34,7.74,-0.08,23.15
8993,0.2081,-0.0006,0.8937,-6.21,7.65,-0.11,23.14
9003,0.2115,-0.0006,0.8972,-6.17,7.74,-0.03,23.16
9013,0.21,0.0001,0.8926,-6.17,7.79,0.05,23.15
9023,0.2089,-0.0006,0.8909,-6.09,7.66,0.0,23.15
9033,0.2122,0.0002,0.8962,-6.17,7.76,0.02,23.12
9043,0.2122,0.0001,0.8888,-6.11,7.8,-0.02,23.13
9053,0.2101,-0.0004,0.8889,-6.06,7.77,-0.05,23.15
9063,0.2108,-0.0021,0.8833,-6.18,7.82,-0.08,23.16
9073,0.2101,-0.0009,0.8909,-6.14,7.76,-0.11,23.15
9083,0.2102,-0.0012,0.8928,-6.29,7.73,-0.05,23.14
9094,0.2108,-0.0007,0.8938,-6.21,7.65,0.02,23.14
9104,0.2086,-0.0004,0.889,-6.23,7.83,0.0,23.14
9115,0.2101,-0.0037,0.8953,-6.06,7.66,-0.03,23.14
9125,0.2087,0.0012,0.8922,-6.08,7.8,-0.06,23.14
9135,0.2129,0.0011,0.8885,-6.08,7.68,-0.08,23.13
9145,0.2101,-0.0004,0.8921,-6.26,7.82,-0.06,23.17
9155,0.2098,-0.0006,0.8926,-6.24,7.74,-0.03,23.16
9165,0.2128,-0.0042,0.8929,-6.15,7.85,-0.06,23.16
9175,0.2131,-0.0015,0.8881,-6.09,7.74,-0.05,23.17
9185,0.2106,-0.0023,0.8911,-6.18,7.73,-0.02,23.13
9195,0.2097,-0.0007,0.8877,-6.17,7.68,-0.05,23.16
9205,0.2106,-0.0004,0.8914,-6.21,7.71,-0.09,23.15
9215,0.2092,-0.0018,0.89,-6.2,7.73,-0.08,23.15
9225,0.2102,-0.0001,0.885,-6.21,7.82,0.02,23.13
9235,0.2106,-0.0028,0.8951,-6.08,7.74,-0.05,23.16
9245,0.2125,-0.0005,0.8951,-6.23,7.73,-0.05,23.12
9255,0.209,-0.0009,0.8931,-6.09,7.73,0.03,23.15
9265,0.2109,-0.0015,0.8898,-6.12,7.79,0.08,23.17
9275,0.2109,-0.0007,0.8901,-6.21,7.73,-0.17,23.14
9285,0.2112,0.0005,0.892,-6.18,7.73,-0.03,23.14
9295,0.2135,-0.0037,0.8917,-6.12,7.74,0.05,23.16
9305,0.2123,-0.0033,0.8905,-6.2,7.76,-0.03,23.13
9315,0.2113,-0.0011,0.8926,-6.15,7.77,-0.08,23.14
9325,0.213,-0.001,0.8914,-6.17,7.77,-0.05,23.13
9335,0.2085,-0.0007,0.8906,-6.23,7.73,0.02,23.14
9345,0.2094,0.0004,0.8892,-6.2,7.68,-0.06,23.15
9355,0.2114,0.002,0.8867,-6.15,7.73,0.0,23.18
9365,0.2114,-0.0015,0.8936,-6.2,7.76,-0.03,23.16
9375,0.2129,-0.0012,0.8921,-6.24,7.73,-0.11,23.15
9385,0.2115,0.0022,0.8961,-6.11,7.74,0.03,23.16
9395,0.2091,-0.001,0.8951,-6.09,7.8,-0.08,23.16
9405,0.2095,-0.0018,0.8905,-6.24,7.69,0.0,23.15
9415,0.2103,-0.0033,0.8892,-6.17,7.74,-0.02,23.15
9425,0.2114,-0.0023,0.8934,-6.18,7.79,-0.02,23.18
9435,0.2125,-0.0031,0.8933,-6.11,7.77,0.02,23.16
9445,0.2104,-0.0031,0.8882,-6.14,7.74,-0.11,23.17
9455,0.214,-0.0028,0.8876,-6.21,7.77,-0.05,23.17
9465,0.2119,-0.0004,0.8918,-6.12,7.77,0.03,23.14
9475,0.2089,-0.0028,0.8939,-6.17,7.77,-0.03,23.15
9485,0.2142,0.0005,0.8928,-6.15,7.73,-0.05,23.15
9495,0.2092,-0.0044,0.8921,-6.09,7.83,-0.09,23.14
9505,0.2113,-0.0004,0.8939,-6.12,7.76,-0.03,23.17
9515,0.2133,-0.0001,0.8938,-6.12,7.71,-0.06,23.16
9525,0.2069,-0.0009,0.895,-6.18,7.73,-0.03,23.16
9535,0.2096,-0.0021,0.8918,-6.23,7.73,-0.03,23.18
9545,0.2085,0.0007,0.8965,-6.21,7.74,-0.11,23.15
9555,0.2102,0.0007,0.8947,-6.11,7.77,-0.18,23.16
9565,0.2102,0.0006,0.8921,-6.05,7.66,-0.08,23.17
9575,0.2115,-0.004,0.8922,-6.21,7.83,-0.05,23.15
9585,0.2113,-0.0031,0.8896,-6.2,7.74,-0.06,23.15
9595,0.2104,-0.0012,0.894,-6.17,7.73,-0.02,23.17
9605,0.2098,-0.0013,0.8895,-6.23,7.73,-0.03,23.18
9615,0.2118,-0.001,0.8916,-6.15,7.77,-0.05,23.17
9625,0.2079,0.0022,0.891,-6.2,7.76,-0.03,23.16
9635,0.2128,0.0009,0.8873,-6.21,7.77,0.02,23.15
9645,0.2109,0.0026,0.8893,-6.18,7.83,-0.03,23.17
9655,0.2117,0.0005,0.8949,-6.24,7.79,-0.03,23.13
9665,0.213,-0.0006,0.8915,-6.17,7.66,-0.02,23.18
9675,0.2102,-0.0026,0.8877,-6.18,7.77,0.03,23.15
9685,0.2112,-0.0033,0.8949,-6.26,7.79,-0.08,23.16
9695,0.2085,-0.0012,0.8903,-6.15,7.71,-0.03,23.17
9705,0.2108,-0.0035,0.8904,-6.2,7.76,-0.02,23.15
9715,0.2118,-0.0033,0.8867,-6.12,7.82,0.0,23.15
9725,0.2131,-0.0024,0.8899,-6.09,7.74,0.0,23.18
9735,0.2118,-0.0027,0.8914,-6.29,7.73,-0.06,23.17
9745,0.2115,-0.0021,0.8903,-6.18,7.79,-0.11,23.19
9755,0.2097,0.0002,0.8893,-6.14,7.77,0.06,23.17
9765,0.2104,-0.0028,0.8931,-6.2,7.77,-0.02,23.17
9775,0.212,-0.0044,0.8901,-6.14,7.76,-0.02,23.19
9785,0.2091,-0.0026,0.8931,-6.18,7.77,0.02,23.17
9795,0.2096,-0.0032,0.8932,-6.21,7.79,-0.02,23.16
9805,0.2101,0.0002,0.8921,-6.14,7.69,0.0,23.17
9815,0.2072,0.0015,0.8909,-6.15,7.71,-0.05,23.17
9825,0.2129,-0.0018,0.8898,-6.23,7.76,-0.02,23.16
9835,0.2113,-0.0026,0.891,-6.14,7.73,0.0,23.17
9845,0.2091,-0.0009,0.8938,-6.14,7.77,-0.08,23.19
9855,0.2102,-0.0015,0.8967,-6.15,7.76,0.11,23.16
9865,0.2072,-0.0005,0.8942,-6.09,7.74,-0.09,23.18
9875,0.2113,-0.0024,0.8929,-6.09,7.79,0.0,23.18
9885,0.2124,0.0004,0.8942,-6.12,7.73,-0.06,23.17
9895,0.2098,-0.0023,0.8923,-6.18,7.76,-0.03,23.17
9905,0.2103,-0.0013,0.8916,-6.2,7.77,-0.06,23.18
9915,0.2117,-0.0018,0.8938,-6.14,7.73,-0.06,23.19
9925,0.2112,-0.0022,0.8912,-6.05,7.82,-0.11,23.17
9935,0.2094,0.001,0.894,-6.15,7.69,-0.06,23.15
9945,0.2139,-0.0006,0.8887,-6.18,7.69,-0.02,23.19
9955,0.2102,-0.0016,0.8894,-6.09,7.77,-0.03,23.18
9965,0.2112,-0.0009,0.8895,-6.12,7.74,-0.05,23.17
9975,0.2104,-0.0006,0.8928,-6.15,7.73,-0.09,23.17
9985,0.2103,-0.0013,0.8864,-6.17,7.76,-0.05,23.18
9995,0.2106,-0.0006,0.89,-6.17,7.77,-0.02,23.19
10005,0.2129,-0.0017,0.885,-6.17,7.77,-0.05,23.16
10015,0.2136,0.0016,0.8931,-6.18,7.82,-0.05,23.17
10025,0.2136,-0.0011,0.8945,-6.21,7.71,-0.03,23.18
10035,0.2087,-0.0023,0.8912,-6.08,7.76,-0.05,23.15
10045,0.2117,-0.0028,0.8921,-6.2,7.65,-0.06,23.16
10055,0.209,-0.0022,0.8937,-6.17,7.69,0.0,23.17
10065,0.21,-0.0043,0.8914,-6.15,7.76,-0.02,23.2
10075,0.2133,-0.0016,0.8904,-6.15,7.66,-0.03,23.17
10085,0.2119,-0.0013,0.8925,-6.14,7.69,0.03,23.17
10095,0.2112,-0.0012,0.8947,-6.2,7.82,0.0,23.17
10105,0.2098,-0.0009,0.8906,-6.14,7.66,-0.06,23.18
10115,0.2125,-0.0016,0.8901,-6.12,7.73,-0.08,23.17
10125,0.2109,-0.0006,0.8967,-6.18,7.71,-0.11,23.18
10135,0.2103,0.0002,0.8907,-6.18,7.79,-0.06,23.19
10145,0.2131,0.0023,0.8918,-6.17,7.79,-0.05,23.2
10155,0.2115,-0.002,0.8896,-6.21,7.73,-0.12,23.19
10165,0.2094,0.0002,0.8947,-6.15,7.74,-0.03,23.16
10175,0.2111,-0.0017,0.8938,-6.18,7.76,-0.02,23.16
10185,0.2107,0.0001,0.8949,-6.12,7.71,0.03,23.17
10195,0.2122,0.0007,0.8921,-6.2,7.86,-0.02,23.18
10205,0.2115,-0.0012,0.8931,-6.2,7.82,0.02,23.17
10215,0.2098,-0.0029,0.8933,-6.18,7.76,0.0,23.19
10225,0.2108,-0.0032,0.8937,-6.21,7.73,-0.06,23.17
10235,0.2114,-0.0033,0.8883,-6.11,7.76,-0.02,23.17
10245,0.2129,-0.0012,0.8907,-6.12,7.74,0.0,23.17
10255,0.2125,0.0,0.8899,-6.21,7.74,-0.09,23.15
10265,0.2086,0.0002,0.8901,-6.2,7.8,-0.09,23.17
10275,0.2124,0.0026,0.8921,-6.14,7.79,0.0,23.19
10285,0.2123,-0.0004,0.8888,-6.2,7.76,-0.05,23.17
10295,0.2117,0.001,0.8922,-6.12,7.76,-0.06,23.19
10305,0.2097,0.0009,0.8918,-6.18,7.77,-0.05,23.17
10315,0.2117,0.0,0.8906,-6.06,7.76,0.02,23.19
10325,0.2106,0.0011,0.8954,-6.2,7.71,-0.08,23.19
10335,0.2085,0.0006,0.8881,-6.12,7.73,-0.05,23.17
10345,0.2086,-0.002,0.8939,-6.24,7.8,-0.03,23.18
10355,0.2106,-0.0013,0.8909,-6.2,7.74,0.03,23.16
10365,0.2091,-0.0034,0.894,-6.18,7.82,-0.08,23.19
10375,0.2108,-0.0043,0.891,-6.17,7.8,-0.05,23.19
10385,0.2092,-0.0049,0.8885,-6.18,7.82,-0.03,23.18
10395,0.2098,-0.0055,0.8906,-6.14,7.73,0.03,23.2
10405,0.2114,-0.0043,0.8929,-6.26,7.73,-0.02,23.18
10415,0.2125,-0.0035,0.8934,-6.18,7.69,-0.11,23.19
10425,0.2098,-0.0035,0.8893,-6.17,7.65,0.03,23.18
10435,0.2112,-0.004,0.8877,-6.18,7.66,-0.14,23.18
10445,0.2123,-0.0038,0.8906,-6.12,7.79,-0.05,23.17
10455,0.2115,-0.0048,0.8927,-6.23,7.74,-0.14,23.19
10465,0.2119,-0.0007,0.8976,-6.17,7.69,-0.02,23.2
10475,0.2125,0.0021,0.8942,-6.2,7.83,-0.03,23.17
10485,0.2108,-0.0016,0.8917,-6.08,7.66,0.05,23.19
10495,0.2106,0.0012,0.8894,-6.17,7.74,-0.03,23.19
10505,0.2109,-0.0013,0.889,-6.18,7.71,-0.08,23.2
10515,0.2109,0.0011,0.892,-6.15,7.86,0.03,23.2
10525,0.2102,0.0001,0.8909,-6.15,7.79,-0.02,23.18
10535,0.2112,0.0,0.8943,-6.23,7.82,-0.02,23.19
10545,0.2104,-0.0001,0.8923,-6.21,7.73,0.03,23.17
10555,0.2126,-0.0009,0.8907,-6.2,7.71,-0.14,23.19
10565,0.2115,0.0021,0.8958,-6.23,7.69,-0.08,23.18
10575,0.2113,0.0029,0.8905,-6.18,7.71,-0.12,23.18
10585,0.2098,0.0018,0.8906,-6.21,7.77,-0.03,23.19
10595,0.2124,0.0004,0.894,-6.14,7.69,0.03,23.19
10605,0.2095,0.0033,0.8898,-6.18,7.74,0.0,23.17
10615,0.2083,-0.0002,0.8938,-6.21,7.73,0.05,23.19
10625,0.2106,0.0026,0.8932,-6.24,7.76,-0.02,23.18
10635,0.2094,0.0004,0.8921,-6.2,7.74,-0.05,23.19
10645,0.2128,-0.0004,0.8943,-6.18,7.71,-0.05,23.18
10655,0.2119,-0.0002,0.8931,-6.29,7.71,0.0,23.19
10665,0.213,-0.0018,0.8922,-6.21,7.69,-0.06,23.2
10675,0.2126,-0.0022,0.8947,-6.24,7.79,-0.08,23.21
10685,0.2104,0.0002,0.8936,-6.09,7.66,-0.08,23.22
10695,0.2086,-0.005,0.8906,-6.12,7.86,-0.02,23.24
10705,0.2112,-0.0033,0.8928,-6.26,7.68,0.02,23.19
10715,0.2124,-0.0056,0.891,-6.29,7.79,-0.03,23.2
10726,0.21,-0.0066,0.8933,-6.2,7.73,-0.06,23.19
10736,0.2134,-0.0038,0.8929,-6.23,7.71,0.05,23.19
10747,0.2141,-0.0045,0.8927,-6.15,7.79,0.02,23.19
10757,0.2107,-0.0021,0.8932,-6.2,7.74,-0.03,23.2
10767,0.2108,-0.0035,0.8903,-6.18,7.79,-0.12,23.22
10777,0.2126,-0.005,0.8931,-6.11,7.74,-0.03,23.22
10787,0.2109,0.0002,0.8912,-6.15,7.76,-0.09,23.2
10797,0.2112,-0.0029,0.8948,-6.18,7.76,0.05,23.22
10807,0.2108,0.0011,0.8927,-6.21,7.73,-0.08,23.21
10817,0.2091,0.0028,0.8938,-6.23,7.8,-0.05,23.2
10827,0.2115,0.0015,0.8912,-6.18,7.8,-0.05,23.18
10837,0.2098,0.0029,0.8907,-6.11,7.76,-0.03,23.2
10847,0.2095,-0.0017,0.8894,-6.09,7.76,-0.05,23.19
10857,0.2095,0.0017,0.8928,-6.2,7.82,-0.06,23.22
10867,0.2097,0.0035,0.8912,-6.23,7.79,0.0,23.2
10877,0.2092,0.0037,0.8912,-6.2,7.76,-0.02,23.17
10887,0.209,0.0009,0.8914,-6.24,7.74,0.02,23.19
10897,0.2095,0.005,0.8885,-6.21,7.74,-0.05,23.21
10907,0.2072,0.0046,0.8893,-6.2,7.76,0.0,23.19
10917,0.2108,0.0026,0.8911,-6.17,7.68,-0.05,23.2
10927,0.2092,0.002,0.8947,-6.06,7.71,-0.02,23.23
10937,0.2087,0.0022,0.8912,-6.14,7.76,-0.06,23.21
10947,0.2108,0.0001,0.8927,-6.18,7.79,0.0,23.19
10957,0.2111,0.001,0.8948,-6.2,7.83,0.0,23.21
10967,0.2108,0.001,0.8911,-6.14,7.79,-0.03,23.19
10977,0.2112,-0.0038,0.891,-6.21,7.79,-0.02,23.19
10987,0.2109,0.0001,0.8923,-6.24,7.74,-0.03,23.2
10997,0.2128,-0.0012,0.8932,-6.17,7.74,-0.02,23.21
11007,0.2125,-0.0037,0.8916,-6.21,7.73,-0.08,23.19
11017,0.2075,-0.0002,0.8904,-6.18,7.71,0.02,23.22
11028,0.2091,-0.0052,0.8909,-6.15,7.74,0.0,23.2
11038,0.2096,-0.002,0.8927,-6.15,7.73,-0.03,23.2
11048,0.2114,-0.0024,0.8926,-6.2,7.76,-0.02,23.21
11058,0.2113,-0.0042,0.8893,-6.12,7.77,-0.06,23.2
11068,0.2106,-0.0048,0.8945,-6.12,7.77,-0.05,23.21
11078,0.2097,-0.0023,0.895,-6.2,7.73,-0.06,23.19
11088,0.2087,-0.0035,0.8899,-6.14,7.76,-0.02,23.22
11098,0.2118,-0.0032,0.8933,-6.21,7.73,-0.03,23.21
11108,0.2112,-0.0032,0.8878,-6.17,7.68,0.05,23.21
11118,0.2117,0.0005,0.8922,-6.14,7.76,0.0,23.21
11128,0.2097,-0.0034,0.8912,-6.24,7.74,-0.06,23.23
11138,0.2091,0.0006,0.8958,-6.17,7.77,-0.03,23.21
11148,0.2118,0.0013,0.8906,-6.11,7.76,0.02,23.2
11158,0.2141,0.0022,0.891,-6.15,7.71,-0.02,23.18
11168,0.2111,0.0022,0.8892,-6.24,7.76,-0.03,23.2
11178,0.2083,0.0018,0.8922,-6.14,7.68,-0.02,23.2
11188,0.2101,0.001,0.8877,-6.27,7.77,-0.03,23.22
11198,0.21,0.0017,0.8917,-6.2,7.76,-0.02,23.17
11208,0.2106,0.0029,0.8898,-6.18,7.82,-0.03,23.21
11218,0.2069,0.0032,0.8909,-6.15,7.71,-0.08,23.22
11228,0.2104,-0.0004,0.8943,-6.18,7.76,-0.05,23.22
11238,0.2084,-0.0018,0.8966,-6.17,7.73,-0.11,23.21
11248,0.2124,-0.0013,0.891,-6.09,7.85,0.0,23.22
11258,0.2102,0.0012,0.8898,-6.06,7.8,0.0,23.23
11268,0.2078,-0.0037,0.8918,-6.11,7.79,0.02,23.22
11278,0.213,-0.0028,0.8904,-6.23,7.79,-0.02,23.22
11288,0.21,-0.0001,0.8922,-6.12,7.79,0.0,23.22
11298,0.21,-0.0032,0.8877,-6.15,7.79,-0.11,23.21
11308,0.2107,-0.0031,0.8911,-6.21,7.71,-0.05,23.22
11318,0.208,-0.0022,0.8883,-6.18,7.74,-0.02,23.19
11328,0.2117,-0.0027,0.8915,-6.15,7.69,-0.06,23.22
11338,0.2111,-0.0033,0.8932,-6.17,7.71,-0.03,23.22
11348,0.2123,-0.0043,0.8951,-6.2,7.83,0.0,23.22
11358,0.212,-0.0011,0.8917,-6.17,7.8,0.02,23.23
11368,0.209,0.0006,0.8922,-6.26,7.79,-0.05,23.2
11378,0.2107,-0.0012,0.8903,-6.06,7.76,0.03,23.24
11388,0.2092,0.0034,0.8909,-6.11,7.77,0.02,23.23
11398,0.209,-0.0021,0.8912,-6.12,7.74,-0.03,23.24
11408,0.2092,-0.0006,0.8903,-6.27,7.76,-0.11,23.21
11419,0.212,-0.0004,0.8954,-6.26,7.79,-0.02,23.24
11429,0.21,-0.0007,0.892,-6.12,7.74,0.0,23.23
11439,0.2084,0.0001,0.8922,-6.23,7.76,-0.03,23.23
11449,0.2095,0.0013,0.89,-6.29,7.79,-0.09,23.23
11459,0.2124,-0.0005,0.891,-6.24,7.77,-0.06,23.24
11469,0.2098,0.0001,0.8955,-6.18,7.71,0.02,23.22
11479,0.2117,0.0001,0.8926,-6.21,7.76,0.0,23.2
11489,0.21,-0.0018,0.8906,-6.14,7.82,-0.05,23.25
11499,0.2106,-0.0002,0.8933,-6.2,7.82,0.02,23.24
11509,0.2113,-0.0022,0.8923,-6.2,7.85,-0.05,23.24
11519,0.2101,-0.0002,0.8901,-6.09,7.77,-0.03,23.24
11529,0.2091,-0.0011,0.8906,-6.12,7.76,-0.02,23.24
11539,0.2097,-0.0027,0.8892,-6.12,7.69,-0.02,23.25
11549,0.2106,-0.001,0.89,-6.08,7.79,0.06,23.21
11559,0.2106,0.0005,0.8881,-6.2,7.76,0.09,23.24
11569,0.2085,0.0042,0.8905,-6.12,7.76,0.05,23.23
11579,0.2141,0.0026,0.8932,-6.21,7.74,0.02,23.22
11589,0.2103,-0.0018,0.8914,-6.2,7.71,-0.09,23.23
11599,0.2109,-0.0027,0.8925,-6.17,7.76,0.02,23.22
11609,0.214,-0.001,0.8939,-6.21,7.69,0.08,23.22
11619,0.2107,-0.0034,0.8903,-6.27,7.74,-0.03,23.22
11629,0.2087,-0.0045,0.8925,-6.23,7.79,-0.02,23.23
11639,0.2101,-0.0024,0.8906,-6.18,7.73,-0.02,23.25
11649,0.2115,-0.0028,0.8877,-6.21,7.71,-0.03,23.24
11659,0.2113,-0.004,0.892,-6.15,7.76,-0.08,23.22
11669,0.2095,-0.0048,0.8892,-6.17,7.79,-0.05,23.25
11679,0.2104,-0.0044,0.8909,-6.17,7.76,0.03,23.24
11689,0.2112,-0.002,0.8923,-6.18,7.83,0.06,23.22
11699,0.2126,-0.0001,0.8887,-6.2,7.73,0.05,23.22
11709,0.2112,-0.0007,0.8936,-6.17,7.73,0.08,23.22
11719,0.2098,0.0009,0.8925,-6.23,7.77,0.0,23.22
11729,0.2094,0.0002,0.892,-6.15,7.79,-0.06,23.22
11739,0.2103,0.0015,0.8927,-6.26,7.8,0.05,23.24
11749,0.2087,-0.0005,0.8931,-6.2,7.74,0.0,23.22
11759,0.2097,0.0011,0.8911,-6.26,7.76,-0.02,23.21
11769,0.2097,0.0013,0.8938,-6.21,7.76,-0.05,23.24
11779,0.2124,0.0007,0.8953,-6.12,7.73,0.0,23.24
11789,0.2096,0.0015,0.8954,-6.15,7.69,-0.05,23.25
11799,0.2111,-0.0013,0.8881,-6.21,7.74,-0.11,23.25
11809,0.2094,-0.0018,0.8901,-6.2,7.82,0.05,23.25
11819,0.2094,-0.0016,0.8875,-6.2,7.77,-0.03,23.27
11829,0.2108,0.0007,0.8923,-6.12,7.8,-0.03,23.24
11839,0.2095,-0.0004,0.8903,-6.24,7.86,-0.05,23.24
11849,0.2112,-0.0009,0.8904,-6.18,7.71,0.0,23.22
11859,0.2118,-0.0023,0.8921,-6.24,7.74,-0.05,23.23
11869,0.2129,-0.0015,0.8925,-6.21,7.74,-0.05,23.23
11879,0.2112,-0.002,0.8879,-6.14,7.8,-0.09,23.25
11889,0.2141,-0.0027,0.8925,-6.14,7.86,-0.05,23.25
11899,0.2125,-0.0006,0.8916,-6.12,7.74,0.0,23.22
11909,0.2092,-0.0042,0.8882,-6.21,7.8,0.0,23.23
11919,0.212,-0.0031,0.8864,-6.21,7.76,0.0,23.25
11929,0.2115,-0.005,0.8882,-6.2,7.8,0.0,23.23
11939,0.2097,-0.0002,0.8898,-6.15,7.79,-0.14,23.24
11949,0.2094,-0.001,0.8929,-6.23,7.66,-0.03,23.26
11959,0.2095,-0.0029,0.891,-6.2,7.73,-0.08,23.23
11969,0.212,-0.0016,0.8895,-6.24,7.77,-0.03,23.24
11979,0.2104,-0.0015,0.8887,-6.14,7.71,-0.03,23.23
11989,0.2126,-0.0015,0.8932,-6.08,7.73,0.03,23.24
11999,0.2102,-0.0007,0.8939,-6.21,7.77,0.05,23.26
12009,0.2103,-0.0013,0.8907,-6.24,7.82,-0.05,23.23
12019,0.2083,-0.0032,0.8873,-6.2,7.74,-0.06,23.23
12029,0.2106,0.0,0.8905,-6.14,7.76,0.0,23.22
12039,0.2087,-0.0026,0.894,-6.15,7.83,-0.03,23.24
12049,0.2112,-0.0015,0.8918,-6.15,7.82,0.0,23.26
12059,0.21,0.0002,0.8898,-6.09,7.77,-0.09,23.24
12069,0.2101,-0.0016,0.8909,-6.14,7.97,-0.06,23.23
12079,0.2106,-0.0009,0.8929,-6.11,7.79,-0.08,23.24
12089,0.2109,-0.0029,0.8909,-6.2,7.68,0.03,23.25
12099,0.2115,-0.0002,0.8893,-6.14,7.66,0.02,23.23
12109,0.2139,-0.004,0.8899,-6.12,7.69,0.02,23.23
12119,0.2139,-0.0033,0.8873,-6.27,7.71,0.06,23.25
12129,0.2131,-0.0007,0.8917,-6.09,7.82,-0.05,23.25
12139,0.2101,0.0005,0.8899,-6.24,7.85,0.02,23.21
12149,0.2104,-0.0005,0.8907,-6.14,7.8,-0.08,23.26
12159,0.208,-0.0045,0.8917,-6.21,7.82,-0.05,23.22
12169,0.21,0.0,0.8944,-6.12,7.83,-0.11,23.25
12179,0.2122,-0.0027,0.8899,-6.15,7.89,0.05,23.27
12189,0.2084,-0.0001,0.8901,-6.15,7.77,0.03,23.24
12199,0.2128,-0.0055,0.895,-6.17,7.71,-0.05,23.26
12209,0.2131,-0.0018,0.8909,-6.15,7.73,-0.02,23.24
12219,0.2134,-0.0017,0.8892,-6.17,7.74,0.05,23.22
12229,0.2136,-0.0004,0.8887,-6.24,7.68,0.0,23.25
12239,0.2107,0.0009,0.8889,-6.12,7.77,0.0,23.22
12249,0.2113,-0.0032,0.8912,-6.27,7.73,-0.06,23.24
12259,0.2115,-0.004,0.8921,-6.17,7.77,-0.03,23.24
12269,0.2117,-0.0031,0.8904,-6.14,7.8,0.0,23.25
12279,0.2083,-0.0005,0.8936,-6.17,7.73,-0.03,23.23
12289,0.2094,-0.0021,0.8907,-6.17,7.73,-0.05,23.23
12299,0.2102,-0.0021,0.8906,-6.2,7.76,-0.02,23.25
12310,0.213,-0.0029,0.8927,-6.23,7.68,0.02,23.25
12320,0.2097,0.0009,0.89,-6.15,7.79,0.02,23.23
12330,0.2106,-0.002,0.8912,-6.17,7.8,-0.09,23.25
12340,0.214,-0.0023,0.889,-6.21,7.76,-0.05,23.24
12350,0.2134,-0.0029,0.8901,-6.23,7.8,0.03,23.23
12360,0.2102,-0.0011,0.8871,-6.21,7.82,-0.02,23.23
12370,0.2112,-0.0013,0.8928,-6.2,7.73,-0.03,23.22
12380,0.2094,-0.0034,0.8951,-6.2,7.73,-0.05,23.24
12390,0.2086,-0.0015,0.8884,-6.27,7.76,-0.02,23.27
12400,0.2098,-0.0039,0.8917,-6.2,7.73,-0.03,23.24
12410,0.2117,-0.0043,0.8892,-6.27,7.77,-0.06,23.24
12420,0.2108,0.001,0.8901,-6.17,7.79,-0.02,23.24
12430,0.2086,-0.0016,0.8942,-6.12,7.66,-0.03,23.23
12440,0.2106,-0.0035,0.8918,-6.21,7.74,0.0,23.22
12450,0.2107,0.0,0.8912,-6.17,7.71,-0.08,23.22
12460,0.21,-0.0012,0.894,-6.27,7.74,0.03,23.25
12470,0.2131,0.0001,0.8912,-6.26,7.77,-0.02,23.24
12480,0.2123,-0.0054,0.8944,-6.06,7.8,-0.08,23.27
12490,0.2101,-0.0032,0.8879,-6.11,7.74,-0.11,23.25
12500,0.2085,-0.002,0.892,-6.2,7.77,-0.02,23.22
12510,0.2113,0.0004,0.8926,-6.21,7.77,0.02,23.25
12520,0.2115,-0.0028,0.8912,-6.26,7.71,-0.09,23.25
12530,0.2112,-0.0033,0.8928,-6.26,7.83,-0.06,23.27
12540,0.2097,-0.0027,0.8915,-6.18,7.74,-0.09,23.25
12550,0.2109,0.0004,0.887,-6.21,7.71,0.0,23.25
12560,0.2087,-0.0017,0.89,-6.24,7.65,0.0,23.24
12570,0.2111,-0.0037,0.8915,-6.18,7.68,-0.11,23.24
12580,0.2129,-0.0028,0.8911,-6.11,7.74,-0.11,23.27
12590,0.2081,-0.0034,0.8928,-6.11,7.8,-0.08,23.25
12600,0.2087,-0.0035,0.894,-6.18,7.77,0.02,23.26
12610,0.2102,-0.0042,0.8915,-6.18,7.77,0.0,23.25
12620,0.2091,-0.0002,0.8914,-6.21,7.77,0.0,23.23
12630,0.212,-0.0046,0.8938,-6.12,7.76,-0.03,23.27
12640,0.2109,-0.0027,0.8929,-6.11,7.77,0.03,23.26
12650,0.2134,-0.0042,0.8895,-6.26,7.82,0.05,23.26
12660,0.2111,-0.0004,0.8949,-6.2,7.76,0.0,23.24
12670,0.2101,0.0016,0.8934,-6.18,7.74,0.03,23.26
12680,0.2112,-0.0016,0.8916,-6.17,7.8,0.02,23.26
12691,0.2108,-0.0001,0.8887,-6.2,7.73,0.05,23.25
12701,0.2104,-0.0017,0.8931,-6.14,7.73,-0.05,23.25
12711,0.2109,0.0027,0.89,-6.23,7.8,0.0,23.25
12721,0.2081,-0.0024,0.8881,-6.21,7.77,-0.08,23.23
12731,0.2081,-0.0005,0.8895,-6.18,7.77,-0.06,23.26
12741,0.2107,-0.0026,0.8884,-6.06,7.68,-0.08,23.25
12751,0.2125,-0.0037,0.8882,-6.21,7.76,-0.11,23.27
12761,0.2109,-0.0038,0.8931,-6.2,7.73,-0.12,23.27
12771,0.2091,-0.0032,0.894,-6.24,7.74,-0.06,23.25
12781,0.2115,-0.0015,0.8894,-6.12,7.73,-0.03,23.25
12791,0.2085,0.0027,0.8909,-6.24,7.79,-0.05,23.27
12801,0.2096,-0.0006,0.8953,-6.24,7.77,-0.06,23.27
12811,0.2069,-0.0007,0.8894,-6.24,7.74,-0.09,23.27
12821,0.2076,-0.0023,0.8892,-6.21,7.83,-0.09,23.25
12831,0.2108,-0.0031,0.8888,-6.24,7.74,0.05,23.26
12841,0.2108,-0.0037,0.8927,-6.24,7.66,-0.05,23.24
12851,0.2136,-0.0006,0.8914,-6.21,7.76,-0.08,23.26
12861,0.2115,-0.0032,0.8907,-6.26,7.73,-0.09,23.25
12871,0.2106,-0.002,0.8923,-6.24,7.77,0.02,23.26
12881,0.2122,-0.0005,0.8901,-6.15,7.69,-0.05,23.26
12891,0.2128,-0.0011,0.8881,-6.2,7.73,-0.08,23.25
12901,0.2112,-0.0018,0.8892,-6.17,7.76,0.0,23.26
12911,0.2111,-0.0032,0.8893,-6.27,7.82,-0.05,23.27
12921,0.2128,-0.0039,0.8933,-6.24,7.79,-0.06,23.27
12931,0.2091,0.0004,0.8911,-6.15,7.77,-0.02,23.26
12941,0.2106,-0.0022,0.8909,-6.29,7.77,-0.06,23.28
12951,0.2117,-0.0018,0.8895,-6.18,7.77,0.02,23.26
12961,0.2102,-0.0027,0.8953,-6.21,7.76,0.02,23.25
12971,0.2129,-0.0009,0.8894,-6.18,7.8,-0.05,23.24
12981,0.2101,-0.0009,0.8909,-6.15,7.82,-0.05,23.25
12991,0.2108,0.0005,0.8914,-6.26,7.76,-0.08,23.24
13001,0.2118,0.0007,0.8888,-6.12,7.66,0.0,23.26
13011,0.2114,0.0012,0.8923,-6.21,7.8,-0.06,23.29
13021,0.2111,0.0005,0.8898,-6.23,7.74,-0.09,23.27
13031,0.2079,0.0018,0.8912,-6.2,7.79,0.03,23.26
13041,0.2076,0.0024,0.8889,-6.21,7.74,0.0,23.27
13051,0.2104,0.0,0.8872,-6.27,7.79,0.0,23.27
13061,0.2118,0.0018,0.8915,-6.29,7.74,-0.05,23.27
13071,0.2107,-0.0015,0.8904,-6.17,7.69,-0.08,23.29
13081,0.2128,0.002,0.8917,-6.18,7.76,-0.03,23.25
13091,0.2122,0.0004,0.8906,-6.23,7.77,0.02,23.27
13101,0.2126,-0.0005,0.8918,-6.27,7.82,-0.05,23.28
13111,0.2102,-0.002,0.8927,-6.32,7.8,0.0,23.26
13121,0.2113,-0.0002,0.8923,-6.27,7.73,-0.03,23.26
13131,0.2111,-0.0027,0.8888,-6.18,7.76,0.02,23.26
13141,0.2097,-0.0033,0.8937,-6.26,7.8,-0.03,23.28
13151,0.2119,-0.004,0.8958,-6.31,7.8,0.0,23.29
13161,0.2107,-0.0031,0.8899,-6.24,7.69,-0.09,23.27
13171,0.2101,-0.0043,0.8925,-6.18,7.73,-0.02,23.27
13181,0.2098,-0.0024,0.892,-6.14,7.73,-0.03,23.24
13192,0.2097,-0.0018,0.8894,-6.12,7.77,-0.02,23.27
13202,0.2135,-0.0032,0.8893,-6.14,7.8,-0.03,23.28
13212,0.2112,-0.0034,0.8916,-6.23,7.69,-0.08,23.27
13222,0.2131,-0.0044,0.8895,-6.18,7.79,-0.09,23.28
13232,0.213,-0.0027,0.8926,-6.09,7.73,-0.08,23.27
13242,0.2109,-0.0021,0.8914,-6.14,7.82,-0.12,23.28
13252,0.2148,0.0009,0.8881,-6.11,7.68,-0.09,23.27
13262,0.1892,0.0021,0.9089,-6.18,8.15,-0.03,23.27
13272,0.1954,0.0,0.9037,-6.18,8.21,-0.09,23.29
13282,0.2141,0.0009,0.889,-6.15,7.82,-0.02,23.29
13292,0.2169,0.0012,0.8827,-6.21,7.54,0.02,23.3
13302,0.2096,0.0002,0.8915,-6.18,7.71,-0.05,23.27
13312,0.2094,-0.002,0.8899,-6.18,7.66,-0.05,23.25
13322,0.2155,-0.0001,0.886,-6.11,7.59,-0.11,23.27
13332,0.2107,0.0005,0.8876,-6.27,7.76,0.02,23.28
13342,0.2108,0.0011,0.8918,-6.11,7.85,0.03,23.27
13352,0.2084,-0.0011,0.8929,-6.15,7.8,-0.02,23.27
13362,0.2113,-0.0026,0.8954,-6.11,7.8,0.0,23.28
13372,0.2089,-0.0015,0.8927,-6.11,7.79,-0.11,23.28
13382,0.2094,-0.0009,0.8867,-6.2,7.79,-0.09,23.28
13393,0.2124,-0.001,0.8954,-6.21,7.79,-0.11,23.27
13403,0.2133,-0.0016,0.887,-6.2,7.76,0.06,23.25
13413,0.2114,0.0011,0.8915,-6.2,7.69,0.02,23.26
13423,0.2095,-0.0021,0.8916,-6.18,7.76,-0.05,23.27
13433,0.2128,-0.0018,0.8857,-6.18,7.8,0.0,23.26
13443,0.2118,-0.0017,0.8893,-6.14,7.74,0.03,23.27
13453,0.2109,0.0004,0.8875,-6.11,7.74,0.0,23.28
13463,0.2094,-0.0028,0.8918,-6.17,7.79,-0.06,23.29
13473,0.2128,-0.0017,0.8956,-6.18,7.8,-0.09,23.27
13483,0.2086,-0.0026,0.8925,-6.21,7.74,-0.06,23.27
13493,0.2113,-0.0028,0.892,-6.17,7.76,-0.06,23.27
13503,0.2095,-0.0002,0.8933,-6.2,7.82,0.03,23.26
13513,0.2128,-0.0005,0.8927,-6.18,7.74,-0.03,23.29
13523,0.212,-0.0007,0.8881,-6.15,7.71,-0.03,23.27
13533,0.2098,-0.0031,0.8903,-6.18,7.76,-0.03,23.28
13543,0.2113,-0.0043,0.8892,-6.23,7.73,-0.05,23.25
13553,0.2107,-0.0037,0.8927,-6.11,7.73,-0.03,23.29
13563,0.2102,-0.0011,0.8937,-6.17,7.74,0.03,23.27
13573,0.2089,-0.0009,0.8911,-6.15,7.85,-0.08,23.29
13583,0.2095,-0.0018,0.8877,-6.12,7.77,-0.03,23.29
13593,0.2108,-0.001,0.8905,-6.2,7.71,0.03,23.3
13603,0.2103,-0.0013,0.8938,-6.08,7.66,-0.02,23.25
13613,0.2111,0.0006,0.8901,-6.14,7.74,-0.08,23.28
13623,0.2114,-0.0034,0.8878,-6.24,7.79,-0.08,23.27
13633,0.2107,-0.0013,0.8898,-6.11,7.73,0.02,23.28
13643,0.2085,0.0015,0.8894,-6.12,7.76,0.02,23.29
13653,0.2062,-0.0006,0.8944,-6.26,7.76,0.02,23.31
13663,0.212,0.0023,0.8927,-6.21,7.79,-0.03,23.31
13674,0.2114,-0.0032,0.8947,-6.21,7.73,-0.08,23.29
13684,0.2113,-0.0011,0.8921,-6.15,7.77,-0.05,23.29
13694,0.2079,-0.0043,0.8906,-6.11,7.77,0.06,23.3
13704,0.2119,-0.0002,0.8916,-6.26,7.8,-0.03,23.29
13714,0.2096,0.001,0.8931,-6.09,7.69,0.08,23.28
13724,0.2101,0.0,0.891,-6.17,7.71,0.0,23.3
13734,0.2118,-0.0007,0.8885,-6.2,7.76,-0.03,23.32
13744,0.2126,-0.0026,0.8895,-6.17,7.79,0.05,23.29
13754,0.2094,-0.0039,0.892,-6.17,7.77,0.0,23.31
13764,0.2102,-0.0011,0.8918,-6.18,7.76,0.0,23.29
13774,0.2103,-0.0015,0.8925,-6.23,7.83,-0.06,23.31
13784,0.2087,-0.002,0.887,-6.15,7.77,0.0,23.28
13794,0.2112,-0.0018,0.8926,-6.09,7.8,-0.05,23.29
13804,0.2125,-0.004,0.8893,-6.12,7.8,0.02,23.3
13814,0.2103,-0.0037,0.8915,-6.18,7.73,-0.02,23.3
13824,0.2141,-0.0037,0.8932,-6.18,7.71,0.0,23.29
13834,0.2102,-0.0018,0.8894,-6.2,7.74,0.0,23.3
13844,0.2087,-0.0001,0.8925,-6.21,7.76,-0.08,23.32
13854,0.2085,-0.0018,0.8915,-6.17,7.73,-0.05,23.3
13864,0.2129,-0.0034,0.8907,-6.18,7.77,-0.02,23.28
13874,0.2091,-0.0002,0.8921,-6.14,7.74,0.02,23.27
13884,0.2109,-0.0001,0.8926,-6.24,7.79,-0.03,23.31
13894,0.2097,-0.0001,0.8931,-6.24,7.77,0.0,23.28
13904,0.2118,0.0,0.8906,-6.21,7.74,0.03,23.27
13914,0.21,0.0013,0.8922,-6.15,7.74,-0.02,23.28
13924,0.2083,0.0,0.8933,-6.27,7.74,-0.06,23.31
13934,0.2112,0.0007,0.8918,-6.32,7.77,-0.06,23.29
13944,0.2123,0.0002,0.8915,-6.21,7.77,0.03,23.31
13954,0.2091,-0.0015,0.89,-6.14,7.77,-0.05,23.28
13964,0.213,0.0039,0.8921,-6.06,7.77,0.0,23.3
13974,0.2096,0.0001,0.8936,-6.24,7.79,0.0,23.32
13984,0.2095,0.0029,0.8911,-6.24,7.8,0.08,23.3
13994,0.2104,-0.0006,0.8899,-6.17,7.82,0.03,23.3
14005,0.2083,0.0016,0.8939,-6.17,7.83,0.02,23.29
14015,0.21,0.0023,0.889,-6.11,7.79,-0.11,23.3
14025,0.2098,0.0004,0.8918,-6.14,7.69,0.02,23.3
14035,0.2097,-0.0007,0.8921,-6.27,7.74,-0.03,23.3
14045,0.2094,0.0015,0.8929,-6.31,7.68,0.02,23.29
14055,0.212,-0.0034,0.8912,-6.17,7.68,-0.02,23.29
14065,0.21,-0.0033,0.8933,-6.17,7.8,-0.08,23.27
14075,0.2123,-0.0029,0.8912,-6.21,7.74,-0.06,23.29
14085,0.2109,-0.004,0.8916,-6.2,7.8,-0.11,23.27
14095,0.2124,-0.0017,0.8925,-6.17,7.71,-0.02,23.3
14105,0.2106,-0.0038,0.8885,-6.12,7.8,0.03,23.29
14115,0.2115,-0.0037,0.8894,-6.15,7.79,-0.06,23.29
14125,0.2129,-0.0016,0.8898,-6.21,7.76,-0.03,23.29
14135,0.2104,-0.0012,0.8936,-6.2,7.83,0.03,23.29
14145,0.2106,-0.0017,0.8895,-6.21,7.73,-0.02,23.29
14155,0.2115,-0.0006,0.89,-6.27,7.83,-0.02,23.27
14165,0.2131,-0.0016,0.8898,-6.23,7.73,-0.14,23.28
14175,0.2092,-0.0004,0.8907,-6.26,7.74,-0.11,23.29
14186,0.2117,0.0005,0.8922,-6.24,7.79,0.0,23.29
14196,0.2111,-0.0013,0.8905,-6.18,7.74,-0.11,23.31
14206,0.2103,-0.0006,0.8918,-6.26,7.73,-0.05,23.29
14216,0.2089,0.0033,0.8893,-6.2,7.74,-0.06,23.3
14226,0.2115,0.0018,0.8918,-6.27,7.79,-0.02,23.29
14236,0.2101,0.0033,0.8884,-6.15,7.77,-0.02,23.31
14246,0.2096,-0.0012,0.889,-6.2,7.8,-0.05,23.29
14256,0.2101,0.001,0.8855,-6.21,7.71,0.05,23.29
14266,0.2107,0.0007,0.8907,-6.26,7.79,-0.03,23.28
14276,0.2103,0.0015,0.8914,-6.26,7.8,-0.12,23.3
14320,0.2104,0.0013,0.8948,-6.17,7.69,0.02,23.32
14330,0.2097,-0.0012,0.8903,-6.23,7.8,0.08,23.31
14340,0.2094,-0.0029,0.8918,-6.21,7.73,-0.03,23.29
14350,0.2091,0.0006,0.891,-6.12,7.71,-0.02,23.3
14360,0.2128,-0.0016,0.896,-6.2,7.69,0.0,23.32
14370,0.2135,-0.0043,0.8925,-6.23,7.73,-0.05,23.31
14380,0.2137,-0.0026,0.8914,-6.26,7.76,-0.08,23.29
14390,0.2118,-0.0005,0.8905,-6.24,7.8,-0.06,23.31
14400,0.2114,-0.0016,0.8951,-6.18,7.82,-0.14,23.3
14410,0.2122,-0.0037,0.8917,-6.17,7.73,-0.11,23.32
14420,0.2117,-0.0032,0.8945,-6.15,7.66,-0.05,23.32
14430,0.2101,-0.0005,0.8945,-6.23,7.76,0.02,23.32
14440,0.2123,0.0007,0.89,-6.23,7.8,0.03,23.3
14450,0.2095,-0.0031,0.889,-6.15,7.73,-0.05,23.31
14460,0.209,0.0011,0.889,-6.2,7.68,-0.02,23.32
14470,0.2112,-0.0022,0.8871,-6.18,7.73,0.08,23.31
14480,0.2123,-0.0013,0.8918,-6.24,7.69,-0.08,23.31
14490,0.2123,-0.0001,0.8915,-6.15,7.71,-0.15,23.32
14500,0.2104,0.0017,0.8896,-6.27,7.79,0.03,23.31
14510,0.2091,-0.0037,0.8926,-6.23,7.77,0.03,23.29
14521,0.213,-0.0001,0.8926,-6.24,7.77,0.0,23.31
14531,0.2087,-0.0009,0.8936,-6.21,7.79,-0.05,23.29
14541,0.2122,-0.0027,0.8921,-6.15,7.74,0.03,23.32
14551,0.2091,-0.0022,0.8945,-6.2,7.74,-0.05,23.32
14561,0.2107,0.0006,0.8909,-6.27,7.69,0.03,23.29
14571,0.2103,-0.0001,0.8942,-6.2,7.85,-0.03,23.29
14581,0.2117,0.001,0.8971,-6.14,7.83,-0.05,23.31
14591,0.2114,-0.0024,0.8951,-6.18,7.8,0.0,23.28
14601,0.2107,-0.0022,0.8944,-6.31,7.82,-0.09,23.29
14611,0.2096,-0.0016,0.8882,-6.26,7.83,-0.06,23.32
14621,0.2107,-0.001,0.8921,-6.2,7.79,0.0,23.29
14631,0.2119,-0.0009,0.8918,-6.09,7.79,-0.05,23.32
14641,0.21,-0.0002,0.8918,-6.2,7.77,-0.03,23.29
14651,0.2094,0.0017,0.8884,-6.17,7.8,-0.11,23.31
14661,0.2117,-0.0004,0.8901,-6.31,7.66,-0.03,23.3
14671,0.2078,-0.0033,0.8948,-6.21,7.69,-0.09,23.31
14681,0.2076,0.0005,0.8921,-6.21,7.68,-0.09,23.33
14691,0.2094,-0.0028,0.8928,-6.21,7.65,0.06,23.32
14701,0.2107,-0.0002,0.8909,-6.15,7.8,0.02,23.3
14711,0.2108,-0.0021,0.8892,-6.15,7.69,-0.08,23.31
14721,0.2133,-0.0022,0.8921,-6.14,7.77,0.06,23.32
14731,0.2108,-0.0011,0.8939,-6.12,7.74,-0.05,23.32
14741,0.2111,0.0004,0.8885,-6.18,7.77,0.03,23.3
14751,0.2106,-0.0005,0.8925,-6.21,7.76,-0.02,23.31
14761,0.21,0.0023,0.8915,-6.23,7.79,-0.02,23.32
14771,0.2102,-0.0024,0.8962,-6.21,7.85,-0.06,23.29
14781,0.2119,-0.0024,0.8878,-6.18,7.83,0.05,23.3
14791,0.2152,-0.002,0.8872,-6.26,7.8,-0.02,23.32
14801,0.2083,0.0,0.8928,-6.03,7.83,-0.05,23.31
14811,0.2096,0.0005,0.8951,-6.26,7.86,-0.03,23.29
14821,0.2104,-0.0028,0.8951,-6.26,7.85,0.03,23.31
14831,0.2108,-0.0016,0.8929,-6.26,7.82,-0.05,23.31
14841,0.2089,-0.0029,0.8918,-6.17,7.76,-0.02,23.29
14851,0.2111,0.0001,0.8931,-6.2,7.79,-0.03,23.3
14861,0.2091,-0.0023,0.889,-6.17,7.76,0.0,23.32
14871,0.2095,-0.0006,0.8914,-6.12,7.74,-0.03,23.31
14881,0.209,-0.0005,0.8895,-6.21,7.76,-0.05,23.32
14891,0.2098,-0.001,0.8905,-6.26,7.68,0.0,23.31
14901,0.2114,0.0001,0.8932,-6.17,7.66,0.02,23.32
14911,0.212,0.0005,0.8893,-6.21,7.77,0.06,23.32
14921,0.2117,-0.0044,0.8947,-6.26,7.76,-0.03,23.32
14931,0.2109,-0.0006,0.8937,-6.17,7.79,0.15,23.33
14941,0.2092,-0.0005,0.8905,-6.15,7.74,-0.11,23.32
14951,0.2083,0.0004,0.8906,-6.24,7.79,-0.05,23.33
14961,0.2108,-0.0017,0.8903,-6.2,7.76,-0.02,23.32
14971,0.2102,0.0,0.8898,-6.12,7.76,0.02,23.32
14981,0.2112,0.0,0.89,-6.08,7.79,-0.09,23.32
14991,0.2103,-0.0018,0.891,-6.26,7.77,-0.06,23.32
15001,0.2098,-0.0024,0.8909,-6.29,7.77,-0.05,23.31
15011,0.2102,0.0001,0.8915,-6.32,7.76,-0.05,23.31
15021,0.2108,-0.001,0.8905,-6.18,7.76,-0.09,23.32
15031,0.2091,0.0001,0.8918,-6.24,7.77,-0.02,23.32
15041,0.2096,-0.0017,0.8918,-6.18,7.74,-0.06,23.32
15051,0.208,-0.0006,0.8892,-6.21,7.77,0.0,23.32
15061,0.2081,0.001,0.8915,-6.17,7.76,-0.05,23.29
15071,0.2118,0.0022,0.895,-6.24,7.83,-0.11,23.33
15081,0.2126,-0.0028,0.8904,-6.09,7.77,-0.03,23.32
15091,0.2118,-0.0006,0.8928,-6.18,7.77,-0.08,23.32
15101,0.2119,-0.0027,0.892,-6.23,7.69,-0.05,23.33
15111,0.2101,0.0005,0.8903,-6.2,7.82,-0.15,23.33
15121,0.2128,0.0013,0.8925,-6.2,7.74,-0.03,23.31
15131,0.2094,-0.002,0.8921,-6.29,7.79,-0.06,23.32
15141,0.2094,-0.0035,0.8942,-6.15,7.77,-0.02,23.32
15151,0.2122,-0.0045,0.8893,-6.26,7.83,-0.08,23.33
15161,0.21,0.0004,0.8929,-6.21,7.76,0.03,23.32
15171,0.2118,-0.0024,0.8892,-6.2,7.76,0.03,23.32
15181,0.2112,-0.0028,0.8962,-6.15,7.79,-0.03,23.32
15191,0.2123,-0.0018,0.8911,-6.23,7.83,-0.05,23.31
15201,0.2118,-0.002,0.89,-6.21,7.74,-0.06,23.33
15211,0.2079,-0.001,0.8925,-6.24,7.79,-0.02,23.32
15221,0.2125,0.0021,0.895,-6.32,7.79,-0.03,23.31
15231,0.2112,-0.0006,0.8926,-6.2,7.76,-0.03,23.3
15241,0.2098,-0.0026,0.8933,-6.18,7.79,-0.05,23.29
15251,0.212,-0.0013,0.8906,-6.18,7.71,-0.02,23.32
15261,0.2112,-0.0009,0.8927,-6.18,7.71,0.02,23.33
15271,0.2092,-0.0013,0.8895,-6.27,7.76,-0.06,23.29
15281,0.2086,-0.0009,0.8868,-6.14,7.82,-0.03,23.3
15291,0.2111,-0.0001,0.8937,-6.15,7.74,0.0,23.31
15301,0.2134,0.0011,0.8959,-6.15,7.74,-0.08,23.3
15311,0.2109,0.0001,0.8912,-6.14,7.77,-0.05,23.35
15321,0.2096,0.0001,0.8914,-6.24,7.73,0.02,23.32
15331,0.2122,0.0,0.8893,-6.21,7.77,-0.03,23.33
15341,0.2098,-0.0024,0.8877,-6.2,7.8,-0.02,23.31
15351,0.2103,-0.0004,0.892,-6.24,7.77,0.03,23.36
15361,0.2107,-0.0031,0.8903,-6.27,7.8,0.02,23.34
15371,0.2109,-0.004,0.8899,-6.12,7.73,-0.06,23.31
15381,0.2113,-0.0028,0.8915,-6.11,7.76,-0.02,23.32
15391,0.2087,-0.0031,0.8912,-6.34,7.79,-0.11,23.34
15401,0.2083,-0.004,0.8915,-6.18,7.69,-0.02,23.35
15411,0.2102,-0.002,0.891,-6.17,7.79,-0.09,23.35
15421,0.2133,-0.0013,0.8933,-6.24,7.76,-0.12,23.35
15431,0.2111,-0.0022,0.8948,-6.26,7.79,-0.05,23.33
15441,0.2103,-0.0018,0.8906,-6.23,7.73,0.0,23.33
15451,0.2106,-0.0021,0.8901,-6.27,7.8,0.05,23.34
15461,0.2112,-0.0017,0.8889,-6.12,7.74,-0.02,23.34
15471,0.2097,-0.0031,0.8907,-6.21,7.71,-0.06,23.32
15481,0.2103,-0.0017,0.8917,-6.23,7.83,0.03,23.32
15491,0.2117,-0.0013,0.8912,-6.08,7.62,0.0,23.34
15501,0.2098,-0.0004,0.8927,-6.11,7.8,0.0,23.33
15512,0.2113,0.0023,0.8909,-6.26,7.74,0.02,23.33
15522,0.2097,0.002,0.8936,-6.2,7.74,-0.06,23.34
15532,0.2126,-0.0021,0.8872,-6.14,7.83,-0.02,23.33
15542,0.2074,0.0,0.8912,-6.08,7.74,-0.08,23.34
15553,0.2102,-0.0022,0.8921,-6.08,7.76,-0.08,23.34
15563,0.2089,-0.0001,0.8936,-6.2,7.77,-0.03,23.33
15573,0.2115,-0.0004,0.8937,-6.23,7.71,-0.06,23.35
15583,0.2085,-0.0005,0.8901,-6.14,7.85,-0.05,23.32
15593,0.2112,0.0006,0.89,-6.18,7.74,0.0,23.32
15603,0.2095,0.0001,0.8911,-6.29,7.73,0.0,23.32
15613,0.2086,0.0016,0.8929,-6.23,7.74,0.03,23.33
15623,0.2118,-0.0007,0.8911,-6.06,7.74,0.05,23.32
15633,0.2115,0.0018,0.8934,-6.26,7.76,0.05,23.34
15643,0.2109,-0.001,0.8877,-6.09,7.74,0.0,23.36
15653,0.2133,0.0005,0.8906,-6.23,7.79,-0.03,23.37
15663,0.2109,0.0015,0.8961,-6.23,7.76,-0.05,23.35
15673,0.2087,-0.0002,0.8909,-6.18,7.79,0.0,23.33
15683,0.2128,0.0011,0.8889,-6.23,7.79,-0.02,23.33
15693,0.21,-0.0028,0.8937,-6.21,7.68,-0.11,23.32
15703,0.2097,-0.0013,0.89,-6.23,7.83,0.0,23.33
15713,0.2094,-0.0022,0.8923,-6.14,7.73,-0.02,23.34
15723,0.2097,-0.0023,0.8922,-6.08,7.74,0.0,23.33
15733,0.2087,-0.0045,0.8911,-6.26,7.77,-0.09,23.33
15743,0.2101,-0.0018,0.8918,-6.24,7.85,-0.02,23.3
15753,0.2096,-0.0038,0.8918,-6.15,7.69,0.03,23.33
15763,0.2115,0.0007,0.889,-6.17,7.77,-0.03,23.35
15773,0.2123,0.0017,0.8904,-6.15,7.77,-0.08,23.35
15783,0.2094,-0.0015,0.8904,-6.2,7.74,0.0,23.36
15793,0.2102,-0.0001,0.89,-6.23,7.82,0.0,23.32
15803,0.212,-0.0007,0.8965,-6.12,7.8,-0.09,23.33
15813,0.2114,0.0002,0.8911,-6.12,7.83,-0.05,23.34
15823,0.2103,-0.0011,0.8922,-6.24,7.82,-0.02,23.35
15833,0.2106,-0.0007,0.8931,-6.18,7.79,-0.03,23.32
15843,0.2104,0.0001,0.8911,-6.15,7.76,-0.03,23.33
15853,0.2125,0.0002,0.8851,-6.15,7.76,-0.02,23.33
15863,0.2133,-0.0005,0.891,-6.11,7.8,0.02,23.34
15873,0.2109,0.0005,0.8943,-6.24,7.83,0.0,23.34
15883,0.2118,-0.0006,0.8937,-6.14,7.85,0.02,23.35
15893,0.2104,-0.004,0.8918,-6.17,7.8,-0.02,23.33
15903,0.2094,-0.0034,0.8884,-6.31,7.76,-0.08,23.32
15913,0.2109,-0.0024,0.892,-6.18,7.74,-0.09,23.34
15923,0.2112,-0.0029,0.896,-6.17,7.76,-0.02,23.33
15933,0.21,-0.0007,0.8905,-6.2,7.74,-0.03,23.37
15943,0.2098,-0.0032,0.8905,-6.24,7.79,0.0,23.34
15953,0.2075,-0.0004,0.8925,-6.2,7.71,-0.03,23.36
15963,0.2118,-0.0017,0.8928,-6.26,7.6,-0.02,23.36
15973,0.2103,-0.0009,0.8915,-6.24,7.82,-0.09,23.34
15983,0.2114,-0.0005,0.8925,-6.26,7.85,-0.05,23.34
15993,0.21,-0.0015,0.8889,-6.23,7.73,0.02,23.34
16003,0.2103,-0.0057,0.8889,-6.26,7.74,0.05,23.34
16013,0.2097,0.0004,0.8927,-6.2,7.77,-0.08,23.33
16024,0.2101,0.001,0.8898,-6.18,7.83,-0.02,23.34
16034,0.2131,-0.0004,0.8895,-6.21,7.76,-0.05,23.34
16044,0.2107,0.0007,0.8887,-6.17,7.76,-0.12,23.35
16054,0.2094,-0.0016,0.8915,-6.17,7.86,-0.06,23.36
16064,0.2113,0.0006,0.8853,-6.12,7.77,-0.12,23.34
16074,0.2085,-0.0037,0.8895,-6.27,7.77,-0.06,23.35
16084,0.2104,0.0009,0.8876,-6.21,7.76,-0.02,23.33
16094,0.2094,-0.0027,0.8878,-6.23,7.79,0.05,23.34
16104,0.2112,-0.0017,0.8915,-6.18,7.66,-0.09,23.35
16114,0.2101,-0.0015,0.894,-6.21,7.74,-0.06,23.34
16124,0.2113,-0.0037,0.8918,-6.17,7.83,-0.02,23.33
16134,0.2113,-0.0006,0.8944,-6.18,7.76,-0.06,23.36
16144,0.2097,-0.0022,0.8904,-6.24,7.74,-0.02,23.35
16154,0.212,-0.0028,0.8951,-6.11,7.77,-0.06,23.34
16164,0.2119,0.0001,0.887,-6.31,7.65,-0.05,23.35
16174,0.2128,0.0002,0.8938,-6.17,7.71,-0.05,23.33
16184,0.2123,-0.0012,0.8909,-6.23,7.74,0.05,23.34
16194,0.2109,-0.0013,0.8899,-6.26,7.8,0.03,23.33
16204,0.2111,0.0007,0.8932,-6.21,7.77,-0.05,23.34
16214,0.2086,-0.0023,0.8917,-6.17,7.77,0.0,23.34
16224,0.2118,-0.0018,0.8918,-6.18,7.77,0.03,23.33
16234,0.2097,-0.0012,0.8912,-6.14,7.77,-0.09,23.34
16244,0.2103,-0.0039,0.892,-6.2,7.71,-0.02,23.34
16254,0.2095,-0.0009,0.89,-6.12,7.8,-0.03,23.35
16264,0.2084,0.0012,0.8942,-6.34,7.77,-0.03,23.34
16274,0.2096,-0.0034,0.8904,-6.29,7.73,0.02,23.34
16285,0.2081,-0.0017,0.8895,-6.11,7.82,0.05,23.34
16295,0.2111,-0.0012,0.8923,-6.2,7.8,-0.06,23.38
16305,0.2098,-0.0021,0.8909,-6.18,7.76,-0.12,23.38
16315,0.2108,-0.0049,0.8953,-6.11,7.77,-0.09,23.34
16326,0.2109,-0.0005,0.8877,-6.29,7.82,-0.11,23.35
16336,0.2112,-0.0002,0.8901,-6.2,7.79,-0.11,23.34
16346,0.2113,0.0006,0.8933,-6.12,7.86,-0.08,23.35
16356,0.2091,0.0015,0.8916,-6.23,7.82,0.03,23.35
16366,0.212,0.0011,0.8915,-6.15,7.83,0.06,23.35
16376,0.2089,0.0009,0.8889,-6.26,7.76,-0.05,23.34
16386,0.2113,-0.0011,0.8927,-6.15,7.85,0.0,23.34
16396,0.2102,-0.0013,0.8918,-6.21,7.8,-0.02,23.35
16406,0.2097,-0.0026,0.8925,-6.2,7.77,-0.05,23.35
16417,0.2122,-0.0006,0.8917,-6.08,7.76,-0.06,23.34
16427,0.2117,-0.002,0.892,-6.17,7.74,-0.09,23.34
16437,0.2101,0.0002,0.892,-6.15,7.76,-0.05,23.35
16447,0.2113,-0.0005,0.894,-6.27,7.76,-0.06,23.36
16457,0.21,-0.0002,0.8881,-6.17,7.76,-0.02,23.35
16467,0.2092,0.0004,0.8916,-6.2,7.71,0.02,23.32
16477,0.2109,-0.0022,0.8901,-6.18,7.68,-0.02,23.33
16487,0.2091,0.0001,0.8925,-6.23,7.76,-0.03,23.34
16497,0.2111,-0.0027,0.8925,-6.17,7.76,-0.02,23.34
16507,0.2107,-0.0027,0.895,-6.27,7.74,-0.08,23.36
16517,0.2103,-0.0039,0.8921,-6.23,7.79,0.03,23.34
16527,0.2097,-0.0018,0.8848,-6.18,7.82,-0.02,23.34
16537,0.2096,-0.0038,0.8884,-6.2,7.8,-0.05,23.35
16547,0.2101,-0.0031,0.8926,-6.21,7.77,-0.08,23.35
16557,0.2091,-0.0042,0.8942,-6.18,7.77,-0.03,23.36
16567,0.2101,-0.0031,0.8934,-6.18,7.74,0.06,23.35
16577,0.2126,0.0001,0.8896,-6.14,7.76,0.03,23.35
16587,0.2083,-0.0002,0.8918,-6.18,7.77,0.02,23.33
16597,0.2085,-0.0006,0.8918,-6.23,7.83,-0.06,23.35
16607,0.2119,-0.0016,0.8918,-6.24,7.76,-0.02,23.32
16617,0.2115,-0.0006,0.8925,-6.15,7.74,-0.08,23.31
16627,0.2135,0.0002,0.8893,-6.23,7.79,-0.05,23.36
16637,0.2168,-0.0018,0.8911,-6.17,7.73,0.03,23.35
16647,0.2096,-0.0013,0.8899,-6.17,7.71,-0.11,23.37
16657,0.2128,-0.0001,0.8922,-6.26,7.77,-0.03,23.36
16667,0.2095,-0.0037,0.8873,-6.2,7.79,-0.03,23.37
16677,0.2083,-0.0026,0.8917,-6.21,7.83,-0.05,23.36
16687,0.2111,-0.0004,0.8959,-6.18,7.74,-0.08,23.34
16697,0.2096,0.0015,0.8884,-6.18,7.74,-0.05,23.33
16707,0.2109,-0.0032,0.8932,-6.34,7.71,0.02,23.38
16717,0.2128,0.0018,0.8918,-6.24,7.73,-0.08,23.36
16727,0.2112,-0.0011,0.8926,-6.23,7.77,-0.03,23.32
16737,0.21,-0.0028,0.8898,-6.15,7.77,-0.02,23.33
16747,0.21,-0.0031,0.8947,-6.06,7.74,0.0,23.36
16757,0.2139,-0.0035,0.8901,-6.17,7.8,-0.02,23.37
16767,0.2098,-0.0006,0.8915,-6.09,7.74,0.0,23.36
16777,0.2124,0.0016,0.8926,-6.21,7.79,0.02,23.37
16787,0.2126,-0.0001,0.8918,-6.24,7.71,-0.06,23.36
16797,0.2107,0.0004,0.889,-6.12,7.71,-0.12,23.37
16807,0.2113,-0.0018,0.8917,-6.2,7.71,0.0,23.35
16817,0.2103,-0.0012,0.8879,-6.21,7.83,-0.03,23.36
16827,0.21,-0.0023,0.8917,-6.26,7.71,0.02,23.36
16837,0.2075,-0.0023,0.8942,-6.26,7.73,-0.09,23.38
16847,0.2107,0.0018,0.8949,-6.14,7.76,-0.02,23.34
16857,0.2081,0.0,0.891,-6.27,7.73,-0.03,23.35
16867,0.2102,-0.0018,0.8925,-6.24,7.79,0.03,23.36
16877,0.2084,0.0001,0.8885,-6.24,7.76,-0.08,23.34
16887,0.2087,0.0005,0.8936,-6.14,7.73,-0.06,23.34
16897,0.2096,0.0022,0.8901,-6.17,7.68,0.11,23.36
16907,0.2086,0.0024,0.8933,-6.17,7.79,-0.03,23.36
16917,0.2094,-0.0018,0.8912,-6.2,7.77,-0.08,23.38
16927,0.2117,-0.0017,0.8918,-6.24,7.79,-0.06,23.36
16938,0.2114,0.0001,0.8904,-6.27,7.79,0.02,23.36
16948,0.2107,-0.0026,0.8875,-6.12,7.74,0.0,23.36
16958,0.2114,-0.0011,0.8933,-6.2,7.83,0.05,23.37
16969,0.209,-0.001,0.8939,-6.15,7.79,-0.08,23.35
16979,0.2106,-0.0011,0.8918,-6.24,7.77,0.08,23.35
16989,0.2112,-0.0022,0.8914,-6.2,7.74,-0.05,23.36
16999,0.2089,-0.0009,0.8887,-6.21,7.74,-0.06,23.37
17009,0.2133,-0.0051,0.8923,-6.14,7.69,-0.05,23.34
17019,0.2101,-0.0028,0.8914,-6.15,7.68,-0.05,23.36
17029,0.2083,-0.0035,0.8932,-6.2,7.77,-0.06,23.38
17039,0.2084,0.0018,0.8931,-6.18,7.74,-0.11,23.39
17049,0.213,-0.0021,0.8916,-6.11,7.8,-0.05,23.36
17059,0.2065,-0.0027,0.8903,-6.12,7.77,-0.03,23.36
17069,0.2125,-0.0011,0.8938,-6.23,7.68,-0.05,23.37
17079,0.21,0.0,0.8928,-6.21,7.76,0.0,23.36
17089,0.21,0.0021,0.8907,-6.23,7.74,-0.02,23.36
17099,0.2134,0.0042,0.896,-6.18,7.77,-0.05,23.37
17109,0.2086,0.0004,0.8905,-6.11,7.86,-0.08,23.36
17119,0.2086,-0.0001,0.8867,-6.15,7.82,-0.02,23.38
17129,0.2103,-0.0011,0.8944,-6.31,7.79,-0.09,23.38
17139,0.2108,0.0024,0.8923,-6.2,7.73,-0.08,23.38
17149,0.2107,-0.0017,0.8934,-6.23,7.77,-0.09,23.36
17159,0.2087,0.0018,0.8906,-6.17,7.77,-0.08,23.36
17169,0.2092,-0.001,0.8932,-6.2,7.79,-0.09,23.37
17179,0.2102,0.0,0.892,-6.23,7.74,-0.05,23.38
17189,0.2108,-0.0007,0.8948,-6.14,7.79,0.03,23.37
17199,0.2102,0.0024,0.891,-6.21,7.82,-0.02,23.36
17209,0.2095,0.0002,0.8933,-6.21,7.73,-0.05,23.36
17219,0.2106,-0.0013,0.8879,-6.21,7.77,-0.05,23.36
17229,0.2113,-0.0018,0.8929,-6.15,7.74,0.0,23.35
17239,0.2109,-0.0013,0.8905,-6.18,7.71,0.06,23.37
17249,0.2114,-0.0018,0.8942,-6.18,7.79,-0.08,23.37
17259,0.2124,-0.0005,0.892,-6.27,7.82,-0.03,23.38
17269,0.2091,-0.0018,0.8899,-6.26,7.76,-0.11,23.36
17280,0.2124,-0.0034,0.8901,-6.2,7.74,-0.11,23.38
17290,0.2111,-0.0016,0.8909,-6.17,7.76,-0.05,23.37
17300,0.2135,-0.001,0.8887,-6.26,7.74,-0.05,23.35
17310,0.2126,-0.0013,0.8907,-6.21,7.69,-0.06,23.37
17320,0.2106,-0.0016,0.8873,-6.18,7.77,0.0,23.39
17330,0.2131,-0.0002,0.894,-6.24,7.74,-0.06,23.38
17340,0.2133,-0.0017,0.8893,-6.18,7.65,-0.08,23.36
17350,0.2087,-0.0004,0.896,-6.2,7.71,0.03,23.38
17360,0.2111,0.0001,0.8937,-6.23,7.83,0.0,23.37
17370,0.2103,-0.002,0.894,-6.18,7.74,-0.06,23.35
17380,0.2102,-0.0002,0.8937,-6.23,7.74,-0.05,23.38
17390,0.2113,-0.001,0.8871,-6.24,7.73,-0.03,23.37
17401,0.21,0.0002,0.8892,-6.12,7.76,-0.08,23.38
17411,0.2106,0.0021,0.894,-6.21,7.74,-0.03,23.37
17421,0.208,-0.0007,0.8895,-6.2,7.63,-0.11,23.36
17431,0.2125,-0.0021,0.8922,-6.23,7.8,-0.09,23.37
17441,0.2101,-0.0002,0.8903,-6.21,7.74,-0.08,23.37
17451,0.2106,-0.0004,0.8915,-6.18,7.86,-0.08,23.38
17461,0.2104,-0.0009,0.8915,-6.11,7.76,-0.02,23.37
17471,0.2117,-0.0015,0.8934,-6.15,7.76,-0.06,23.35
17481,0.2098,-0.0012,0.8936,-6.15,7.8,0.02,23.35
17491,0.2103,-0.0017,0.892,-6.26,7.77,-0.09,23.36
17501,0.2104,-0.001,0.8898,-6.24,7.76,-0.09,23.35
17511,0.2114,-0.0005,0.8895,-6.24,7.76,0.03,23.36
17521,0.2086,-0.0031,0.8925,-6.26,7.73,0.02,23.37
17531,0.209,0.0001,0.8889,-6.23,7.82,0.0,23.36
17541,0.2103,0.0011,0.8889,-6.31,7.76,-0.06,23.37
17551,0.2103,-0.0018,0.892,-6.29,7.79,-0.06,23.35
17561,0.2111,-0.0027,0.8914,-6.23,7.74,-0.09,23.36
17571,0.2097,-0.0018,0.8933,-6.15,7.76,-0.03,23.38
17581,0.2103,-0.0031,0.8958,-6.15,7.77,-0.03,23.37
17591,0.2112,-0.0013,0.8918,-6.23,7.76,0.02,23.38
17601,0.2074,-0.001,0.8905,-6.14,7.8,0.02,23.41
17611,0.2098,-0.0021,0.8958,-6.24,7.82,-0.05,23.37
17621,0.2109,-0.0015,0.8907,-6.08,7.71,0.0,23.4
17631,0.2101,0.0033,0.8883,-6.2,7.8,0.0,23.38
17641,0.2092,0.0031,0.8894,-6.23,7.79,-0.11,23.34
17651,0.2128,0.0002,0.8914,-6.18,7.8,0.0,23.37
17661,0.2139,-0.0007,0.8931,-6.15,7.76,-0.05,23.36
17671,0.2101,-0.0038,0.8937,-6.14,7.69,0.05,23.37
17681,0.2067,-0.0018,0.8895,-6.11,7.68,-0.02,23.37
17691,0.2089,0.0022,0.8904,-6.2,7.79,-0.02,23.37
17701,0.2089,0.001,0.8945,-6.26,7.76,-0.03,23.38
17711,0.2081,-0.0026,0.8956,-6.14,7.77,-0.05,23.36
17721,0.2103,-0.0009,0.8942,-6.14,7.69,-0.03,23.36
17731,0.2108,-0.004,0.8928,-6.23,7.74,-0.03,23.38
17741,0.2117,-0.0007,0.8958,-6.15,7.71,-0.12,23.37
17751,0.212,0.0007,0.8905,-6.14,7.79,-0.05,23.4
17761,0.2102,-0.0002,0.8916,-6.15,7.77,-0.08,23.39
17771,0.2114,-0.0009,0.8933,-6.08,7.74,0.02,23.38
17781,0.2109,-0.0033,0.8892,-6.23,7.76,-0.08,23.37
17791,0.2135,-0.0024,0.894,-6.29,7.73,-0.09,23.38
17801,0.2102,-0.0034,0.891,-6.12,7.69,-0.08,23.39
17811,0.2108,-0.0026,0.8927,-6.23,7.73,-0.08,23.37
17821,0.2112,-0.0029,0.892,-6.14,7.74,-0.05,23.37
17831,0.2112,-0.0012,0.8923,-6.23,7.77,0.0,23.37
17841,0.2109,-0.0016,0.8901,-6.12,7.73,-0.08,23.38
17851,0.2097,-0.002,0.891,-6.18,7.66,-0.09,23.39
17861,0.2084,-0.0029,0.8911,-6.2,7.66,-0.08,23.4
17871,0.2068,-0.0005,0.8904,-6.2,7.79,-0.08,23.39
17881,0.2131,-0.0018,0.8889,-6.27,7.79,-0.08,23.38
17891,0.2129,-0.001,0.8962,-6.18,7.68,-0.02,23.37
17901,0.2091,-0.0001,0.8937,-6.17,7.79,-0.08,23.38
17911,0.2111,0.0013,0.8905,-6.2,7.8,-0.18,23.38
17921,0.2103,0.002,0.8937,-6.27,7.82,-0.03,23.36
17931,0.2098,-0.0021,0.8903,-6.23,7.79,-0.03,23.38
17941,0.2112,0.0011,0.8962,-6.14,7.73,-0.08,23.39
17951,0.2091,0.0035,0.891,-6.17,7.73,0.03,23.39
17961,0.209,0.0021,0.8888,-6.12,7.71,0.05,23.37
17971,0.2124,0.0028,0.8925,-6.23,7.77,0.0,23.39
17981,0.213,0.0007,0.8905,-6.2,7.69,0.0,23.37
17991,0.2103,0.0013,0.8904,-6.21,7.77,0.02,23.38
18001,0.21,-0.0018,0.8936,-6.18,7.69,-0.05,23.39
18011,0.2084,-0.0037,0.8898,-6.24,7.77,-0.09,23.38
18021,0.2115,-0.0038,0.8857,-6.14,7.69,-0.09,23.37
18031,0.2115,-0.0016,0.8882,-6.17,7.76,-0.05,23.37
18041,0.212,-0.0012,0.8892,-6.15,7.8,-0.03,23.38
18051,0.2097,-0.0023,0.8916,-6.26,7.74,-0.08,23.39
18061,0.2106,-0.0011,0.8911,-6.21,7.79,0.02,23.4
18071,0.2102,-0.0032,0.89,-6.15,7.74,-0.05,23.37
18081,0.2114,-0.0028,0.8927,-6.23,7.77,-0.03,23.33
18091,0.2102,-0.0009,0.8948,-6.26,7.77,-0.09,23.41
18101,0.2101,-0.0013,0.891,-6.27,7.76,0.0,23.4
18111,0.2126,-0.0018,0.8927,-6.15,7.74,-0.03,23.4
18121,0.2117,-0.0013,0.8921,-6.18,7.83,-0.05,23.37
18131,0.2084,0.0004,0.8884,-6.09,7.69,0.0,23.4
18141,0.2097,-0.0027,0.8912,-6.12,7.73,-0.03,23.37
18151,0.2108,-0.0007,0.8896,-6.21,7.66,-0.09,23.38
18162,0.208,0.0017,0.889,-6.24,7.69,-0.08,23.4
18172,0.2109,-0.0012,0.8906,-6.2,7.74,-0.03,23.41
18182,0.2103,0.0013,0.8901,-6.2,7.69,-0.09,23.4
18192,0.2107,0.0028,0.8907,-6.15,7.77,-0.12,23.37
18202,0.2114,-0.0002,0.8915,-6.2,7.73,0.0,23.36
18212,0.2118,0.0002,0.8938,-6.23,7.79,-0.03,23.41
18222,0.2124,0.0013,0.897,-6.14,7.77,-0.03,23.39
18232,0.2113,-0.0021,0.8947,-6.15,7.77,0.0,23.37
18242,0.2072,-0.0007,0.8926,-6.23,7.88,-0.03,23.38
18252,0.2111,0.0012,0.8912,-6.15,7.71,-0.03,23.37
18262,0.2101,0.0013,0.8922,-6.18,7.74,-0.08,23.36
18272,0.2112,-0.0028,0.8942,-6.11,7.77,-0.02,23.39
