t_ms,accel_x_g,accel_y_g,accel_z_g,gyro_x_dps,gyro_y_dps,gyro_z_dps,imu_temp_c
3270,0.2644,-0.025,0.8787,-5.92,7.89,-0.08,19.39
3282,0.2623,-0.0236,0.8705,-5.89,7.73,-0.03,19.41
3292,0.2639,-0.025,0.8789,-5.88,7.62,-0.05,19.39
3302,0.2682,-0.025,0.8773,-5.92,7.74,0.02,19.41
3312,0.26,-0.0187,0.8694,-5.91,7.53,-0.08,19.4
3322,0.2625,-0.0145,0.8817,-5.91,7.66,-0.09,19.4
3332,0.2567,-0.0188,0.8766,-5.94,7.74,-0.03,19.42
3342,0.2588,-0.0221,0.8767,-6.03,7.57,-0.02,19.37
3352,0.2594,-0.0275,0.8763,-6.02,7.76,-0.05,19.41
3362,0.2589,-0.0264,0.8729,-6.0,7.5,-0.03,19.39
3372,0.2604,-0.0291,0.8839,-6.06,7.71,-0.05,19.39
3382,0.2578,-0.0303,0.8739,-5.94,7.74,-0.11,19.37
3392,0.2612,-0.0292,0.8751,-5.95,7.51,0.0,19.41
3402,0.2626,-0.0292,0.8776,-5.86,7.76,0.03,19.39
3412,0.262,-0.0248,0.8685,-5.88,7.65,-0.02,19.4
3422,0.2637,-0.0226,0.8787,-5.92,7.6,0.0,19.4
3432,0.2623,-0.0187,0.8766,-5.98,7.69,0.0,19.4
3442,0.261,-0.0168,0.875,-5.95,7.65,-0.03,19.38
3452,0.2633,-0.0205,0.8749,-6.03,7.69,-0.05,19.38
3462,0.2606,-0.0231,0.8761,-6.09,7.62,-0.02,19.39
3472,0.2646,-0.0221,0.8695,-6.06,7.63,-0.02,19.38
3482,0.2644,-0.0269,0.8651,-6.08,7.73,-0.03,19.41
3492,0.2653,-0.0259,0.8601,-6.14,7.71,0.0,19.4
3502,0.2628,-0.0251,0.863,-6.05,7.69,-0.06,19.4
3512,0.2639,-0.0239,0.8623,-6.12,7.73,-0.08,19.41
3522,0.2644,-0.0233,0.8665,-6.14,7.69,-0.08,19.42
3532,0.2628,-0.0245,0.864,-6.15,7.79,-0.03,19.41
3542,0.2589,-0.0265,0.8695,-6.09,7.73,-0.08,19.39
3552,0.2598,-0.0231,0.8716,-5.98,7.77,-0.06,19.41
3562,0.2592,-0.0251,0.8699,-6.0,7.69,-0.09,19.41
3572,0.2594,-0.025,0.8745,-6.0,7.69,-0.08,19.4
3582,0.2595,-0.0242,0.8767,-6.0,7.73,-0.02,19.42
3592,0.2568,-0.0236,0.8788,-6.02,7.76,-0.14,19.41
3602,0.2609,-0.0283,0.8811,-5.94,7.79,-0.05,19.4
3612,0.2614,-0.0283,0.8768,-5.95,7.82,-0.15,19.41
3622,0.264,-0.0299,0.8777,-5.92,7.82,-0.12,19.42
3632,0.262,-0.0306,0.877,-5.85,7.69,-0.12,19.42
3642,0.2645,-0.0292,0.8783,-5.85,7.73,-0.09,19.42
3652,0.2607,-0.0287,0.8761,-5.88,7.83,0.0,19.44
3662,0.2618,-0.028,0.8754,-5.83,7.71,-0.03,19.43
3672,0.2632,-0.0247,0.8798,-5.86,7.89,-0.05,19.41
3682,0.2598,-0.0225,0.873,-5.88,7.8,-0.02,19.41
3692,0.2622,-0.0227,0.8834,-5.91,7.79,-0.08,19.41
3702,0.262,-0.0205,0.8746,-6.05,7.8,-0.05,19.41
3712,0.2637,-0.02,0.8757,-5.98,7.76,-0.03,19.42
3722,0.2668,-0.0222,0.8809,-6.06,7.74,-0.09,19.44
3732,0.2587,-0.0221,0.8751,-6.06,7.76,-0.02,19.41
3742,0.2654,-0.0225,0.8734,-6.11,7.74,-0.17,19.42
3752,0.2642,-0.0251,0.8689,-6.09,7.66,-0.05,19.43
3762,0.2612,-0.0302,0.8685,-5.98,7.68,0.02,19.41
3772,0.2623,-0.0267,0.8717,-5.94,7.76,-0.06,19.4
3782,0.2585,-0.0277,0.8649,-5.92,7.65,-0.03,19.41
3792,0.2605,-0.025,0.8728,-5.94,7.65,0.05,19.39
3802,0.2627,-0.021,0.8751,-5.97,7.74,-0.03,19.4
3812,0.2578,-0.0223,0.8734,-5.95,7.65,0.02,19.43
3822,0.2615,-0.0204,0.8732,-5.91,7.69,0.02,19.4
3832,0.2606,-0.0212,0.8698,-6.0,7.66,0.03,19.41
3842,0.2615,-0.0197,0.8732,-6.06,7.57,-0.06,19.41
3852,0.2605,-0.0197,0.8766,-6.09,7.68,-0.06,19.42
3862,0.2628,-0.0238,0.8712,-6.05,7.66,0.0,19.44
3872,0.2614,-0.0259,0.8757,-6.03,7.69,-0.08,19.44
3882,0.2593,-0.0244,0.8674,-6.02,7.62,-0.03,19.42
3892,0.26,-0.0249,0.8735,-5.98,7.69,-0.06,19.43
3902,0.2609,-0.025,0.8698,-5.98,7.71,-0.05,19.43
3912,0.2599,-0.0266,0.874,-6.06,7.66,0.0,19.42
3922,0.2615,-0.0231,0.876,-6.0,7.77,0.0,19.42
3932,0.2618,-0.024,0.8729,-6.0,7.77,-0.09,19.41
3942,0.2633,-0.0233,0.8734,-5.98,7.63,-0.11,19.41
3952,0.2611,-0.0236,0.8719,-6.02,7.65,-0.09,19.43
3962,0.2612,-0.0251,0.8733,-6.05,7.62,-0.06,19.42
3972,0.2626,-0.0233,0.8763,-6.03,7.79,-0.09,19.43
3982,0.2611,-0.0198,0.873,-6.05,7.79,0.02,19.4
3992,0.2634,-0.0217,0.8674,-6.03,7.69,-0.06,19.43
4002,0.2632,-0.0234,0.8734,-6.05,7.68,-0.02,19.42
4012,0.2643,-0.0248,0.8738,-6.02,7.71,-0.08,19.43
4022,0.2644,-0.0242,0.8733,-5.92,7.63,0.0,19.42
4032,0.2633,-0.0248,0.8782,-5.88,7.68,-0.02,19.4
4042,0.2603,-0.0233,0.8766,-5.91,7.73,-0.09,19.44
4052,0.2664,-0.0273,0.8749,-5.97,7.77,-0.03,19.44
4062,0.2645,-0.0284,0.8746,-5.97,7.6,0.0,19.43
4072,0.2643,-0.0264,0.8754,-6.0,7.63,-0.05,19.44
4082,0.2603,-0.0231,0.8766,-5.95,7.74,-0.03,19.43
4092,0.2639,-0.0232,0.8746,-6.03,7.79,-0.08,19.41
4102,0.2645,-0.0232,0.8713,-6.11,7.77,-0.06,19.44
4112,0.2628,-0.0254,0.8696,-6.14,7.73,0.0,19.43
4122,0.2625,-0.0236,0.8713,-6.06,7.74,0.05,19.43
4132,0.2654,-0.0223,0.8721,-6.15,7.6,-0.03,19.45
4142,0.2611,-0.0226,0.8788,-5.98,7.63,-0.03,19.44
4152,0.2618,-0.0245,0.8756,-6.05,7.82,-0.09,19.45
4162,0.2643,-0.0247,0.8711,-6.03,7.74,-0.09,19.46
4172,0.2637,-0.0264,0.8727,-6.02,7.63,-0.06,19.44
4182,0.2546,-0.0271,0.8761,-5.97,7.73,-0.08,19.45
4192,0.256,-0.0256,0.8739,-5.98,7.77,-0.12,19.44
4202,0.2579,-0.0247,0.8777,-5.98,7.76,-0.02,19.45
4212,0.2623,-0.0266,0.8748,-5.98,7.69,-0.06,19.47
4222,0.262,-0.0272,0.8738,-5.95,7.74,-0.03,19.44
4232,0.2612,-0.0272,0.8745,-5.97,7.68,-0.08,19.44
4242,0.2638,-0.0266,0.8727,-5.92,7.68,-0.06,19.45
4252,0.2638,-0.0255,0.8743,-5.94,7.76,-0.09,19.46
4262,0.2616,-0.0269,0.8724,-5.94,7.85,-0.05,19.44
4272,0.2642,-0.0251,0.8678,-5.88,7.69,0.08,19.47
4282,0.2614,-0.025,0.8691,-5.88,7.68,-0.06,19.43
4292,0.2596,-0.0242,0.8721,-5.88,7.74,-0.11,19.45
4302,0.2571,-0.0259,0.8743,-5.92,7.79,-0.02,19.45
4312,0.2604,-0.0217,0.8735,-5.91,7.74,-0.12,19.47
4322,0.2666,-0.0197,0.8724,-5.98,7.73,-0.05,19.43
4332,0.2629,-0.0227,0.8754,-6.03,7.69,-0.05,19.44
4342,0.2614,-0.0208,0.8693,-6.03,7.76,-0.06,19.45
4352,0.2628,-0.0219,0.8706,-6.03,7.66,-0.09,19.42
4362,0.2605,-0.0221,0.8767,-6.05,7.76,-0.03,19.44
4372,0.2651,-0.0243,0.8749,-6.08,7.8,-0.05,19.43
4382,0.266,-0.0221,0.8759,-6.0,7.68,-0.02,19.46
4392,0.2594,-0.0228,0.8761,-5.98,7.76,0.02,19.46
4402,0.2606,-0.0229,0.8811,-5.91,7.79,0.03,19.44
4412,0.2621,-0.0175,0.8826,-5.95,7.8,0.05,19.44
4422,0.2622,-0.0195,0.8839,-6.0,7.74,0.0,19.47
4432,0.2632,-0.0212,0.8776,-6.03,7.76,0.0,19.47
4442,0.2611,-0.0199,0.8739,-5.98,7.73,-0.02,19.45
4452,0.2656,-0.0198,0.8763,-6.02,7.76,-0.06,19.47
4462,0.2637,-0.0248,0.8739,-6.15,7.69,0.06,19.44
4472,0.2595,-0.0248,0.8745,-6.06,7.68,-0.03,19.49
4482,0.264,-0.0232,0.8712,-6.0,7.76,-0.09,19.45
4492,0.2626,-0.0251,0.8755,-6.05,7.53,0.0,19.44
4502,0.2621,-0.0244,0.8739,-6.02,7.56,-0.02,19.43
4512,0.2607,-0.0233,0.8837,-6.03,7.66,-0.05,19.44
4522,0.2605,-0.0242,0.8719,-6.06,7.69,-0.09,19.46
4532,0.2576,-0.0277,0.8738,-6.02,7.65,-0.08,19.47
4542,0.2577,-0.0266,0.866,-6.06,7.62,-0.15,19.45
4553,0.261,-0.0289,0.8706,-5.97,7.62,0.26,19.45
4563,0.267,-0.0269,0.8605,-6.03,7.45,-0.05,19.48
4573,0.2635,-0.0231,0.8704,-5.94,7.53,-0.09,19.47
4583,0.2642,-0.0231,0.8713,-5.97,7.63,-0.09,19.47
4593,0.262,-0.0247,0.8711,-5.94,7.79,-0.02,19.45
4603,0.2626,-0.0234,0.8723,-5.91,7.77,-0.09,19.47
4613,0.2666,-0.0261,0.8677,-5.98,7.68,-0.09,19.44
4623,0.266,-0.0303,0.8702,-6.02,7.63,-0.06,19.48
4633,0.2611,-0.0266,0.8695,-6.06,7.63,-0.05,19.46
4643,0.2584,-0.0238,0.8729,-5.92,7.76,-0.18,19.48
4653,0.2612,-0.0249,0.875,-6.0,7.71,-0.06,19.49
4663,0.2628,-0.0243,0.8704,-6.03,7.69,0.0,19.45
4673,0.2634,-0.0264,0.8735,-5.94,7.66,0.0,19.45
4683,0.2628,-0.0258,0.8738,-6.0,7.73,-0.08,19.45
4693,0.2645,-0.0281,0.8787,-6.0,7.68,-0.09,19.47
4703,0.2657,-0.0251,0.8794,-6.02,7.68,-0.03,19.46
4713,0.2639,-0.0273,0.8806,-6.02,7.76,-0.03,19.47
4723,0.2665,-0.0259,0.8783,-6.0,7.71,0.06,19.47
4733,0.2629,-0.026,0.8784,-6.06,7.69,-0.02,19.47
4743,0.2627,-0.0247,0.8787,-5.91,7.8,0.0,19.46
4753,0.2629,-0.0247,0.8776,-5.91,7.79,0.03,19.47
4763,0.2639,-0.0265,0.8738,-5.94,7.77,-0.08,19.47
4773,0.2837,-0.033,0.9049,-6.02,8.15,-0.06,19.45
4783,0.2469,-0.0243,0.8488,-5.91,7.47,0.15,19.46
4793,0.2542,-0.0084,0.8766,-6.06,7.98,0.06,19.46
4803,0.2363,-0.0162,0.8282,-6.03,8.11,-0.06,19.46
4813,0.2644,-0.0208,0.8831,-5.97,6.93,0.03,19.46
4823,0.2817,-0.0247,0.9049,-6.09,8.35,-0.12,19.46
4833,0.2662,-0.0265,0.8531,-5.91,7.59,-0.05,19.48
4843,0.2743,-0.0262,0.8943,-5.92,7.48,0.05,19.49
4853,0.2627,-0.0275,0.8788,-6.0,8.4,-0.11,19.45
4863,0.2531,-0.0183,0.8519,-6.12,7.62,-0.02,19.43
4873,0.2673,-0.0232,0.8807,-6.14,7.69,-0.05,19.49
4883,0.2585,-0.025,0.8655,-6.02,7.98,0.0,19.48
4893,0.2604,-0.0231,0.8682,-5.8,7.47,0.05,19.46
4903,0.2664,-0.0187,0.8906,-5.85,7.79,0.0,19.46
4913,0.2611,-0.025,0.8828,-5.85,7.91,-0.05,19.47
4923,0.2599,-0.0242,0.8777,-5.83,7.71,-0.05,19.47
4933,0.2618,-0.0234,0.8755,-5.97,7.74,-0.09,19.46
4943,0.2612,-0.0259,0.8754,-6.05,7.73,-0.02,19.48
4953,0.2606,-0.0265,0.8744,-6.0,7.76,-0.05,19.49
4963,0.2589,-0.0209,0.8711,-5.95,7.69,-0.09,19.49
4973,0.2611,-0.0226,0.8779,-5.86,7.76,-0.06,19.49
4983,0.2606,-0.0249,0.8719,-5.86,7.71,-0.05,19.48
4993,0.2573,-0.0219,0.8708,-5.82,7.74,0.02,19.47
5003,0.259,-0.0231,0.877,-6.03,7.77,0.03,19.46
5013,0.2609,-0.0267,0.8695,-6.09,7.73,0.0,19.49
5023,0.2609,-0.0239,0.873,-6.03,7.63,-0.06,19.48
5033,0.261,-0.0228,0.8722,-6.08,7.71,-0.02,19.49
5043,0.2667,-0.0284,0.8722,-6.02,7.73,0.05,19.48
5053,0.2649,-0.0248,0.8744,-6.0,7.63,0.05,19.49
5063,0.2627,-0.026,0.8816,-6.06,7.79,-0.06,19.49
5073,0.2544,-0.0227,0.8682,-6.02,7.88,0.12,19.49
5083,0.2505,-0.026,0.8586,-6.12,7.62,-0.02,19.48
5093,0.2628,-0.024,0.8706,-6.08,7.57,-0.11,19.48
5103,0.2616,-0.0259,0.8695,-6.06,7.66,-0.06,19.48
5113,0.2656,-0.0271,0.8744,-6.0,7.51,-0.02,19.48
5123,0.2654,-0.0289,0.8795,-5.86,7.6,-0.06,19.46
5133,0.2645,-0.0311,0.877,-5.91,7.73,-0.06,19.47
5143,0.2645,-0.03,0.8789,-5.97,7.66,-0.02,19.47
5153,0.2677,-0.0266,0.8789,-6.02,7.66,-0.06,19.49
5163,0.2607,-0.0225,0.8728,-6.02,7.69,0.03,19.47
5173,0.2618,-0.0229,0.8749,-5.91,7.77,0.0,19.48
5183,0.2617,-0.0219,0.8715,-6.0,7.73,0.0,19.47
5193,0.2617,-0.0253,0.8727,-5.94,7.77,-0.05,19.48
5203,0.2607,-0.026,0.8727,-5.91,7.63,-0.15,19.47
5213,0.2616,-0.0297,0.8719,-5.79,7.69,-0.06,19.47
5223,0.2649,-0.0265,0.8708,-5.88,7.68,-0.09,19.47
5233,0.2622,-0.0286,0.8751,-5.94,7.62,-0.12,19.49
5243,0.2615,-0.0273,0.8792,-5.94,7.63,-0.05,19.47
5253,0.2639,-0.026,0.8717,-5.92,7.71,-0.03,19.46
5263,0.2637,-0.0208,0.8745,-5.95,7.74,-0.02,19.48
5273,0.2612,-0.0215,0.8756,-5.85,7.79,-0.11,19.48
5283,0.2632,-0.0188,0.876,-5.91,7.83,-0.05,19.47
5293,0.257,-0.0219,0.8688,-6.05,7.8,-0.08,19.48
5303,0.2598,-0.0239,0.871,-6.0,7.6,-0.02,19.45
5313,0.2612,-0.0239,0.8739,-6.03,7.91,0.0,19.47
5323,0.259,-0.0204,0.8555,-6.05,7.77,-0.03,19.48
5333,0.2646,-0.0212,0.8689,-5.97,7.8,0.05,19.48
5343,0.26,-0.0254,0.8595,-5.85,7.98,-0.09,19.49
5353,0.2628,-0.0209,0.8678,-5.94,7.73,-0.03,19.48
5363,0.2686,-0.0269,0.871,-6.0,7.79,0.03,19.47
5373,0.2612,-0.0253,0.8666,-6.17,7.94,0.0,19.47
5383,0.2585,-0.0216,0.8647,-6.17,7.92,-0.03,19.47
5393,0.2566,-0.0236,0.8701,-6.26,7.95,-0.09,19.48
5403,0.2563,-0.0228,0.8656,-6.21,8.05,-0.03,19.49
5413,0.2618,-0.0232,0.865,-6.05,7.8,-0.14,19.49
5423,0.2655,-0.0222,0.8788,-5.91,7.91,-0.09,19.5
5433,0.2673,-0.0245,0.8857,-5.86,7.85,-0.12,19.47
5443,0.2742,-0.0227,0.8907,-5.77,7.77,-0.11,19.5
5453,0.275,-0.0214,0.8965,-5.79,7.77,-0.12,19.49
5463,0.269,-0.0229,0.9003,-5.85,7.91,-0.06,19.46
5473,0.2697,-0.0209,0.8939,-5.92,7.91,-0.08,19.48
5483,0.2633,-0.0259,0.8918,-5.91,7.86,-0.03,19.48
5493,0.2609,-0.0205,0.8818,-6.0,7.94,-0.09,19.49
5503,0.2562,-0.0267,0.8777,-5.92,7.83,-0.14,19.48
5513,0.2616,-0.0251,0.876,-6.02,7.66,-0.15,19.49
5523,0.259,-0.0311,0.8723,-6.09,7.69,-0.12,19.48
5533,0.2584,-0.0349,0.8802,-6.02,7.71,-0.11,19.46
5543,0.2595,-0.0353,0.8734,-6.03,7.73,-0.05,19.49
5553,0.2587,-0.0319,0.8711,-5.95,7.71,-0.09,19.46
5563,0.2544,-0.0266,0.868,-5.91,7.66,-0.12,19.49
5573,0.2524,-0.0236,0.8688,-5.92,7.59,0.0,19.48
5583,0.255,-0.0228,0.8713,-5.83,7.57,-0.14,19.48
5593,0.2534,-0.021,0.8704,-5.83,7.57,-0.05,19.49
5603,0.2528,-0.0231,0.8698,-5.92,7.47,-0.02,19.49
5613,0.2584,-0.022,0.8677,-5.92,7.6,-0.03,19.48
5623,0.2593,-0.0237,0.8621,-6.05,7.57,-0.08,19.47
5633,0.2623,-0.0251,0.8601,-6.12,7.54,-0.02,19.49
5643,0.2648,-0.0288,0.8639,-6.05,7.6,-0.06,19.49
5653,0.2675,-0.0272,0.8624,-6.08,7.56,0.02,19.49
5663,0.2655,-0.026,0.864,-6.11,7.54,0.0,19.48
5673,0.2662,-0.0276,0.8671,-6.08,7.53,0.05,19.5
5683,0.2659,-0.0234,0.8658,-6.06,7.6,0.02,19.46
5693,0.2646,-0.0216,0.8646,-6.12,7.63,0.06,19.46
5703,0.2649,-0.0189,0.8668,-6.23,7.69,-0.02,19.47
5713,0.2629,-0.0131,0.8661,-6.26,7.74,-0.11,19.49
5723,0.2648,-0.0082,0.8723,-6.41,7.74,-0.06,19.49
5733,0.271,0.0056,0.8727,-6.89,7.66,-0.03,19.47
5743,0.255,-0.0062,0.8524,-7.01,7.94,0.03,19.48
5753,0.246,-0.0479,0.8523,-6.49,7.85,0.03,19.49
5763,0.2544,-0.0448,0.8579,-6.09,7.6,-0.09,19.49
5773,0.2642,-0.0255,0.8896,-5.83,7.54,-0.02,19.5
5783,0.2649,-0.0465,0.8978,-5.71,7.66,0.06,19.49
5793,0.2623,-0.0366,0.9041,-5.8,7.74,-0.06,19.49
5803,0.2646,-0.0215,0.9027,-6.06,7.83,-0.08,19.49
5813,0.2599,-0.0138,0.8889,-6.32,7.88,-0.08,19.52
5823,0.2517,-0.0134,0.8778,-6.29,7.88,-0.08,19.48
5833,0.2581,-0.0056,0.8745,-6.2,7.86,-0.21,19.49
5843,0.2589,-0.0089,0.8744,-6.15,7.74,-0.17,19.48
5853,0.2627,-0.0251,0.8788,-5.91,7.65,-0.17,19.47
5863,0.2668,-0.0286,0.8845,-5.97,7.73,-0.08,19.48
5873,0.2678,-0.028,0.8868,-5.91,7.69,-0.05,19.49
5883,0.2665,-0.036,0.8815,-6.02,7.92,-0.05,19.47
5893,0.2638,-0.0245,0.8782,-6.09,7.8,-0.03,19.47
5903,0.2668,-0.02,0.8732,-6.14,7.92,0.03,19.49
5913,0.2606,-0.0194,0.8685,-6.2,7.77,-0.05,19.48
5923,0.2638,-0.02,0.8762,-6.12,7.79,-0.09,19.47
5933,0.2633,-0.0211,0.871,-6.12,7.83,-0.11,19.47
5943,0.2676,-0.0271,0.8774,-6.11,7.79,-0.09,19.47
5953,0.2668,-0.0347,0.8719,-6.14,7.82,-0.08,19.49
5963,0.2589,-0.033,0.8655,-6.12,7.8,-0.09,19.51
5973,0.2588,-0.0255,0.8608,-6.17,7.77,0.0,19.51
5983,0.2593,-0.0288,0.8591,-6.21,7.85,-0.02,19.49
5993,0.2567,-0.0217,0.8589,-6.08,7.79,0.02,19.49
6003,0.2621,-0.016,0.8679,-6.18,7.79,-0.02,19.5
6013,0.2614,-0.016,0.8744,-6.09,7.73,-0.06,19.48
6023,0.262,-0.0266,0.871,-6.2,7.71,-0.08,19.51
6033,0.2623,-0.0275,0.8683,-6.18,7.68,-0.09,19.5
6043,0.2611,-0.0341,0.8698,-6.08,7.71,-0.08,19.51
6053,0.2606,-0.0374,0.8665,-6.06,7.73,-0.14,19.49
6063,0.2627,-0.0359,0.8656,-6.06,7.74,0.02,19.5
6073,0.2635,-0.0333,0.8657,-6.05,7.59,0.02,19.51
6083,0.2616,-0.0303,0.8702,-5.89,7.68,0.0,19.49
6093,0.2622,-0.0287,0.8744,-5.91,7.88,0.0,19.47
6103,0.2589,-0.0243,0.8668,-5.94,7.63,0.0,19.5
6113,0.2615,-0.0308,0.8627,-5.8,7.6,-0.03,19.5
6123,0.2583,-0.0175,0.8842,-5.94,7.63,-0.09,19.48
6133,0.2581,-0.0098,0.8751,-6.09,7.39,-0.06,19.52
6143,0.2572,-0.0199,0.8857,-6.14,7.69,-0.03,19.52
6153,0.2565,-0.0264,0.8823,-6.15,7.94,-0.03,19.51
6163,0.2585,-0.0271,0.8792,-6.17,7.66,0.02,19.5
6174,0.2642,-0.0255,0.8834,-6.15,7.79,-0.08,19.52
6184,0.2585,-0.0212,0.8694,-6.12,7.73,0.05,19.52
6194,0.2585,-0.0265,0.8683,-5.97,7.59,-0.06,19.53
6204,0.2606,-0.0278,0.8767,-5.95,7.6,0.0,19.54
6214,0.2562,-0.028,0.8701,-5.95,7.63,-0.08,19.5
6224,0.2578,-0.0272,0.887,-5.86,7.66,0.0,19.52
6235,0.2639,-0.025,0.894,-5.98,7.66,-0.02,19.51
6245,0.2645,-0.032,0.8826,-5.97,7.53,-0.06,19.53
6255,0.2668,-0.0255,0.8965,-5.82,7.6,0.0,19.5
6265,0.2676,-0.022,0.8842,-5.89,7.74,-0.05,19.51
6275,0.264,-0.0216,0.8795,-5.89,7.56,-0.02,19.52
6285,0.264,-0.0225,0.88,-6.0,7.69,-0.05,19.5
6295,0.2625,-0.0228,0.8701,-6.0,7.77,-0.02,19.54
6305,0.2625,-0.0219,0.8655,-6.0,7.66,-0.09,19.52
6315,0.2682,-0.022,0.873,-6.06,7.65,-0.05,19.53
6325,0.2643,-0.0236,0.87,-6.18,7.71,-0.11,19.52
6335,0.2653,-0.0214,0.8668,-6.05,7.65,-0.08,19.53
6345,0.2588,-0.0194,0.866,-6.14,7.59,0.03,19.51
6355,0.2578,-0.0226,0.8624,-6.05,7.71,-0.03,19.53
6365,0.2562,-0.0225,0.8615,-6.06,7.62,-0.11,19.54
6375,0.2577,-0.0269,0.8634,-6.03,7.65,-0.06,19.53
6385,0.2588,-0.0242,0.8645,-6.11,7.63,-0.06,19.53
6395,0.2603,-0.0245,0.8656,-6.05,7.6,-0.03,19.5
6405,0.2542,-0.026,0.8669,-6.03,7.69,-0.03,19.52
6415,0.2566,-0.0273,0.8658,-6.09,7.73,-0.09,19.5
6425,0.2595,-0.027,0.871,-6.15,7.66,-0.08,19.51
6435,0.2588,-0.0253,0.873,-6.05,7.74,-0.03,19.53
6450,0.2628,-0.028,0.8719,-6.03,7.76,0.18,19.52
6460,0.2603,-0.032,0.8717,-6.05,7.65,-0.02,19.54
6470,0.2605,-0.0265,0.8793,-6.14,7.77,0.02,19.51
6480,0.2631,-0.031,0.8777,-6.14,7.77,-0.02,19.52
6490,0.2616,-0.0289,0.8766,-5.98,7.74,-0.03,19.52
6500,0.2626,-0.0259,0.8796,-6.0,7.83,0.03,19.53
6510,0.2621,-0.0255,0.871,-5.89,7.69,-0.02,19.52
6520,0.2638,-0.0284,0.8821,-5.92,7.68,0.06,19.54
6530,0.266,-0.0214,0.8859,-5.94,7.77,-0.06,19.54
6540,0.2649,-0.0266,0.8834,-5.85,7.8,-0.06,19.53
6550,0.2678,-0.0294,0.8859,-5.85,7.79,-0.15,19.52
6560,0.2645,-0.0259,0.8838,-5.92,7.86,-0.12,19.51
6570,0.2659,-0.0291,0.8876,-5.85,7.71,-0.05,19.51
6580,0.266,-0.0287,0.8817,-5.98,7.77,-0.12,19.52
6590,0.2627,-0.0298,0.8782,-5.97,7.65,-0.06,19.53
6600,0.2657,-0.03,0.8778,-5.97,7.77,-0.03,19.54
6610,0.2632,-0.0237,0.8745,-5.92,7.68,-0.09,19.53
6620,0.2661,-0.0264,0.8771,-5.89,7.68,-0.14,19.53
6630,0.2616,-0.0255,0.8689,-5.85,7.77,-0.03,19.5
6640,0.2642,-0.0238,0.8729,-5.85,7.62,-0.09,19.52
6650,0.2664,-0.0225,0.8732,-5.83,7.71,-0.03,19.52
6660,0.2653,-0.0228,0.8654,-5.92,7.65,-0.02,19.5
6670,0.2606,-0.0214,0.8608,-5.94,7.68,-0.12,19.51
6680,0.2559,-0.0267,0.8713,-5.94,7.69,-0.03,19.52
6690,0.2467,-0.0267,0.8767,-6.0,8.08,0.03,19.54
6700,0.2422,-0.0226,0.8644,-6.0,7.98,-0.06,19.54
6710,0.2573,-0.0269,0.8611,-6.03,7.59,-0.03,19.54
6720,0.2532,-0.0244,0.8672,-6.03,7.59,-0.08,19.52
6730,0.2572,-0.0222,0.863,-6.09,7.51,-0.09,19.51
6740,0.2494,-0.0219,0.8761,-6.06,7.86,0.06,19.52
6750,0.2584,-0.0209,0.8673,-6.11,7.79,-0.05,19.54
6760,0.2583,-0.0238,0.8639,-6.14,7.56,-0.06,19.51
6770,0.2616,-0.0243,0.8743,-6.11,7.69,0.0,19.54
6780,0.2611,-0.0287,0.8713,-6.15,7.71,-0.05,19.55
6790,0.2655,-0.0304,0.8746,-6.11,7.62,-0.05,19.54
6800,0.2679,-0.0236,0.8793,-6.05,7.66,-0.06,19.54
6810,0.2686,-0.0259,0.8807,-6.08,7.68,0.0,19.51
6820,0.2668,-0.0197,0.8839,-6.03,7.73,0.0,19.54
6830,0.2651,-0.0198,0.8799,-6.14,7.74,-0.03,19.54
6840,0.2626,-0.02,0.8782,-6.09,7.73,-0.05,19.53
6850,0.262,-0.0214,0.8785,-6.17,7.76,-0.05,19.52
6860,0.261,-0.0259,0.879,-6.12,7.77,-0.02,19.53
6870,0.2606,-0.0273,0.8848,-6.08,7.68,-0.02,19.53
6880,0.2599,-0.0282,0.8788,-6.02,7.82,-0.06,19.54
6890,0.2592,-0.0293,0.8823,-6.0,7.71,-0.08,19.52
6900,0.2623,-0.0261,0.8811,-6.02,7.82,-0.06,19.53
6910,0.2618,-0.0265,0.8784,-6.03,7.65,-0.08,19.54
6920,0.2666,-0.025,0.8801,-6.05,7.69,-0.03,19.53
6930,0.265,-0.0238,0.8834,-6.05,7.79,-0.06,19.53
6940,0.2668,-0.0254,0.8804,-6.03,7.71,-0.09,19.51
6950,0.2672,-0.0267,0.8722,-6.09,7.73,-0.11,19.55
6960,0.267,-0.0245,0.8696,-6.03,7.83,-0.15,19.52
6970,0.2645,-0.0227,0.8691,-6.09,7.68,-0.02,19.54
6980,0.2625,-0.0231,0.8645,-6.12,7.77,-0.03,19.54
6990,0.259,-0.0243,0.864,-6.15,7.82,-0.03,19.57
7000,0.2571,-0.0239,0.86,-6.11,7.82,-0.05,19.55
7010,0.2557,-0.0283,0.8572,-6.18,7.86,0.0,19.54
7020,0.256,-0.0275,0.8582,-6.12,7.82,-0.08,19.55
7030,0.2561,-0.03,0.863,-6.18,7.74,-0.09,19.54
7040,0.2559,-0.0315,0.8624,-6.15,7.74,-0.05,19.51
7050,0.2576,-0.0342,0.8658,-6.08,7.73,-0.08,19.53
7060,0.2604,-0.0331,0.8704,-6.05,7.71,-0.11,19.53
7070,0.2631,-0.0321,0.8724,-6.02,7.8,-0.05,19.54
7080,0.26,-0.0288,0.8705,-5.92,7.88,0.0,19.55
7090,0.2614,-0.0276,0.8768,-6.0,7.85,0.03,19.53
7100,0.2598,-0.0231,0.8802,-5.98,7.77,-0.09,19.54
7110,0.2615,-0.0233,0.8761,-6.02,7.77,0.0,19.53
7120,0.2603,-0.0261,0.8828,-5.98,7.83,-0.09,19.54
7130,0.2627,-0.0287,0.8809,-5.83,7.76,-0.11,19.55
7140,0.261,-0.0253,0.8805,-5.83,7.71,-0.08,19.54
7150,0.2637,-0.0336,0.8768,-5.86,7.69,-0.09,19.52
7160,0.2635,-0.0314,0.8738,-5.86,7.71,-0.11,19.54
7170,0.2679,-0.0271,0.8782,-5.83,7.65,-0.08,19.54
7180,0.2656,-0.0287,0.8795,-5.82,7.73,-0.09,19.55
7190,0.2629,-0.0231,0.8771,-5.83,7.71,-0.05,19.52
7200,0.2648,-0.02,0.8795,-5.83,7.68,-0.08,19.55
7210,0.2654,-0.0228,0.8776,-5.89,7.69,-0.11,19.54
7220,0.2649,-0.0243,0.876,-5.91,7.6,-0.09,19.54
7230,0.2635,-0.0238,0.88,-5.91,7.6,-0.09,19.55
7240,0.2622,-0.0264,0.8748,-5.94,7.68,-0.11,19.54
7250,0.2616,-0.0256,0.8726,-5.86,7.68,-0.08,19.54
7260,0.2627,-0.0282,0.8765,-5.97,7.63,-0.12,19.52
7270,0.2656,-0.0265,0.8729,-5.98,7.62,-0.03,19.55
7280,0.2628,-0.0227,0.8708,-5.91,7.68,-0.02,19.53
7290,0.2621,-0.0197,0.8657,-5.97,7.66,-0.06,19.55
7300,0.2576,-0.0186,0.8666,-6.03,7.77,0.03,19.54
7310,0.2573,-0.02,0.8708,-6.06,7.73,0.02,19.56
7320,0.2593,-0.0203,0.8677,-6.05,7.6,-0.02,19.56
7330,0.262,-0.0222,0.8651,-6.05,7.62,-0.09,19.54
7340,0.2596,-0.0244,0.8693,-6.08,7.66,-0.02,19.54
7350,0.2592,-0.0243,0.8711,-6.2,7.68,-0.03,19.55
7360,0.2611,-0.024,0.8744,-6.12,7.65,-0.11,19.52
7370,0.2617,-0.027,0.8738,-6.09,7.69,-0.05,19.54
7380,0.2581,-0.0251,0.8748,-6.11,7.77,-0.02,19.55
7390,0.259,-0.0214,0.8728,-6.14,7.74,-0.11,19.56
7400,0.2601,-0.0261,0.8717,-6.18,7.76,-0.08,19.54
7410,0.2606,-0.0227,0.8776,-6.05,7.77,-0.02,19.55
7420,0.2578,-0.0297,0.873,-6.05,7.74,-0.06,19.55
7430,0.2622,-0.0278,0.8744,-6.11,7.74,-0.08,19.54
7440,0.257,-0.0259,0.8715,-6.0,7.76,-0.03,19.53
7450,0.2606,-0.0276,0.8768,-6.03,7.66,0.03,19.54
7460,0.2606,-0.0256,0.876,-6.02,7.66,-0.14,19.56
7470,0.2606,-0.026,0.8749,-5.98,7.69,-0.11,19.54
7480,0.2607,-0.0255,0.8754,-5.91,7.76,-0.15,19.55
7490,0.2642,-0.0244,0.8804,-5.98,7.73,-0.08,19.54
7500,0.2639,-0.0259,0.8772,-6.0,7.68,-0.14,19.57
7510,0.2646,-0.0238,0.8796,-5.94,7.68,-0.11,19.54
7520,0.2622,-0.0275,0.8752,-5.98,7.73,-0.08,19.54
7530,0.2615,-0.0287,0.874,-5.95,7.73,-0.11,19.56
7540,0.2623,-0.0287,0.8734,-6.0,7.77,-0.09,19.56
7550,0.2632,-0.0265,0.8766,-5.92,7.79,-0.05,19.54
7560,0.2604,-0.025,0.8723,-5.95,7.74,0.02,19.53
7570,0.2623,-0.0258,0.8748,-5.97,7.73,0.02,19.54
7580,0.2622,-0.0255,0.8728,-5.91,7.76,-0.06,19.55
7590,0.261,-0.0253,0.8737,-5.89,7.74,-0.11,19.54
7600,0.2614,-0.0273,0.8763,-6.0,7.74,-0.09,19.56
7610,0.2612,-0.0286,0.8721,-5.95,7.8,-0.02,19.54
7620,0.2654,-0.0278,0.8724,-5.98,7.71,-0.03,19.53
7630,0.2635,-0.0254,0.8754,-5.95,7.71,-0.05,19.54
7640,0.2628,-0.0271,0.8745,-6.08,7.79,-0.02,19.54
7650,0.262,-0.0272,0.8729,-6.0,7.73,-0.02,19.56
7660,0.2593,-0.0291,0.8684,-6.09,7.73,-0.03,19.55
7670,0.2638,-0.027,0.8707,-5.92,7.69,-0.05,19.57
7680,0.2628,-0.0242,0.8741,-5.94,7.73,-0.02,19.54
7690,0.2596,-0.0221,0.8699,-5.97,7.68,0.02,19.56
7700,0.2593,-0.0231,0.8754,-6.08,7.69,0.02,19.54
7710,0.2579,-0.0251,0.8678,-6.08,7.66,0.03,19.56
7720,0.2573,-0.0247,0.8666,-6.03,7.62,-0.08,19.55
7730,0.2601,-0.0273,0.8735,-6.03,7.68,0.0,19.54
7740,0.2598,-0.0277,0.8754,-6.08,7.69,-0.02,19.54
7750,0.2617,-0.0242,0.8751,-6.03,7.63,-0.05,19.55
7760,0.2629,-0.0233,0.877,-5.97,7.69,-0.09,19.57
7770,0.262,-0.0243,0.8741,-5.98,7.69,-0.06,19.55
7780,0.2642,-0.0234,0.8696,-6.02,7.71,-0.08,19.56
7790,0.2628,-0.0221,0.8722,-5.97,7.62,-0.11,19.56
7800,0.2615,-0.0227,0.8776,-5.89,7.62,-0.11,19.56
7810,0.2629,-0.0244,0.876,-6.09,7.71,-0.11,19.57
7820,0.2596,-0.0267,0.8754,-5.92,7.74,-0.12,19.54
7830,0.261,-0.0258,0.8727,-5.91,7.66,-0.14,19.54
7840,0.2606,-0.0248,0.8748,-5.91,7.74,-0.05,19.54
7850,0.2611,-0.0254,0.8729,-5.94,7.69,-0.08,19.56
7860,0.26,-0.0242,0.8777,-5.92,7.74,-0.03,19.57
7870,0.2615,-0.0209,0.8778,-5.95,7.73,0.0,19.56
7880,0.2622,-0.02,0.8737,-5.97,7.82,-0.09,19.53
7890,0.2621,-0.0226,0.8759,-6.0,7.74,-0.05,19.54
7900,0.2646,-0.0223,0.8728,-6.06,7.77,-0.08,19.54
7910,0.2633,-0.0253,0.8777,-6.05,7.66,-0.02,19.55
7920,0.2618,-0.0219,0.8701,-5.89,7.76,-0.03,19.56
7930,0.2629,-0.0244,0.8737,-6.02,7.66,-0.03,19.56
7940,0.2615,-0.0272,0.8752,-6.11,7.66,-0.06,19.56
7950,0.261,-0.0256,0.8771,-5.98,7.79,-0.11,19.55
7960,0.2604,-0.0231,0.8771,-6.11,7.74,-0.03,19.55
7970,0.2599,-0.0236,0.8796,-6.17,7.77,-0.02,19.57
7980,0.261,-0.0212,0.8761,-6.18,7.79,-0.03,19.58
7990,0.2621,-0.0197,0.875,-6.15,7.73,0.02,19.57
8000,0.2618,-0.0229,0.8732,-6.15,7.73,-0.08,19.56
8010,0.2618,-0.028,0.8691,-6.21,7.77,-0.03,19.56
8020,0.2614,-0.0258,0.8746,-6.21,7.73,-0.06,19.57
8030,0.2632,-0.0321,0.8734,-6.05,7.74,-0.06,19.58
8040,0.2607,-0.03,0.8717,-5.92,7.74,-0.06,19.57
8050,0.2599,-0.0283,0.8718,-6.08,7.73,0.02,19.56
8060,0.2629,-0.0273,0.8701,-6.08,7.71,0.0,19.55
8070,0.2633,-0.0271,0.873,-6.05,7.76,0.02,19.57
8080,0.2631,-0.0242,0.8722,-6.08,7.74,0.0,19.57
8090,0.2609,-0.0248,0.8726,-6.05,7.74,-0.06,19.56
8100,0.2606,-0.0256,0.8727,-6.08,7.66,-0.09,19.56
8110,0.26,-0.0275,0.8721,-6.11,7.69,-0.05,19.54
8120,0.26,-0.028,0.8743,-5.98,7.69,-0.11,19.56
8130,0.261,-0.028,0.8796,-6.05,7.69,-0.03,19.57
8140,0.2637,-0.0294,0.8789,-5.98,7.71,-0.05,19.56
8150,0.2629,-0.0267,0.8776,-6.02,7.69,-0.08,19.58
8160,0.2617,-0.0282,0.8757,-5.95,7.73,-0.05,19.54
8170,0.2617,-0.0272,0.8723,-5.92,7.73,-0.08,19.57
8180,0.2592,-0.0269,0.8754,-5.97,7.73,-0.05,19.53
8190,0.2626,-0.0269,0.8738,-5.91,7.71,-0.08,19.56
8200,0.2631,-0.0265,0.875,-5.98,7.73,-0.06,19.56
8210,0.2657,-0.026,0.8739,-6.03,7.74,0.0,19.54
8220,0.2623,-0.0264,0.8743,-6.02,7.68,-0.06,19.56
8230,0.2637,-0.0256,0.8726,-6.06,7.69,-0.08,19.56
8240,0.2644,-0.0256,0.8701,-6.06,7.66,-0.03,19.56
8250,0.26,-0.0254,0.8743,-6.06,7.69,0.03,19.55
8260,0.2621,-0.0223,0.8716,-6.11,7.71,-0.06,19.54
8270,0.2601,-0.0245,0.8755,-6.05,7.63,-0.06,19.55
8280,0.2604,-0.0223,0.8782,-6.06,7.73,-0.06,19.56
8290,0.2594,-0.024,0.8738,-6.05,7.73,-0.08,19.56
8300,0.2585,-0.0266,0.8745,-6.02,7.73,-0.06,19.56
8310,0.2649,-0.0244,0.8722,-6.05,7.69,0.0,19.58
8320,0.2578,-0.022,0.875,-5.92,7.79,-0.03,19.57
8330,0.2592,-0.0276,0.8744,-5.98,7.76,-0.03,19.58
8340,0.2582,-0.0308,0.8705,-5.95,7.77,0.0,19.55
8350,0.2642,-0.0262,0.8761,-6.0,7.62,0.03,19.59
8360,0.2635,-0.0231,0.8704,-6.05,7.69,-0.05,19.57
8370,0.2627,-0.0245,0.8695,-6.02,7.66,0.05,19.57
8380,0.2649,-0.0219,0.8772,-6.0,7.76,-0.02,19.58
8390,0.262,-0.0195,0.8717,-6.08,7.77,-0.03,19.57
8400,0.2594,-0.0175,0.8755,-6.05,7.88,-0.03,19.59
8410,0.259,-0.025,0.8722,-6.08,7.91,-0.05,19.57
8420,0.2616,-0.0236,0.8685,-6.02,7.77,-0.05,19.57
8430,0.2616,-0.0233,0.8734,-6.03,7.74,0.02,19.59
8440,0.2601,-0.0277,0.8739,-6.14,7.76,0.02,19.59
8450,0.2614,-0.0265,0.8711,-6.09,7.83,-0.08,19.57
8460,0.2625,-0.0266,0.8717,-6.06,7.79,-0.08,19.55
8470,0.2604,-0.0259,0.8778,-6.02,7.74,-0.02,19.55
8480,0.262,-0.0261,0.8756,-6.08,7.83,-0.09,19.56
8490,0.2621,-0.0271,0.8745,-6.08,7.76,-0.09,19.55
8500,0.2581,-0.0272,0.8705,-6.05,7.74,-0.06,19.57
8510,0.2637,-0.0244,0.8723,-6.08,7.73,-0.09,19.55
8520,0.2634,-0.0245,0.8718,-6.02,7.69,-0.09,19.56
8530,0.2659,-0.0261,0.8784,-6.09,7.76,-0.05,19.55
8540,0.2631,-0.0265,0.8757,-6.08,7.71,-0.14,19.57
8550,0.265,-0.0276,0.8756,-6.0,7.73,-0.12,19.57
8560,0.2637,-0.0294,0.8749,-5.95,7.68,-0.17,19.57
8570,0.2606,-0.0299,0.8779,-6.02,7.71,-0.08,19.56
8580,0.2617,-0.0305,0.8746,-6.02,7.82,-0.09,19.55
8590,0.2633,-0.0272,0.8729,-5.98,7.73,-0.08,19.58
8600,0.262,-0.0273,0.8743,-6.0,7.73,-0.09,19.56
8610,0.2621,-0.0278,0.8746,-6.0,7.71,-0.06,19.6
8620,0.2633,-0.0284,0.8702,-6.03,7.69,-0.14,19.54
8630,0.2635,-0.0272,0.874,-6.06,7.73,-0.14,19.57
8640,0.2615,-0.0265,0.8761,-6.03,7.69,-0.03,19.59
8650,0.2621,-0.0266,0.8722,-5.98,7.63,-0.06,19.57
8660,0.2612,-0.0254,0.8704,-6.02,7.66,-0.03,19.58
8670,0.2639,-0.025,0.8682,-6.12,7.74,-0.05,19.57
8680,0.2621,-0.024,0.8713,-6.05,7.62,-0.03,19.59
8690,0.2599,-0.0223,0.8723,-6.05,7.65,-0.02,19.57
8700,0.2604,-0.0293,0.8738,-6.08,7.62,-0.11,19.57
8710,0.2605,-0.0277,0.8751,-6.02,7.71,-0.02,19.55
8720,0.261,-0.0264,0.8741,-6.0,7.68,-0.06,19.59
8730,0.2584,-0.03,0.8749,-6.0,7.69,0.0,19.58
8740,0.2612,-0.0286,0.8744,-5.98,7.73,-0.09,19.55
8750,0.261,-0.0292,0.8773,-6.06,7.69,-0.11,19.58
8760,0.2625,-0.0245,0.8783,-5.95,7.74,-0.03,19.61
8770,0.2588,-0.0214,0.8754,-6.14,7.74,-0.03,19.55
8780,0.2598,-0.0229,0.8759,-6.09,7.66,-0.06,19.59
8790,0.2596,-0.0183,0.8756,-6.08,7.82,-0.02,19.58
8800,0.2615,-0.0209,0.8724,-6.05,7.73,0.0,19.57
8810,0.2621,-0.0228,0.8761,-6.08,7.69,-0.14,19.56
8820,0.2629,-0.0232,0.8784,-6.15,7.68,-0.03,19.58
8830,0.2635,-0.0273,0.8777,-6.03,7.73,-0.03,19.59
8840,0.2671,-0.0249,0.8749,-6.11,7.77,-0.09,19.58
8850,0.2646,-0.0236,0.8748,-6.08,7.73,-0.09,19.58
8860,0.2634,-0.0233,0.8734,-6.0,7.83,-0.03,19.58
8870,0.2657,-0.026,0.8755,-6.02,7.71,-0.05,19.59
8880,0.2621,-0.0184,0.8759,-6.08,7.68,-0.11,19.6
8890,0.2618,-0.0206,0.8751,-6.08,7.77,-0.06,19.59
8900,0.2589,-0.0245,0.8737,-6.05,7.69,-0.08,19.59
8910,0.2605,-0.0259,0.8748,-6.15,7.82,-0.14,19.6
8920,0.2604,-0.0278,0.8699,-6.05,7.77,-0.15,19.59
8930,0.2592,-0.0288,0.8743,-5.94,7.71,-0.18,19.59
8940,0.2638,-0.0255,0.8763,-5.98,7.77,-0.05,19.57
8950,0.2646,-0.0291,0.8756,-5.97,7.83,0.02,19.57
8960,0.2634,-0.0265,0.8711,-6.05,7.83,-0.09,19.57
8970,0.2601,-0.0214,0.8737,-5.98,7.76,-0.08,19.59
8980,0.2609,-0.0188,0.8735,-6.12,7.71,-0.08,19.58
8990,0.2599,-0.0233,0.875,-6.09,7.65,0.06,19.56
9000,0.2612,-0.0251,0.8698,-5.97,7.62,-0.09,19.59
9010,0.261,-0.0258,0.874,-6.05,7.73,-0.11,19.58
9020,0.2617,-0.0283,0.8712,-5.97,7.74,-0.05,19.58
9030,0.2631,-0.0328,0.8719,-6.0,7.76,0.02,19.57
9040,0.2651,-0.0339,0.88,-5.95,7.59,0.05,19.57
9050,0.2643,-0.0317,0.8743,-5.98,7.79,0.0,19.57
9060,0.2645,-0.0281,0.8745,-5.92,7.76,-0.02,19.57
9070,0.2616,-0.0302,0.8752,-6.03,7.76,0.05,19.58
9080,0.2609,-0.0256,0.877,-5.86,7.71,-0.05,19.59
9090,0.261,-0.0255,0.8777,-6.0,7.69,-0.12,19.59
9100,0.2617,-0.0281,0.8794,-6.02,7.63,-0.15,19.59
9110,0.2596,-0.0266,0.8728,-6.0,7.76,-0.12,19.56
9120,0.2614,-0.0262,0.8733,-6.02,7.68,0.02,19.59
9130,0.2601,-0.0265,0.8726,-5.94,7.65,-0.09,19.58
9140,0.2631,-0.0266,0.8746,-5.97,7.74,-0.06,19.57
9150,0.2632,-0.026,0.8719,-5.98,7.73,0.02,19.58
9160,0.2611,-0.0211,0.8739,-6.03,7.79,-0.09,19.6
9170,0.2628,-0.0216,0.875,-5.95,7.74,-0.03,19.57
9180,0.2633,-0.0233,0.8733,-5.94,7.73,-0.02,19.58
9190,0.2611,-0.0254,0.874,-5.98,7.73,0.0,19.6
9200,0.2628,-0.0276,0.8713,-6.06,7.82,-0.06,19.59
9210,0.2644,-0.0308,0.8723,-5.98,7.69,-0.06,19.58
9220,0.2631,-0.03,0.8726,-6.05,7.71,-0.15,19.58
9230,0.2603,-0.0289,0.8706,-5.97,7.74,-0.05,19.58
9240,0.2609,-0.0293,0.8734,-5.97,7.76,0.02,19.59
9250,0.259,-0.0259,0.8719,-5.92,7.63,0.02,19.57
9260,0.2594,-0.0237,0.8735,-5.97,7.71,-0.05,19.59
9270,0.2605,-0.0229,0.8812,-5.97,7.76,0.0,19.58
9280,0.2604,-0.0186,0.8755,-6.05,7.69,-0.08,19.57
9290,0.2606,-0.0212,0.8755,-5.97,7.71,-0.09,19.57
9300,0.2598,-0.024,0.8737,-6.02,7.73,-0.05,19.58
9310,0.2612,-0.0278,0.87,-5.95,7.69,-0.09,19.6
9320,0.2632,-0.0239,0.868,-6.02,7.73,-0.05,19.59
9330,0.2637,-0.0239,0.8691,-6.05,7.77,0.0,19.58
9340,0.261,-0.0234,0.8734,-6.0,7.69,-0.03,19.58
9350,0.2618,-0.021,0.8724,-5.97,7.76,0.05,19.57
9360,0.2615,-0.0186,0.8735,-6.08,7.76,0.02,19.59
9370,0.2639,-0.0203,0.8705,-6.09,7.76,-0.02,19.58
9380,0.2606,-0.0216,0.8727,-6.15,7.82,-0.06,19.58
9390,0.2574,-0.0237,0.8704,-6.12,7.79,-0.09,19.59
9400,0.2599,-0.0264,0.8741,-6.14,7.73,-0.05,19.59
9410,0.261,-0.0282,0.8734,-6.15,7.73,0.0,19.59
9420,0.2562,-0.0269,0.8754,-6.23,7.71,-0.05,19.58
9430,0.2616,-0.0258,0.8782,-6.11,7.77,-0.02,19.58
9440,0.2603,-0.0259,0.8749,-6.11,7.8,-0.05,19.57
9450,0.2614,-0.0236,0.8745,-6.06,7.79,-0.06,19.59
9460,0.2618,-0.0261,0.8744,-6.08,7.73,-0.03,19.57
9470,0.2623,-0.0283,0.873,-6.05,7.71,-0.12,19.59
9480,0.2587,-0.0303,0.8723,-6.02,7.79,-0.05,19.59
9490,0.2585,-0.031,0.8754,-6.06,7.74,0.03,19.59
9500,0.257,-0.0265,0.8702,-5.98,7.69,-0.11,19.59
9510,0.2627,-0.03,0.8728,-6.02,7.73,-0.09,19.59
9520,0.2611,-0.0266,0.8712,-6.0,7.74,-0.11,19.58
9530,0.2618,-0.0243,0.8787,-6.03,7.77,-0.09,19.59
9540,0.2639,-0.0247,0.8733,-5.95,7.71,-0.11,19.58
9550,0.2644,-0.0236,0.8737,-5.91,7.63,-0.03,19.59
9560,0.2633,-0.024,0.8712,-6.05,7.66,-0.02,19.6
9570,0.2639,-0.0273,0.8756,-6.05,7.74,-0.14,19.61
9580,0.2603,-0.0264,0.8763,-6.0,7.65,-0.03,19.6
9590,0.2609,-0.026,0.8712,-6.02,7.82,-0.02,19.59
9601,0.262,-0.0265,0.8726,-6.05,7.73,-0.03,19.58
9611,0.2592,-0.0312,0.8719,-5.89,7.74,-0.09,19.59
9621,0.2617,-0.0317,0.8741,-5.89,7.71,-0.11,19.57
9631,0.262,-0.03,0.873,-5.95,7.77,-0.05,19.59
9641,0.2625,-0.0265,0.8787,-6.0,7.71,0.0,19.61
9651,0.2626,-0.0277,0.8781,-6.03,7.69,-0.05,19.6
9661,0.2621,-0.0254,0.876,-6.0,7.71,-0.02,19.59
9671,0.2603,-0.0272,0.8783,-6.05,7.73,-0.03,19.58
9681,0.261,-0.028,0.8708,-5.89,7.77,0.0,19.6
9691,0.2629,-0.0251,0.876,-5.92,7.71,-0.09,19.58
9701,0.2603,-0.0255,0.8754,-5.95,7.69,-0.06,19.6
9711,0.2633,-0.0265,0.8779,-5.94,7.68,-0.03,19.6
9721,0.2649,-0.0256,0.8772,-5.97,7.62,-0.05,19.59
9731,0.2637,-0.0217,0.8759,-5.88,7.56,-0.09,19.6
9741,0.2604,-0.0239,0.8809,-5.94,7.69,-0.02,19.59
9751,0.2596,-0.0201,0.8772,-6.05,7.68,-0.06,19.59
9761,0.2567,-0.0189,0.8788,-6.02,7.79,-0.08,19.59
9771,0.2607,-0.0242,0.8749,-6.02,7.68,-0.05,19.6
9781,0.2621,-0.027,0.8733,-6.02,7.63,-0.03,19.59
9791,0.2594,-0.0256,0.8722,-6.03,7.65,-0.03,19.61
9801,0.259,-0.025,0.8708,-6.02,7.68,-0.05,19.59
9811,0.2583,-0.03,0.8636,-6.0,7.66,-0.08,19.59
9821,0.2579,-0.0266,0.8699,-5.89,7.66,-0.05,19.58
9831,0.2604,-0.0242,0.8671,-5.86,7.73,-0.06,19.6
9841,0.2632,-0.0254,0.8735,-5.88,7.71,-0.03,19.57
9851,0.2643,-0.0244,0.8705,-5.95,7.68,-0.05,19.59
9861,0.2632,-0.0289,0.8719,-5.95,7.65,-0.05,19.6
9871,0.2595,-0.0264,0.8733,-5.89,7.68,-0.05,19.59
9881,0.2592,-0.0264,0.8774,-5.89,7.79,-0.05,19.57
9891,0.2609,-0.0266,0.8789,-5.97,7.74,-0.11,19.57
9901,0.262,-0.0277,0.8763,-6.02,7.71,-0.09,19.59
9911,0.2617,-0.0282,0.8719,-5.92,7.69,-0.09,19.57
9921,0.2629,-0.0258,0.874,-5.94,7.68,-0.06,19.57
9931,0.2675,-0.0264,0.8755,-5.89,7.66,-0.08,19.57
9941,0.2614,-0.0253,0.8768,-5.94,7.65,-0.06,19.58
9951,0.2606,-0.0253,0.8743,-5.95,7.69,-0.11,19.59
9961,0.2625,-0.0229,0.8766,-5.89,7.68,-0.05,19.61
9971,0.2625,-0.0206,0.8694,-5.95,7.73,-0.05,19.59
9981,0.2639,-0.0227,0.8785,-6.08,7.68,-0.06,19.61
9991,0.2637,-0.0223,0.8721,-6.08,7.69,-0.05,19.6
10002,0.266,-0.0242,0.8699,-6.11,7.69,-0.06,19.61
10012,0.2629,-0.0237,0.874,-6.0,7.68,-0.11,19.6
10022,0.2631,-0.0258,0.8774,-6.12,7.74,0.03,19.57
10032,0.2637,-0.026,0.8774,-6.14,7.71,-0.06,19.59
10042,0.2616,-0.0281,0.8728,-6.05,7.79,0.0,19.59
10052,0.2615,-0.0259,0.8766,-6.05,7.77,-0.02,19.57
10062,0.2635,-0.0273,0.8763,-6.03,7.82,0.02,19.59
10072,0.2592,-0.028,0.8719,-6.06,7.71,-0.05,19.57
10082,0.2621,-0.0283,0.871,-6.03,7.74,0.03,19.59
10092,0.2607,-0.0227,0.8705,-6.09,7.79,-0.02,19.6
10102,0.2594,-0.0255,0.8716,-5.94,7.74,-0.03,19.59
10112,0.2606,-0.0282,0.8766,-6.02,7.71,-0.03,19.57
10122,0.2638,-0.0283,0.8723,-5.85,7.71,-0.09,19.59
10132,0.2589,-0.0264,0.8702,-5.89,7.71,-0.05,19.6
10142,0.2622,-0.0269,0.8776,-5.88,7.74,-0.02,19.59
10152,0.2649,-0.0248,0.8776,-5.98,7.74,-0.14,19.59
10162,0.2607,-0.0247,0.8712,-6.0,7.69,0.0,19.6
10172,0.2626,-0.0264,0.8717,-5.94,7.76,0.02,19.59
10182,0.2632,-0.0259,0.8717,-5.97,7.74,0.05,19.58
10192,0.2628,-0.0281,0.8696,-5.95,7.79,0.03,19.58
10202,0.2617,-0.0251,0.8746,-5.91,7.8,-0.05,19.6
10212,0.261,-0.0253,0.8757,-6.0,7.76,0.0,19.62
10222,0.2623,-0.0261,0.87,-5.94,7.79,0.02,19.59
10232,0.2626,-0.0242,0.8718,-6.06,7.76,0.02,19.6
10242,0.2607,-0.0259,0.8732,-6.02,7.71,-0.06,19.59
10252,0.2576,-0.025,0.8744,-5.98,7.71,-0.02,19.61
10262,0.2592,-0.0217,0.8816,-5.95,7.69,-0.05,19.59
10273,0.2595,-0.022,0.877,-5.89,7.71,-0.06,19.58
10283,0.26,-0.0239,0.8822,-5.95,7.65,-0.14,19.59
10293,0.262,-0.0244,0.8824,-6.08,7.69,-0.03,19.6
10303,0.2617,-0.0261,0.8751,-6.0,7.68,-0.09,19.59
10313,0.259,-0.0261,0.8733,-6.08,7.77,-0.08,19.59
10323,0.2601,-0.0276,0.8746,-5.98,7.71,-0.11,19.6
10333,0.2604,-0.0269,0.8729,-6.05,7.73,0.03,19.6
10343,0.26,-0.0261,0.8744,-6.02,7.73,-0.06,19.61
10353,0.2621,-0.0267,0.8774,-6.02,7.8,-0.06,19.6
10363,0.2655,-0.0247,0.8782,-6.05,7.69,-0.11,19.6
10373,0.26,-0.0238,0.871,-6.0,7.73,-0.08,19.61
10383,0.2579,-0.0244,0.8682,-5.98,7.63,-0.08,19.6
10393,0.2566,-0.0238,0.8608,-5.86,7.68,-0.09,19.6
10403,0.2605,-0.0217,0.8654,-5.94,7.71,0.0,19.59
10413,0.2604,-0.0255,0.8729,-5.94,7.69,-0.05,19.58
10423,0.2645,-0.0258,0.8756,-6.0,7.79,-0.06,19.59
10433,0.2656,-0.0265,0.884,-5.98,7.71,-0.09,19.6
10443,0.2719,-0.0305,0.8867,-6.05,7.69,-0.11,19.58
10453,0.2653,-0.0287,0.8792,-6.03,7.73,0.03,19.6
10463,0.2605,-0.0275,0.8633,-6.06,7.71,0.05,19.6
10473,0.2583,-0.0262,0.865,-5.95,7.73,-0.03,19.59
10483,0.2578,-0.0215,0.8669,-5.98,7.65,-0.08,19.58
10493,0.2601,-0.0237,0.8696,-5.91,7.74,-0.03,19.59
10503,0.2593,-0.024,0.8763,-5.92,7.66,-0.12,19.59
10513,0.2644,-0.0236,0.8756,-5.98,7.71,-0.11,19.58
10523,0.2625,-0.0281,0.8727,-6.0,7.66,-0.11,19.58
10533,0.2654,-0.0292,0.8785,-5.98,7.66,-0.08,19.59
10543,0.2638,-0.0308,0.8746,-6.02,7.63,-0.09,19.56
10553,0.266,-0.0316,0.8704,-5.95,7.71,-0.02,19.58
10563,0.2612,-0.0272,0.8729,-5.97,7.71,-0.05,19.57
10573,0.2659,-0.0304,0.8711,-5.88,7.68,-0.08,19.6
10583,0.2643,-0.0256,0.877,-5.91,7.63,-0.02,19.58
10593,0.2659,-0.0232,0.8811,-5.88,7.71,-0.06,19.62
10603,0.2622,-0.0232,0.8759,-5.94,7.83,-0.05,19.62
10613,0.2605,-0.0215,0.8779,-6.02,7.73,0.05,19.59
10623,0.26,-0.0238,0.8713,-5.97,7.74,-0.02,19.6
10633,0.2596,-0.0237,0.869,-5.94,7.73,-0.05,19.6
10643,0.2599,-0.0223,0.8728,-5.94,7.74,0.02,19.61
10653,0.2603,-0.0295,0.8729,-6.0,7.76,0.03,19.6
10663,0.2623,-0.0302,0.8751,-6.02,7.82,-0.03,19.59
10673,0.2606,-0.0288,0.8745,-6.05,7.83,-0.05,19.59
10683,0.2631,-0.0275,0.8751,-6.0,7.83,-0.02,19.6
10693,0.261,-0.0253,0.8695,-5.95,7.8,0.09,19.61
10703,0.26,-0.0249,0.8645,-5.92,7.77,-0.03,19.61
10713,0.2588,-0.0219,0.8684,-5.97,7.71,-0.09,19.63
10723,0.2582,-0.0209,0.8699,-5.94,7.77,-0.02,19.59
10733,0.2603,-0.0225,0.8719,-5.94,7.8,-0.11,19.61
10743,0.2598,-0.0228,0.8788,-5.97,7.74,-0.06,19.62
10753,0.261,-0.025,0.877,-5.89,7.76,-0.09,19.61
10763,0.2607,-0.0266,0.879,-5.95,7.82,-0.05,19.62
10773,0.26,-0.0275,0.8729,-5.98,7.73,-0.05,19.62
10783,0.2579,-0.027,0.8752,-5.92,7.74,-0.02,19.61
10793,0.2578,-0.0265,0.8789,-5.92,7.76,-0.08,19.59
10803,0.2599,-0.0243,0.881,-5.91,7.8,-0.03,19.59
10813,0.2581,-0.0232,0.8817,-5.89,7.82,-0.05,19.6
10823,0.2612,-0.0225,0.8843,-5.98,7.86,-0.05,19.61
10833,0.2635,-0.0232,0.8798,-6.0,7.86,-0.09,19.59
10843,0.2649,-0.0251,0.8798,-6.0,7.73,-0.09,19.6
10853,0.2611,-0.0248,0.8713,-5.98,7.66,-0.08,19.62
10863,0.2601,-0.0245,0.8741,-5.88,7.66,-0.03,19.61
10873,0.2593,-0.0222,0.8729,-6.05,7.76,0.02,19.59
10883,0.2649,-0.0228,0.8717,-5.98,7.74,-0.06,19.6
10893,0.2651,-0.0243,0.8727,-6.0,7.68,-0.08,19.6
10903,0.2635,-0.026,0.8732,-5.92,7.74,-0.05,19.59
10913,0.2606,-0.0271,0.8722,-5.89,7.6,-0.02,19.61
10923,0.2583,-0.028,0.8691,-5.89,7.74,-0.02,19.61
10933,0.2587,-0.0244,0.8672,-6.0,7.62,-0.02,19.6
10943,0.2592,-0.0238,0.8679,-6.05,7.69,-0.05,19.59
10953,0.2585,-0.0259,0.8695,-6.03,7.73,-0.05,19.61
10963,0.2614,-0.0262,0.8716,-5.92,7.65,-0.02,19.62
10973,0.2604,-0.0238,0.8741,-5.97,7.65,-0.05,19.62
10983,0.2637,-0.0287,0.8759,-6.0,7.77,-0.06,19.6
10993,0.2574,-0.0287,0.8739,-6.03,7.76,-0.15,19.62
11003,0.2617,-0.0247,0.8738,-5.95,7.71,-0.05,19.61
11013,0.2637,-0.027,0.8707,-5.95,7.69,0.02,19.63
11023,0.2607,-0.0249,0.87,-5.94,7.73,-0.09,19.61
11033,0.2589,-0.0234,0.8739,-6.0,7.79,-0.03,19.59
11043,0.2627,-0.026,0.8798,-5.92,7.74,-0.06,19.59
11053,0.2631,-0.0249,0.8779,-5.92,7.73,-0.03,19.59
11063,0.2632,-0.0249,0.8788,-5.91,7.73,-0.03,19.61
11073,0.2629,-0.0251,0.8796,-5.86,7.8,-0.08,19.6
11083,0.2644,-0.0255,0.881,-5.97,7.76,-0.08,19.59
11093,0.2659,-0.0233,0.8799,-5.83,7.82,-0.05,19.62
11103,0.2617,-0.0254,0.8743,-5.97,7.73,-0.03,19.61
11113,0.261,-0.0206,0.873,-5.94,7.76,-0.08,19.61
11123,0.2593,-0.0212,0.8784,-5.86,7.8,-0.02,19.58
11133,0.2631,-0.0245,0.8762,-6.02,7.77,-0.06,19.61
11143,0.2633,-0.0271,0.8765,-5.91,7.73,-0.09,19.6
11153,0.2644,-0.0238,0.8704,-5.86,7.69,-0.05,19.61
11163,0.2622,-0.025,0.8756,-6.02,7.74,-0.05,19.61
11173,0.2606,-0.0251,0.8712,-5.91,7.82,-0.09,19.61
11183,0.2585,-0.0237,0.8707,-5.97,7.74,-0.05,19.6
11193,0.2598,-0.0258,0.8689,-5.95,7.68,-0.09,19.61
11203,0.261,-0.022,0.8716,-5.92,7.69,-0.15,19.6
11213,0.2627,-0.0232,0.8761,-6.02,7.71,-0.02,19.59
11223,0.2626,-0.0264,0.8778,-6.02,7.74,-0.05,19.58
11233,0.2618,-0.0262,0.8722,-6.03,7.76,-0.12,19.61
11243,0.2612,-0.0256,0.8743,-6.06,7.66,-0.05,19.61
11253,0.2623,-0.0264,0.8726,-5.97,7.63,-0.08,19.58
11263,0.2592,-0.0267,0.8705,-5.92,7.68,-0.12,19.62
11273,0.2584,-0.0223,0.8712,-5.94,7.65,-0.08,19.57
11283,0.2593,-0.0243,0.8707,-5.97,7.66,0.0,19.62
11293,0.2606,-0.0256,0.8781,-6.02,7.69,-0.08,19.59
11303,0.2621,-0.0242,0.8727,-6.03,7.62,-0.14,19.63
11313,0.2708,-0.0219,0.875,-6.06,7.63,-0.03,19.6
11323,0.2662,-0.026,0.873,-6.03,7.53,0.0,19.62
11333,0.2612,-0.0233,0.8761,-6.05,7.65,-0.03,19.59
11343,0.259,-0.0267,0.8702,-6.03,7.6,-0.12,19.6
11353,0.2596,-0.0219,0.8722,-6.02,7.6,-0.14,19.62
11363,0.2577,-0.0247,0.876,-6.03,7.74,-0.14,19.61
11373,0.2621,-0.0271,0.8768,-5.98,7.74,-0.05,19.61
11383,0.2649,-0.0291,0.877,-6.03,7.62,-0.08,19.6
11393,0.2648,-0.0286,0.8761,-6.08,7.68,-0.12,19.58
11403,0.2645,-0.0234,0.8741,-6.05,7.6,-0.06,19.62
11413,0.2644,-0.0261,0.8784,-6.0,7.66,-0.08,19.63
11423,0.2627,-0.0226,0.876,-6.02,7.74,-0.14,19.62
11433,0.2635,-0.0244,0.8707,-6.02,7.68,0.0,19.59
11443,0.2631,-0.0232,0.8744,-6.0,7.73,0.03,19.62
11453,0.2615,-0.0264,0.8737,-5.92,7.82,-0.14,19.62
11463,0.2612,-0.026,0.8743,-6.05,7.76,-0.09,19.6
11473,0.2642,-0.0287,0.8729,-6.03,7.77,-0.09,19.63
11483,0.2615,-0.0288,0.8717,-5.94,7.82,-0.05,19.6
11493,0.2582,-0.0233,0.8721,-6.0,7.69,-0.05,19.63
11503,0.2609,-0.0238,0.8798,-5.94,7.73,-0.11,19.63
11513,0.2622,-0.0247,0.8721,-6.02,7.73,-0.05,19.6
11523,0.2612,-0.0251,0.8761,-6.05,7.76,-0.02,19.6
11533,0.2604,-0.0242,0.8711,-6.05,7.76,-0.02,19.61
11543,0.2601,-0.0221,0.8749,-6.03,7.77,-0.02,19.62
11553,0.2574,-0.0265,0.8662,-6.09,7.73,0.03,19.6
11563,0.2594,-0.0221,0.8696,-6.09,7.69,-0.02,19.62
11573,0.2632,-0.0216,0.8763,-6.03,7.77,-0.03,19.59
11583,0.2611,-0.0276,0.8689,-5.95,7.73,-0.06,19.62
11593,0.2609,-0.0262,0.8716,-6.0,7.82,-0.06,19.6
11603,0.262,-0.0255,0.875,-5.95,7.8,-0.06,19.63
11613,0.259,-0.0267,0.8698,-6.0,7.71,-0.06,19.62
11623,0.2611,-0.0237,0.8691,-6.0,7.73,0.03,19.62
11633,0.2599,-0.0228,0.8716,-5.97,7.71,-0.06,19.62
11643,0.2605,-0.0258,0.8805,-6.08,7.69,-0.12,19.63
11653,0.2656,-0.0217,0.8776,-6.09,7.66,-0.08,19.61
11663,0.2664,-0.0239,0.882,-6.03,7.68,-0.09,19.64
11673,0.2634,-0.0278,0.8823,-6.0,7.65,-0.05,19.62
11683,0.2621,-0.0231,0.8804,-5.98,7.77,-0.12,19.6
11693,0.2654,-0.025,0.877,-5.97,7.69,-0.03,19.64
11703,0.2622,-0.0261,0.8724,-6.02,7.65,-0.06,19.63
11713,0.2606,-0.0276,0.8779,-6.05,7.68,-0.05,19.61
11723,0.2615,-0.0237,0.8737,-5.95,7.73,-0.09,19.63
11733,0.2638,-0.025,0.8785,-6.02,7.68,-0.11,19.62
11743,0.2616,-0.0247,0.8785,-5.98,7.69,-0.09,19.61
11753,0.2609,-0.0245,0.8755,-6.05,7.6,-0.02,19.62
11763,0.2603,-0.0223,0.8688,-5.91,7.69,-0.06,19.62
11773,0.2606,-0.0251,0.8721,-6.02,7.65,-0.09,19.63
11783,0.2627,-0.0219,0.8751,-6.02,7.71,-0.08,19.62
11793,0.2631,-0.021,0.87,-6.09,7.63,-0.03,19.62
11803,0.2618,-0.0175,0.8691,-6.17,7.74,-0.05,19.62
11813,0.2572,-0.0238,0.8665,-6.15,7.68,-0.03,19.62
11823,0.259,-0.0269,0.8693,-6.08,7.63,-0.03,19.61
11833,0.2625,-0.0234,0.8706,-6.06,7.6,-0.03,19.62
11843,0.2593,-0.0293,0.8751,-5.97,7.57,-0.06,19.63
11853,0.2581,-0.0352,0.8727,-5.95,7.71,-0.11,19.65
11863,0.2582,-0.0275,0.8739,-6.05,7.63,-0.06,19.62
11873,0.26,-0.0289,0.8737,-6.02,7.76,0.0,19.61
11883,0.2605,-0.0305,0.874,-6.05,7.76,-0.11,19.6
11893,0.261,-0.0248,0.8727,-6.06,7.82,-0.08,19.62
11903,0.2621,-0.0209,0.8745,-6.06,7.74,-0.02,19.62
11913,0.2626,-0.0216,0.8702,-6.02,7.74,-0.03,19.6
11923,0.2618,-0.0253,0.8743,-5.97,7.77,-0.06,19.6
11933,0.2617,-0.0186,0.8751,-5.97,7.68,-0.06,19.62
11943,0.2626,-0.0237,0.8712,-5.95,7.77,0.02,19.64
11953,0.2642,-0.0283,0.8732,-6.05,7.76,-0.03,19.63
11963,0.2604,-0.0259,0.876,-6.06,7.69,-0.03,19.63
11973,0.2592,-0.0247,0.87,-6.11,7.77,0.03,19.62
11983,0.2573,-0.0225,0.8634,-6.17,7.66,0.03,19.64
11993,0.2662,-0.0195,0.8708,-6.23,7.68,-0.08,19.62
12003,0.2623,-0.025,0.8779,-6.11,7.68,-0.11,19.62
12013,0.2715,-0.03,0.8732,-5.94,7.6,-0.12,19.6
12023,0.2698,-0.0259,0.8839,-5.83,7.66,-0.06,19.61
12033,0.2649,-0.0291,0.8773,-5.89,7.82,-0.05,19.62
12043,0.2662,-0.0286,0.8745,-5.94,7.79,-0.06,19.63
12053,0.2657,-0.022,0.8721,-6.11,7.68,-0.14,19.63
12063,0.2625,-0.0237,0.8708,-6.14,7.76,-0.08,19.64
12073,0.2574,-0.0221,0.8663,-6.12,7.74,-0.03,19.65
12083,0.2614,-0.0201,0.8658,-5.97,7.77,0.0,19.64
12093,0.2616,-0.0215,0.8727,-5.88,7.66,0.03,19.6
12103,0.2671,-0.0217,0.875,-5.88,7.66,-0.08,19.61
12113,0.264,-0.0214,0.876,-5.89,7.71,0.0,19.62
12123,0.2661,-0.0243,0.8776,-6.06,7.63,-0.08,19.6
12133,0.2634,-0.0254,0.8782,-6.09,7.65,-0.05,19.62
12143,0.2632,-0.0278,0.8766,-6.11,7.74,0.0,19.64
12153,0.2631,-0.0247,0.8704,-5.95,7.73,-0.02,19.62
12163,0.2607,-0.0244,0.8713,-6.02,7.69,-0.06,19.64
12173,0.2621,-0.0248,0.8687,-6.03,7.71,-0.05,19.64
12183,0.2609,-0.0259,0.8715,-6.0,7.71,-0.02,19.62
12193,0.2622,-0.025,0.8723,-6.03,7.6,-0.03,19.63
12203,0.26,-0.0259,0.8706,-6.03,7.68,0.0,19.63
12213,0.2585,-0.0209,0.8685,-6.11,7.79,0.02,19.61
12223,0.2577,-0.0225,0.8712,-6.03,7.76,-0.06,19.64
12233,0.2587,-0.0233,0.8688,-6.06,7.71,-0.03,19.62
12243,0.2598,-0.0233,0.8679,-6.05,7.69,-0.06,19.62
12253,0.2623,-0.0266,0.8748,-6.09,7.63,0.03,19.63
12263,0.2601,-0.0272,0.8746,-6.02,7.69,-0.06,19.64
12273,0.2622,-0.0278,0.8741,-6.05,7.76,-0.05,19.64
12283,0.2627,-0.0253,0.8745,-6.02,7.74,-0.05,19.64
12293,0.2628,-0.0264,0.8741,-6.02,7.73,-0.11,19.64
12303,0.264,-0.0242,0.8777,-5.97,7.77,-0.05,19.63
12313,0.2637,-0.0261,0.8735,-6.03,7.73,-0.08,19.63
12323,0.2622,-0.0249,0.8782,-5.98,7.69,-0.15,19.64
12333,0.2632,-0.0264,0.8766,-5.92,7.69,-0.08,19.63
12343,0.2644,-0.026,0.8774,-5.98,7.73,-0.06,19.64
12353,0.2634,-0.0271,0.8801,-5.94,7.79,-0.02,19.62
12363,0.2611,-0.0264,0.8784,-5.91,7.79,-0.08,19.64
12373,0.2616,-0.0254,0.8787,-6.02,7.74,-0.08,19.62
12383,0.261,-0.0217,0.8715,-6.0,7.77,0.03,19.63
12393,0.26,-0.0239,0.8756,-6.05,7.65,-0.06,19.62
12403,0.2628,-0.0256,0.8754,-5.94,7.71,-0.03,19.61
12413,0.2612,-0.0244,0.8748,-6.03,7.76,-0.05,19.64
12423,0.26,-0.024,0.876,-5.95,7.73,-0.09,19.66
12433,0.2606,-0.0273,0.8762,-5.92,7.73,-0.03,19.63
12443,0.2648,-0.0275,0.8735,-6.0,7.65,-0.03,19.65
12453,0.2609,-0.0232,0.874,-5.88,7.73,0.0,19.64
12463,0.2634,-0.0251,0.8729,-5.91,7.74,-0.09,19.64
12473,0.26,-0.0245,0.8756,-5.92,7.74,-0.06,19.62
12483,0.2628,-0.0245,0.8737,-5.97,7.76,-0.03,19.65
12493,0.2638,-0.0197,0.8779,-6.03,7.76,-0.08,19.63
12503,0.2637,-0.0212,0.8735,-6.03,7.69,0.03,19.62
12513,0.2594,-0.0226,0.8684,-6.0,7.66,0.05,19.61
12523,0.2618,-0.0215,0.8687,-6.02,7.65,-0.08,19.63
12533,0.2588,-0.0232,0.8679,-6.0,7.69,0.06,19.64
12543,0.2598,-0.024,0.8696,-6.09,7.62,-0.06,19.65
12553,0.2603,-0.0229,0.8693,-6.11,7.69,-0.06,19.63
12563,0.2612,-0.024,0.8678,-6.08,7.68,-0.06,19.62
12573,0.2626,-0.025,0.8729,-6.03,7.65,-0.05,19.65
12583,0.261,-0.0264,0.8683,-6.0,7.66,-0.09,19.65
12593,0.2603,-0.0253,0.8748,-6.05,7.63,0.02,19.64
12603,0.2603,-0.0245,0.8751,-6.05,7.65,-0.03,19.63
12613,0.2592,-0.0237,0.8728,-6.06,7.74,-0.08,19.64
12623,0.261,-0.0228,0.8785,-6.0,7.66,-0.03,19.66
12633,0.2622,-0.0244,0.877,-6.02,7.77,-0.05,19.63
12643,0.2617,-0.0242,0.8774,-6.06,7.66,-0.02,19.64
12653,0.2618,-0.0243,0.8743,-6.03,7.71,-0.05,19.65
12663,0.262,-0.024,0.8712,-6.0,7.73,-0.08,19.66
12673,0.2643,-0.0243,0.8721,-5.95,7.71,-0.09,19.67
12683,0.264,-0.024,0.8741,-6.0,7.76,-0.05,19.65
12693,0.2635,-0.0256,0.8735,-5.98,7.79,-0.12,19.66
12703,0.2628,-0.022,0.8734,-5.98,7.69,-0.08,19.64
12713,0.2645,-0.0253,0.8778,-6.0,7.66,-0.12,19.64
12723,0.2606,-0.0253,0.8734,-6.05,7.73,-0.08,19.63
12733,0.2635,-0.0244,0.8793,-5.91,7.71,-0.05,19.64
12743,0.2594,-0.025,0.8754,-5.97,7.77,-0.05,19.65
12753,0.2638,-0.0264,0.8783,-6.0,7.68,-0.14,19.64
12763,0.2587,-0.025,0.8756,-5.98,7.77,-0.17,19.63
12773,0.261,-0.0242,0.8766,-5.98,7.77,-0.08,19.64
12783,0.26,-0.0239,0.8765,-5.94,7.73,-0.02,19.64
12793,0.2607,-0.0266,0.8739,-6.03,7.85,-0.02,19.63
12803,0.2612,-0.0219,0.8755,-6.05,7.82,-0.09,19.65
12813,0.2639,-0.0239,0.876,-6.03,7.89,0.0,19.65
12823,0.2616,-0.0219,0.87,-6.0,7.77,0.0,19.65
12833,0.261,-0.0264,0.8732,-6.12,7.76,-0.02,19.64
12843,0.2627,-0.0247,0.8712,-6.0,7.71,0.0,19.64
12853,0.2645,-0.0247,0.8745,-6.0,7.74,0.0,19.64
12863,0.2616,-0.0251,0.8748,-6.06,7.76,-0.06,19.63
12873,0.264,-0.0234,0.8737,-6.09,7.76,-0.05,19.61
12883,0.2625,-0.0233,0.8782,-6.02,7.77,-0.08,19.64
12893,0.261,-0.0249,0.8739,-6.0,7.74,-0.02,19.65
12903,0.2618,-0.0282,0.8751,-6.08,7.8,-0.08,19.65
12913,0.2623,-0.0283,0.8727,-6.02,7.79,-0.03,19.64
12923,0.2603,-0.0243,0.8757,-6.02,7.76,0.03,19.64
12933,0.2612,-0.0238,0.871,-6.02,7.76,-0.03,19.64
12943,0.2603,-0.025,0.8701,-6.05,7.71,-0.02,19.64
12953,0.2592,-0.0293,0.8724,-6.02,7.63,-0.06,19.67
12963,0.2594,-0.0251,0.8763,-6.06,7.77,-0.08,19.64
12973,0.2594,-0.0239,0.8766,-5.98,7.68,-0.11,19.64
12983,0.2582,-0.0247,0.8746,-5.97,7.74,-0.08,19.63
12993,0.2614,-0.0259,0.8765,-5.97,7.76,-0.05,19.61
13003,0.2625,-0.0232,0.8741,-6.0,7.66,-0.05,19.64
13013,0.2626,-0.0211,0.873,-6.0,7.73,-0.06,19.63
13023,0.2635,-0.0233,0.8737,-5.98,7.66,-0.06,19.63
13033,0.2627,-0.0222,0.8711,-6.05,7.68,0.0,19.63
13043,0.2631,-0.0226,0.8715,-5.95,7.65,-0.03,19.65
13053,0.262,-0.0247,0.875,-5.98,7.65,-0.09,19.63
13063,0.2595,-0.0258,0.8759,-6.03,7.66,-0.02,19.64
13073,0.2628,-0.0253,0.8702,-6.03,7.74,-0.05,19.62
13083,0.2604,-0.0266,0.8745,-5.98,7.66,-0.03,19.63
13093,0.2596,-0.0249,0.8739,-5.98,7.79,-0.05,19.64
13103,0.2603,-0.0245,0.8761,-6.09,7.73,-0.03,19.63
13113,0.2632,-0.026,0.8719,-6.02,7.69,0.03,19.65
13123,0.2607,-0.0237,0.8701,-6.05,7.69,-0.08,19.65
13133,0.2595,-0.0245,0.8738,-5.95,7.73,-0.06,19.64
13143,0.2625,-0.0231,0.8767,-6.09,7.79,-0.11,19.65
13153,0.2582,-0.0226,0.877,-6.12,7.66,-0.02,19.65
13163,0.2617,-0.0256,0.8745,-6.12,7.73,-0.05,19.65
13173,0.2644,-0.0273,0.8749,-5.98,7.76,-0.03,19.65
13183,0.264,-0.0264,0.8694,-6.11,7.74,-0.06,19.64
13193,0.262,-0.0264,0.8777,-6.06,7.76,-0.05,19.65
13203,0.2628,-0.0248,0.8735,-6.11,7.86,0.03,19.65
13213,0.26,-0.0266,0.8713,-6.08,7.71,0.03,19.66
13223,0.2638,-0.0265,0.8745,-6.02,7.73,-0.06,19.66
13233,0.2599,-0.0272,0.8721,-6.06,7.68,-0.06,19.66
13243,0.2628,-0.0261,0.8766,-6.0,7.76,0.02,19.63
13253,0.2646,-0.0231,0.8699,-6.02,7.76,-0.02,19.64
13263,0.2599,-0.0244,0.877,-6.0,7.77,-0.08,19.63
13273,0.2588,-0.0269,0.8774,-6.06,7.79,-0.06,19.65
13283,0.262,-0.026,0.8767,-6.09,7.73,-0.06,19.66
13293,0.2611,-0.026,0.8746,-6.0,7.79,-0.05,19.65
13303,0.2615,-0.0258,0.8732,-6.03,7.76,-0.08,19.63
13313,0.2616,-0.0228,0.8711,-6.06,7.73,0.02,19.64
13323,0.2665,-0.0253,0.869,-5.97,7.77,-0.11,19.64
13333,0.2637,-0.024,0.8773,-6.05,7.68,-0.08,19.66
13343,0.2648,-0.0254,0.8761,-5.94,7.66,-0.09,19.67
13353,0.2596,-0.0265,0.8741,-5.95,7.74,0.0,19.65
13363,0.2632,-0.0275,0.8735,-6.09,7.73,-0.06,19.63
13373,0.2614,-0.0277,0.8739,-6.05,7.77,-0.06,19.66
13383,0.2625,-0.0226,0.8745,-5.95,7.68,-0.02,19.65
13393,0.2614,-0.0237,0.8743,-6.03,7.73,-0.05,19.66
13403,0.2625,-0.0243,0.8756,-6.03,7.65,-0.06,19.65
13413,0.2614,-0.022,0.8743,-6.09,7.66,-0.15,19.66
13423,0.2631,-0.0227,0.875,-6.05,7.69,-0.06,19.64
13433,0.2631,-0.026,0.8732,-6.0,7.76,-0.06,19.66
13443,0.2603,-0.0275,0.8761,-6.0,7.77,0.02,19.63
13453,0.261,-0.0259,0.8754,-6.09,7.66,-0.08,19.64
13463,0.2611,-0.0271,0.8719,-6.06,7.68,0.0,19.65
13473,0.2633,-0.024,0.8712,-6.03,7.71,-0.05,19.63
13483,0.262,-0.0248,0.8717,-6.09,7.71,-0.09,19.64
13493,0.2595,-0.0273,0.8719,-6.05,7.71,-0.02,19.65
13503,0.2595,-0.0261,0.8751,-6.12,7.71,-0.09,19.63
13513,0.2585,-0.0266,0.8735,-5.98,7.69,-0.08,19.64
13523,0.2611,-0.0247,0.874,-6.05,7.69,-0.02,19.63
13533,0.261,-0.0261,0.8756,-6.0,7.73,-0.06,19.64
13543,0.2582,-0.0254,0.8721,-5.97,7.68,0.0,19.64
13553,0.2593,-0.0238,0.875,-6.0,7.69,-0.11,19.66
13563,0.2599,-0.0243,0.8759,-5.97,7.66,-0.05,19.65
13573,0.2618,-0.0283,0.8766,-5.95,7.74,-0.02,19.66
13583,0.2612,-0.028,0.8779,-5.95,7.73,-0.08,19.65
13593,0.2605,-0.0221,0.8754,-6.05,7.76,-0.05,19.67
13603,0.2632,-0.0204,0.8772,-5.95,7.73,-0.02,19.64
13613,0.2631,-0.0209,0.8734,-6.05,7.77,-0.03,19.66
13623,0.264,-0.0201,0.8759,-6.09,7.76,-0.02,19.64
13633,0.26,-0.0206,0.8728,-6.06,7.71,-0.02,19.67
13643,0.261,-0.0204,0.8746,-5.97,7.77,-0.06,19.67
13653,0.2599,-0.022,0.8684,-6.0,7.65,-0.06,19.66
13663,0.2593,-0.0245,0.8732,-6.02,7.73,-0.06,19.65
13673,0.262,-0.0226,0.8748,-6.02,7.71,-0.03,19.64
13683,0.2627,-0.0244,0.8712,-6.05,7.73,-0.03,19.64
13693,0.2611,-0.0276,0.8738,-6.05,7.77,-0.11,19.64
13703,0.2623,-0.0273,0.8732,-6.0,7.68,0.0,19.66
13713,0.2625,-0.0259,0.8707,-6.09,7.66,-0.05,19.68
13723,0.2609,-0.0272,0.8711,-6.03,7.65,-0.09,19.67
13733,0.2612,-0.0251,0.8723,-6.0,7.73,-0.11,19.65
13743,0.2621,-0.0273,0.8702,-5.88,7.73,0.02,19.67
13753,0.2607,-0.024,0.8766,-5.94,7.79,-0.12,19.65
13763,0.2592,-0.0233,0.8738,-5.95,7.77,-0.03,19.68
13773,0.2633,-0.0223,0.8784,-6.09,7.82,-0.08,19.65
13783,0.2599,-0.0229,0.874,-6.02,7.79,-0.02,19.64
13793,0.2623,-0.0226,0.8713,-5.98,7.69,-0.09,19.66
13803,0.2625,-0.0231,0.8698,-6.03,7.82,0.0,19.64
13813,0.2653,-0.0225,0.8707,-6.06,7.74,0.02,19.67
13823,0.2618,-0.0237,0.8737,-5.98,7.73,0.0,19.67
13833,0.2593,-0.0226,0.8749,-5.97,7.79,-0.06,19.66
13843,0.2599,-0.0286,0.8774,-6.08,7.79,-0.12,19.66
13853,0.261,-0.0267,0.8733,-6.02,7.79,-0.09,19.64
13863,0.2634,-0.0275,0.8684,-6.05,7.69,-0.03,19.62
13873,0.2626,-0.0265,0.8779,-6.02,7.73,-0.03,19.67
13883,0.2632,-0.0249,0.8781,-5.98,7.76,-0.05,19.65
13893,0.2639,-0.0236,0.8761,-5.98,7.66,0.06,19.64
13903,0.2642,-0.0234,0.8794,-6.0,7.66,-0.02,19.64
13913,0.2622,-0.0237,0.8788,-5.98,7.73,0.0,19.64
13923,0.2616,-0.0242,0.8794,-5.92,7.74,-0.05,19.66
13933,0.2605,-0.0244,0.8765,-6.02,7.73,-0.05,19.67
13943,0.2611,-0.0212,0.8754,-6.06,7.71,-0.08,19.67
13953,0.2601,-0.0265,0.8749,-6.02,7.71,-0.12,19.66
13963,0.2607,-0.0265,0.8718,-5.95,7.79,-0.05,19.67
13973,0.26,-0.0234,0.8732,-5.94,7.68,-0.17,19.67
13983,0.261,-0.0229,0.8715,-6.05,7.73,-0.09,19.65
13993,0.2627,-0.0239,0.8724,-6.02,7.76,-0.02,19.67
14003,0.2605,-0.0221,0.8711,-5.98,7.76,-0.03,19.65
14013,0.2609,-0.0164,0.875,-6.06,7.69,-0.09,19.66
14023,0.2535,-0.0222,0.8838,-5.97,7.77,-0.05,19.67
14033,0.2511,-0.0212,0.881,-6.17,7.66,-0.06,19.64
14043,0.2454,-0.0219,0.8872,-6.03,8.12,-0.06,19.65
14053,0.265,-0.0271,0.8643,-6.05,7.56,-0.06,19.66
14063,0.2635,-0.0234,0.8777,-6.02,7.54,-0.03,19.67
14073,0.2649,-0.0259,0.8647,-6.05,7.59,-0.11,19.63
14083,0.2565,-0.0249,0.8779,-6.09,7.76,-0.08,19.64
14093,0.2535,-0.0261,0.8854,-6.09,7.86,-0.09,19.64
14103,0.2666,-0.0227,0.8695,-6.08,7.54,-0.06,19.67
14113,0.262,-0.0259,0.8739,-6.02,7.68,-0.06,19.66
14123,0.264,-0.0238,0.8771,-5.97,7.62,-0.05,19.65
14133,0.2562,-0.025,0.8768,-6.06,7.83,-0.05,19.65
14143,0.2632,-0.0272,0.8726,-6.06,7.77,0.02,19.64
14153,0.2581,-0.0267,0.8781,-6.03,7.86,0.0,19.65
14163,0.2657,-0.0264,0.8733,-6.03,7.57,-0.05,19.68
14173,0.2653,-0.0243,0.8723,-6.06,7.6,-0.08,19.67
14183,0.2682,-0.0197,0.8716,-6.0,7.65,0.0,19.66
14193,0.2654,-0.0205,0.8694,-6.03,7.69,-0.05,19.65
14203,0.2633,-0.0222,0.8724,-6.12,7.69,-0.03,19.64
14213,0.2609,-0.0203,0.8768,-6.09,7.79,-0.06,19.65
14223,0.2646,-0.0217,0.8694,-6.12,7.69,-0.14,19.66
14233,0.2633,-0.0262,0.8718,-6.11,7.66,-0.09,19.65
14243,0.2622,-0.027,0.8721,-6.05,7.69,-0.03,19.66
14253,0.262,-0.0281,0.869,-6.02,7.62,-0.06,19.67
14263,0.2642,-0.0306,0.8735,-5.95,7.65,0.0,19.67
14273,0.2631,-0.0299,0.8723,-5.94,7.76,-0.08,19.63
14283,0.2623,-0.0234,0.8728,-5.89,7.76,-0.06,19.65
14293,0.2616,-0.0249,0.8768,-6.05,7.68,-0.11,19.65
14303,0.2595,-0.0232,0.8719,-6.0,7.71,-0.11,19.66
14313,0.2561,-0.0247,0.8711,-5.95,7.74,-0.14,19.67
14323,0.2592,-0.0254,0.8711,-5.98,7.76,-0.06,19.65
14333,0.2616,-0.0232,0.877,-6.05,7.73,0.0,19.65
14343,0.2598,-0.0255,0.8745,-5.95,7.74,-0.03,19.67
14353,0.2622,-0.025,0.8787,-5.98,7.68,-0.03,19.66
14363,0.2582,-0.0243,0.8781,-6.0,7.79,-0.08,19.64
14373,0.2605,-0.0239,0.8763,-6.0,7.69,0.0,19.65
14383,0.2733,-0.0305,0.8595,-5.98,7.36,0.02,19.64
14393,0.2704,-0.0287,0.8646,-5.92,7.47,-0.03,19.63
14403,0.2502,-0.0205,0.8867,-5.94,8.11,-0.08,19.66
14413,0.2665,-0.0244,0.8728,-5.97,7.71,-0.02,19.69
14423,0.26,-0.025,0.8777,-5.98,7.76,-0.14,19.67
14433,0.2527,-0.0204,0.8842,-6.05,7.94,-0.06,19.66
14443,0.2681,-0.0234,0.8688,-5.94,7.6,-0.09,19.67
14453,0.2609,-0.0242,0.881,-6.06,7.69,-0.09,19.67
14463,0.2689,-0.0172,0.871,-6.06,7.42,-0.12,19.69
14473,0.2703,-0.0233,0.8754,-6.03,7.53,-0.03,19.66
14483,0.2617,-0.0232,0.8696,-6.03,7.59,-0.05,19.66
14493,0.26,-0.0231,0.8735,-6.17,7.74,-0.08,19.65
14503,0.2561,-0.0239,0.875,-6.14,7.79,-0.11,19.68
14513,0.2551,-0.0244,0.874,-6.11,7.77,0.0,19.66
14523,0.2634,-0.0236,0.8723,-6.15,7.68,-0.11,19.65
14533,0.264,-0.0273,0.874,-6.03,7.65,-0.08,19.66
14543,0.2631,-0.0266,0.8749,-6.05,7.65,-0.08,19.66
14553,0.2614,-0.028,0.8708,-6.06,7.79,-0.11,19.66
14563,0.2571,-0.0271,0.8713,-6.02,7.69,-0.05,19.69
14573,0.2598,-0.0229,0.8723,-5.92,7.68,-0.02,19.66
14583,0.262,-0.0238,0.8749,-6.03,7.71,0.05,19.69
14593,0.2607,-0.0216,0.8716,-5.95,7.69,-0.03,19.67
14603,0.2603,-0.0217,0.8739,-5.95,7.68,-0.05,19.68
14613,0.2611,-0.0216,0.8728,-5.89,7.73,-0.05,19.68
14623,0.2648,-0.024,0.8726,-5.98,7.68,-0.05,19.66
14633,0.2635,-0.0215,0.8691,-6.14,7.66,-0.03,19.66
14643,0.2606,-0.0232,0.8691,-6.03,7.66,-0.02,19.69
14653,0.2617,-0.0244,0.8707,-6.06,7.8,-0.06,19.65
14663,0.2621,-0.024,0.8761,-6.11,7.76,-0.02,19.65
14673,0.2617,-0.0211,0.8706,-6.05,7.74,-0.05,19.67
14683,0.2599,-0.0244,0.8744,-6.08,7.74,-0.06,19.65
14693,0.2603,-0.0261,0.8733,-6.06,7.74,-0.06,19.68
14703,0.2632,-0.025,0.8693,-6.08,7.79,-0.03,19.68
14713,0.2628,-0.0243,0.8776,-6.11,7.76,-0.03,19.68
14723,0.2642,-0.0261,0.8756,-6.14,7.8,-0.03,19.65
14733,0.2667,-0.026,0.8727,-6.06,7.79,-0.05,19.69
14743,0.2544,-0.0261,0.8804,-6.11,7.88,0.03,19.68
14753,0.2635,-0.0269,0.8667,-6.09,7.86,-0.09,19.65
14763,0.265,-0.0278,0.8662,-6.06,7.68,-0.05,19.67
14773,0.2626,-0.026,0.8746,-6.11,7.68,-0.03,19.65
14783,0.2618,-0.0264,0.8744,-6.06,7.77,-0.02,19.65
14793,0.2611,-0.0271,0.8773,-6.11,7.71,-0.06,19.68
14803,0.2639,-0.0281,0.8779,-6.0,7.69,0.0,19.67
14813,0.2643,-0.0271,0.8794,-6.05,7.71,0.02,19.66
14823,0.2634,-0.0266,0.8804,-6.06,7.82,-0.05,19.68
14833,0.2611,-0.0271,0.8744,-6.02,7.79,-0.08,19.66
14843,0.2617,-0.0264,0.8757,-5.95,7.77,-0.08,19.67
14853,0.2581,-0.0248,0.8735,-6.0,7.71,-0.03,19.67
14863,0.2611,-0.0237,0.8718,-5.95,7.71,-0.06,19.64
14873,0.2604,-0.0254,0.8707,-6.03,7.66,-0.09,19.68
14883,0.2593,-0.0219,0.869,-5.98,7.68,-0.06,19.66
14893,0.2585,-0.0248,0.873,-5.95,7.63,0.0,19.68
14903,0.2643,-0.0259,0.8707,-6.08,7.65,0.02,19.7
14913,0.2633,-0.0233,0.8711,-6.05,7.69,-0.05,19.68
14923,0.2623,-0.0253,0.8724,-6.0,7.71,-0.08,19.66
14933,0.2625,-0.0264,0.8712,-6.03,7.66,0.0,19.68
14943,0.2607,-0.0258,0.8724,-6.0,7.66,-0.02,19.66
14953,0.261,-0.0226,0.8781,-6.0,7.71,-0.03,19.68
14963,0.2625,-0.0222,0.8733,-6.03,7.66,0.05,19.67
14973,0.2628,-0.0208,0.8719,-5.97,7.76,-0.02,19.69
14983,0.2614,-0.0238,0.8719,-6.02,7.68,0.0,19.69
14993,0.2594,-0.0237,0.8729,-6.02,7.74,-0.12,19.69
15003,0.2595,-0.025,0.8745,-6.02,7.73,-0.11,19.68
15013,0.2607,-0.0215,0.871,-6.08,7.63,-0.08,19.68
15023,0.2599,-0.0242,0.8746,-5.98,7.76,0.0,19.67
15033,0.2627,-0.0229,0.8718,-6.0,7.82,-0.06,19.67
15043,0.2649,-0.0203,0.8724,-6.03,7.77,-0.03,19.64
15053,0.2617,-0.0212,0.8762,-5.95,7.76,-0.03,19.67
15063,0.2635,-0.0216,0.8733,-5.97,7.65,-0.08,19.67
15073,0.2614,-0.0221,0.8754,-5.98,7.74,0.0,19.67
15083,0.261,-0.0249,0.8773,-6.11,7.79,-0.09,19.69
15093,0.2621,-0.0293,0.8777,-6.11,7.82,-0.08,19.67
15103,0.2629,-0.0303,0.8721,-6.08,7.77,0.0,19.69
15113,0.2629,-0.0291,0.8716,-5.95,7.76,-0.05,19.68
15123,0.2621,-0.0258,0.8728,-6.08,7.69,-0.02,19.68
15133,0.2618,-0.0239,0.8673,-6.03,7.66,-0.03,19.67
15143,0.259,-0.0217,0.8689,-5.95,7.71,0.0,19.67
15153,0.2576,-0.0231,0.87,-6.0,7.73,0.02,19.66
15163,0.2609,-0.0251,0.8744,-6.08,7.69,-0.05,19.68
15173,0.262,-0.0231,0.8715,-6.02,7.68,-0.09,19.69
15183,0.2627,-0.0209,0.8727,-5.97,7.66,-0.09,19.7
15193,0.2614,-0.0247,0.873,-6.06,7.65,0.02,19.69
15203,0.2583,-0.0278,0.8744,-5.95,7.83,-0.14,19.68
15213,0.2631,-0.0269,0.8788,-5.95,7.73,-0.11,19.69
15223,0.2607,-0.0264,0.8726,-6.03,7.74,-0.08,19.68
15233,0.2631,-0.0275,0.8707,-5.98,7.76,-0.03,19.69
15243,0.2633,-0.0242,0.8776,-5.98,7.73,-0.06,19.69
15253,0.2609,-0.025,0.8783,-6.0,7.79,-0.03,19.69
15263,0.2604,-0.024,0.8768,-5.98,7.79,-0.05,19.67
15273,0.2654,-0.0242,0.8759,-6.06,7.76,-0.09,19.71
15283,0.2629,-0.0259,0.8696,-5.95,7.74,-0.05,19.68
15293,0.265,-0.0238,0.8719,-5.98,7.62,-0.03,19.68
15303,0.2645,-0.0237,0.876,-6.0,7.63,-0.03,19.64
15313,0.2637,-0.0272,0.8721,-6.05,7.68,-0.05,19.67
15323,0.2631,-0.0248,0.8748,-6.02,7.76,-0.03,19.68
15333,0.2607,-0.024,0.8737,-6.11,7.73,-0.08,19.67
15343,0.2633,-0.0247,0.8741,-5.98,7.66,-0.03,19.71
15353,0.265,-0.0217,0.8772,-6.09,7.6,-0.02,19.67
15363,0.262,-0.0237,0.8752,-6.05,7.71,-0.02,19.67
15373,0.2651,-0.0254,0.8757,-6.09,7.68,-0.06,19.67
15383,0.2627,-0.024,0.8683,-6.02,7.76,-0.08,19.7
15393,0.2622,-0.0222,0.8774,-6.02,7.71,-0.11,19.67
15403,0.2629,-0.0271,0.8743,-6.05,7.71,-0.02,19.67
15413,0.2635,-0.024,0.8748,-5.97,7.71,-0.05,19.69
15423,0.2629,-0.0261,0.8765,-6.06,7.65,-0.02,19.69
15433,0.2612,-0.0203,0.8735,-6.08,7.71,0.02,19.68
15443,0.2657,-0.0192,0.873,-6.11,7.69,-0.03,19.68
15453,0.2601,-0.0231,0.87,-6.18,7.73,0.03,19.68
15463,0.2629,-0.0254,0.8673,-6.11,7.63,-0.08,19.69
15473,0.2639,-0.0231,0.8715,-6.09,7.69,-0.11,19.67
15483,0.2617,-0.026,0.8726,-6.05,7.69,-0.05,19.68
15493,0.2615,-0.0289,0.8717,-6.0,7.71,0.03,19.69
15503,0.2617,-0.0261,0.8749,-6.03,7.76,-0.05,19.68
15513,0.2614,-0.0266,0.8751,-6.11,7.71,-0.06,19.67
15523,0.2611,-0.0223,0.8738,-6.03,7.66,-0.06,19.67
15533,0.2577,-0.0236,0.8785,-6.05,7.74,-0.08,19.67
15543,0.2606,-0.0237,0.8694,-6.03,7.69,-0.03,19.65
15553,0.2625,-0.0251,0.8752,-6.0,7.74,0.02,19.68
15563,0.2612,-0.0242,0.8732,-6.02,7.74,-0.03,19.67
15573,0.264,-0.0262,0.8748,-6.08,7.74,-0.09,19.66
15583,0.2623,-0.0264,0.8771,-6.08,7.74,-0.06,19.66
15594,0.2666,-0.028,0.875,-6.0,7.73,-0.08,19.69
15604,0.261,-0.0253,0.8772,-6.03,7.73,-0.08,19.67
15614,0.2616,-0.0259,0.8763,-6.02,7.68,-0.08,19.7
15624,0.2595,-0.0231,0.8694,-6.0,7.77,-0.02,19.68
15634,0.2611,-0.024,0.8712,-5.97,7.71,-0.05,19.68
15644,0.2629,-0.0247,0.87,-5.94,7.77,-0.09,19.67
15654,0.2609,-0.0251,0.8705,-6.08,7.79,-0.06,19.68
15664,0.264,-0.0265,0.8724,-5.98,7.71,-0.06,19.69
15674,0.2615,-0.026,0.8724,-6.08,7.74,-0.08,19.7
15684,0.2637,-0.0248,0.8734,-6.06,7.74,-0.03,19.7
15694,0.2635,-0.0239,0.8738,-6.05,7.76,-0.12,19.68
15704,0.2617,-0.0249,0.8718,-6.02,7.73,-0.03,19.69
15714,0.2605,-0.024,0.8724,-6.09,7.8,-0.02,19.69
15724,0.2592,-0.0222,0.8718,-6.05,7.68,-0.06,19.68
15734,0.2612,-0.0244,0.8765,-6.08,7.74,-0.03,19.7
15744,0.2611,-0.0256,0.876,-6.0,7.74,-0.08,19.67
15754,0.2618,-0.0234,0.8766,-5.98,7.71,-0.11,19.69
15764,0.2623,-0.0269,0.8704,-5.94,7.66,-0.06,19.66
15774,0.2625,-0.0245,0.873,-6.02,7.74,0.05,19.67
15784,0.2612,-0.0216,0.8744,-6.02,7.76,0.02,19.68
15794,0.2582,-0.0231,0.8728,-6.05,7.76,-0.05,19.69
15804,0.2622,-0.025,0.8722,-6.0,7.66,-0.03,19.68
15814,0.2632,-0.0221,0.8754,-6.06,7.68,-0.06,19.67
15824,0.2582,-0.0201,0.88,-6.05,7.74,-0.02,19.68
15834,0.2598,-0.0222,0.8807,-6.09,7.73,-0.09,19.68
15844,0.2654,-0.024,0.8809,-6.05,7.59,-0.08,19.68
15854,0.2609,-0.0249,0.8744,-6.06,7.69,-0.08,19.68
15864,0.2625,-0.0278,0.8729,-6.02,7.71,-0.06,19.69
15874,0.2628,-0.0269,0.869,-6.03,7.65,-0.11,19.69
15884,0.2644,-0.0223,0.8689,-5.94,7.65,0.0,19.67
15894,0.2631,-0.027,0.8751,-5.95,7.69,-0.03,19.71
15904,0.2614,-0.0221,0.8755,-6.02,7.73,-0.09,19.7
15914,0.2622,-0.0239,0.8739,-6.08,7.8,0.0,19.69
15924,0.2599,-0.0238,0.8752,-6.03,7.71,-0.05,19.67
15934,0.2616,-0.0238,0.874,-6.05,7.63,-0.12,19.68
15944,0.2626,-0.0258,0.8713,-6.06,7.69,-0.09,19.68
15954,0.2612,-0.0236,0.8707,-6.05,7.68,-0.02,19.66
15964,0.2595,-0.0244,0.8712,-5.95,7.73,-0.08,19.68
15974,0.2596,-0.0262,0.8704,-6.02,7.71,0.0,19.67
15984,0.2617,-0.0276,0.8715,-5.98,7.66,-0.06,19.67
15994,0.2622,-0.0249,0.874,-5.95,7.68,0.02,19.69
16004,0.2642,-0.025,0.8752,-5.97,7.73,-0.05,19.69
16014,0.2625,-0.0237,0.8726,-6.03,7.77,0.0,19.69
16024,0.26,-0.0245,0.8722,-5.92,7.68,-0.03,19.69
16034,0.2614,-0.0266,0.8757,-6.06,7.71,-0.05,19.69
16044,0.26,-0.0231,0.8752,-5.98,7.76,-0.06,19.69
16054,0.2633,-0.0275,0.8722,-5.97,7.71,-0.03,19.69
16064,0.2632,-0.026,0.8752,-6.05,7.77,0.0,19.71
16074,0.2626,-0.0258,0.87,-6.14,7.74,0.06,19.67
16084,0.2612,-0.0269,0.8748,-6.05,7.8,-0.08,19.7
16094,0.2598,-0.0239,0.8761,-5.97,7.71,-0.02,19.69
16104,0.2634,-0.0244,0.8716,-6.0,7.73,-0.03,19.67
16114,0.2631,-0.0225,0.8729,-6.0,7.82,0.02,19.69
16124,0.2601,-0.0217,0.8773,-6.03,7.73,-0.05,19.69
16134,0.2622,-0.0237,0.8723,-6.03,7.74,-0.09,19.71
16144,0.2614,-0.0245,0.8749,-6.06,7.73,-0.11,19.67
16154,0.2626,-0.0251,0.8718,-6.05,7.73,-0.14,19.67
16164,0.2639,-0.0292,0.8743,-6.09,7.71,-0.03,19.69
16174,0.2633,-0.027,0.8734,-6.05,7.71,-0.06,19.67
16184,0.2616,-0.0278,0.8724,-6.0,7.76,-0.11,19.7
16194,0.2615,-0.0287,0.8741,-5.97,7.73,-0.05,19.7
16204,0.2611,-0.0267,0.8756,-5.94,7.66,-0.02,19.7
16214,0.2616,-0.0236,0.8763,-5.98,7.73,-0.08,19.69
16224,0.2626,-0.0237,0.8708,-5.98,7.68,-0.09,19.68
16234,0.2629,-0.02,0.8738,-5.95,7.68,-0.09,19.68
16244,0.2629,-0.0228,0.8739,-6.05,7.74,-0.08,19.68
16254,0.2607,-0.0232,0.8738,-6.11,7.68,-0.08,19.71
16264,0.2599,-0.0228,0.871,-6.03,7.69,-0.12,19.7
16274,0.2635,-0.0237,0.8741,-6.02,7.66,0.0,19.7
16284,0.2601,-0.0206,0.8763,-5.97,7.68,-0.03,19.7
16294,0.2601,-0.0209,0.8755,-5.97,7.68,-0.03,19.69
16304,0.2628,-0.0222,0.8727,-6.09,7.74,0.0,19.69
16314,0.2621,-0.0245,0.8728,-6.15,7.56,0.0,19.7
16324,0.2607,-0.0231,0.8743,-6.18,7.68,-0.08,19.72
16334,0.2595,-0.0215,0.8799,-6.11,7.66,-0.02,19.7
16344,0.2577,-0.0262,0.8734,-6.11,7.53,-0.05,19.71
16354,0.2531,-0.028,0.8768,-6.21,7.88,-0.08,19.69
16364,0.2584,-0.0283,0.8741,-6.05,7.77,-0.08,19.7
16374,0.2627,-0.0261,0.8752,-6.03,7.63,-0.09,19.72
16384,0.2595,-0.0271,0.8705,-5.97,7.65,0.0,19.68
16394,0.2609,-0.0247,0.8773,-6.15,7.68,-0.02,19.66
16404,0.2567,-0.0223,0.8751,-6.05,7.76,-0.08,19.67
16414,0.2612,-0.028,0.8757,-6.06,7.62,-0.05,19.7
16424,0.2599,-0.0264,0.88,-6.05,7.66,-0.11,19.7
16434,0.2625,-0.0238,0.876,-6.08,7.74,-0.11,19.69
16444,0.2616,-0.0261,0.8733,-5.95,7.73,-0.14,19.68
16454,0.261,-0.0272,0.874,-5.98,7.77,-0.03,19.69
16464,0.2646,-0.0273,0.8765,-6.02,7.74,-0.12,19.69
16474,0.2623,-0.0261,0.8722,-5.98,7.71,-0.05,19.69
16484,0.2645,-0.0267,0.8746,-6.02,7.73,-0.09,19.71
16494,0.2626,-0.0208,0.8739,-5.92,7.8,-0.02,19.7
16504,0.2603,-0.0219,0.8712,-6.05,7.79,0.0,19.69
16514,0.2637,-0.0205,0.8724,-5.97,7.76,0.02,19.69
16524,0.2617,-0.0217,0.8745,-6.05,7.77,-0.03,19.69
16534,0.264,-0.0216,0.8723,-6.02,7.86,-0.02,19.68
16544,0.2649,-0.0264,0.8723,-6.03,7.79,-0.02,19.69
16554,0.2642,-0.024,0.8688,-5.95,7.79,-0.06,19.7
16565,0.2627,-0.0269,0.8762,-5.97,7.69,0.02,19.69
16575,0.2621,-0.0238,0.8746,-6.08,7.73,0.02,19.69
16585,0.2579,-0.0251,0.8765,-6.12,7.77,-0.03,19.7
16595,0.2605,-0.0228,0.8762,-6.06,7.74,0.03,19.69
16605,0.2626,-0.0229,0.8745,-6.05,7.76,-0.05,19.69
16615,0.2606,-0.0267,0.8755,-6.02,7.71,0.0,19.71
16625,0.2598,-0.0234,0.8767,-6.02,7.73,-0.11,19.7
16635,0.2599,-0.0253,0.879,-6.03,7.76,0.0,19.68
16645,0.2614,-0.0229,0.8766,-6.05,7.68,-0.08,19.69
16655,0.2587,-0.0258,0.8751,-6.05,7.74,-0.03,19.69
16665,0.2614,-0.0242,0.8702,-5.97,7.68,-0.09,19.68
16675,0.2628,-0.025,0.8729,-5.94,7.69,-0.09,19.69
16685,0.262,-0.0242,0.8729,-5.95,7.66,-0.08,19.72
16695,0.2616,-0.0228,0.8722,-6.03,7.69,-0.12,19.7
16705,0.2635,-0.024,0.8699,-6.02,7.6,0.02,19.7
16715,0.2626,-0.0184,0.87,-6.05,7.68,-0.02,19.68
16725,0.2627,-0.0217,0.8716,-6.06,7.69,-0.03,19.68
16735,0.2637,-0.0231,0.8699,-6.02,7.68,0.0,19.69
16745,0.2592,-0.0242,0.874,-6.0,7.77,-0.09,19.7
16755,0.2642,-0.0256,0.8712,-5.98,7.68,-0.11,19.72
16765,0.2628,-0.0231,0.8724,-6.06,7.63,-0.14,19.7
16775,0.2594,-0.0258,0.8743,-6.12,7.59,-0.05,19.69
16785,0.2605,-0.0291,0.8715,-5.98,7.68,-0.05,19.71
16795,0.2617,-0.0316,0.868,-6.03,7.71,-0.05,19.68
16805,0.2606,-0.0292,0.8712,-5.92,7.69,-0.02,19.68
16815,0.2609,-0.0267,0.8756,-5.98,7.65,-0.11,19.69
16825,0.261,-0.0228,0.8784,-6.06,7.65,-0.02,19.69
16835,0.2579,-0.0227,0.8783,-6.08,7.71,-0.05,19.68
16845,0.2592,-0.022,0.8776,-5.98,7.68,-0.03,19.69
16855,0.262,-0.0249,0.8712,-5.98,7.69,-0.03,19.69
16865,0.2606,-0.0277,0.8759,-6.02,7.66,-0.06,19.69
16875,0.2644,-0.0247,0.8748,-5.89,7.62,-0.03,19.72
16885,0.2626,-0.0256,0.8745,-6.02,7.71,-0.06,19.7
16895,0.266,-0.0237,0.8759,-6.03,7.66,0.02,19.67
16905,0.2654,-0.021,0.8721,-6.05,7.71,-0.06,19.71
16915,0.2665,-0.0188,0.8765,-6.17,7.74,-0.05,19.73
16925,0.2642,-0.0248,0.8768,-6.06,7.74,-0.08,19.69
16935,0.2627,-0.0223,0.8751,-5.92,7.77,0.03,19.69
16945,0.2632,-0.0266,0.8772,-6.02,7.73,0.06,19.7
16955,0.2625,-0.0264,0.8755,-5.97,7.76,0.0,19.68
16965,0.2609,-0.0281,0.8728,-6.05,7.8,-0.03,19.7
16975,0.2635,-0.025,0.8726,-6.09,7.66,-0.08,19.69
16985,0.2611,-0.0238,0.8778,-6.12,7.77,-0.02,19.69
16995,0.2617,-0.0225,0.8738,-6.08,7.74,-0.05,19.7
17005,0.2595,-0.0247,0.8745,-5.95,7.76,0.06,19.7
17015,0.262,-0.0243,0.8741,-5.94,7.73,0.02,19.68
17025,0.2637,-0.0267,0.8735,-6.0,7.79,-0.14,19.69
17035,0.2559,-0.0266,0.8678,-5.95,7.76,-0.02,19.67
17045,0.2621,-0.0234,0.868,-5.98,7.77,-0.09,19.69
17055,0.2571,-0.0253,0.8678,-5.91,7.73,-0.03,19.68
17065,0.2582,-0.0225,0.8732,-6.02,7.69,-0.08,19.67
17075,0.2635,-0.0236,0.8787,-6.02,7.76,-0.11,19.67
17085,0.2603,-0.0226,0.8779,-6.0,7.71,-0.08,19.68
17095,0.2628,-0.024,0.8768,-6.02,7.77,-0.08,19.68
17105,0.2607,-0.0259,0.8754,-6.03,7.82,0.02,19.71
17115,0.2618,-0.0245,0.8718,-5.92,7.68,-0.08,19.69
17125,0.2644,-0.0242,0.8737,-6.02,7.69,-0.12,19.7
17135,0.261,-0.0238,0.8727,-6.05,7.73,-0.05,19.71
17145,0.2617,-0.0214,0.8757,-5.98,7.69,0.0,19.7
17155,0.2596,-0.0208,0.8768,-6.09,7.73,-0.11,19.7
17165,0.2651,-0.0221,0.8765,-6.0,7.74,-0.11,19.7
17175,0.2646,-0.0262,0.8701,-5.98,7.71,-0.06,19.69
17185,0.2601,-0.0261,0.87,-6.02,7.66,-0.03,19.69
17195,0.2615,-0.0276,0.873,-6.02,7.71,-0.09,19.7
17205,0.2589,-0.0256,0.8729,-6.06,7.74,-0.05,19.68
17215,0.2611,-0.0269,0.8757,-6.02,7.66,-0.06,19.68
17225,0.2645,-0.0251,0.8762,-6.06,7.66,-0.05,19.7
17235,0.2639,-0.0255,0.8796,-6.09,7.71,-0.05,19.7
17245,0.2639,-0.0238,0.8804,-6.02,7.63,-0.09,19.69
17255,0.2618,-0.0256,0.8757,-6.02,7.74,-0.12,19.69
17265,0.2587,-0.0266,0.8712,-5.92,7.79,-0.06,19.69
17284,0.2596,-0.0284,0.8717,-5.95,7.77,-0.11,19.69
17294,0.2638,-0.0243,0.8777,-5.94,7.76,-0.03,19.68
17304,0.2661,-0.0181,0.8779,-6.03,7.66,-0.08,19.7
17314,0.2661,-0.0238,0.876,-6.11,7.68,-0.14,19.67
17324,0.2642,-0.0232,0.8738,-6.03,7.71,-0.14,19.69
17334,0.2631,-0.02,0.8726,-6.06,7.71,0.0,19.71
17344,0.2615,-0.0205,0.8751,-6.08,7.73,-0.06,19.68
17354,0.2598,-0.0244,0.8719,-6.0,7.73,-0.11,19.69
17364,0.2626,-0.0269,0.8773,-6.0,7.74,-0.09,19.72
17374,0.2615,-0.0276,0.8706,-6.06,7.74,-0.08,19.71
17384,0.2625,-0.0291,0.874,-6.02,7.77,0.0,19.69
17394,0.2609,-0.0297,0.8762,-5.92,7.69,-0.09,19.68
17404,0.2593,-0.0255,0.8765,-6.09,7.74,-0.06,19.7
17414,0.2599,-0.0237,0.8743,-6.06,7.73,-0.09,19.71
17424,0.2633,-0.0215,0.8721,-6.09,7.69,-0.02,19.69
17434,0.2617,-0.0234,0.8728,-6.12,7.71,-0.15,19.69
17444,0.2631,-0.0219,0.8688,-6.03,7.76,-0.05,19.69
17454,0.2661,-0.0237,0.8698,-6.06,7.74,-0.05,19.71
17464,0.2662,-0.0232,0.8727,-6.06,7.76,0.02,19.71
17474,0.2626,-0.0249,0.8732,-6.11,7.8,-0.05,19.7
17484,0.2599,-0.0232,0.8717,-6.08,7.8,0.02,19.71
17494,0.2607,-0.0242,0.8711,-6.0,7.77,0.0,19.7
17504,0.2616,-0.0264,0.8729,-6.02,7.73,0.0,19.69
17514,0.2595,-0.025,0.8711,-6.02,7.73,-0.12,19.72
17524,0.2584,-0.027,0.8744,-6.06,7.77,-0.05,19.68
17534,0.2573,-0.0253,0.8733,-6.11,7.65,0.03,19.69
17544,0.2638,-0.0264,0.8743,-6.14,7.69,-0.08,19.71
17554,0.2629,-0.0244,0.8768,-6.03,7.8,-0.14,19.71
17564,0.2604,-0.0251,0.875,-6.12,7.73,-0.06,19.69
17574,0.2618,-0.0225,0.8771,-6.03,7.69,-0.06,19.71
17584,0.26,-0.0234,0.8748,-6.02,7.76,-0.02,19.72
17594,0.2621,-0.0227,0.8734,-5.98,7.74,0.03,19.69
17604,0.2604,-0.019,0.8783,-6.02,7.74,0.0,19.71
17614,0.2625,-0.0221,0.879,-6.09,7.71,-0.08,19.71
17624,0.2601,-0.0255,0.8726,-6.08,7.69,-0.02,19.71
17634,0.2615,-0.0265,0.8732,-6.09,7.69,-0.08,19.71
17644,0.2593,-0.0262,0.876,-6.02,7.77,-0.12,19.7
17654,0.2628,-0.0298,0.8746,-6.08,7.8,0.05,19.7
17664,0.2626,-0.0306,0.8784,-5.98,7.73,-0.03,19.72
17674,0.2626,-0.0278,0.8789,-5.97,7.63,-0.02,19.69
17684,0.2634,-0.0234,0.8778,-5.95,7.65,-0.06,19.7
17694,0.2607,-0.0212,0.876,-5.95,7.6,0.0,19.7
17704,0.264,-0.0225,0.8708,-5.91,7.73,-0.05,19.72
17714,0.2603,-0.022,0.8724,-6.03,7.82,-0.05,19.71
17724,0.2625,-0.0189,0.8723,-6.09,7.79,-0.11,19.71
17734,0.2626,-0.0217,0.8694,-6.08,7.65,-0.12,19.7
17744,0.2634,-0.0275,0.8694,-5.94,7.65,-0.08,19.71
17754,0.261,-0.0269,0.8745,-6.02,7.85,-0.02,19.71
17764,0.2615,-0.0258,0.8721,-5.95,7.77,-0.05,19.71
17774,0.2686,-0.0272,0.866,-5.98,7.65,-0.08,19.72
17784,0.2604,-0.0271,0.8729,-5.94,7.56,-0.09,19.69
17794,0.2574,-0.0242,0.8711,-6.11,7.71,-0.09,19.72
17804,0.2585,-0.024,0.8799,-6.02,7.88,-0.14,19.71
17814,0.2609,-0.0269,0.8755,-6.05,7.79,-0.12,19.72
17824,0.2626,-0.0251,0.8722,-6.03,7.8,-0.09,19.72
17834,0.2629,-0.0264,0.8713,-5.94,7.76,-0.12,19.74
17844,0.2607,-0.0254,0.8717,-5.97,7.71,-0.02,19.7
17854,0.2596,-0.0284,0.8767,-5.89,7.71,-0.06,19.73
17864,0.2612,-0.0242,0.8743,-5.88,7.69,-0.02,19.7
17874,0.2645,-0.0229,0.876,-5.88,7.76,-0.03,19.72
17884,0.262,-0.0234,0.8762,-5.95,7.74,-0.05,19.69
17894,0.2603,-0.0203,0.8733,-5.98,7.74,-0.03,19.71
17904,0.2609,-0.0167,0.8782,-6.02,7.76,-0.05,19.72
17914,0.2592,-0.0249,0.8767,-6.0,7.77,-0.12,19.71
17924,0.2583,-0.0234,0.8782,-6.05,7.8,-0.08,19.7
17934,0.2612,-0.0244,0.8743,-6.03,7.77,-0.08,19.71
17944,0.2633,-0.025,0.8773,-6.08,7.73,-0.08,19.72
17954,0.2664,-0.026,0.8732,-5.98,7.62,-0.08,19.71
17964,0.2616,-0.0271,0.876,-6.05,7.65,0.0,19.72
17974,0.2627,-0.0222,0.8796,-6.03,7.76,-0.09,19.71
17984,0.2611,-0.0242,0.8718,-6.02,7.74,-0.02,19.7
17994,0.261,-0.0198,0.8704,-5.97,7.69,0.02,19.71
18004,0.2643,-0.0194,0.8737,-6.06,7.71,0.02,19.7
18014,0.2622,-0.0194,0.8695,-6.06,7.66,-0.03,19.71
18024,0.2604,-0.0233,0.8718,-6.08,7.69,-0.05,19.74
18034,0.2606,-0.0242,0.8729,-6.08,7.73,-0.05,19.72
18044,0.2592,-0.0243,0.8716,-6.09,7.68,-0.05,19.69
18054,0.2594,-0.0247,0.8724,-6.11,7.71,-0.02,19.71
18064,0.2582,-0.0264,0.8715,-6.06,7.73,-0.09,19.74
18074,0.262,-0.0255,0.8749,-6.08,7.68,-0.09,19.72
18084,0.2626,-0.0243,0.8748,-6.0,7.74,-0.08,19.71
18094,0.2574,-0.0225,0.8751,-6.02,7.77,-0.11,19.72
18104,0.2598,-0.024,0.8732,-5.92,7.83,-0.05,19.7
18114,0.2603,-0.0233,0.8733,-6.0,7.76,-0.03,19.72
18124,0.264,-0.0254,0.8728,-6.06,7.73,-0.06,19.71
18134,0.2655,-0.025,0.8696,-6.18,7.69,-0.08,19.74
18144,0.2662,-0.0226,0.8762,-6.05,7.69,-0.03,19.72
18154,0.2676,-0.027,0.8716,-6.08,7.59,-0.05,19.73
18164,0.2683,-0.0253,0.8737,-6.15,7.65,-0.05,19.7
18174,0.264,-0.0247,0.8718,-6.11,7.62,-0.09,19.73
18184,0.2623,-0.0266,0.8732,-6.0,7.65,-0.08,19.7
18194,0.2603,-0.0255,0.875,-6.02,7.79,0.0,19.71
18204,0.2596,-0.026,0.8716,-5.95,7.69,-0.02,19.74
18214,0.2622,-0.024,0.8699,-5.95,7.69,-0.08,19.73
18224,0.2631,-0.0249,0.874,-6.06,7.68,-0.03,19.73
18234,0.2661,-0.0248,0.8781,-6.11,7.74,-0.12,19.71
18244,0.264,-0.0239,0.874,-6.08,7.71,-0.03,19.72
18254,0.2644,-0.027,0.8761,-6.05,7.65,-0.05,19.72
18264,0.261,-0.0266,0.8749,-6.11,7.73,0.0,19.72
18274,0.2628,-0.025,0.8752,-6.03,7.77,0.05,19.72
18284,0.262,-0.0248,0.8763,-6.05,7.8,-0.02,19.72
18294,0.2649,-0.0238,0.8728,-6.0,7.57,0.03,19.72
18304,0.259,-0.0262,0.8724,-6.03,7.82,-0.05,19.73
18314,0.2626,-0.0253,0.8767,-6.06,7.74,0.03,19.74
18324,0.2666,-0.0271,0.8718,-5.92,7.68,0.02,19.7
18334,0.2592,-0.0248,0.8706,-5.98,7.76,0.0,19.73
18344,0.2604,-0.0215,0.8727,-6.03,7.73,-0.06,19.73
18354,0.2632,-0.0255,0.8713,-6.03,7.82,-0.06,19.72
18364,0.2625,-0.0273,0.8691,-5.97,7.63,-0.09,19.73
18374,0.259,-0.0278,0.8748,-5.97,7.74,-0.03,19.73
18384,0.2576,-0.0238,0.8767,-6.05,7.88,-0.11,19.72
18394,0.26,-0.0256,0.8706,-6.06,7.88,-0.08,19.73
18404,0.2618,-0.0194,0.8726,-6.08,7.76,-0.06,19.73
18414,0.2579,-0.022,0.8757,-6.03,7.68,0.0,19.72
18424,0.2585,-0.0228,0.875,-6.08,7.71,-0.11,19.73
18434,0.2588,-0.0227,0.874,-6.03,7.77,-0.05,19.73
18444,0.2601,-0.0219,0.8756,-6.08,7.71,-0.12,19.74
18454,0.2617,-0.0248,0.877,-6.08,7.71,0.03,19.73
18464,0.2607,-0.0261,0.8761,-6.02,7.69,-0.02,19.73
18474,0.2606,-0.0273,0.8745,-6.12,7.74,0.0,19.71
18484,0.2607,-0.0259,0.8763,-6.09,7.77,-0.06,19.73
18494,0.2643,-0.0256,0.8693,-6.03,7.68,-0.06,19.72
18504,0.2645,-0.024,0.871,-6.0,7.77,-0.05,19.74
18514,0.2657,-0.0222,0.8751,-6.12,7.77,-0.03,19.74
18524,0.2661,-0.0211,0.8785,-6.09,7.69,-0.08,19.71
18534,0.2628,-0.0208,0.8771,-6.11,7.71,-0.08,19.71
18544,0.2625,-0.0245,0.873,-6.15,7.68,-0.14,19.72
18554,0.259,-0.027,0.876,-6.15,7.66,-0.06,19.71
18564,0.261,-0.0294,0.8716,-6.05,7.8,-0.05,19.71
18574,0.2622,-0.0237,0.8695,-6.03,7.69,-0.05,19.72
18584,0.2617,-0.0254,0.8717,-6.12,7.76,0.05,19.74
18594,0.2616,-0.0215,0.8737,-6.12,7.76,0.06,19.7
18604,0.2599,-0.0222,0.8746,-6.14,7.74,-0.08,19.71
18614,0.2566,-0.0178,0.8766,-6.15,7.76,-0.05,19.72
18624,0.2566,-0.0179,0.8712,-6.17,7.76,-0.05,19.73
18634,0.2571,-0.0192,0.8724,-6.15,7.76,-0.06,19.72
18644,0.26,-0.0254,0.8745,-6.15,7.68,-0.12,19.72
18654,0.26,-0.0238,0.8722,-6.17,7.71,-0.12,19.72
18664,0.2601,-0.0286,0.8721,-6.11,7.76,-0.11,19.72
18674,0.2623,-0.0316,0.8671,-6.08,7.76,-0.08,19.71
18684,0.2632,-0.0349,0.8676,-6.02,7.85,-0.06,19.73
18694,0.261,-0.033,0.868,-6.02,7.76,-0.11,19.72
18704,0.2659,-0.0321,0.8671,-5.91,7.76,0.0,19.73
18714,0.2654,-0.0293,0.8705,-6.06,7.74,-0.05,19.72
18724,0.2644,-0.0275,0.8676,-5.86,7.77,-0.08,19.72
18734,0.2644,-0.0242,0.8698,-5.85,7.85,-0.05,19.72
18744,0.2648,-0.0234,0.873,-5.97,7.77,-0.11,19.74
18754,0.2654,-0.0217,0.8723,-5.95,7.77,-0.06,19.74
18764,0.2628,-0.0203,0.8781,-6.03,7.77,-0.08,19.74
18774,0.2612,-0.0214,0.879,-5.97,7.82,-0.06,19.73
18784,0.2632,-0.0221,0.8762,-5.98,7.82,-0.09,19.7
18794,0.2622,-0.019,0.8698,-5.97,7.69,-0.08,19.72
18804,0.2588,-0.0225,0.8728,-5.88,7.79,-0.09,19.72
18814,0.2529,-0.0228,0.8785,-5.98,7.85,-0.06,19.72
18824,0.2577,-0.0238,0.877,-5.94,7.89,-0.03,19.7
18834,0.2618,-0.0267,0.8763,-6.12,7.74,-0.06,19.73
18844,0.262,-0.0248,0.8717,-6.06,7.6,-0.08,19.73
18854,0.2615,-0.0236,0.8798,-6.08,7.69,-0.03,19.73
18864,0.2617,-0.0233,0.8749,-6.12,7.88,-0.05,19.73
18874,0.2623,-0.0264,0.8745,-6.0,7.69,-0.08,19.72
18884,0.2625,-0.0261,0.8738,-5.89,7.63,-0.06,19.75
18894,0.2573,-0.0278,0.8723,-6.03,7.63,-0.08,19.72
18904,0.2587,-0.0258,0.8729,-6.06,7.76,-0.09,19.72
18914,0.2596,-0.0277,0.8711,-6.09,7.73,-0.03,19.73
18924,0.2596,-0.0225,0.8699,-6.02,7.66,-0.03,19.71
18934,0.2611,-0.0236,0.8726,-5.94,7.77,-0.11,19.71
18944,0.2587,-0.0225,0.8733,-5.95,7.73,-0.02,19.75
18954,0.2588,-0.0223,0.8724,-5.95,7.71,-0.03,19.73
18964,0.2606,-0.0217,0.8732,-6.02,7.66,-0.03,19.73
18974,0.2609,-0.0229,0.875,-6.03,7.71,-0.06,19.72
18984,0.2596,-0.0234,0.8757,-6.03,7.74,-0.02,19.7
18994,0.2574,-0.0266,0.8743,-5.95,7.73,-0.06,19.72
19004,0.2606,-0.0258,0.8715,-5.95,7.69,0.02,19.74
19014,0.2598,-0.0248,0.8744,-5.97,7.71,-0.03,19.73
19024,0.2605,-0.0227,0.8759,-5.98,7.73,-0.09,19.73
19034,0.2622,-0.0212,0.8765,-5.98,7.73,-0.03,19.72
19044,0.2618,-0.0209,0.8745,-5.98,7.65,-0.03,19.74
19054,0.2594,-0.0198,0.874,-6.06,7.68,-0.02,19.75
19064,0.2633,-0.0242,0.8699,-6.05,7.73,-0.08,19.73
19074,0.264,-0.0236,0.8699,-5.95,7.69,-0.06,19.72
19084,0.2621,-0.0267,0.8778,-6.06,7.63,-0.08,19.75
19094,0.2637,-0.0258,0.877,-6.0,7.71,-0.08,19.75
19104,0.2618,-0.0276,0.8783,-6.06,7.66,-0.05,19.73
19114,0.2632,-0.0294,0.8749,-6.05,7.63,-0.05,19.74
19124,0.2604,-0.024,0.8737,-6.0,7.71,-0.06,19.74
19134,0.2612,-0.0237,0.8751,-6.02,7.74,-0.12,19.74
19144,0.261,-0.0236,0.8761,-5.94,7.65,-0.12,19.73
19154,0.2592,-0.025,0.8713,-6.02,7.74,-0.08,19.74
19164,0.2598,-0.0233,0.8744,-6.0,7.68,-0.06,19.73
19174,0.2633,-0.0212,0.8708,-6.02,7.79,-0.09,19.74
19184,0.2603,-0.0259,0.8715,-6.06,7.71,-0.06,19.72
19194,0.2623,-0.0216,0.8774,-5.97,7.71,-0.02,19.73
19204,0.2598,-0.0233,0.8796,-6.0,7.73,-0.02,19.74
19214,0.2638,-0.0226,0.8806,-6.03,7.73,-0.08,19.74
19224,0.2639,-0.0238,0.8763,-6.0,7.74,0.0,19.73
19234,0.2623,-0.0291,0.874,-6.02,7.8,-0.03,19.76
19244,0.2607,-0.0291,0.8733,-6.12,7.69,-0.08,19.75
19254,0.2635,-0.027,0.8784,-6.11,7.73,-0.17,19.75
19264,0.2644,-0.0288,0.8754,-6.12,7.74,-0.05,19.74
19274,0.2623,-0.0287,0.8772,-6.05,7.76,0.02,19.73
19284,0.261,-0.0284,0.8767,-6.03,7.74,-0.06,19.76
19294,0.2645,-0.0225,0.8761,-6.09,7.8,-0.06,19.73
19304,0.2627,-0.0229,0.879,-6.02,7.77,-0.08,19.74
19314,0.2625,-0.0244,0.8748,-6.02,7.74,-0.08,19.73
19324,0.2616,-0.0247,0.8746,-5.98,7.74,-0.11,19.73
19334,0.2568,-0.0242,0.8768,-6.03,7.83,-0.05,19.72
19344,0.2557,-0.0198,0.8741,-6.0,7.63,-0.03,19.72
19354,0.2615,-0.0223,0.8743,-6.02,7.77,-0.02,19.72
19364,0.262,-0.0253,0.8746,-6.03,7.76,0.06,19.71
19374,0.262,-0.025,0.8761,-5.97,7.73,0.03,19.71
19384,0.2627,-0.0245,0.8717,-6.02,7.71,0.0,19.74
19394,0.2582,-0.0269,0.8735,-5.92,7.8,0.02,19.75
19404,0.2607,-0.0244,0.8759,-6.03,7.79,-0.08,19.75
19414,0.2601,-0.022,0.8741,-6.02,7.71,-0.06,19.72
19424,0.2605,-0.0219,0.8722,-5.92,7.74,-0.05,19.72
19434,0.2634,-0.0221,0.874,-5.95,7.74,-0.08,19.72
19444,0.2603,-0.0238,0.8762,-6.03,7.71,-0.05,19.71
19454,0.2616,-0.0239,0.8728,-5.95,7.69,0.03,19.72
19464,0.2581,-0.0234,0.8765,-6.14,7.68,-0.03,19.72
19474,0.2643,-0.0215,0.8668,-6.02,7.71,-0.06,19.72
19484,0.2612,-0.0238,0.8745,-6.06,7.69,-0.11,19.73
19494,0.26,-0.0265,0.8763,-6.06,7.76,-0.06,19.74
19504,0.2631,-0.0243,0.8756,-6.05,7.62,-0.03,19.73
19514,0.2626,-0.0259,0.873,-6.03,7.63,-0.06,19.73
19524,0.2638,-0.0267,0.8741,-6.09,7.66,-0.11,19.73
19534,0.2615,-0.0267,0.8724,-6.03,7.71,-0.11,19.75
19544,0.2617,-0.0264,0.8693,-6.0,7.68,-0.05,19.74
19554,0.2627,-0.0219,0.8735,-6.03,7.69,-0.05,19.74
19564,0.2632,-0.0237,0.8717,-6.12,7.69,-0.05,19.74
19574,0.2632,-0.0269,0.8726,-6.06,7.76,-0.03,19.73
19584,0.2612,-0.024,0.8734,-5.97,7.79,-0.14,19.72
19594,0.2598,-0.0244,0.87,-5.92,7.69,-0.08,19.73
19604,0.2609,-0.0259,0.8704,-6.05,7.71,-0.11,19.71
19614,0.2618,-0.0221,0.8722,-6.03,7.74,-0.08,19.74
19624,0.2664,-0.0238,0.8756,-6.15,7.66,-0.05,19.72
19634,0.2609,-0.0236,0.8745,-6.09,7.76,-0.17,19.74
19644,0.2649,-0.0249,0.8783,-6.09,7.66,-0.12,19.74
19654,0.2642,-0.0242,0.8771,-6.05,7.62,-0.14,19.73
19664,0.2646,-0.0201,0.8744,-6.11,7.74,-0.08,19.72
19674,0.2555,-0.0277,0.879,-6.06,7.85,-0.02,19.74
19684,0.2572,-0.0243,0.8811,-6.21,7.94,-0.2,19.72
19694,0.2612,-0.0278,0.8588,-6.12,7.71,-0.2,19.75
19704,0.2578,-0.0339,0.8702,-6.0,7.51,-0.15,19.71
19714,0.2697,-0.0555,0.8623,-5.92,7.91,-0.12,19.74
19724,0.2621,-0.021,0.8591,-5.65,7.56,-0.02,19.74
19734,0.2732,-0.0159,0.8992,-5.63,7.69,0.06,19.75
19744,0.2654,-0.0149,0.8853,-5.86,8.17,0.21,19.74
19754,0.2598,-0.0109,0.8665,-5.97,7.42,0.14,19.72
19764,0.2675,-0.0016,0.8987,-6.18,7.88,0.02,19.74
19774,0.2528,-0.006,0.8589,-6.27,8.2,-0.08,19.74
19784,0.2483,-0.0254,0.848,-6.09,7.22,-0.11,19.74
19794,0.259,-0.0217,0.8895,-6.2,7.83,-0.23,19.7
19804,0.2568,-0.0356,0.8569,-6.14,7.89,-0.21,19.7
19814,0.2601,-0.0529,0.8704,-5.95,7.27,-0.05,19.74
19824,0.2715,-0.0409,0.8976,-6.08,7.89,-0.09,19.74
19834,0.2629,-0.0364,0.8741,-6.02,7.83,-0.09,19.73
19844,0.2646,-0.0281,0.8787,-6.12,7.42,-0.03,19.73
19854,0.2615,-0.0192,0.8818,-6.06,7.94,-0.05,19.75
19864,0.2557,-0.0172,0.8627,-5.95,7.83,-0.03,19.74
19874,0.2593,-0.0123,0.8718,-5.94,7.62,-0.02,19.73
19884,0.2599,-0.0133,0.8818,-5.95,7.83,-0.03,19.72
19894,0.2598,-0.0192,0.8708,-6.03,7.71,-0.08,19.72
19904,0.2651,-0.0234,0.877,-6.02,7.63,-0.11,19.72
19914,0.2659,-0.0283,0.8755,-6.2,7.82,-0.03,19.74
19924,0.2644,-0.0286,0.8706,-6.12,7.73,-0.05,19.75
19934,0.2639,-0.0299,0.8727,-6.12,7.71,-0.05,19.73
19944,0.2606,-0.0278,0.8728,-6.03,7.66,0.0,19.74
19954,0.2632,-0.0253,0.8741,-5.98,7.77,-0.09,19.74
19964,0.2609,-0.0247,0.8792,-5.85,7.69,-0.05,19.75
19974,0.2637,-0.026,0.8809,-6.0,7.69,0.0,19.72
19984,0.2649,-0.0239,0.8789,-5.98,7.76,-0.03,19.74
19994,0.264,-0.0259,0.8793,-5.95,7.66,-0.08,19.76
20004,0.2638,-0.0265,0.8796,-5.98,7.73,-0.02,19.76
20014,0.2621,-0.0303,0.8804,-6.05,7.79,-0.11,19.74
20024,0.2583,-0.0249,0.8687,-5.92,7.69,-0.12,19.72
20034,0.2584,-0.0231,0.8735,-5.91,7.71,-0.06,19.76
20044,0.2614,-0.0228,0.8695,-6.03,7.73,-0.09,19.75
20054,0.2598,-0.0201,0.8739,-6.09,7.74,-0.05,19.72
20064,0.2604,-0.0181,0.8741,-6.17,7.62,-0.09,19.74
20074,0.2606,-0.0225,0.8702,-6.12,7.74,-0.05,19.75
20084,0.2622,-0.0234,0.8668,-6.18,7.71,-0.08,19.73
20094,0.2587,-0.0244,0.8706,-6.14,7.62,-0.06,19.74
20104,0.2601,-0.0247,0.8739,-6.18,7.63,-0.08,19.73
20114,0.2599,-0.0264,0.8696,-6.03,7.73,-0.06,19.73
20124,0.2615,-0.0281,0.8722,-5.98,7.69,-0.06,19.72
20134,0.2627,-0.0283,0.8748,-6.05,7.65,-0.05,19.74
20144,0.2628,-0.026,0.8712,-6.0,7.71,-0.03,19.72
20154,0.2611,-0.0229,0.8706,-6.05,7.69,0.0,19.74
20164,0.2617,-0.0242,0.8704,-6.12,7.69,-0.06,19.74
20174,0.2629,-0.0249,0.8712,-6.02,7.74,-0.06,19.75
20184,0.2618,-0.0208,0.8688,-6.03,7.74,-0.05,19.78
20194,0.264,-0.0247,0.8734,-6.11,7.71,-0.03,19.73
20204,0.2634,-0.0273,0.874,-6.0,7.69,-0.06,19.75
20214,0.2633,-0.0262,0.8812,-6.11,7.66,-0.11,19.75
20224,0.2644,-0.0259,0.8807,-6.05,7.68,0.03,19.73
20234,0.2615,-0.021,0.8873,-6.02,7.83,-0.05,19.74
20244,0.2645,-0.0201,0.8777,-6.06,7.73,-0.02,19.72
20254,0.2648,-0.0205,0.8718,-6.02,7.53,0.0,19.74
20264,0.2567,-0.0209,0.8712,-6.05,7.76,-0.02,19.76
20274,0.2539,-0.0204,0.87,-6.08,7.77,0.02,19.74
20284,0.2631,-0.0183,0.8678,-6.27,7.71,0.0,19.76
20294,0.2598,-0.0201,0.8624,-6.18,7.68,-0.09,19.76
20304,0.2623,-0.0227,0.8701,-6.15,7.62,-0.05,19.75
20314,0.2614,-0.0243,0.8734,-6.23,7.65,-0.09,19.73
20324,0.2632,-0.0275,0.8696,-6.12,7.74,-0.14,19.75
20334,0.2635,-0.0286,0.8806,-6.09,7.76,-0.15,19.75
20344,0.2632,-0.0267,0.8776,-6.08,7.71,-0.08,19.75
20354,0.2578,-0.0276,0.877,-6.06,7.71,-0.12,19.74
20364,0.2599,-0.0245,0.8784,-6.12,7.73,-0.03,19.77
20374,0.2576,-0.0234,0.8745,-6.05,7.74,0.03,19.74
20384,0.2561,-0.0231,0.8733,-6.12,7.77,-0.11,19.73
20394,0.2595,-0.0233,0.8782,-6.15,7.76,-0.03,19.77
20404,0.262,-0.0245,0.8752,-6.08,7.68,0.03,19.74
20414,0.2617,-0.0262,0.8767,-6.0,7.69,-0.06,19.74
20424,0.2643,-0.0269,0.8774,-5.89,7.66,-0.08,19.75
20434,0.2681,-0.0275,0.8762,-6.0,7.74,-0.05,19.77
20444,0.2633,-0.0244,0.8755,-6.12,7.76,-0.05,19.75
20454,0.2635,-0.0243,0.8733,-6.08,7.71,-0.03,19.75
20464,0.2631,-0.0227,0.8696,-6.18,7.68,-0.08,19.75
20474,0.2629,-0.0227,0.8671,-6.03,7.59,-0.09,19.75
20484,0.264,-0.0239,0.8737,-6.0,7.62,0.02,19.75
20494,0.2625,-0.0247,0.8727,-6.02,7.68,-0.03,19.76
20504,0.2657,-0.0295,0.8727,-5.98,7.57,0.0,19.76
20514,0.2615,-0.0276,0.8722,-6.06,7.63,-0.05,19.74
20524,0.2585,-0.0291,0.8689,-6.06,7.59,-0.09,19.76
20534,0.2614,-0.0245,0.8677,-6.08,7.62,0.02,19.74
20544,0.2604,-0.0267,0.8658,-6.11,7.69,-0.06,19.75
20554,0.2623,-0.0233,0.8683,-6.18,7.65,0.05,19.75
20564,0.2618,-0.0258,0.8665,-6.0,7.68,0.03,19.73
20574,0.2654,-0.0255,0.8723,-5.98,7.71,-0.05,19.75
20584,0.2633,-0.0248,0.8759,-6.0,7.68,-0.02,19.74
20594,0.259,-0.0259,0.8792,-5.98,7.74,-0.02,19.74
20604,0.2578,-0.0243,0.8732,-6.02,7.76,-0.03,19.75
20614,0.2567,-0.0258,0.8732,-6.09,7.66,-0.06,19.77
20624,0.2599,-0.0262,0.8759,-6.11,7.62,0.0,19.77
20634,0.2612,-0.0225,0.8788,-6.02,7.66,-0.02,19.75
20644,0.2601,-0.0243,0.876,-6.06,7.68,-0.02,19.77
20654,0.2609,-0.0217,0.8804,-6.0,7.71,-0.06,19.75
20664,0.2601,-0.0243,0.8751,-5.92,7.71,-0.05,19.76
20674,0.2596,-0.0272,0.8761,-5.94,7.71,-0.05,19.74
20684,0.2606,-0.027,0.8707,-5.82,7.76,-0.08,19.77
20694,0.2627,-0.0264,0.875,-6.02,7.74,-0.03,19.76
20704,0.2609,-0.0214,0.876,-6.03,7.8,-0.02,19.74
20714,0.2623,-0.0232,0.8755,-6.03,7.8,-0.08,19.77
20724,0.2603,-0.019,0.8735,-6.06,7.74,-0.18,19.75
20734,0.2662,-0.0231,0.8789,-6.02,7.82,-0.11,19.76
20744,0.2616,-0.0249,0.8734,-5.94,7.74,-0.08,19.76
20754,0.2656,-0.0261,0.8726,-5.97,7.79,-0.02,19.76
20764,0.2611,-0.0266,0.8788,-5.88,7.79,-0.03,19.77
20774,0.2595,-0.0256,0.8746,-5.98,7.8,-0.06,19.77
20784,0.2581,-0.0259,0.8744,-6.02,7.86,-0.09,19.75
20794,0.2627,-0.0234,0.8743,-6.05,7.8,-0.08,19.75
20804,0.2615,-0.0237,0.8701,-6.09,7.82,-0.09,19.75
20814,0.2622,-0.0225,0.871,-6.05,7.8,-0.03,19.77
20824,0.2593,-0.0233,0.8744,-6.02,7.88,-0.09,19.77
20834,0.2606,-0.0242,0.874,-6.0,7.76,-0.08,19.74
20844,0.2604,-0.0253,0.8746,-6.02,7.66,-0.08,19.75
20854,0.257,-0.0258,0.8765,-5.98,7.79,-0.05,19.75
20864,0.2621,-0.0249,0.8732,-5.98,7.73,-0.02,19.77
20874,0.2614,-0.0227,0.8699,-6.08,7.66,-0.02,19.78
20884,0.2616,-0.0195,0.8768,-6.06,7.74,-0.05,19.75
20894,0.2596,-0.0181,0.8728,-6.09,7.73,-0.05,19.77
20904,0.2632,-0.0205,0.8782,-6.15,7.68,-0.03,19.75
20914,0.2623,-0.0237,0.8777,-6.03,7.62,-0.06,19.76
20924,0.2625,-0.0292,0.8751,-6.15,7.73,-0.06,19.74
20934,0.2623,-0.0273,0.8698,-6.11,7.63,-0.09,19.75
20944,0.2593,-0.0311,0.8707,-6.15,7.71,-0.05,19.76
20954,0.2614,-0.0319,0.8696,-6.21,7.77,-0.03,19.78
20964,0.2596,-0.0314,0.8716,-6.05,7.69,-0.06,19.75
20974,0.2626,-0.0247,0.871,-6.14,7.62,-0.03,19.77
20984,0.2627,-0.0206,0.8763,-6.06,7.69,-0.05,19.75
20994,0.2621,-0.0204,0.8757,-5.95,7.71,-0.06,19.74
21004,0.2642,-0.0197,0.8772,-5.98,7.73,-0.02,19.75
21014,0.2611,-0.0214,0.8755,-6.03,7.71,-0.06,19.76
21024,0.2612,-0.022,0.8716,-6.12,7.69,-0.08,19.75
21034,0.2634,-0.0256,0.873,-6.06,7.69,-0.12,19.74
21044,0.2603,-0.0284,0.8718,-6.02,7.69,-0.12,19.74
21054,0.2589,-0.0308,0.8711,-6.05,7.71,-0.14,19.76
21064,0.2629,-0.03,0.8693,-6.06,7.63,-0.05,19.75
21074,0.2626,-0.0282,0.8729,-5.95,7.71,-0.06,19.75
21084,0.2625,-0.0286,0.8776,-5.97,7.73,-0.12,19.74
21094,0.2618,-0.0284,0.8813,-5.88,7.71,-0.08,19.76
21104,0.2627,-0.0227,0.8785,-5.91,7.66,-0.05,19.76
21114,0.2603,-0.0236,0.8762,-5.92,7.68,-0.12,19.75
21124,0.2631,-0.0226,0.8704,-5.95,7.74,-0.08,19.76
21134,0.2614,-0.0181,0.8739,-6.02,7.83,-0.05,19.75
21144,0.2632,-0.019,0.8716,-5.89,7.76,-0.12,19.74
21154,0.2611,-0.0203,0.8733,-6.06,7.77,0.03,19.71
21164,0.2615,-0.0226,0.8719,-6.0,7.73,-0.06,19.73
21174,0.2576,-0.025,0.8721,-6.12,7.76,-0.06,19.75
21184,0.2584,-0.0248,0.8707,-6.11,7.76,0.0,19.74
21194,0.2581,-0.0236,0.8745,-6.12,7.74,0.0,19.73
21204,0.2595,-0.0254,0.8724,-6.15,7.77,-0.08,19.76
21214,0.2638,-0.0254,0.8741,-6.06,7.74,-0.06,19.76
21224,0.2642,-0.0237,0.8756,-6.11,7.71,-0.08,19.76
21234,0.2642,-0.0244,0.8773,-6.12,7.73,-0.02,19.76
21244,0.2618,-0.0254,0.8754,-6.09,7.73,-0.05,19.75
21254,0.2645,-0.0256,0.875,-6.08,7.68,-0.09,19.74
21264,0.2616,-0.0258,0.8728,-6.15,7.69,-0.09,19.76
21274,0.2625,-0.0239,0.8718,-6.03,7.76,-0.05,19.75
21284,0.2618,-0.0247,0.8713,-6.02,7.79,0.02,19.74
21294,0.2609,-0.024,0.874,-6.08,7.73,0.06,19.77
21304,0.2603,-0.0249,0.876,-5.97,7.76,-0.05,19.74
21314,0.262,-0.0209,0.8746,-6.03,7.76,-0.03,19.76
21324,0.2632,-0.0242,0.8768,-6.03,7.77,-0.11,19.74
21334,0.261,-0.0253,0.8739,-6.02,7.77,-0.09,19.77
21344,0.2616,-0.0245,0.8768,-5.97,7.71,-0.08,19.77
21354,0.2598,-0.0237,0.8777,-6.02,7.69,-0.06,19.76
21364,0.2601,-0.0239,0.8748,-6.0,7.73,-0.05,19.77
21374,0.2588,-0.026,0.8763,-5.97,7.76,-0.11,19.75
21384,0.2627,-0.0264,0.8754,-5.97,7.76,-0.02,19.75
21394,0.2648,-0.0264,0.873,-5.94,7.74,-0.08,19.76
21404,0.2607,-0.0262,0.8745,-5.88,7.85,-0.09,19.76
21414,0.26,-0.0225,0.8743,-5.94,7.74,0.05,19.77
21424,0.2634,-0.0231,0.8744,-6.03,7.76,-0.08,19.76
21434,0.2616,-0.025,0.8767,-5.94,7.77,-0.08,19.75
21444,0.2578,-0.0233,0.8745,-5.98,7.76,-0.03,19.75
21454,0.2593,-0.0243,0.877,-5.98,7.73,-0.14,19.73
21464,0.2623,-0.0249,0.875,-6.05,7.63,-0.14,19.77
21474,0.2603,-0.0229,0.8762,-6.09,7.66,-0.03,19.76
21484,0.2627,-0.0273,0.88,-6.06,7.71,-0.05,19.75
21494,0.2648,-0.028,0.877,-6.02,7.73,-0.05,19.76
21504,0.2633,-0.0265,0.8754,-6.09,7.69,-0.05,19.73
21514,0.2628,-0.0256,0.8759,-5.97,7.71,-0.02,19.73
21524,0.2612,-0.0267,0.8762,-6.12,7.66,0.03,19.77
21534,0.2622,-0.0243,0.8704,-6.05,7.73,-0.03,19.77
21544,0.2607,-0.0251,0.8698,-6.08,7.74,-0.06,19.76
21554,0.2585,-0.0238,0.8694,-6.11,7.68,0.0,19.75
21564,0.2604,-0.0251,0.8715,-6.06,7.71,-0.06,19.75
21574,0.2599,-0.0271,0.8729,-6.0,7.76,0.03,19.73
21584,0.2607,-0.0236,0.8755,-5.98,7.68,-0.06,19.77
21594,0.2588,-0.0222,0.8677,-6.06,7.68,-0.08,19.79
21604,0.2605,-0.0249,0.8701,-6.09,7.65,-0.12,19.76
21614,0.261,-0.0249,0.8706,-6.0,7.73,-0.03,19.77
21624,0.2605,-0.0221,0.8738,-6.06,7.73,-0.06,19.74
21634,0.2621,-0.0255,0.8679,-6.08,7.73,-0.06,19.75
21644,0.261,-0.0247,0.8674,-6.02,7.76,-0.08,19.77
21654,0.2605,-0.0284,0.8695,-6.09,7.69,-0.06,19.78
21664,0.2632,-0.0272,0.8745,-5.92,7.79,-0.08,19.75
21674,0.2626,-0.0195,0.8829,-6.06,7.79,-0.11,19.74
21684,0.2537,-0.0237,0.8824,-5.88,7.79,-0.15,19.75
21694,0.262,-0.0258,0.8807,-5.97,7.85,-0.11,19.77
21704,0.2545,-0.0254,0.8802,-6.02,7.82,-0.06,19.74
21714,0.2548,-0.0261,0.8837,-5.95,7.91,-0.15,19.76
21724,0.2595,-0.0267,0.8827,-6.02,7.85,-0.06,19.77
21734,0.2584,-0.0272,0.8726,-5.92,7.73,-0.09,19.77
21744,0.2593,-0.0238,0.8796,-5.94,7.69,-0.03,19.77
21754,0.2589,-0.025,0.8772,-5.89,7.88,-0.03,19.74
21764,0.2604,-0.0244,0.8689,-5.92,7.65,0.03,19.77
21774,0.2595,-0.0205,0.8759,-5.97,7.65,-0.05,19.76
21784,0.2559,-0.0208,0.876,-6.03,7.8,-0.08,19.77
21794,0.2578,-0.0201,0.8761,-5.98,7.71,-0.08,19.76
21804,0.2622,-0.0228,0.8788,-6.08,7.74,-0.11,19.74
21814,0.2637,-0.0212,0.8778,-6.14,7.85,-0.06,19.78
21824,0.2634,-0.0237,0.8702,-6.02,7.77,0.0,19.75
21834,0.2601,-0.0236,0.8748,-5.92,7.66,-0.11,19.74
21844,0.2607,-0.0237,0.8772,-6.03,7.66,-0.02,19.75
21854,0.261,-0.0247,0.8767,-6.02,7.71,-0.06,19.75
21864,0.2611,-0.0219,0.8754,-6.05,7.71,-0.08,19.76
21874,0.2599,-0.0228,0.8749,-6.06,7.71,0.0,19.75
21884,0.2614,-0.0233,0.8712,-5.98,7.73,-0.05,19.77
21894,0.2625,-0.021,0.8768,-6.05,7.69,-0.09,19.76
21904,0.2599,-0.0273,0.8732,-6.08,7.69,-0.03,19.75
21914,0.2609,-0.0244,0.8719,-6.08,7.69,-0.03,19.74
21924,0.2593,-0.0243,0.873,-6.11,7.74,-0.11,19.77
21934,0.2601,-0.0216,0.8702,-6.11,7.79,-0.06,19.79
21944,0.2579,-0.0234,0.8721,-6.15,7.8,0.02,19.75
21954,0.2622,-0.0234,0.8721,-6.09,7.71,-0.08,19.75
21964,0.2612,-0.0239,0.8708,-6.03,7.73,-0.05,19.77
21974,0.2625,-0.0244,0.8724,-6.0,7.73,0.03,19.77
21984,0.2611,-0.0248,0.8711,-5.94,7.69,-0.03,19.77
21994,0.2599,-0.025,0.8748,-5.97,7.76,-0.03,19.76
22004,0.2609,-0.0227,0.8744,-5.98,7.82,0.0,19.77
22014,0.2661,-0.0264,0.8765,-5.92,7.73,0.02,19.77
22024,0.2629,-0.0245,0.8771,-5.97,7.86,-0.02,19.75
22034,0.2588,-0.0223,0.8788,-5.95,7.76,-0.08,19.76
22044,0.261,-0.0251,0.8752,-6.08,7.74,-0.09,19.79
22054,0.265,-0.0244,0.8779,-6.08,7.77,-0.12,19.74
22064,0.2604,-0.0261,0.8767,-6.05,7.74,-0.03,19.78
22074,0.2616,-0.0271,0.8737,-6.08,7.8,0.0,19.77
22084,0.2601,-0.0287,0.8785,-5.91,7.8,-0.03,19.77
22094,0.2629,-0.0266,0.8759,-5.91,7.82,0.0,19.75
22104,0.2617,-0.0237,0.8779,-5.95,7.82,-0.06,19.77
22114,0.2599,-0.0256,0.8732,-5.94,7.83,-0.03,19.75
22124,0.2638,-0.0249,0.876,-5.97,7.88,-0.06,19.75
22134,0.2631,-0.0243,0.8754,-6.08,7.73,-0.05,19.76
22144,0.2627,-0.02,0.8756,-5.94,7.79,0.0,19.75
22154,0.2614,-0.0204,0.8781,-6.06,7.74,-0.09,19.76
22164,0.2611,-0.0242,0.8759,-6.03,7.66,-0.06,19.77
22174,0.2611,-0.0232,0.8689,-5.95,7.73,-0.08,19.77
22184,0.264,-0.0278,0.8721,-6.17,7.73,-0.06,19.78
22194,0.2582,-0.0289,0.8684,-6.24,7.76,-0.08,19.77
22204,0.2621,-0.0264,0.8696,-6.09,7.66,-0.06,19.77
22214,0.2598,-0.0251,0.8739,-6.17,7.79,0.0,19.78
22224,0.2629,-0.0148,0.881,-6.49,7.74,-0.08,19.75
22234,0.2555,-0.0062,0.86,-6.69,7.68,0.02,19.75
22244,0.256,-0.0284,0.8612,-6.44,7.74,-0.02,19.75
22254,0.2531,-0.0312,0.8553,-6.18,7.66,-0.05,19.76
22264,0.2662,-0.0227,0.876,-5.92,7.6,-0.05,19.75
22274,0.2644,-0.04,0.8776,-5.82,7.56,-0.11,19.76
22284,0.2638,-0.0431,0.8864,-5.89,7.65,-0.08,19.77
22294,0.2651,-0.0297,0.8907,-5.97,7.73,-0.09,19.77
22304,0.2601,-0.0242,0.8781,-6.17,7.73,0.0,19.77
22314,0.2574,-0.0304,0.8715,-6.14,7.63,0.03,19.77
22324,0.2584,-0.019,0.8639,-6.09,7.71,-0.09,19.77
22334,0.2617,-0.0153,0.8634,-6.03,7.65,-0.02,19.77
22344,0.2632,-0.0261,0.8695,-5.89,7.65,-0.11,19.76
22354,0.2635,-0.025,0.8723,-5.85,7.69,-0.12,19.74
22364,0.2649,-0.0236,0.8752,-5.94,7.62,-0.12,19.77
22374,0.2676,-0.0253,0.8789,-6.08,7.65,-0.05,19.77
22384,0.2633,-0.0266,0.8738,-6.09,7.66,0.0,19.79
22394,0.2651,-0.0177,0.8755,-6.17,7.68,-0.05,19.78
22404,0.2623,-0.0201,0.874,-6.17,7.65,-0.05,19.78
22414,0.2615,-0.0236,0.8711,-6.11,7.69,-0.09,19.77
22424,0.2611,-0.0248,0.8693,-6.09,7.66,-0.15,19.8
22434,0.2623,-0.0259,0.8745,-6.03,7.59,-0.09,19.78
22444,0.259,-0.0345,0.8748,-5.98,7.71,-0.09,19.77
22454,0.2614,-0.0292,0.8719,-6.0,7.73,-0.06,19.77
22464,0.2615,-0.027,0.8695,-6.02,7.66,-0.05,19.77
22474,0.2588,-0.0261,0.873,-6.02,7.66,0.0,19.8
22484,0.2609,-0.0232,0.874,-5.91,7.69,-0.05,19.79
22494,0.2643,-0.016,0.879,-5.92,7.66,0.02,19.76
22504,0.2649,-0.0159,0.8812,-6.18,7.76,-0.03,19.77
22514,0.2621,-0.0205,0.8722,-6.2,7.66,-0.05,19.81
22524,0.2625,-0.0211,0.8738,-6.27,7.68,-0.03,19.78
22534,0.2632,-0.0221,0.8724,-6.18,7.76,0.02,19.8
22544,0.2629,-0.0247,0.8712,-6.21,7.69,0.03,19.77
22554,0.2634,-0.0262,0.8766,-6.21,7.74,-0.02,19.79
22564,0.2605,-0.0253,0.8732,-6.24,7.73,0.02,19.79
22574,0.2605,-0.026,0.8717,-6.24,7.79,0.05,19.77
22584,0.2572,-0.0226,0.8768,-6.2,7.73,0.0,19.76
22594,0.2573,-0.0225,0.8721,-6.21,7.76,-0.02,19.79
22604,0.2568,-0.0239,0.876,-6.27,7.71,0.03,19.78
22614,0.2576,-0.0229,0.8734,-6.21,7.69,0.03,19.78
22624,0.2574,-0.0248,0.8728,-6.24,7.79,0.02,19.8
22634,0.2612,-0.0272,0.8735,-6.29,7.73,-0.03,19.79
22644,0.2614,-0.0266,0.874,-6.31,7.68,-0.06,19.79
22654,0.2637,-0.0291,0.8724,-6.18,7.74,-0.06,19.79
22664,0.2622,-0.028,0.8771,-6.2,7.68,-0.03,19.79
22674,0.2629,-0.0261,0.8733,-6.2,7.71,0.0,19.78
22684,0.2612,-0.0245,0.8729,-6.12,7.76,-0.05,19.75
22694,0.2632,-0.026,0.8698,-6.02,7.63,-0.03,19.78
22704,0.2631,-0.0221,0.8741,-6.12,7.74,-0.06,19.78
22714,0.2616,-0.0211,0.8771,-6.09,7.73,-0.03,19.79
22724,0.2645,-0.0236,0.8723,-6.11,7.62,-0.06,19.8
22734,0.2632,-0.0245,0.8744,-6.09,7.76,-0.02,19.79
22744,0.2583,-0.0272,0.8722,-6.09,7.79,-0.03,19.78
22754,0.2628,-0.0267,0.8738,-6.03,7.69,-0.12,19.78
22764,0.2629,-0.0283,0.8726,-6.12,7.73,-0.08,19.77
22774,0.2635,-0.0278,0.8773,-6.02,7.66,-0.09,19.82
22784,0.2618,-0.0277,0.8778,-6.06,7.69,-0.06,19.77
22794,0.2628,-0.0253,0.8757,-5.98,7.65,-0.06,19.77
22804,0.2601,-0.0272,0.8729,-6.05,7.79,-0.11,19.77
22814,0.2534,-0.0271,0.8739,-6.02,7.92,-0.08,19.78
22824,0.2627,-0.0302,0.8691,-5.97,7.77,-0.09,19.77
22834,0.2579,-0.0253,0.8763,-5.94,7.82,-0.08,19.78
22844,0.256,-0.0294,0.8773,-5.95,7.77,-0.11,19.79
22854,0.2618,-0.028,0.8727,-5.95,7.63,-0.02,19.76
22864,0.2694,-0.0271,0.8741,-6.05,7.57,-0.03,19.78
22874,0.2653,-0.0249,0.8745,-6.0,7.59,-0.05,19.79
22884,0.2611,-0.0199,0.8762,-6.11,7.69,-0.05,19.76
22894,0.2604,-0.0205,0.8805,-5.97,7.74,-0.05,19.78
22904,0.2609,-0.0239,0.8752,-5.94,7.74,-0.11,19.78
22914,0.2644,-0.021,0.8752,-6.14,7.66,-0.06,19.8
22924,0.2605,-0.0211,0.8746,-6.15,7.69,0.0,19.79
22934,0.2607,-0.0206,0.8744,-6.17,7.68,-0.05,19.78
22944,0.262,-0.0265,0.8699,-6.09,7.73,-0.05,19.8
22954,0.2643,-0.0297,0.8685,-6.09,7.69,-0.03,19.79
22964,0.2623,-0.0277,0.8667,-5.97,7.74,-0.06,19.78
22974,0.2595,-0.0305,0.8658,-6.17,7.74,-0.03,19.79
22984,0.2571,-0.0294,0.8701,-6.08,7.69,-0.02,19.77
22994,0.261,-0.0229,0.8748,-6.15,7.69,0.05,19.77
23004,0.2572,-0.0214,0.8727,-6.09,7.74,0.0,19.77
23014,0.2612,-0.0181,0.88,-6.15,7.62,-0.02,19.78
23024,0.2626,-0.0182,0.8756,-6.18,7.71,-0.05,19.81
23034,0.2594,-0.0192,0.8751,-6.24,7.74,-0.09,19.81
23044,0.2618,-0.0193,0.8748,-6.12,7.73,-0.08,19.79
23054,0.2609,-0.0264,0.8715,-6.17,7.74,-0.02,19.78
23064,0.2594,-0.0304,0.8735,-6.09,7.68,-0.11,19.79
23074,0.2631,-0.0308,0.8734,-6.06,7.68,-0.08,19.79
23084,0.2639,-0.0293,0.8752,-6.15,7.68,-0.06,19.79
23094,0.266,-0.027,0.8745,-6.14,7.66,-0.05,19.78
23104,0.2626,-0.0233,0.8762,-6.15,7.62,-0.03,19.78
23114,0.2659,-0.0184,0.8739,-6.15,7.76,-0.02,19.78
23124,0.2606,-0.0203,0.8741,-6.14,7.76,-0.09,19.78
23134,0.2616,-0.0195,0.8721,-6.27,7.65,-0.06,19.81
23144,0.259,-0.0243,0.8732,-6.18,7.71,-0.08,19.79
23154,0.2573,-0.0265,0.8737,-6.21,7.66,-0.17,19.78
23164,0.2603,-0.031,0.8732,-6.15,7.63,-0.09,19.77
23174,0.2605,-0.0345,0.8788,-6.14,7.68,-0.03,19.78
23184,0.2638,-0.032,0.8789,-6.18,7.68,-0.06,19.8
23194,0.2648,-0.0322,0.8802,-6.14,7.63,-0.11,19.78
23204,0.2616,-0.0291,0.8802,-6.08,7.76,-0.03,19.8
23214,0.2644,-0.0261,0.8826,-6.06,7.71,-0.05,19.75
23224,0.2655,-0.0256,0.8774,-6.06,7.65,-0.05,19.79
23234,0.2638,-0.0228,0.8745,-6.11,7.73,-0.06,19.77
23244,0.2623,-0.0197,0.8746,-6.12,7.69,-0.06,19.79
23254,0.2616,-0.0221,0.8721,-6.17,7.71,-0.08,19.77
23264,0.2617,-0.0262,0.8687,-6.14,7.71,-0.03,19.79
23274,0.2642,-0.0295,0.8688,-6.08,7.79,-0.03,19.79
23284,0.2616,-0.0302,0.8704,-6.14,7.74,-0.11,19.77
23294,0.2621,-0.0283,0.8701,-6.11,7.8,0.0,19.78
23304,0.2631,-0.0282,0.8746,-6.12,7.74,-0.11,19.75
23314,0.2623,-0.0288,0.8748,-6.14,7.73,0.0,19.78
23324,0.2627,-0.0282,0.8715,-6.09,7.77,0.03,19.76
23334,0.261,-0.0254,0.8718,-6.08,7.76,-0.02,19.77
23344,0.2634,-0.0282,0.8688,-6.06,7.69,-0.05,19.78
23354,0.2646,-0.026,0.8756,-6.08,7.68,-0.08,19.75
23364,0.2637,-0.027,0.8705,-6.03,7.68,-0.05,19.78
23374,0.2625,-0.0303,0.87,-6.06,7.65,-0.03,19.8
23384,0.2635,-0.026,0.8712,-6.03,7.65,0.0,19.78
23394,0.2607,-0.0251,0.8734,-6.05,7.73,-0.02,19.77
23404,0.2565,-0.0232,0.8722,-6.12,7.74,0.0,19.77
23414,0.2609,-0.0261,0.8727,-6.11,7.73,0.0,19.79
23424,0.2593,-0.0234,0.8702,-6.05,7.74,-0.06,19.76
23434,0.2603,-0.0229,0.8739,-6.06,7.71,-0.09,19.77
23444,0.2587,-0.025,0.8762,-6.09,7.66,-0.03,19.79
23454,0.2603,-0.0256,0.8782,-6.08,7.76,-0.02,19.77
23464,0.2614,-0.0262,0.879,-6.12,7.76,-0.02,19.79
23474,0.2596,-0.0282,0.8754,-6.15,7.76,-0.05,19.77
23484,0.26,-0.0297,0.8735,-6.03,7.74,-0.11,19.76
23494,0.2638,-0.0288,0.8724,-6.09,7.66,-0.06,19.8
23504,0.2623,-0.0277,0.8752,-6.05,7.74,-0.03,19.78
23514,0.2609,-0.0254,0.8792,-6.17,7.77,-0.05,19.77
23524,0.2584,-0.0286,0.8783,-6.0,7.68,-0.02,19.78
23534,0.2635,-0.0214,0.8828,-6.06,7.77,0.0,19.8
23544,0.2653,-0.0265,0.8774,-5.97,7.62,-0.03,19.79
23554,0.2688,-0.0238,0.877,-6.03,7.79,-0.11,19.79
23564,0.2627,-0.0203,0.8721,-6.12,7.65,-0.09,19.78
23574,0.2614,-0.0197,0.8785,-6.08,7.74,-0.12,19.77
23584,0.2623,-0.0245,0.868,-6.15,7.71,-0.14,19.76
23594,0.2637,-0.0253,0.8733,-6.11,7.59,-0.05,19.76
23604,0.2598,-0.0271,0.8737,-6.12,7.79,-0.03,19.76
23614,0.2578,-0.0288,0.873,-6.14,7.73,0.06,19.77
23624,0.2648,-0.0299,0.8757,-6.05,7.82,-0.05,19.77
23634,0.2609,-0.0264,0.8734,-6.08,7.79,-0.06,19.77
23644,0.2627,-0.0281,0.874,-6.11,7.65,0.0,19.79
23654,0.2579,-0.0289,0.8707,-5.95,7.73,0.02,19.77
23664,0.2596,-0.0295,0.8684,-6.03,7.74,-0.08,19.78
23674,0.2643,-0.0249,0.8756,-5.94,7.82,-0.08,19.78
23684,0.2607,-0.0266,0.8721,-5.95,7.77,-0.11,19.79
23694,0.26,-0.0273,0.8708,-5.97,7.65,-0.03,19.76
23704,0.2615,-0.0286,0.8683,-6.0,7.76,-0.06,19.79
23714,0.2593,-0.0289,0.8726,-5.95,7.73,-0.12,19.8
23724,0.2623,-0.0293,0.8767,-6.0,7.73,-0.09,19.79
23734,0.2626,-0.028,0.8794,-5.92,7.71,-0.06,19.82
23744,0.2638,-0.0273,0.8777,-6.02,7.74,-0.02,19.79
23754,0.2609,-0.0253,0.873,-5.97,7.68,-0.17,19.79
23764,0.2603,-0.0272,0.8755,-5.94,7.68,-0.12,19.8
23774,0.2627,-0.0256,0.8754,-5.94,7.71,-0.08,19.79
23784,0.2614,-0.0245,0.8745,-6.02,7.69,-0.02,19.78
23794,0.2629,-0.0264,0.8756,-6.05,7.68,-0.03,19.8
23804,0.2612,-0.0293,0.8682,-5.94,7.65,-0.06,19.81
23814,0.2638,-0.0276,0.8712,-6.05,7.63,-0.09,19.79
23824,0.2604,-0.0264,0.8739,-6.06,7.74,-0.03,19.76
23834,0.2598,-0.0272,0.8765,-6.15,7.69,-0.03,19.81
23844,0.2617,-0.0244,0.876,-6.12,7.69,-0.02,19.77
23854,0.262,-0.0248,0.8777,-6.05,7.73,-0.08,19.77
23864,0.2628,-0.0245,0.8739,-6.08,7.71,-0.02,19.8
23874,0.2614,-0.0242,0.8739,-6.15,7.74,0.0,19.79
23884,0.2635,-0.0228,0.8779,-6.12,7.68,0.03,19.81
23894,0.2622,-0.0242,0.8746,-6.11,7.66,-0.11,19.79
23904,0.2622,-0.0228,0.8779,-6.12,7.71,0.0,19.79
23914,0.2612,-0.0227,0.8716,-6.21,7.73,-0.08,19.81
23924,0.2583,-0.0232,0.8759,-6.15,7.71,-0.09,19.79
23934,0.2551,-0.0275,0.8727,-6.18,7.82,-0.06,19.81
23944,0.2578,-0.0261,0.8662,-6.18,7.73,-0.03,19.79
23954,0.2599,-0.0247,0.8754,-6.18,7.65,0.03,19.79
23964,0.2621,-0.0245,0.8762,-6.12,7.71,-0.05,19.79
23974,0.262,-0.0243,0.8754,-6.21,7.63,-0.02,19.79
23984,0.2606,-0.0275,0.8782,-6.14,7.73,-0.03,19.79
23994,0.2595,-0.0239,0.8735,-6.21,7.79,-0.06,19.79
24004,0.2615,-0.0248,0.8748,-6.08,7.63,-0.09,19.81
24014,0.2615,-0.0283,0.8734,-6.11,7.74,-0.03,19.81
24024,0.2621,-0.0283,0.8712,-6.11,7.74,-0.12,19.81
24034,0.2615,-0.0282,0.8771,-6.06,7.66,-0.05,19.79
24044,0.2629,-0.0286,0.875,-6.05,7.77,-0.09,19.79
24054,0.2628,-0.0272,0.8738,-6.05,7.69,-0.11,19.79
24064,0.2629,-0.0277,0.877,-6.06,7.73,-0.11,19.79
24074,0.2639,-0.0269,0.8789,-6.02,7.68,-0.02,19.8
24084,0.2621,-0.0287,0.8741,-6.0,7.73,-0.15,19.78
24094,0.2618,-0.0273,0.8759,-6.06,7.74,-0.05,19.79
24104,0.2617,-0.0247,0.8706,-6.06,7.69,-0.05,19.81
24114,0.2639,-0.0245,0.8772,-6.09,7.77,-0.02,19.79
24124,0.262,-0.0265,0.8772,-6.11,7.77,-0.06,19.8
24134,0.2632,-0.0262,0.8717,-6.05,7.77,-0.06,19.79
24144,0.2606,-0.0242,0.8761,-6.12,7.69,-0.08,19.81
24154,0.2596,-0.0226,0.8773,-6.08,7.76,-0.02,19.82
24164,0.2654,-0.0291,0.8759,-6.06,7.73,0.06,19.79
24174,0.2626,-0.027,0.8794,-6.03,7.73,-0.09,19.79
24184,0.2631,-0.0315,0.8713,-6.11,7.68,-0.08,19.79
24194,0.2612,-0.0302,0.8699,-6.12,7.69,-0.09,19.78
24204,0.2638,-0.0271,0.8748,-6.12,7.71,-0.09,19.77
24214,0.2627,-0.0286,0.8698,-6.15,7.59,0.0,19.81
24224,0.2583,-0.0278,0.8734,-6.12,7.66,-0.05,19.79
24234,0.261,-0.0262,0.8732,-6.11,7.71,-0.08,19.8
24244,0.2596,-0.0248,0.8719,-6.12,7.71,-0.05,19.78
24254,0.2605,-0.0266,0.8713,-6.02,7.71,-0.03,19.79
24264,0.2595,-0.0327,0.876,-6.06,7.69,-0.12,19.79
24274,0.264,-0.0276,0.8744,-6.11,7.66,-0.05,19.79
24284,0.2638,-0.0304,0.8729,-5.95,7.68,-0.03,19.79
24294,0.2623,-0.0292,0.8757,-5.95,7.73,-0.03,19.8
24304,0.264,-0.0294,0.8734,-6.0,7.73,-0.03,19.81
24314,0.2599,-0.0265,0.8782,-6.02,7.74,-0.03,19.81
24324,0.2631,-0.0275,0.8752,-5.98,7.74,-0.05,19.77
24334,0.2599,-0.0278,0.876,-6.05,7.68,0.0,19.8
24344,0.2607,-0.0281,0.8798,-5.91,7.69,-0.03,19.81
24354,0.262,-0.028,0.8732,-5.98,7.77,-0.12,19.81
24364,0.2617,-0.0286,0.8732,-6.06,7.79,-0.09,19.8
24374,0.2595,-0.0298,0.8705,-5.97,7.77,-0.09,19.82
24384,0.2604,-0.0286,0.8765,-5.92,7.68,-0.03,19.81
24394,0.2625,-0.0282,0.877,-5.98,7.76,-0.09,19.82
24404,0.2605,-0.0264,0.8711,-6.0,7.77,-0.11,19.79
24414,0.2628,-0.022,0.8778,-6.02,7.74,-0.09,19.81
24424,0.26,-0.0205,0.8713,-6.0,7.74,-0.09,19.81
24434,0.2622,-0.0227,0.8749,-6.05,7.71,-0.05,19.78
24444,0.2654,-0.0229,0.8739,-6.02,7.69,-0.05,19.79
24454,0.262,-0.0261,0.8737,-6.11,7.74,-0.11,19.78
24464,0.2629,-0.0286,0.8761,-6.12,7.73,-0.09,19.79
24474,0.2617,-0.03,0.8743,-6.14,7.77,-0.08,19.81
24484,0.2595,-0.0273,0.8715,-6.15,7.76,-0.05,19.81
24494,0.2603,-0.0251,0.8724,-6.14,7.74,-0.05,19.79
24504,0.2616,-0.0242,0.873,-6.15,7.77,-0.08,19.8
24514,0.2626,-0.0262,0.8763,-6.12,7.68,-0.06,19.79
24524,0.2632,-0.0229,0.871,-6.12,7.66,0.0,19.78
24534,0.2577,-0.0231,0.8572,-6.26,7.95,-0.05,19.79
24544,0.2577,-0.0258,0.8777,-6.21,7.69,-0.03,19.77
24554,0.266,-0.0245,0.8682,-6.14,7.15,0.03,19.79
24564,0.2438,-0.0249,0.8853,-6.2,7.94,-0.03,19.79
24574,0.2646,-0.0304,0.8597,-6.12,7.57,-0.06,19.8
24584,0.267,-0.0265,0.8624,-6.12,7.5,0.0,19.79
24594,0.2694,-0.0294,0.8696,-6.12,7.69,0.0,19.81
24604,0.2617,-0.033,0.8657,-6.15,7.63,-0.12,19.8
24614,0.2605,-0.0315,0.879,-6.11,7.71,-0.08,19.81
24624,0.2681,-0.0341,0.8705,-5.98,7.74,-0.09,19.81
24634,0.264,-0.0291,0.8785,-6.08,7.79,-0.06,19.83
24644,0.2603,-0.0256,0.8762,-5.98,7.77,-0.11,19.82
24654,0.2593,-0.0253,0.8712,-5.92,7.66,-0.06,19.83
24664,0.2644,-0.0227,0.8757,-6.0,7.62,-0.09,19.82
24674,0.2609,-0.022,0.8756,-6.06,7.65,0.0,19.8
24684,0.2561,-0.0231,0.8823,-6.11,7.85,-0.09,19.82
24694,0.2587,-0.0277,0.8787,-6.03,7.69,-0.12,19.81
24704,0.2566,-0.0284,0.8806,-6.02,7.68,-0.09,19.81
24714,0.2615,-0.0311,0.8776,-5.97,7.85,-0.08,19.8
24724,0.2638,-0.0305,0.8704,-6.0,7.73,-0.08,19.81
24734,0.266,-0.0288,0.8735,-5.97,7.63,0.0,19.82
24744,0.2625,-0.0293,0.875,-5.95,7.77,0.03,19.82
24754,0.2626,-0.0294,0.876,-6.02,7.6,-0.03,19.8
24764,0.266,-0.0262,0.8815,-5.97,7.65,-0.03,19.81
24774,0.2651,-0.0242,0.8759,-6.02,7.62,0.0,19.8
24784,0.2592,-0.0225,0.876,-6.12,7.59,-0.09,19.83
24794,0.2625,-0.0244,0.8766,-6.09,7.63,-0.02,19.81
24804,0.2593,-0.0247,0.8744,-6.06,7.73,-0.09,19.8
24814,0.2648,-0.0288,0.8705,-6.09,7.65,-0.06,19.82
24824,0.2637,-0.0316,0.8662,-6.0,7.65,-0.09,19.8
24834,0.265,-0.0297,0.8694,-5.98,7.69,0.02,19.82
24844,0.2603,-0.0277,0.8679,-6.03,7.69,0.05,19.8
24854,0.2642,-0.025,0.8667,-6.02,7.63,-0.02,19.82
24864,0.2606,-0.0243,0.8738,-6.06,7.74,-0.02,19.82
24874,0.26,-0.0253,0.8729,-5.97,7.68,0.0,19.8
24884,0.2585,-0.0227,0.873,-6.0,7.71,-0.06,19.83
24894,0.2556,-0.0256,0.8715,-6.06,7.74,-0.03,19.81
24905,0.259,-0.0291,0.8728,-6.05,7.73,-0.02,19.82
24915,0.2579,-0.0305,0.8744,-6.05,7.77,-0.09,19.8
24925,0.2592,-0.0293,0.8792,-6.02,7.71,-0.05,19.82
24935,0.2604,-0.0278,0.8767,-5.97,7.73,-0.06,19.85
24945,0.2635,-0.0282,0.8805,-6.03,7.74,-0.05,19.81
24955,0.2637,-0.025,0.8798,-5.89,7.74,-0.08,19.82
24965,0.2646,-0.0264,0.8779,-5.91,7.79,-0.05,19.81
24975,0.2632,-0.0215,0.8762,-5.91,7.76,0.0,19.82
24985,0.2614,-0.02,0.8732,-5.94,7.85,-0.06,19.83
24995,0.2654,-0.0237,0.8739,-6.02,7.76,-0.06,19.84
25005,0.2639,-0.0236,0.8763,-6.0,7.8,-0.11,19.82
25015,0.2625,-0.026,0.8773,-6.05,7.85,-0.05,19.84
25025,0.2633,-0.0281,0.8735,-6.02,7.76,-0.09,19.82
25035,0.2627,-0.0261,0.876,-6.02,7.77,-0.09,19.82
25045,0.2657,-0.0255,0.8728,-5.97,7.76,0.0,19.82
25055,0.262,-0.0273,0.8776,-6.06,7.71,-0.03,19.82
25065,0.2635,-0.0275,0.8772,-6.06,7.69,-0.03,19.84
25075,0.2617,-0.0292,0.8759,-6.11,7.79,0.0,19.81
25086,0.2629,-0.0249,0.8768,-6.12,7.69,-0.02,19.84
25096,0.26,-0.0291,0.8754,-6.09,7.66,-0.08,19.8
25106,0.2583,-0.0297,0.8735,-6.11,7.69,-0.09,19.82
25116,0.2574,-0.0304,0.8744,-6.02,7.66,-0.02,19.83
25126,0.2596,-0.0298,0.8726,-6.06,7.69,-0.05,19.82
25136,0.2618,-0.0284,0.8716,-6.02,7.63,-0.11,19.82
25146,0.2609,-0.0261,0.8722,-6.05,7.66,-0.06,19.81
25156,0.262,-0.0209,0.8706,-6.0,7.71,-0.12,19.8
25166,0.2644,-0.0243,0.8713,-6.05,7.82,-0.03,19.82
25176,0.2629,-0.0258,0.8701,-6.05,7.76,0.05,19.83
25186,0.2633,-0.0226,0.8689,-5.98,7.73,-0.05,19.81
25196,0.2646,-0.0247,0.8639,-6.09,7.68,-0.09,19.81
25206,0.2612,-0.0229,0.8676,-6.11,7.74,-0.05,19.83
25216,0.2629,-0.0269,0.8704,-6.12,7.68,0.0,19.81
25226,0.2651,-0.0281,0.864,-6.03,7.73,-0.06,19.8
25236,0.2621,-0.0303,0.8679,-6.11,7.76,-0.03,19.82
25246,0.2617,-0.0289,0.8715,-6.0,7.69,-0.11,19.82
25256,0.2605,-0.0278,0.8734,-6.05,7.71,-0.12,19.83
25266,0.262,-0.0332,0.8767,-6.02,7.65,-0.12,19.82
25280,0.2626,-0.0332,0.8751,-5.98,7.68,-0.05,19.81
25290,0.261,-0.0314,0.874,-5.98,7.69,-0.06,19.82
25300,0.2635,-0.0278,0.8706,-5.92,7.65,-0.11,19.82
25310,0.2679,-0.0287,0.8665,-6.0,7.54,0.0,19.82
25320,0.2632,-0.0238,0.8754,-6.0,7.65,-0.02,19.83
25330,0.262,-0.0238,0.8792,-6.05,7.69,-0.08,19.8
25340,0.2678,-0.0242,0.8748,-5.98,7.66,-0.08,19.83
25350,0.2642,-0.0226,0.8766,-6.06,7.74,-0.12,19.81
25360,0.2631,-0.0208,0.8782,-6.03,7.82,-0.09,19.84
25370,0.2634,-0.0238,0.874,-6.05,7.71,-0.09,19.84
25380,0.2633,-0.0261,0.8739,-6.02,7.69,-0.03,19.82
25390,0.2642,-0.0262,0.8759,-6.09,7.63,-0.08,19.82
25400,0.2679,-0.0269,0.8746,-6.11,7.68,-0.03,19.82
25410,0.2666,-0.0245,0.8706,-6.09,7.74,-0.03,19.82
25420,0.2644,-0.0283,0.8722,-6.11,7.76,-0.03,19.83
25430,0.2621,-0.0262,0.8745,-6.11,7.76,-0.05,19.8
25440,0.2611,-0.0269,0.8749,-6.08,7.76,0.05,19.82
25450,0.2599,-0.0269,0.8719,-6.17,7.66,-0.03,19.81
25460,0.2601,-0.0262,0.871,-6.09,7.69,-0.02,19.83
25470,0.259,-0.0287,0.8726,-6.15,7.68,-0.05,19.82
25480,0.2598,-0.0292,0.8705,-6.06,7.69,-0.06,19.82
25490,0.2618,-0.0275,0.8702,-6.03,7.8,-0.05,19.82
25500,0.2615,-0.0308,0.8694,-6.03,7.66,0.02,19.8
25510,0.26,-0.028,0.8691,-6.06,7.73,0.02,19.83
25520,0.2616,-0.0295,0.869,-6.05,7.76,-0.02,19.82
25530,0.2605,-0.0239,0.87,-6.06,7.74,-0.03,19.85
25540,0.2637,-0.0254,0.8685,-6.03,7.62,-0.05,19.86
25550,0.2626,-0.0244,0.8661,-6.03,7.71,-0.14,19.85
25560,0.2655,-0.0276,0.8713,-6.02,7.68,-0.02,19.82
25570,0.266,-0.0244,0.8712,-6.09,7.69,-0.09,19.83
25580,0.2623,-0.0265,0.8746,-5.95,7.85,-0.05,19.85
25590,0.2588,-0.0275,0.8728,-6.03,7.77,-0.08,19.82
25600,0.2605,-0.0306,0.8756,-6.09,7.76,-0.05,19.81
25610,0.261,-0.0308,0.8772,-6.06,7.76,-0.05,19.84
25620,0.2584,-0.0287,0.8751,-6.08,7.69,-0.02,19.83
25630,0.2576,-0.0294,0.8765,-6.03,7.71,-0.09,19.83
25640,0.2595,-0.03,0.8793,-5.98,7.74,-0.08,19.82
25650,0.2592,-0.0292,0.8795,-6.03,7.68,-0.05,19.82
25660,0.2606,-0.0322,0.8778,-5.97,7.71,-0.05,19.84
25670,0.2585,-0.0343,0.88,-5.94,7.71,-0.05,19.82
25680,0.261,-0.0345,0.8821,-5.92,7.82,-0.06,19.82
25690,0.2621,-0.0286,0.8776,-5.86,7.74,0.02,19.85
25700,0.2589,-0.0256,0.879,-5.83,7.76,0.0,19.82
25710,0.2629,-0.0253,0.8777,-5.97,7.73,-0.03,19.82
25720,0.266,-0.0175,0.876,-5.95,7.82,-0.08,19.82
25730,0.2653,-0.0182,0.873,-6.0,7.68,-0.06,19.83
25740,0.266,-0.0231,0.8684,-5.91,7.69,-0.06,19.85
25750,0.2679,-0.027,0.8693,-5.98,7.74,-0.06,19.83
25760,0.2697,-0.0273,0.8671,-6.06,7.71,-0.14,19.83
25770,0.2672,-0.0271,0.8737,-6.12,7.68,-0.05,19.85
25780,0.2671,-0.0237,0.8738,-6.14,7.68,0.0,19.85
25790,0.2654,-0.0265,0.8799,-6.08,7.62,-0.05,19.84
25800,0.2622,-0.0259,0.8765,-6.09,7.68,-0.03,19.85
25810,0.259,-0.0211,0.8756,-6.15,7.6,-0.06,19.86
25820,0.2577,-0.0199,0.8807,-6.09,7.74,-0.05,19.83
25830,0.2549,-0.0264,0.87,-6.11,7.68,-0.08,19.83
25840,0.2559,-0.03,0.8743,-6.08,7.66,-0.09,19.82
25850,0.2516,-0.0331,0.8676,-6.11,7.73,-0.03,19.82
25860,0.2561,-0.0303,0.868,-6.03,7.76,-0.06,19.82
25870,0.2577,-0.0278,0.8723,-6.0,7.69,-0.06,19.83
25880,0.2646,-0.027,0.8728,-6.02,7.66,-0.05,19.85
25890,0.2633,-0.0261,0.8741,-6.0,7.68,0.0,19.84
25900,0.2605,-0.0237,0.8684,-6.0,7.69,-0.08,19.84
25910,0.2617,-0.0232,0.8711,-6.06,7.62,-0.09,19.81
25920,0.2609,-0.0261,0.8711,-5.97,7.68,-0.05,19.82
25930,0.2625,-0.0287,0.8706,-6.06,7.69,-0.06,19.82
25940,0.2628,-0.0293,0.8768,-5.97,7.66,-0.11,19.84
25950,0.2635,-0.0306,0.8783,-6.0,7.77,-0.06,19.82
25960,0.2631,-0.0266,0.875,-6.03,7.71,0.03,19.82
25970,0.2627,-0.0243,0.8787,-6.0,7.71,0.0,19.82
25980,0.2579,-0.0233,0.8761,-6.08,7.73,-0.11,19.82
25990,0.2626,-0.0234,0.8744,-6.09,7.77,0.03,19.84
26000,0.2627,-0.0265,0.8704,-6.23,7.77,-0.02,19.82
26010,0.261,-0.0273,0.8729,-6.12,7.82,-0.12,19.83
26020,0.2631,-0.0316,0.8723,-6.12,7.74,-0.03,19.85
26030,0.2593,-0.0309,0.8757,-6.12,7.74,-0.05,19.84
26040,0.2646,-0.0273,0.8787,-6.05,7.79,-0.06,19.83
26050,0.2616,-0.0293,0.8773,-6.05,7.8,-0.02,19.82
26060,0.2625,-0.0247,0.8778,-5.94,7.82,-0.08,19.84
26070,0.2628,-0.0237,0.8795,-6.06,7.82,0.0,19.82
26080,0.2614,-0.028,0.881,-6.0,7.77,-0.05,19.83
26090,0.2614,-0.0258,0.879,-5.97,7.76,-0.03,19.82
26100,0.2632,-0.0284,0.8745,-6.03,7.85,-0.09,19.83
26110,0.2621,-0.0281,0.8776,-6.02,7.76,-0.05,19.82
26120,0.261,-0.0281,0.8777,-5.94,7.76,-0.06,19.83
26130,0.2611,-0.0277,0.8728,-6.08,7.8,-0.08,19.84
26140,0.2616,-0.0259,0.8698,-6.03,7.74,-0.06,19.84
26150,0.2601,-0.0262,0.874,-6.06,7.74,-0.02,19.85
26160,0.2598,-0.0278,0.8746,-6.03,7.77,-0.03,19.83
26170,0.2609,-0.0282,0.873,-6.03,7.8,-0.05,19.83
26180,0.2577,-0.0298,0.8727,-6.06,7.69,-0.11,19.82
26190,0.2599,-0.0283,0.8691,-5.89,7.74,-0.08,19.83
26200,0.2593,-0.0284,0.8723,-5.97,7.74,-0.09,19.8
26210,0.2568,-0.0281,0.8707,-5.94,7.69,-0.08,19.83
26220,0.2596,-0.027,0.8713,-5.89,7.68,-0.03,19.82
26230,0.2592,-0.0261,0.8718,-5.98,7.76,-0.06,19.86
26240,0.2601,-0.0256,0.8721,-5.97,7.69,-0.12,19.82
26250,0.26,-0.0237,0.8734,-6.02,7.76,-0.09,19.83
26260,0.2607,-0.0283,0.8713,-6.02,7.73,-0.05,19.82
26270,0.2594,-0.0259,0.8698,-6.06,7.63,0.0,19.82
26280,0.2626,-0.0292,0.8718,-6.0,7.66,-0.03,19.84
26290,0.2612,-0.0291,0.8728,-6.03,7.68,-0.02,19.82
26300,0.2638,-0.0315,0.8712,-6.02,7.63,-0.05,19.81
26310,0.2633,-0.0251,0.8732,-5.92,7.65,0.02,19.84
26320,0.2649,-0.0258,0.8741,-5.98,7.74,-0.03,19.84
26330,0.2622,-0.0237,0.8768,-6.11,7.68,-0.09,19.82
26340,0.2642,-0.0254,0.8778,-6.08,7.68,-0.08,19.82
26350,0.2642,-0.028,0.8809,-6.08,7.65,-0.06,19.84
26360,0.262,-0.0284,0.8748,-6.06,7.73,-0.09,19.85
26370,0.2643,-0.0267,0.882,-6.08,7.63,-0.03,19.82
26380,0.2628,-0.0229,0.8777,-5.98,7.68,-0.06,19.83
26390,0.2599,-0.0238,0.8818,-5.98,7.73,-0.05,19.84
26400,0.261,-0.0229,0.8832,-5.98,7.76,-0.03,19.83
26410,0.2643,-0.026,0.8739,-5.95,7.77,-0.05,19.84
26420,0.2616,-0.026,0.8756,-5.91,7.74,-0.09,19.84
26430,0.2609,-0.0253,0.8704,-6.05,7.8,-0.09,19.84
26440,0.2606,-0.0271,0.8723,-5.94,7.68,-0.02,19.83
26450,0.2627,-0.0249,0.8722,-5.97,7.74,-0.14,19.84
26460,0.2603,-0.0276,0.8702,-5.94,7.73,-0.08,19.85
26470,0.2609,-0.0239,0.8696,-6.0,7.76,-0.11,19.83
26480,0.2604,-0.0229,0.8743,-6.0,7.69,-0.14,19.82
26490,0.2626,-0.0255,0.8761,-6.06,7.8,-0.12,19.84
26500,0.2617,-0.0254,0.8752,-5.91,7.71,-0.11,19.84
26510,0.2633,-0.0254,0.8745,-6.0,7.73,-0.05,19.84
26520,0.2615,-0.0272,0.8696,-6.05,7.77,-0.14,19.83
26530,0.2626,-0.0259,0.8719,-5.89,7.73,0.03,19.84
26540,0.2632,-0.0281,0.8666,-5.92,7.71,-0.11,19.87
26550,0.2643,-0.028,0.8732,-5.92,7.71,-0.09,19.85
26560,0.261,-0.0281,0.8722,-5.89,7.74,-0.09,19.85
26570,0.2628,-0.0259,0.8712,-5.94,7.74,-0.09,19.82
26580,0.2622,-0.0254,0.8729,-5.97,7.71,-0.08,19.85
26590,0.2614,-0.0231,0.8723,-5.97,7.79,-0.06,19.84
26600,0.2623,-0.0244,0.8757,-6.05,7.69,-0.06,19.84
26610,0.2607,-0.024,0.8733,-6.0,7.77,-0.08,19.84
26620,0.2648,-0.0258,0.8733,-6.05,7.73,-0.05,19.87
26630,0.2603,-0.0282,0.8767,-6.02,7.79,-0.03,19.82
26640,0.2623,-0.0275,0.8757,-6.03,7.76,-0.06,19.85
26650,0.2628,-0.0266,0.8768,-6.0,7.79,-0.06,19.84
26660,0.257,-0.0271,0.8757,-6.05,7.77,-0.08,19.85
26670,0.2583,-0.0273,0.8745,-6.05,7.82,-0.06,19.83
26680,0.2585,-0.0278,0.8735,-6.0,7.69,-0.06,19.86
26690,0.2604,-0.0298,0.8755,-5.97,7.71,0.0,19.84
26700,0.2577,-0.0291,0.8816,-5.92,7.76,0.02,19.87
26710,0.2601,-0.0298,0.8799,-5.88,7.68,-0.11,19.84
26720,0.2606,-0.0262,0.8811,-5.92,7.68,-0.06,19.85
26730,0.2623,-0.0251,0.8793,-5.95,7.71,-0.11,19.85
26740,0.2612,-0.0234,0.8807,-5.95,7.69,-0.09,19.84
26750,0.2623,-0.0255,0.88,-6.02,7.82,-0.06,19.84
26760,0.2633,-0.0256,0.8765,-6.0,7.68,0.0,19.84
26770,0.2654,-0.025,0.8751,-5.89,7.77,-0.11,19.83
26780,0.2634,-0.0276,0.8721,-5.94,7.65,-0.18,19.86
26790,0.2639,-0.0272,0.8784,-5.88,7.73,-0.17,19.86
26800,0.2628,-0.0288,0.8752,-6.03,7.68,-0.03,19.84
26810,0.2654,-0.0278,0.8735,-5.98,7.68,-0.05,19.86
26820,0.2628,-0.0286,0.8744,-6.02,7.74,-0.14,19.84
26830,0.2631,-0.0242,0.8662,-5.91,7.71,-0.05,19.87
26840,0.2603,-0.0237,0.8704,-6.05,7.71,-0.08,19.84
26850,0.2622,-0.0255,0.8698,-6.0,7.74,-0.05,19.87
26860,0.2603,-0.0251,0.8704,-6.03,7.73,-0.08,19.82
26870,0.262,-0.0239,0.8718,-6.02,7.68,0.0,19.85
26880,0.2644,-0.0249,0.8673,-6.06,7.66,-0.09,19.86
26890,0.2628,-0.026,0.874,-5.98,7.68,0.02,19.84
26900,0.2625,-0.0281,0.8707,-6.0,7.74,-0.11,19.83
26910,0.2643,-0.0275,0.8718,-5.98,7.8,-0.03,19.84
26920,0.2638,-0.0267,0.8754,-6.05,7.76,-0.02,19.83
26930,0.2628,-0.0253,0.8748,-6.05,7.74,-0.11,19.84
26940,0.2579,-0.0254,0.8715,-6.02,7.76,-0.06,19.84
26950,0.2632,-0.0251,0.8743,-6.09,7.66,-0.05,19.83
26960,0.2626,-0.0282,0.8756,-6.05,7.71,-0.05,19.84
26970,0.2631,-0.0278,0.8776,-6.05,7.74,-0.14,19.83
26980,0.26,-0.0288,0.8721,-5.98,7.82,-0.09,19.82
26990,0.2627,-0.0253,0.8687,-6.02,7.74,-0.14,19.87
27000,0.2629,-0.0262,0.8722,-5.97,7.71,-0.11,19.82
27010,0.2626,-0.025,0.8726,-5.92,7.68,-0.08,19.82
27020,0.2632,-0.0233,0.8721,-5.97,7.74,-0.05,19.84
27030,0.2599,-0.0244,0.8757,-5.95,7.76,-0.06,19.83
27040,0.2628,-0.0243,0.8766,-6.06,7.8,-0.05,19.84
27050,0.2635,-0.0273,0.8765,-6.03,7.69,-0.03,19.83
27060,0.2621,-0.0305,0.8768,-5.91,7.73,0.02,19.85
27070,0.2627,-0.0272,0.8757,-5.89,7.8,-0.09,19.84
27080,0.2642,-0.0286,0.8732,-5.98,7.74,-0.05,19.83
27090,0.261,-0.0283,0.8724,-6.02,7.79,0.02,19.83
27100,0.259,-0.0249,0.8754,-6.02,7.82,-0.03,19.86
27110,0.26,-0.0239,0.8727,-6.0,7.79,-0.02,19.84
27120,0.26,-0.0228,0.8732,-6.12,7.77,-0.12,19.84
27130,0.2589,-0.0243,0.873,-6.03,7.73,-0.09,19.84
27140,0.2617,-0.0273,0.8719,-6.02,7.73,-0.05,19.81
27150,0.2622,-0.0277,0.8744,-6.06,7.69,0.02,19.83
27160,0.26,-0.0272,0.8748,-6.05,7.74,-0.09,19.84
27170,0.264,-0.0291,0.8732,-6.05,7.73,-0.09,19.84
27180,0.261,-0.0262,0.8766,-5.94,7.66,-0.05,19.82
27190,0.2612,-0.0273,0.8766,-6.03,7.68,0.0,19.85
27200,0.2642,-0.0267,0.8763,-6.0,7.73,-0.06,19.84
27210,0.2617,-0.0251,0.8787,-6.02,7.8,0.03,19.86
27220,0.2643,-0.0267,0.8735,-5.95,7.71,-0.14,19.83
27230,0.2603,-0.0276,0.8718,-6.06,7.69,-0.08,19.84
27240,0.259,-0.0242,0.873,-6.05,7.73,-0.03,19.83
27250,0.2607,-0.0234,0.8745,-5.94,7.71,-0.08,19.82
27260,0.2622,-0.0261,0.874,-6.05,7.73,-0.11,19.83
27270,0.2588,-0.0272,0.8732,-6.03,7.74,-0.06,19.84
27280,0.2621,-0.0306,0.8733,-6.09,7.68,-0.06,19.85
27290,0.2594,-0.0286,0.8737,-5.98,7.65,-0.12,19.82
27300,0.2611,-0.0269,0.8748,-6.0,7.76,-0.09,19.85
27310,0.2604,-0.0294,0.8698,-5.98,7.69,0.02,19.83
