t_ms,accel_x_g,accel_y_g,accel_z_g,gyro_x_dps,gyro_y_dps,gyro_z_dps,imu_temp_c
3288,0.339,-0.0079,0.8607,-6.41,7.77,-0.05,26.25
3319,0.3396,-0.0096,0.8646,-6.35,7.89,0.0,26.26
3329,0.3394,-0.0084,0.8612,-6.44,7.86,0.03,26.26
3339,0.3398,-0.0106,0.8607,-6.41,7.8,0.06,26.27
3349,0.3392,-0.0095,0.8654,-6.41,7.82,-0.05,26.26
3359,0.3389,-0.0094,0.8607,-6.43,7.86,-0.03,26.26
3369,0.3409,-0.0098,0.8628,-6.38,7.85,0.0,26.23
3379,0.3391,-0.0093,0.8585,-6.4,7.85,-0.06,26.25
3389,0.3422,-0.0067,0.8604,-6.37,7.88,-0.02,26.27
3399,0.3411,-0.0107,0.866,-6.44,7.77,0.0,26.26
3409,0.3397,-0.0084,0.8596,-6.4,7.77,0.0,26.26
3419,0.3422,-0.0093,0.8618,-6.4,7.85,-0.03,26.27
3429,0.3409,-0.0093,0.8635,-6.37,7.86,0.06,26.28
3439,0.3387,-0.0092,0.865,-6.46,7.83,-0.06,26.24
3449,0.34,-0.0077,0.8633,-6.35,7.79,-0.02,26.28
3459,0.3411,-0.0104,0.8641,-6.41,7.76,0.0,26.26
3469,0.3414,-0.0071,0.8647,-6.32,7.82,-0.02,26.27
3479,0.3373,-0.0073,0.8649,-6.44,7.97,0.0,26.27
3489,0.339,-0.0093,0.8623,-6.37,7.85,-0.06,26.27
3499,0.3398,-0.0121,0.8672,-6.35,7.85,0.05,26.29
3509,0.3384,-0.0094,0.8643,-6.4,7.8,-0.09,26.28
3519,0.3405,-0.009,0.8633,-6.47,7.83,-0.03,26.28
3529,0.3397,-0.0116,0.8644,-6.46,7.89,-0.09,26.27
3540,0.3405,-0.009,0.8613,-6.41,7.88,-0.06,26.27
3550,0.3389,-0.0098,0.8621,-6.43,7.83,-0.05,26.29
3560,0.3398,-0.0051,0.8597,-6.37,7.82,0.03,26.28
3570,0.3413,-0.0116,0.8618,-6.46,7.8,0.06,26.26
3580,0.3416,-0.0072,0.8615,-6.38,7.91,-0.02,26.27
3590,0.3409,-0.0092,0.8646,-6.37,7.82,-0.02,26.27
3600,0.3369,-0.0087,0.8636,-6.43,7.88,-0.03,26.26
3610,0.3385,-0.0112,0.8679,-6.38,7.89,0.0,26.28
3620,0.3422,-0.0078,0.8597,-6.4,7.79,0.0,26.27
3630,0.3411,-0.0083,0.8632,-6.46,7.86,-0.11,26.29
3640,0.3403,-0.0088,0.8652,-6.47,7.83,-0.09,26.3
3650,0.3423,-0.0079,0.8623,-6.4,7.83,-0.05,26.29
3660,0.3409,-0.0089,0.8629,-6.4,7.85,-0.03,26.29
3670,0.3412,-0.0076,0.866,-6.41,7.89,-0.03,26.28
3680,0.3407,-0.0083,0.8605,-6.41,7.85,-0.02,26.31
3690,0.3412,-0.0094,0.8644,-6.37,7.82,0.02,26.27
3700,0.3367,-0.0117,0.8636,-6.4,7.92,0.02,26.27
3710,0.3386,-0.009,0.8621,-6.35,7.85,-0.06,26.29
3720,0.339,-0.0057,0.865,-6.4,7.8,-0.02,26.3
3730,0.3402,-0.0084,0.8643,-6.46,7.86,-0.02,26.28
3740,0.3414,-0.0072,0.8632,-6.49,7.82,-0.03,26.29
3750,0.3385,-0.0087,0.8579,-6.38,7.83,-0.09,26.28
3760,0.3414,-0.009,0.8623,-6.38,7.86,-0.05,26.29
3770,0.3414,-0.0085,0.864,-6.47,7.8,-0.02,26.28
3780,0.3384,-0.0104,0.8624,-6.46,7.88,0.06,26.28
3790,0.3392,-0.0104,0.8623,-6.44,7.89,-0.06,26.29
3800,0.3419,-0.0074,0.8645,-6.29,7.83,0.0,26.29
3810,0.3386,-0.0098,0.8639,-6.38,7.82,0.02,26.29
3820,0.3387,-0.0079,0.861,-6.52,7.73,0.0,26.29
3830,0.3378,-0.0106,0.8651,-6.4,7.79,-0.02,26.29
3840,0.3423,-0.0073,0.8635,-6.4,7.83,-0.05,26.3
3850,0.3394,-0.0127,0.8641,-6.47,7.86,-0.02,26.29
3860,0.3397,-0.0107,0.8641,-6.47,7.77,0.03,26.28
3870,0.3418,-0.0088,0.8606,-6.41,7.8,-0.05,26.31
3880,0.3427,-0.0092,0.8613,-6.26,7.88,-0.03,26.29
3890,0.3411,-0.0126,0.8619,-6.44,7.82,0.0,26.26
3900,0.3391,-0.0093,0.8663,-6.44,7.8,0.0,26.29
3910,0.3409,-0.0099,0.8649,-6.43,7.82,0.0,26.3
3920,0.3398,-0.0101,0.8628,-6.41,7.83,-0.02,26.31
3930,0.3397,-0.0098,0.8633,-6.37,7.79,0.02,26.3
3940,0.3405,-0.0112,0.8639,-6.46,7.8,-0.03,26.27
3950,0.3394,-0.0093,0.8606,-6.35,7.76,-0.05,26.29
3960,0.3392,-0.0095,0.8566,-6.46,7.88,0.02,26.28
3970,0.3386,-0.0106,0.8606,-6.44,7.88,-0.03,26.29
3980,0.3391,-0.0099,0.8594,-6.38,7.92,-0.02,26.29
3990,0.3417,-0.009,0.8633,-6.56,7.88,-0.02,26.28
4000,0.3422,-0.007,0.8643,-6.38,7.83,0.0,26.29
4010,0.3383,-0.0098,0.8591,-6.37,7.89,-0.05,26.3
4020,0.3427,-0.0076,0.866,-6.52,7.89,-0.02,26.3
4030,0.3425,-0.0092,0.8623,-6.41,7.83,0.06,26.28
4040,0.338,-0.0087,0.8625,-6.4,7.82,-0.05,26.3
4050,0.3413,-0.0065,0.8652,-6.43,7.85,-0.02,26.31
4060,0.3379,-0.0088,0.8621,-6.37,7.77,-0.02,26.31
4070,0.3397,-0.0117,0.8624,-6.37,7.82,0.0,26.28
4080,0.3398,-0.0098,0.8629,-6.37,7.86,-0.06,26.29
4090,0.3384,-0.0082,0.8595,-6.44,7.86,-0.06,26.28
4100,0.3408,-0.0094,0.8638,-6.4,7.77,0.03,26.32
4110,0.3401,-0.0103,0.8633,-6.43,7.86,0.02,26.32
4120,0.3423,-0.0106,0.8574,-6.35,7.92,-0.03,26.32
4130,0.3409,-0.0066,0.8635,-6.41,7.8,-0.09,26.3
4140,0.3376,-0.0077,0.8654,-6.43,7.92,0.08,26.3
4150,0.3427,-0.0088,0.861,-6.44,7.89,0.03,26.34
4160,0.3418,-0.0088,0.8604,-6.43,7.62,-0.02,26.3
4170,0.337,-0.0081,0.865,-6.44,7.89,-0.02,26.29
4180,0.3389,-0.0125,0.8617,-6.47,7.92,0.0,26.29
4190,0.3425,-0.007,0.8615,-6.38,7.79,0.0,26.33
4200,0.3438,-0.0065,0.8599,-6.4,7.73,0.0,26.33
4210,0.34,-0.0076,0.8646,-6.46,7.83,-0.03,26.31
4220,0.3414,-0.0103,0.8655,-6.38,7.82,0.0,26.3
4230,0.3389,-0.0083,0.864,-6.31,7.91,-0.06,26.3
4240,0.3427,-0.0093,0.863,-6.44,7.77,-0.11,26.3
4250,0.3411,-0.0098,0.8652,-6.47,7.8,-0.05,26.31
4260,0.3407,-0.0088,0.8633,-6.38,7.79,0.02,26.32
4270,0.3394,-0.0083,0.8619,-6.32,7.79,-0.02,26.3
4280,0.3386,-0.011,0.8668,-6.47,7.83,-0.03,26.32
4290,0.3433,-0.0101,0.8605,-6.37,7.8,0.09,26.34
4300,0.3419,-0.0089,0.8624,-6.44,7.94,0.0,26.32
4310,0.3397,-0.0103,0.8651,-6.5,7.86,-0.11,26.33
4320,0.342,-0.0089,0.8632,-6.47,7.91,0.05,26.31
4330,0.3405,-0.0082,0.8633,-6.41,7.77,-0.03,26.31
4340,0.3391,-0.0085,0.865,-6.46,7.85,-0.03,26.34
4350,0.3431,-0.0098,0.8667,-6.43,7.83,-0.03,26.29
4360,0.3395,-0.0066,0.8629,-6.38,7.83,-0.05,26.32
4370,0.3407,-0.007,0.8647,-6.4,7.85,-0.06,26.33
4380,0.3396,-0.0052,0.8607,-6.52,7.83,-0.08,26.32
4390,0.3427,-0.0094,0.8579,-6.49,7.82,-0.05,26.3
4400,0.3389,-0.0087,0.8617,-6.43,7.86,-0.06,26.34
4410,0.3392,-0.0093,0.8636,-6.44,7.79,-0.11,26.32
4420,0.3372,-0.0095,0.8633,-6.47,7.79,0.03,26.3
4430,0.3409,-0.0103,0.863,-6.41,7.82,0.02,26.3
4440,0.3423,-0.0074,0.8677,-6.44,7.86,-0.03,26.33
4450,0.3398,-0.0089,0.8669,-6.44,7.86,0.06,26.33
4460,0.3395,-0.0107,0.8641,-6.49,7.79,-0.03,26.32
4470,0.3419,-0.0109,0.8596,-6.44,7.88,0.03,26.32
4480,0.3418,-0.0079,0.859,-6.41,7.85,0.06,26.34
4490,0.3427,-0.0081,0.8638,-6.44,7.85,-0.05,26.35
4500,0.3392,-0.0074,0.8643,-6.49,7.76,-0.03,26.32
4510,0.3386,-0.0077,0.8622,-6.41,7.85,-0.06,26.35
4520,0.3401,-0.0072,0.8591,-6.43,7.85,-0.11,26.29
4530,0.3391,-0.0098,0.8604,-6.46,7.77,0.0,26.31
4540,0.3396,-0.0076,0.8656,-6.4,7.8,-0.09,26.33
4550,0.3424,-0.0099,0.8624,-6.43,7.83,-0.03,26.33
4560,0.3398,-0.0101,0.864,-6.52,7.77,0.0,26.33
4570,0.3411,-0.0068,0.8608,-6.4,7.86,-0.03,26.32
4580,0.3436,-0.0103,0.864,-6.49,7.79,0.0,26.33
4590,0.3398,-0.012,0.8608,-6.46,7.82,0.03,26.32
4600,0.3385,-0.0103,0.8641,-6.52,7.8,-0.08,26.33
4610,0.3398,-0.011,0.8618,-6.44,7.86,-0.09,26.34
4620,0.3429,-0.0095,0.8667,-6.41,7.82,0.06,26.33
4630,0.3412,-0.0109,0.8647,-6.32,7.86,0.03,26.31
4640,0.3424,-0.0089,0.8617,-6.44,7.86,-0.03,26.33
4650,0.3435,-0.0112,0.8578,-6.37,7.82,-0.02,26.32
4660,0.34,-0.0095,0.86,-6.43,7.85,0.0,26.32
4670,0.3407,-0.0109,0.861,-6.43,7.82,-0.02,26.34
4680,0.3401,-0.0093,0.8611,-6.46,7.77,-0.05,26.36
4690,0.3429,-0.011,0.864,-6.41,7.8,-0.03,26.32
4700,0.3418,-0.0099,0.8668,-6.43,7.86,-0.06,26.34
4710,0.3423,-0.01,0.8644,-6.41,7.86,0.0,26.32
4720,0.3406,-0.0101,0.8645,-6.43,7.79,-0.09,26.34
4730,0.3424,-0.0101,0.8668,-6.5,7.77,-0.03,26.32
4740,0.3422,-0.009,0.8608,-6.38,7.89,-0.03,26.35
4750,0.3419,-0.0101,0.8622,-6.43,7.91,0.0,26.35
4760,0.3397,-0.007,0.8656,-6.56,7.89,-0.08,26.31
4770,0.3385,-0.01,0.861,-6.5,7.8,-0.02,26.33
4780,0.3423,-0.0107,0.8613,-6.46,7.76,0.03,26.34
4790,0.3394,-0.0096,0.8622,-6.43,7.79,-0.02,26.35
4800,0.34,-0.0095,0.8625,-6.49,7.83,0.02,26.35
4810,0.3384,-0.0101,0.8638,-6.38,7.88,0.05,26.32
4820,0.3402,-0.0112,0.8654,-6.53,7.91,0.03,26.32
4830,0.3406,-0.0103,0.8624,-6.43,7.94,0.09,26.31
4840,0.3374,-0.0089,0.8625,-6.5,7.79,-0.08,26.32
4850,0.3395,-0.01,0.8597,-6.49,7.77,-0.02,26.34
4860,0.3405,-0.0104,0.8634,-6.44,7.86,0.03,26.33
4870,0.3402,-0.0106,0.8622,-6.49,7.88,-0.03,26.33
4880,0.3389,-0.009,0.8658,-6.38,7.76,0.06,26.36
4890,0.3369,-0.0117,0.8645,-6.38,7.88,-0.15,26.35
4900,0.3412,-0.0079,0.8585,-6.4,7.82,-0.05,26.31
4910,0.3392,-0.0093,0.8657,-6.44,7.89,-0.06,26.36
4920,0.34,-0.0096,0.8639,-6.47,7.8,-0.08,26.37
4930,0.3383,-0.0094,0.8612,-6.4,7.86,-0.06,26.33
4940,0.3422,-0.0082,0.8582,-6.44,7.86,-0.11,26.37
4950,0.343,-0.009,0.8604,-6.32,7.88,0.0,26.34
4960,0.3414,-0.0093,0.863,-6.44,7.82,0.05,26.35
4970,0.3412,-0.0083,0.8601,-6.46,7.8,-0.08,26.34
4980,0.3407,-0.0112,0.8586,-6.43,7.79,-0.11,26.35
4990,0.3422,-0.0103,0.8601,-6.53,7.88,-0.03,26.33
5000,0.3406,-0.0101,0.8607,-6.41,7.83,-0.06,26.34
5010,0.342,-0.0068,0.8646,-6.47,7.79,-0.05,26.35
5020,0.3387,-0.01,0.8679,-6.5,7.85,-0.14,26.34
5030,0.338,-0.0092,0.8663,-6.32,7.8,-0.12,26.33
5040,0.3411,-0.0067,0.8616,-6.5,7.82,-0.03,26.35
5050,0.3425,-0.0122,0.8612,-6.44,7.85,-0.09,26.37
5060,0.34,-0.0118,0.8665,-6.44,7.86,-0.08,26.38
5070,0.3408,-0.0077,0.8612,-6.38,7.79,-0.11,26.35
5080,0.3406,-0.009,0.8636,-6.35,7.89,-0.06,26.32
5090,0.3411,-0.0079,0.8655,-6.37,7.86,-0.05,26.33
5100,0.3367,-0.0129,0.8673,-6.41,7.8,0.02,26.34
5110,0.3411,-0.0083,0.8676,-6.56,7.85,0.02,26.36
5120,0.3424,-0.0087,0.8657,-6.52,7.89,0.0,26.35
5130,0.3405,-0.0078,0.8632,-6.49,7.89,0.11,26.38
5140,0.3389,-0.0092,0.8657,-6.44,7.8,0.02,26.36
5150,0.3395,-0.0103,0.861,-6.34,7.77,-0.03,26.36
5160,0.3398,-0.0121,0.8613,-6.49,7.79,-0.02,26.36
5170,0.3425,-0.0105,0.8622,-6.4,7.88,-0.03,26.36
5180,0.3433,-0.0083,0.8616,-6.49,7.82,-0.06,26.36
5190,0.3406,-0.0106,0.8606,-6.43,7.8,0.03,26.38
5200,0.3403,-0.0063,0.8634,-6.4,7.82,-0.03,26.35
5210,0.3396,-0.0077,0.8636,-6.5,7.91,0.05,26.34
5220,0.3427,-0.0093,0.8612,-6.35,7.73,-0.02,26.36
5230,0.3392,-0.0089,0.8607,-6.5,7.88,-0.11,26.36
5240,0.3403,-0.0079,0.8621,-6.44,7.89,-0.02,26.35
5250,0.3392,-0.0079,0.8613,-6.46,7.83,-0.02,26.36
5260,0.3418,-0.0055,0.8647,-6.38,7.97,-0.08,26.36
5270,0.3428,-0.0098,0.8634,-6.46,7.85,0.02,26.34
5280,0.3419,-0.0057,0.8633,-6.49,7.91,0.0,26.36
5290,0.3433,-0.0074,0.8646,-6.4,7.85,0.02,26.34
5300,0.3412,-0.0072,0.8636,-6.47,7.88,-0.02,26.36
5310,0.3416,-0.0083,0.8621,-6.38,7.85,-0.03,26.37
5320,0.3392,-0.0081,0.8625,-6.4,7.85,-0.09,26.34
5330,0.3418,-0.0107,0.8618,-6.46,7.83,-0.08,26.38
5340,0.3422,-0.0092,0.8623,-6.49,7.83,-0.02,26.35
5350,0.3384,-0.0116,0.866,-6.49,7.86,-0.06,26.35
5360,0.3383,-0.0101,0.8662,-6.52,7.76,0.0,26.36
5370,0.3406,-0.0073,0.8633,-6.52,7.82,-0.05,26.37
5380,0.3403,-0.0083,0.8572,-6.47,7.86,-0.05,26.35
5390,0.3397,-0.0079,0.8663,-6.49,7.88,0.0,26.37
5400,0.338,-0.0093,0.8634,-6.53,7.86,-0.05,26.36
5410,0.342,-0.0072,0.8649,-6.55,7.88,-0.02,26.35
5420,0.3394,-0.0063,0.8619,-6.43,7.82,-0.06,26.35
5430,0.3386,-0.0082,0.8636,-6.43,7.94,-0.02,26.35
5440,0.3383,-0.0081,0.8608,-6.46,7.8,0.02,26.35
5450,0.3425,-0.0092,0.8667,-6.37,7.85,-0.03,26.36
5460,0.3408,-0.0049,0.8639,-6.52,7.88,0.0,26.38
5470,0.3398,-0.0078,0.8657,-6.5,7.76,0.02,26.37
5480,0.3384,-0.0088,0.8632,-6.38,7.82,0.05,26.39
5490,0.339,-0.0068,0.8611,-6.4,7.82,-0.06,26.38
5500,0.3408,-0.0095,0.8623,-6.41,7.79,-0.05,26.37
5510,0.3401,-0.0123,0.8617,-6.43,7.82,-0.06,26.36
5520,0.3394,-0.0095,0.8647,-6.4,7.83,0.0,26.37
5530,0.3407,-0.0118,0.8593,-6.43,7.79,-0.03,26.36
5540,0.34,-0.0079,0.8628,-6.44,7.8,-0.06,26.37
5550,0.3412,-0.0096,0.8618,-6.41,7.79,-0.05,26.37
5560,0.3425,-0.0095,0.8605,-6.46,7.89,-0.03,26.36
5570,0.3425,-0.0118,0.8639,-6.37,7.88,-0.06,26.34
5580,0.3403,-0.0112,0.8629,-6.47,7.88,0.02,26.38
5590,0.3403,-0.0055,0.865,-6.46,7.82,-0.05,26.37
5600,0.3408,-0.0101,0.8632,-6.43,7.89,-0.03,26.35
5610,0.3411,-0.007,0.8623,-6.49,7.82,-0.06,26.36
5620,0.3411,-0.0094,0.8641,-6.38,7.82,0.02,26.36
5631,0.34,-0.0111,0.8601,-6.38,7.8,0.03,26.34
5641,0.3375,-0.0087,0.8623,-6.49,7.85,0.03,26.36
5651,0.3409,-0.0088,0.8643,-6.44,7.88,-0.06,26.36
5661,0.3398,-0.0101,0.8669,-6.4,7.82,-0.05,26.37
5671,0.3392,-0.0114,0.8645,-6.41,7.83,-0.02,26.34
5681,0.338,-0.0101,0.8586,-6.49,7.91,-0.02,26.35
5691,0.3436,-0.0079,0.8639,-6.49,7.88,0.06,26.37
5701,0.3396,-0.0085,0.8651,-6.38,7.85,-0.02,26.37
5711,0.3398,-0.0117,0.8624,-6.4,7.8,-0.02,26.34
5721,0.339,-0.0093,0.8595,-6.41,7.82,-0.02,26.37
5731,0.3413,-0.0092,0.8612,-6.35,7.77,0.03,26.4
5741,0.3385,-0.0076,0.8656,-6.47,7.8,-0.06,26.38
5751,0.3401,-0.0076,0.8624,-6.35,7.82,0.05,26.37
5761,0.3391,-0.0083,0.8632,-6.41,7.85,0.03,26.36
5771,0.3402,-0.0088,0.8621,-6.47,7.83,-0.02,26.37
5781,0.3423,-0.0059,0.8634,-6.43,7.8,-0.08,26.39
5791,0.3409,-0.0085,0.8636,-6.55,7.86,-0.03,26.38
5801,0.3408,-0.0081,0.8607,-6.41,7.74,-0.05,26.35
5811,0.3407,-0.0061,0.8605,-6.41,7.92,-0.02,26.35
5821,0.34,-0.0111,0.8619,-6.41,7.77,-0.03,26.38
5831,0.3392,-0.0067,0.864,-6.44,7.77,-0.02,26.36
5841,0.3418,-0.0077,0.8589,-6.49,7.82,-0.05,26.37
5851,0.3395,-0.0115,0.86,-6.46,7.88,0.0,26.37
5861,0.3386,-0.0092,0.8633,-6.49,7.83,-0.11,26.37
5871,0.3409,-0.0088,0.865,-6.47,7.77,0.02,26.36
5881,0.3392,-0.0079,0.8617,-6.46,7.85,-0.03,26.37
5892,0.339,-0.0065,0.8628,-6.41,7.86,-0.05,26.36
5902,0.3414,-0.0112,0.8632,-6.44,7.88,0.02,26.37
5912,0.3423,-0.0089,0.8646,-6.46,7.91,0.02,26.41
5922,0.3413,-0.0099,0.8616,-6.47,7.8,-0.05,26.39
5932,0.3408,-0.0089,0.864,-6.44,7.86,-0.03,26.35
5942,0.3381,-0.0083,0.8636,-6.37,7.97,-0.02,26.38
5952,0.3398,-0.011,0.8606,-6.46,7.88,0.06,26.39
5962,0.3416,-0.0084,0.868,-6.49,7.85,-0.05,26.35
5972,0.3431,-0.0101,0.8617,-6.49,7.88,-0.03,26.37
5982,0.3425,-0.0096,0.8617,-6.34,7.86,0.0,26.39
5992,0.338,-0.0096,0.8633,-6.41,7.82,0.09,26.38
6002,0.3412,-0.0068,0.8639,-6.35,7.83,0.03,26.39
6012,0.3438,-0.0077,0.8635,-6.44,7.88,0.03,26.38
6022,0.3409,-0.0098,0.8635,-6.44,7.89,-0.09,26.39
6032,0.3406,-0.0082,0.8645,-6.53,7.8,-0.03,26.39
6042,0.3398,-0.0104,0.8641,-6.49,7.82,-0.11,26.4
6052,0.3411,-0.0103,0.8612,-6.44,7.82,-0.02,26.38
6062,0.3391,-0.0115,0.8621,-6.44,7.79,-0.05,26.37
6072,0.3398,-0.0061,0.865,-6.44,7.82,-0.02,26.38
6082,0.3403,-0.0076,0.8669,-6.38,7.86,0.02,26.4
6092,0.3368,-0.0101,0.8644,-6.41,7.83,-0.03,26.37
6102,0.3386,-0.0079,0.866,-6.4,7.82,0.12,26.37
6112,0.3405,-0.0076,0.8672,-6.41,7.86,0.0,26.39
6122,0.3406,-0.0084,0.8661,-6.49,7.91,-0.02,26.37
6132,0.3396,-0.0087,0.8616,-6.46,7.86,0.03,26.39
6142,0.3391,-0.0122,0.8628,-6.41,7.83,-0.06,26.37
6152,0.3398,-0.0109,0.8646,-6.41,7.82,-0.08,26.36
6162,0.3403,-0.0095,0.8611,-6.35,7.89,-0.08,26.39
6172,0.3401,-0.0076,0.8593,-6.49,7.88,0.03,26.39
6182,0.3428,-0.0081,0.863,-6.5,7.79,-0.05,26.39
6192,0.3408,-0.0112,0.8678,-6.41,7.85,0.0,26.37
6202,0.3386,-0.0087,0.8669,-6.41,7.86,-0.03,26.4
6212,0.3363,-0.0117,0.865,-6.46,7.86,0.0,26.37
6222,0.3414,-0.0093,0.864,-6.46,7.86,-0.06,26.37
6232,0.3396,-0.0112,0.8625,-6.49,7.83,-0.14,26.39
6242,0.339,-0.011,0.8615,-6.49,7.89,0.0,26.41
6252,0.3414,-0.0095,0.8658,-6.46,7.77,0.03,26.4
6262,0.3423,-0.0084,0.8601,-6.52,7.79,-0.03,26.41
6272,0.339,-0.0089,0.8625,-6.49,7.82,-0.05,26.4
6282,0.3387,-0.0059,0.8627,-6.47,7.77,-0.03,26.39
6292,0.3401,-0.01,0.8647,-6.46,7.82,-0.03,26.39
6302,0.3398,-0.0068,0.8604,-6.44,7.88,0.02,26.39
6312,0.3398,-0.0117,0.8634,-6.44,7.86,-0.02,26.38
6322,0.3391,-0.0098,0.8611,-6.38,7.8,0.03,26.4
6332,0.34,-0.0094,0.8628,-6.43,7.83,-0.05,26.39
6342,0.3417,-0.0078,0.8597,-6.38,7.82,-0.06,26.41
6352,0.3375,-0.0049,0.8606,-6.46,7.79,-0.06,26.4
6362,0.3409,-0.0082,0.8608,-6.52,7.71,-0.11,26.43
6372,0.3394,-0.0068,0.8623,-6.47,7.82,0.0,26.39
6382,0.3376,-0.012,0.8612,-6.52,7.88,0.05,26.39
6393,0.34,-0.0079,0.8655,-6.47,7.79,0.02,26.4
6403,0.34,-0.0107,0.8658,-6.32,7.79,-0.02,26.39
6413,0.3398,-0.0074,0.8638,-6.4,7.89,0.02,26.38
6423,0.3395,-0.0105,0.8613,-6.52,7.8,-0.03,26.4
6433,0.338,-0.0085,0.8613,-6.49,7.95,0.0,26.39
6443,0.3401,-0.0114,0.8641,-6.44,7.88,-0.05,26.4
6453,0.3422,-0.0089,0.8615,-6.49,7.83,-0.06,26.4
6463,0.3431,-0.0083,0.8638,-6.43,7.86,-0.02,26.4
6473,0.3397,-0.0105,0.8656,-6.52,7.88,0.0,26.42
6483,0.3397,-0.0079,0.8644,-6.37,7.77,0.0,26.41
6493,0.3375,-0.0071,0.8669,-6.41,7.8,-0.06,26.41
6503,0.3381,-0.0063,0.8632,-6.46,7.77,-0.02,26.4
6513,0.3394,-0.0073,0.8641,-6.4,7.83,-0.06,26.42
6523,0.3401,-0.0103,0.8635,-6.5,7.82,-0.05,26.41
6533,0.3416,-0.0077,0.8635,-6.44,7.83,-0.03,26.39
6543,0.3383,-0.0079,0.8688,-6.55,7.82,0.0,26.4
6553,0.3378,-0.0089,0.8674,-6.44,7.86,-0.11,26.42
6563,0.3368,-0.0105,0.8591,-6.43,7.85,0.02,26.39
6573,0.3405,-0.0078,0.8613,-6.4,7.79,-0.02,26.39
6583,0.3401,-0.0082,0.8635,-6.49,7.83,-0.06,26.4
6593,0.3409,-0.0127,0.8601,-6.5,7.85,-0.06,26.43
6603,0.3396,-0.0138,0.8656,-6.46,7.86,-0.03,26.41
6613,0.3412,-0.0096,0.865,-6.56,7.79,0.02,26.42
6623,0.3401,-0.0081,0.8632,-6.4,7.85,0.0,26.41
6633,0.3401,-0.0093,0.8628,-6.41,7.86,-0.11,26.41
6643,0.3409,-0.0089,0.8605,-6.49,7.77,-0.11,26.4
6653,0.3385,-0.0051,0.8636,-6.49,7.79,0.05,26.39
6663,0.3407,-0.0101,0.8624,-6.53,7.86,0.0,26.4
6673,0.3413,-0.0083,0.8616,-6.37,7.89,-0.12,26.41
6683,0.3395,-0.0062,0.8638,-6.31,7.85,-0.03,26.43
6693,0.3431,-0.0078,0.8607,-6.44,7.88,-0.06,26.42
6703,0.3405,-0.0092,0.8635,-6.44,7.77,-0.05,26.42
6713,0.3396,-0.0114,0.8636,-6.5,7.85,-0.05,26.42
6723,0.3405,-0.01,0.8616,-6.37,7.85,-0.05,26.41
6733,0.3396,-0.0098,0.858,-6.43,7.79,0.03,26.43
6743,0.3395,-0.011,0.8617,-6.41,7.83,-0.05,26.41
6753,0.3425,-0.0096,0.864,-6.44,7.85,-0.06,26.4
6763,0.3379,-0.0106,0.8627,-6.44,7.85,-0.08,26.43
6773,0.3397,-0.0098,0.8645,-6.44,7.77,-0.09,26.44
6783,0.3395,-0.0087,0.861,-6.41,7.85,-0.09,26.43
6793,0.3398,-0.0085,0.8584,-6.49,7.8,-0.08,26.41
6803,0.3403,-0.0101,0.8617,-6.44,7.83,-0.03,26.42
6813,0.3408,-0.009,0.8672,-6.44,7.85,-0.02,26.42
6823,0.3403,-0.0082,0.8611,-6.46,7.86,-0.05,26.42
6833,0.3394,-0.0098,0.8617,-6.47,7.79,0.09,26.39
6843,0.3425,-0.0079,0.8634,-6.41,7.85,-0.03,26.42
6853,0.3392,-0.007,0.8654,-6.41,7.86,-0.06,26.42
6863,0.3402,-0.0081,0.8616,-6.43,7.92,0.0,26.41
6873,0.3413,-0.0101,0.8613,-6.43,7.86,-0.03,26.39
6883,0.3375,-0.0094,0.8635,-6.43,7.85,-0.03,26.42
6893,0.3403,-0.0094,0.8638,-6.46,7.83,0.03,26.42
6903,0.3397,-0.0095,0.8618,-6.46,7.8,-0.02,26.41
6913,0.3398,-0.011,0.8625,-6.49,7.83,0.05,26.43
6923,0.3417,-0.0073,0.8649,-6.41,7.79,-0.06,26.43
6933,0.3412,-0.0057,0.861,-6.4,7.8,-0.02,26.46
6943,0.3392,-0.0105,0.8621,-6.38,7.83,-0.03,26.43
6953,0.343,-0.01,0.8624,-6.4,7.88,-0.05,26.42
6963,0.3442,-0.0094,0.8611,-6.44,7.79,0.03,26.39
6973,0.3385,-0.0084,0.8571,-6.53,7.86,-0.05,26.4
6983,0.3396,-0.0083,0.8657,-6.46,7.83,-0.06,26.4
6993,0.3406,-0.0103,0.8601,-6.49,7.86,-0.06,26.41
7003,0.3422,-0.0123,0.8633,-6.52,7.79,-0.09,26.43
7013,0.3407,-0.0095,0.864,-6.41,7.8,-0.11,26.44
7023,0.3362,-0.01,0.8582,-6.49,7.82,-0.09,26.41
7033,0.3392,-0.0092,0.8617,-6.46,7.85,-0.08,26.41
7043,0.3391,-0.0081,0.8665,-6.43,7.86,0.03,26.42
7053,0.3412,-0.0083,0.8663,-6.52,7.79,-0.03,26.42
7063,0.3414,-0.0098,0.8612,-6.46,7.71,-0.12,26.44
7073,0.337,-0.0104,0.8619,-6.43,7.82,-0.03,26.42
7083,0.3416,-0.0111,0.8632,-6.49,7.85,-0.03,26.44
7093,0.3405,-0.0068,0.8621,-6.49,7.82,0.03,26.42
7103,0.3383,-0.0087,0.8645,-6.5,7.77,-0.06,26.42
7113,0.3405,-0.0084,0.8662,-6.52,7.82,-0.05,26.44
7123,0.3411,-0.0126,0.8678,-6.43,7.82,-0.08,26.44
7133,0.3402,-0.0114,0.8668,-6.44,7.85,0.0,26.39
7143,0.3386,-0.01,0.8656,-6.5,7.83,-0.03,26.41
7153,0.3418,-0.0072,0.8641,-6.53,7.95,-0.09,26.44
7163,0.3418,-0.0077,0.8646,-6.5,7.85,-0.05,26.43
7173,0.3412,-0.0093,0.864,-6.38,7.8,0.0,26.42
7183,0.3402,-0.01,0.8604,-6.53,7.83,-0.02,26.41
7193,0.3386,-0.0109,0.8621,-6.41,7.71,-0.05,26.43
7203,0.3413,-0.0092,0.8617,-6.4,7.89,-0.03,26.44
7213,0.3416,-0.009,0.8636,-6.4,7.85,0.02,26.43
7223,0.3387,-0.0111,0.8607,-6.43,7.8,-0.08,26.44
7233,0.3391,-0.0076,0.8601,-6.49,7.89,-0.06,26.44
7243,0.3407,-0.0096,0.8649,-6.41,7.82,0.02,26.45
7254,0.339,-0.0107,0.8636,-6.46,7.83,0.02,26.43
7264,0.3413,-0.0071,0.8628,-6.38,7.82,0.05,26.43
7274,0.3411,-0.009,0.8602,-6.41,7.85,-0.03,26.45
7284,0.3422,-0.0092,0.8611,-6.47,7.83,-0.03,26.44
7294,0.3405,-0.0093,0.8591,-6.38,7.85,0.0,26.43
7304,0.3397,-0.0085,0.8595,-6.43,7.82,-0.05,26.42
7314,0.3397,-0.0085,0.8625,-6.5,7.89,-0.06,26.41
7324,0.3406,-0.0112,0.8593,-6.43,7.85,0.06,26.44
7334,0.3406,-0.0092,0.8589,-6.44,7.79,-0.05,26.44
7344,0.3413,-0.0093,0.8615,-6.43,7.74,-0.05,26.41
7354,0.3392,-0.0057,0.8635,-6.5,7.85,-0.08,26.45
7364,0.3395,-0.0088,0.8612,-6.49,7.85,0.0,26.44
7374,0.3405,-0.0121,0.8651,-6.5,7.83,-0.11,26.44
7384,0.3396,-0.0078,0.8657,-6.43,7.85,-0.02,26.45
7394,0.3395,-0.0094,0.8668,-6.4,7.89,0.03,26.43
7404,0.3402,-0.0078,0.8618,-6.44,7.8,-0.05,26.44
7414,0.3433,-0.0083,0.8635,-6.49,7.94,-0.06,26.42
7424,0.3396,-0.0068,0.8623,-6.49,7.83,-0.02,26.44
7434,0.3447,-0.0121,0.8627,-6.44,7.8,-0.09,26.46
7444,0.3409,-0.0083,0.8651,-6.44,7.82,-0.06,26.42
7454,0.3442,-0.0077,0.8657,-6.43,7.85,0.0,26.43
7464,0.3378,-0.0092,0.8628,-6.44,7.88,-0.05,26.43
7474,0.3416,-0.0081,0.864,-6.47,7.88,-0.08,26.41
7484,0.3407,-0.0092,0.8644,-6.44,7.79,-0.08,26.42
7494,0.3403,-0.0096,0.8633,-6.55,7.74,-0.06,26.43
7504,0.3412,-0.0089,0.8613,-6.49,7.77,-0.03,26.42
7514,0.3403,-0.0098,0.8643,-6.43,7.85,-0.06,26.42
7524,0.3384,-0.0065,0.8645,-6.46,7.8,-0.06,26.42
7534,0.3406,-0.0098,0.8658,-6.47,7.8,-0.02,26.43
7544,0.3387,-0.0101,0.864,-6.46,7.92,-0.03,26.42
7554,0.3397,-0.0095,0.8622,-6.49,7.85,-0.06,26.45
7564,0.3412,-0.0079,0.8636,-6.49,7.86,-0.08,26.42
7574,0.3416,-0.01,0.864,-6.46,7.83,-0.05,26.44
7584,0.3403,-0.0089,0.8607,-6.5,7.77,0.0,26.42
7594,0.3439,-0.0089,0.8639,-6.5,7.85,0.0,26.44
7604,0.3406,-0.0101,0.863,-6.43,7.86,0.02,26.42
7614,0.3407,-0.0109,0.8652,-6.52,7.83,-0.11,26.43
7624,0.3414,-0.0073,0.8632,-6.35,7.83,-0.02,26.42
7634,0.3419,-0.0087,0.8627,-6.47,7.86,-0.12,26.42
7644,0.3413,-0.0116,0.863,-6.49,7.85,-0.02,26.44
7654,0.3392,-0.0092,0.8629,-6.46,7.83,0.06,26.44
7664,0.3433,-0.01,0.8627,-6.41,7.8,-0.09,26.45
7674,0.3385,-0.0094,0.864,-6.35,7.83,0.0,26.42
7684,0.3407,-0.0093,0.86,-6.44,7.88,-0.03,26.43
7694,0.3383,-0.0103,0.8611,-6.46,7.86,-0.03,26.44
7704,0.34,-0.0122,0.8645,-6.46,7.85,0.02,26.44
7714,0.3428,-0.0096,0.8596,-6.46,7.83,-0.02,26.41
7724,0.3397,-0.0101,0.8621,-6.5,7.88,-0.06,26.46
7734,0.3396,-0.0115,0.8639,-6.49,7.91,0.03,26.43
7744,0.3412,-0.0106,0.8619,-6.44,7.83,0.03,26.42
7754,0.3411,-0.0081,0.8597,-6.47,7.79,-0.08,26.42
7764,0.3412,-0.0089,0.8608,-6.44,7.77,-0.02,26.42
7774,0.3391,-0.0088,0.8623,-6.49,7.86,-0.03,26.43
7784,0.3402,-0.0114,0.863,-6.41,7.77,-0.05,26.46
7794,0.3385,-0.0087,0.8593,-6.46,7.86,-0.08,26.43
7804,0.3409,-0.0083,0.865,-6.43,7.8,0.02,26.44
7814,0.3403,-0.0082,0.8632,-6.43,7.83,0.0,26.44
7824,0.3417,-0.009,0.8668,-6.49,7.86,-0.11,26.46
7834,0.3389,-0.0105,0.8595,-6.43,7.74,-0.02,26.47
7844,0.3407,-0.01,0.8666,-6.38,7.79,-0.08,26.41
7854,0.3446,-0.0109,0.8623,-6.44,7.73,0.05,26.42
7864,0.34,-0.0096,0.8652,-6.49,7.76,-0.02,26.43
7874,0.3384,-0.007,0.8612,-6.47,7.86,0.02,26.43
7884,0.3418,-0.01,0.8661,-6.41,7.82,-0.02,26.46
7894,0.3412,-0.0109,0.8663,-6.49,7.79,0.11,26.46
7904,0.3392,-0.0084,0.8606,-6.44,7.85,-0.05,26.44
7914,0.3401,-0.0085,0.864,-6.49,7.79,-0.05,26.42
7924,0.3403,-0.01,0.8628,-6.49,7.83,-0.11,26.42
7934,0.3394,-0.0095,0.8632,-6.44,7.77,0.0,26.46
7944,0.3395,-0.0107,0.8666,-6.46,7.82,-0.15,26.42
7954,0.3411,-0.0082,0.8665,-6.47,7.86,-0.03,26.42
7964,0.3416,-0.0093,0.859,-6.38,7.8,-0.05,26.45
7974,0.3402,-0.0094,0.863,-6.41,7.82,0.05,26.43
7984,0.3405,-0.0098,0.8671,-6.47,7.88,0.02,26.42
7994,0.3397,-0.009,0.8645,-6.4,7.83,-0.02,26.44
8004,0.3381,-0.0057,0.8613,-6.43,7.89,-0.03,26.44
8014,0.3405,-0.0083,0.8617,-6.4,7.77,-0.05,26.46
8024,0.3395,-0.0105,0.8607,-6.46,7.8,0.02,26.44
8034,0.3411,-0.0115,0.8657,-6.5,7.88,-0.06,26.44
8044,0.3417,-0.0101,0.8656,-6.4,7.83,-0.11,26.46
8054,0.3429,-0.0083,0.8619,-6.5,7.79,-0.06,26.46
8064,0.3419,-0.0081,0.8638,-6.43,7.83,-0.03,26.45
8074,0.3412,-0.0083,0.8591,-6.49,7.74,0.03,26.46
8084,0.3419,-0.0085,0.8666,-6.47,7.79,-0.08,26.44
8094,0.3396,-0.0089,0.865,-6.47,7.82,0.0,26.45
8104,0.3402,-0.0079,0.8634,-6.47,7.76,0.02,26.45
8114,0.342,-0.01,0.8645,-6.46,7.8,0.06,26.44
8124,0.3391,-0.0095,0.8619,-6.44,7.85,0.05,26.44
8134,0.338,-0.0093,0.8594,-6.44,7.79,-0.02,26.45
8144,0.3422,-0.0101,0.8638,-6.41,7.8,-0.11,26.45
8154,0.3409,-0.0092,0.8647,-6.5,7.86,-0.06,26.45
8164,0.3408,-0.0096,0.8655,-6.35,7.85,0.0,26.43
8174,0.3397,-0.01,0.8627,-6.47,7.85,0.02,26.43
8184,0.3441,-0.0079,0.8623,-6.38,7.85,-0.05,26.44
8194,0.3412,-0.011,0.8624,-6.47,7.91,-0.05,26.43
8204,0.3406,-0.0094,0.8646,-6.49,7.74,-0.02,26.45
8214,0.3392,-0.009,0.8608,-6.49,7.86,-0.09,26.43
8224,0.3391,-0.0107,0.8654,-6.47,7.85,-0.11,26.46
8234,0.3408,-0.0099,0.8665,-6.43,7.8,-0.06,26.45
8244,0.3425,-0.0083,0.8643,-6.4,7.77,-0.03,26.41
8254,0.3406,-0.0085,0.8655,-6.5,7.88,-0.09,26.42
8264,0.3374,-0.01,0.8672,-6.43,7.8,-0.05,26.45
8274,0.3361,-0.0116,0.8633,-6.44,7.82,0.03,26.45
8285,0.3402,-0.0117,0.8608,-6.43,7.88,-0.05,26.44
8295,0.339,-0.0106,0.8647,-6.46,7.88,0.02,26.45
8305,0.3394,-0.011,0.8634,-6.37,7.82,0.03,26.46
8315,0.3416,-0.0081,0.8671,-6.43,7.82,-0.09,26.47
8325,0.3391,-0.0106,0.8605,-6.47,7.8,-0.03,26.45
8335,0.34,-0.0065,0.8621,-6.44,7.82,-0.03,26.44
8345,0.3409,-0.0078,0.863,-6.52,7.82,-0.02,26.44
8355,0.3401,-0.0099,0.8606,-6.44,7.83,-0.05,26.42
8365,0.3383,-0.0087,0.8575,-6.47,7.76,-0.05,26.43
8375,0.3408,-0.009,0.8639,-6.43,7.8,0.0,26.44
8385,0.3407,-0.0109,0.8633,-6.4,7.85,-0.06,26.45
8395,0.3397,-0.0067,0.8596,-6.4,7.85,0.02,26.44
8405,0.342,-0.0082,0.8636,-6.38,7.82,0.02,26.43
8415,0.3434,-0.0105,0.8641,-6.34,7.79,-0.02,26.44
8425,0.3386,-0.0082,0.8612,-6.43,7.83,-0.02,26.47
8435,0.3407,-0.0094,0.8635,-6.47,7.83,0.0,26.44
8445,0.3394,-0.0101,0.8672,-6.47,7.88,0.03,26.45
8455,0.3406,-0.0087,0.8656,-6.56,7.82,-0.03,26.46
8465,0.3391,-0.0107,0.8671,-6.46,7.82,0.05,26.44
8475,0.3376,-0.0081,0.8657,-6.5,7.92,0.02,26.45
8485,0.3397,-0.0104,0.8583,-6.43,7.88,-0.02,26.48
8495,0.3409,-0.0107,0.8662,-6.5,7.73,-0.05,26.46
8505,0.3409,-0.0117,0.8623,-6.46,7.8,0.02,26.45
8515,0.3444,-0.0088,0.8634,-6.47,7.82,0.02,26.41
8525,0.344,-0.0084,0.8599,-6.43,7.86,0.0,26.46
8535,0.3396,-0.0111,0.8624,-6.43,7.82,0.0,26.46
8545,0.3433,-0.0084,0.8617,-6.49,7.82,-0.11,26.45
8555,0.3397,-0.0099,0.8643,-6.46,7.85,-0.08,26.42
8565,0.3352,-0.0089,0.8651,-6.44,7.77,-0.03,26.43
8575,0.3407,-0.0059,0.8564,-6.43,7.76,0.03,26.45
8585,0.3405,-0.0096,0.8617,-6.52,7.76,-0.05,26.45
8595,0.3405,-0.0106,0.8616,-6.44,7.8,-0.05,26.45
8605,0.3412,-0.0104,0.8624,-6.46,7.79,0.08,26.44
8615,0.3405,-0.0063,0.8638,-6.46,7.83,0.0,26.45
8625,0.3407,-0.0099,0.8629,-6.47,7.85,-0.08,26.45
8635,0.3407,-0.0105,0.8607,-6.43,7.74,-0.09,26.46
8645,0.3414,-0.0085,0.8634,-6.53,7.89,-0.02,26.44
8655,0.3409,-0.0085,0.8618,-6.55,7.79,-0.06,26.45
8665,0.3395,-0.0066,0.866,-6.47,7.73,0.03,26.46
8675,0.3413,-0.0088,0.8625,-6.44,7.79,0.02,26.44
8685,0.339,-0.0107,0.8596,-6.44,7.85,0.03,26.49
8695,0.3396,-0.0093,0.8629,-6.46,7.88,0.0,26.46
8705,0.3387,-0.0099,0.8613,-6.52,7.83,0.05,26.45
8715,0.3394,-0.0079,0.8623,-6.47,7.77,-0.03,26.46
8725,0.3411,-0.0111,0.8646,-6.38,7.77,-0.08,26.46
8735,0.3412,-0.0094,0.8613,-6.47,7.8,0.06,26.47
8745,0.3398,-0.0109,0.865,-6.35,7.83,-0.05,26.47
8755,0.3403,-0.01,0.8655,-6.49,7.86,-0.11,26.42
8765,0.3419,-0.0088,0.8673,-6.5,7.8,0.05,26.46
8775,0.3414,-0.0098,0.8615,-6.47,7.91,-0.02,26.44
8785,0.3416,-0.0106,0.863,-6.46,7.82,0.0,26.45
8795,0.3413,-0.0078,0.8641,-6.47,7.88,0.03,26.44
8805,0.3391,-0.0125,0.864,-6.49,7.82,-0.06,26.46
8815,0.3396,-0.0077,0.8652,-6.43,7.79,-0.02,26.47
8825,0.339,-0.0084,0.8593,-6.53,7.89,-0.03,26.46
8835,0.3413,-0.0085,0.8636,-6.38,7.79,0.0,26.45
8845,0.3425,-0.0089,0.8608,-6.43,7.83,0.05,26.46
8855,0.3387,-0.0081,0.861,-6.35,7.82,-0.02,26.44
8865,0.3391,-0.0098,0.8632,-6.49,7.89,0.08,26.46
8875,0.3409,-0.0056,0.8596,-6.43,7.86,-0.03,26.45
8885,0.3387,-0.0089,0.8627,-6.43,7.89,0.03,26.45
8895,0.3389,-0.0094,0.8593,-6.46,7.86,0.02,26.43
8905,0.3391,-0.0096,0.8625,-6.47,7.92,-0.12,26.44
8915,0.3387,-0.0073,0.8639,-6.46,7.83,0.05,26.45
8925,0.3419,-0.0072,0.8645,-6.52,7.77,-0.02,26.47
8935,0.3416,-0.0096,0.8638,-6.41,7.79,-0.02,26.44
8945,0.3407,-0.0083,0.8635,-6.5,7.79,0.0,26.47
8955,0.3376,-0.0067,0.8649,-6.43,7.79,0.08,26.49
8965,0.3384,-0.009,0.8622,-6.49,7.82,0.06,26.47
8975,0.3411,-0.0096,0.8635,-6.37,7.83,-0.02,26.48
8985,0.3365,-0.0084,0.8617,-6.43,7.8,-0.03,26.48
8995,0.3379,-0.0082,0.8605,-6.44,7.83,0.05,26.47
9005,0.342,-0.009,0.8643,-6.47,7.86,-0.06,26.47
9015,0.3394,-0.01,0.8624,-6.44,7.83,-0.03,26.46
9025,0.3406,-0.0083,0.8647,-6.53,7.76,-0.03,26.47
9035,0.3414,-0.0087,0.8632,-6.46,7.79,-0.03,26.47
9045,0.3409,-0.0071,0.8625,-6.4,7.86,0.02,26.47
9055,0.3409,-0.0063,0.8624,-6.56,7.8,0.02,26.46
9065,0.342,-0.0107,0.8643,-6.44,7.86,-0.05,26.47
9075,0.3413,-0.0092,0.8627,-6.43,7.76,-0.03,26.47
9085,0.3381,-0.0095,0.8638,-6.49,7.74,-0.03,26.48
9095,0.3409,-0.0082,0.8627,-6.43,7.85,0.0,26.5
9105,0.339,-0.0088,0.8619,-6.47,7.85,0.02,26.49
9115,0.3392,-0.0092,0.8643,-6.43,7.88,0.06,26.47
9125,0.3403,-0.0079,0.863,-6.41,7.89,-0.02,26.47
9135,0.3408,-0.0076,0.8615,-6.5,7.95,-0.06,26.49
9145,0.3401,-0.0072,0.8591,-6.4,7.8,0.03,26.49
9155,0.3411,-0.0084,0.8629,-6.49,7.82,-0.03,26.48
9165,0.3444,-0.0104,0.8627,-6.56,7.83,-0.08,26.46
9175,0.339,-0.0117,0.8583,-6.37,7.86,-0.02,26.5
9185,0.3395,-0.0088,0.861,-6.38,7.86,0.02,26.48
9195,0.3403,-0.012,0.8634,-6.52,7.88,-0.09,26.47
9205,0.3389,-0.0093,0.8615,-6.4,7.8,-0.09,26.48
9215,0.3395,-0.0109,0.8643,-6.47,7.91,-0.05,26.48
9225,0.3391,-0.0103,0.8615,-6.49,7.85,-0.06,26.47
9235,0.3413,-0.009,0.8619,-6.49,7.79,-0.11,26.44
9246,0.3451,-0.0083,0.8666,-6.43,7.77,-0.09,26.46
9256,0.3416,-0.0103,0.8633,-6.4,7.86,-0.02,26.47
9268,0.3373,-0.0116,0.8605,-6.56,7.86,0.06,26.48
9278,0.3414,-0.0094,0.8624,-6.37,7.77,-0.05,26.49
9288,0.339,-0.0114,0.8662,-6.46,7.85,-0.06,26.49
9298,0.3409,-0.0109,0.8622,-6.44,7.83,0.0,26.47
9308,0.3412,-0.0092,0.8636,-6.43,7.82,-0.02,26.47
9318,0.3436,-0.0087,0.8602,-6.49,7.8,0.06,26.49
9328,0.3417,-0.0088,0.8647,-6.52,7.77,0.0,26.45
9338,0.3412,-0.0067,0.8612,-6.49,7.83,-0.03,26.48
9348,0.3403,-0.0079,0.8622,-6.47,7.82,-0.09,26.46
9358,0.3383,-0.0076,0.863,-6.52,7.79,-0.02,26.48
9368,0.3429,-0.01,0.8617,-6.41,7.89,0.02,26.48
9378,0.34,-0.0087,0.86,-6.41,7.91,0.02,26.47
9388,0.3395,-0.0112,0.8655,-6.43,7.8,-0.05,26.48
9398,0.3427,-0.0106,0.864,-6.35,7.86,-0.14,26.46
9408,0.3408,-0.0076,0.8575,-6.37,7.83,-0.03,26.49
9418,0.3405,-0.01,0.8651,-6.5,7.83,-0.02,26.51
9428,0.3439,-0.0095,0.8628,-6.4,7.85,-0.02,26.47
9438,0.3396,-0.0092,0.8606,-6.47,7.82,0.05,26.46
9448,0.3395,-0.0081,0.8632,-6.5,7.86,-0.08,26.47
9458,0.3407,-0.01,0.8618,-6.52,7.86,0.02,26.44
9468,0.3434,-0.0103,0.8605,-6.55,7.82,0.0,26.46
9478,0.3446,-0.0089,0.8606,-6.41,7.83,0.0,26.47
9489,0.34,-0.0079,0.8645,-6.41,7.86,-0.03,26.46
9499,0.343,-0.0088,0.8641,-6.41,7.79,-0.03,26.47
9509,0.3414,-0.0062,0.8661,-6.49,7.82,-0.03,26.48
9519,0.3419,-0.0083,0.8606,-6.49,7.79,0.0,26.49
9529,0.3401,-0.0088,0.8639,-6.4,7.85,-0.08,26.49
9539,0.3402,-0.0104,0.8649,-6.38,7.88,-0.08,26.51
9549,0.3402,-0.0087,0.8616,-6.4,7.79,-0.08,26.49
9559,0.34,-0.0065,0.8604,-6.46,7.79,-0.08,26.48
9569,0.3401,-0.0094,0.8634,-6.47,7.85,-0.03,26.46
9579,0.3414,-0.007,0.8633,-6.44,7.76,-0.06,26.47
9589,0.339,-0.0093,0.8644,-6.43,7.73,0.03,26.47
9599,0.3411,-0.01,0.8619,-6.46,7.82,-0.05,26.48
9609,0.3429,-0.011,0.8643,-6.43,7.8,0.06,26.49
9619,0.3387,-0.01,0.8628,-6.47,7.83,0.0,26.48
9629,0.3385,-0.0056,0.8655,-6.5,7.88,-0.06,26.49
9639,0.3387,-0.0093,0.8615,-6.46,7.85,-0.05,26.49
9649,0.3417,-0.0062,0.8623,-6.53,7.89,0.09,26.51
9659,0.339,-0.0076,0.8602,-6.4,7.76,0.0,26.48
9669,0.3375,-0.0099,0.8593,-6.49,7.86,0.02,26.47
9679,0.3425,-0.0116,0.8634,-6.56,7.91,-0.03,26.49
9690,0.3392,-0.0065,0.8597,-6.47,7.77,-0.09,26.47
9700,0.3403,-0.0089,0.8627,-6.38,7.79,-0.09,26.48
9710,0.3397,-0.0104,0.8613,-6.4,7.86,-0.12,26.47
9720,0.3392,-0.0074,0.8612,-6.46,7.85,-0.02,26.51
9730,0.3394,-0.0092,0.8633,-6.38,7.8,0.03,26.48
9740,0.3398,-0.0076,0.8635,-6.49,7.82,-0.02,26.49
9750,0.339,-0.0073,0.8621,-6.46,7.83,-0.03,26.47
9760,0.3385,-0.0084,0.8633,-6.55,7.88,-0.11,26.47
9770,0.3412,-0.0092,0.8619,-6.52,7.85,-0.02,26.48
9780,0.3417,-0.0076,0.8635,-6.46,7.83,-0.03,26.49
9790,0.3394,-0.0082,0.8639,-6.49,7.89,-0.03,26.47
9800,0.3408,-0.0049,0.8596,-6.47,7.88,-0.12,26.49
9810,0.3394,-0.0088,0.863,-6.44,7.88,0.02,26.51
9820,0.3372,-0.012,0.8604,-6.49,7.91,0.02,26.49
9830,0.335,-0.01,0.8677,-6.5,7.79,0.0,26.49
9840,0.3407,-0.0089,0.8676,-6.49,7.83,0.0,26.49
9850,0.3409,-0.0129,0.8621,-6.47,7.8,0.08,26.48
9860,0.3405,-0.01,0.8624,-6.5,7.82,-0.02,26.5
9870,0.3429,-0.0088,0.8627,-6.32,7.76,-0.08,26.5
9880,0.3391,-0.0131,0.8662,-6.37,7.68,-0.09,26.48
9890,0.3411,-0.0118,0.8616,-6.46,7.79,-0.02,26.49
9900,0.3406,-0.0104,0.8568,-6.55,7.8,-0.11,26.49
9912,0.3385,-0.0094,0.8636,-6.49,7.83,0.0,26.51
9922,0.3405,-0.0104,0.861,-6.49,7.85,-0.11,26.49
9932,0.3392,-0.0085,0.866,-6.49,7.85,-0.06,26.48
9942,0.3417,-0.0074,0.8656,-6.53,7.88,-0.03,26.47
9952,0.3387,-0.0082,0.8655,-6.44,7.89,0.0,26.48
9962,0.3389,-0.0094,0.8628,-6.52,7.77,-0.11,26.48
9972,0.342,-0.0076,0.8627,-6.41,7.8,-0.05,26.5
9982,0.3417,-0.0101,0.8672,-6.52,7.89,-0.05,26.51
9992,0.3386,-0.0104,0.8639,-6.38,7.76,0.0,26.48
10002,0.3392,-0.0103,0.8613,-6.41,7.86,-0.02,26.51
10012,0.3408,-0.0077,0.8612,-6.44,7.86,0.0,26.49
10022,0.3416,-0.0094,0.8624,-6.47,7.76,0.0,26.49
10032,0.3405,-0.0116,0.8644,-6.5,7.79,0.02,26.5
10042,0.3412,-0.0078,0.8622,-6.46,7.89,0.05,26.49
10052,0.3412,-0.0095,0.8599,-6.49,7.92,0.06,26.49
10062,0.342,-0.0105,0.8606,-6.47,7.82,-0.03,26.5
10072,0.3375,-0.0078,0.8612,-6.46,7.83,-0.08,26.49
10082,0.3381,-0.0057,0.8618,-6.46,7.74,0.0,26.5
10092,0.3398,-0.0082,0.8617,-6.52,7.8,-0.06,26.5
10102,0.3434,-0.009,0.8625,-6.52,7.79,-0.06,26.5
10112,0.3403,-0.0073,0.8602,-6.41,7.92,-0.02,26.48
10122,0.3394,-0.01,0.8602,-6.44,7.8,-0.09,26.51
10132,0.3357,-0.0117,0.8593,-6.43,7.82,-0.03,26.52
10142,0.3409,-0.0093,0.8602,-6.58,7.82,-0.03,26.5
10152,0.3414,-0.0087,0.8634,-6.46,7.85,-0.08,26.49
10162,0.3403,-0.0094,0.8632,-6.47,7.82,0.0,26.51
10172,0.3395,-0.01,0.8627,-6.44,7.85,-0.03,26.54
10182,0.3418,-0.0072,0.8656,-6.5,7.79,-0.08,26.51
10192,0.3397,-0.0076,0.8632,-6.49,7.82,-0.12,26.48
10202,0.3376,-0.009,0.8639,-6.49,7.86,-0.03,26.48
10212,0.3384,-0.0094,0.861,-6.41,7.85,0.0,26.5
10222,0.3379,-0.0099,0.864,-6.47,7.8,0.0,26.5
10232,0.3392,-0.0078,0.8662,-6.46,7.85,-0.08,26.49
10242,0.3392,-0.0093,0.8605,-6.4,7.89,0.0,26.49
10252,0.3396,-0.0111,0.8604,-6.49,7.86,0.0,26.49
10262,0.3417,-0.0079,0.8639,-6.44,7.88,-0.05,26.49
10272,0.342,-0.0073,0.8645,-6.53,7.8,0.0,26.49
10282,0.3418,-0.0071,0.8593,-6.43,7.89,0.03,26.51
10292,0.3397,-0.0094,0.8641,-6.44,7.82,0.06,26.49
10302,0.3385,-0.0082,0.8633,-6.47,7.8,0.06,26.52
10312,0.3406,-0.0078,0.8669,-6.5,7.85,0.06,26.49
10322,0.3398,-0.0067,0.8616,-6.52,7.86,0.06,26.49
10332,0.3408,-0.0085,0.8605,-6.43,7.86,-0.03,26.5
10342,0.3365,-0.0093,0.8635,-6.52,7.92,0.02,26.48
10352,0.3408,-0.0101,0.8641,-6.44,7.83,-0.06,26.49
10362,0.3395,-0.0125,0.864,-6.34,7.85,-0.02,26.46
10372,0.3409,-0.0105,0.8635,-6.37,7.85,-0.02,26.51
10382,0.3395,-0.011,0.8622,-6.46,7.83,-0.03,26.48
10392,0.3398,-0.0096,0.8633,-6.4,7.83,0.06,26.49
10402,0.3405,-0.0092,0.8645,-6.41,7.82,0.0,26.5
10412,0.3394,-0.0104,0.8625,-6.47,7.73,-0.02,26.49
10422,0.3407,-0.0094,0.8649,-6.53,7.82,-0.05,26.47
10432,0.3394,-0.0081,0.8633,-6.53,7.77,0.0,26.49
10442,0.3424,-0.0077,0.8624,-6.5,7.8,-0.05,26.5
10452,0.3402,-0.0074,0.8636,-6.46,7.76,0.03,26.49
10462,0.338,-0.0092,0.8605,-6.43,7.82,-0.06,26.48
10472,0.3429,-0.009,0.86,-6.5,7.79,-0.08,26.49
10482,0.3413,-0.0082,0.8655,-6.55,7.82,0.0,26.48
10492,0.339,-0.0082,0.8617,-6.43,7.82,0.05,26.5
10502,0.3407,-0.009,0.8615,-6.53,7.79,0.02,26.49
10512,0.3385,-0.0093,0.8589,-6.47,7.83,0.05,26.52
10522,0.339,-0.0073,0.8625,-6.5,7.85,-0.03,26.5
10532,0.3418,-0.0084,0.865,-6.53,7.8,-0.05,26.49
10542,0.3411,-0.0078,0.8644,-6.43,7.83,-0.06,26.5
10552,0.3391,-0.0093,0.8628,-6.49,7.88,-0.03,26.49
10562,0.3391,-0.0105,0.8591,-6.41,7.92,-0.03,26.49
10572,0.3375,-0.0092,0.8635,-6.41,7.85,-0.02,26.51
10582,0.34,-0.0073,0.8624,-6.41,7.79,-0.02,26.51
10592,0.3394,-0.0083,0.8644,-6.47,7.8,-0.18,26.52
10602,0.3414,-0.0095,0.8624,-6.52,7.88,-0.03,26.48
10612,0.3396,-0.0063,0.8602,-6.53,7.77,-0.02,26.51
10622,0.3397,-0.0109,0.8644,-6.4,7.88,-0.03,26.5
10632,0.3406,-0.0099,0.8656,-6.49,7.8,0.02,26.48
10642,0.3417,-0.01,0.8638,-6.49,7.82,0.03,26.49
10652,0.3367,-0.0092,0.8605,-6.46,7.88,-0.08,26.51
10662,0.3419,-0.0121,0.8652,-6.43,7.88,0.08,26.5
10672,0.3435,-0.011,0.8628,-6.46,7.83,-0.03,26.5
10682,0.3409,-0.0084,0.8574,-6.44,7.85,0.05,26.5
10692,0.3414,-0.0098,0.8613,-6.46,7.92,-0.06,26.49
10702,0.3378,-0.0109,0.8618,-6.35,7.95,-0.08,26.49
10712,0.338,-0.0093,0.8625,-6.46,7.86,-0.03,26.53
10722,0.3395,-0.01,0.8619,-6.41,7.85,-0.06,26.52
10732,0.339,-0.0096,0.8615,-6.46,7.82,-0.05,26.51
10742,0.3422,-0.0085,0.86,-6.56,7.82,0.0,26.5
10752,0.342,-0.0099,0.86,-6.43,7.77,0.0,26.5
10762,0.3398,-0.009,0.8638,-6.44,7.88,0.02,26.49
10772,0.3414,-0.0109,0.8625,-6.38,7.88,0.09,26.49
10782,0.3427,-0.0109,0.8645,-6.49,7.85,-0.02,26.52
10792,0.3409,-0.0088,0.8605,-6.52,7.83,-0.06,26.49
10802,0.3402,-0.0066,0.8595,-6.4,7.8,0.03,26.52
10812,0.3401,-0.0122,0.8593,-6.46,7.83,0.02,26.53
10822,0.3412,-0.0099,0.8636,-6.53,7.86,-0.02,26.5
10832,0.3361,-0.0099,0.861,-6.43,7.83,-0.03,26.5
10842,0.3405,-0.0127,0.8682,-6.47,7.83,-0.05,26.5
10852,0.3406,-0.009,0.8657,-6.46,7.79,0.03,26.52
10862,0.3422,-0.0087,0.8634,-6.49,7.8,-0.03,26.52
10872,0.3396,-0.0081,0.863,-6.38,7.82,-0.06,26.51
10882,0.3406,-0.0072,0.8641,-6.43,7.83,0.0,26.5
10892,0.3385,-0.0092,0.8635,-6.49,7.85,-0.03,26.5
10902,0.34,-0.0074,0.8632,-6.5,7.8,-0.05,26.49
10912,0.3408,-0.0099,0.8608,-6.49,7.89,0.05,26.51
10922,0.3392,-0.0092,0.8623,-6.46,7.89,-0.03,26.51
10932,0.3392,-0.009,0.8634,-6.44,7.86,-0.05,26.51
10942,0.3384,-0.0089,0.8584,-6.41,7.83,-0.02,26.52
10952,0.3392,-0.0114,0.8646,-6.5,7.88,0.0,26.52
10962,0.3389,-0.0098,0.8617,-6.43,7.83,0.03,26.51
10972,0.3435,-0.0089,0.8639,-6.47,7.85,-0.06,26.5
10982,0.3408,-0.0093,0.8623,-6.47,7.86,-0.05,26.52
10992,0.3391,-0.0085,0.8619,-6.44,7.86,-0.03,26.52
11002,0.3409,-0.0096,0.8604,-6.49,7.82,0.06,26.53
11012,0.339,-0.0111,0.8656,-6.47,7.91,0.0,26.51
11022,0.3395,-0.0074,0.8633,-6.44,7.86,-0.05,26.51
11032,0.339,-0.0083,0.8593,-6.38,7.83,-0.02,26.52
11042,0.3402,-0.0116,0.8616,-6.47,7.79,-0.15,26.5
11052,0.3408,-0.0106,0.8597,-6.46,7.88,-0.06,26.51
11062,0.3396,-0.0107,0.8629,-6.43,7.77,-0.03,26.52
11072,0.3363,-0.0103,0.8583,-6.49,7.83,-0.05,26.51
11082,0.3398,-0.0076,0.8619,-6.44,7.89,-0.06,26.51
11092,0.3386,-0.0084,0.8615,-6.53,7.79,-0.05,26.51
11102,0.3384,-0.0071,0.8661,-6.58,7.83,0.0,26.53
11112,0.3433,-0.0084,0.8643,-6.41,7.89,0.0,26.49
11122,0.3422,-0.007,0.8627,-6.32,7.85,-0.03,26.52
11132,0.3416,-0.0089,0.8636,-6.4,7.85,-0.03,26.5
11142,0.338,-0.0078,0.8607,-6.37,7.83,0.02,26.52
11152,0.3414,-0.0087,0.8627,-6.38,7.8,0.03,26.52
11162,0.3397,-0.0076,0.8667,-6.43,7.82,0.06,26.52
11172,0.3409,-0.0081,0.8619,-6.43,7.88,0.02,26.52
11182,0.3414,-0.0083,0.8608,-6.47,7.85,0.02,26.52
11192,0.3396,-0.0057,0.8628,-6.55,7.79,-0.05,26.51
11202,0.3409,-0.0098,0.8585,-6.4,7.79,-0.08,26.5
11212,0.3396,-0.0096,0.8622,-6.46,7.8,-0.05,26.52
11222,0.3413,-0.0094,0.8622,-6.52,7.86,-0.14,26.52
11232,0.3412,-0.0087,0.8634,-6.41,7.89,-0.08,26.51
11242,0.3412,-0.0101,0.8654,-6.43,7.83,-0.03,26.51
11252,0.3391,-0.0063,0.8622,-6.49,7.85,-0.08,26.51
11262,0.3405,-0.0066,0.863,-6.47,7.83,-0.03,26.54
11272,0.3386,-0.0087,0.8632,-6.46,7.76,0.02,26.5
11282,0.3408,-0.01,0.8597,-6.44,7.83,-0.02,26.51
11292,0.3403,-0.012,0.8607,-6.41,7.85,-0.05,26.51
11302,0.3406,-0.0092,0.8612,-6.43,7.83,-0.05,26.5
11312,0.3406,-0.0101,0.8629,-6.35,7.91,-0.05,26.52
11322,0.3398,-0.0089,0.8615,-6.49,7.91,0.08,26.49
11332,0.3414,-0.0072,0.8635,-6.41,7.86,0.05,26.52
11342,0.3392,-0.0098,0.8618,-6.41,7.83,0.03,26.52
11352,0.3378,-0.0089,0.8622,-6.46,7.83,-0.06,26.55
11362,0.3381,-0.0089,0.8627,-6.49,7.83,-0.03,26.51
11372,0.3391,-0.0105,0.8632,-6.49,7.88,-0.06,26.48
11382,0.3422,-0.0087,0.8596,-6.44,7.86,-0.06,26.51
11392,0.3405,-0.0095,0.8636,-6.46,7.79,-0.09,26.52
11402,0.3401,-0.0088,0.8615,-6.41,7.82,-0.02,26.53
11412,0.3402,-0.0062,0.864,-6.46,7.88,-0.05,26.52
11422,0.3402,-0.0098,0.8607,-6.35,7.8,-0.03,26.54
11432,0.3409,-0.0104,0.8676,-6.44,7.86,-0.08,26.51
11442,0.3418,-0.0089,0.8627,-6.56,7.86,-0.06,26.52
11452,0.3435,-0.0062,0.8647,-6.46,7.8,0.02,26.51
11462,0.3411,-0.0085,0.863,-6.52,7.83,0.06,26.5
11472,0.34,-0.0096,0.866,-6.5,7.83,-0.06,26.52
11482,0.3381,-0.0103,0.8662,-6.49,7.85,-0.05,26.5
11492,0.3396,-0.0093,0.8612,-6.46,7.85,-0.02,26.52
11502,0.3411,-0.0065,0.8652,-6.56,7.89,0.0,26.49
11512,0.3392,-0.009,0.8644,-6.49,7.85,-0.08,26.51
11522,0.3409,-0.0094,0.8607,-6.46,7.85,0.0,26.53
11532,0.3425,-0.0084,0.8616,-6.5,7.86,-0.02,26.54
11542,0.3387,-0.0106,0.8607,-6.41,7.92,-0.06,26.53
11552,0.3387,-0.0099,0.8645,-6.46,7.91,0.06,26.52
11562,0.3391,-0.0117,0.8607,-6.52,7.89,-0.11,26.51
11572,0.3425,-0.0076,0.8617,-6.43,7.89,-0.05,26.52
11582,0.3392,-0.007,0.8663,-6.55,7.85,0.08,26.53
11592,0.3361,-0.0085,0.8646,-6.46,7.77,0.0,26.52
11602,0.3378,-0.0076,0.8622,-6.41,7.79,-0.11,26.53
11612,0.3385,-0.0112,0.8661,-6.38,7.91,0.0,26.52
11622,0.3402,-0.0093,0.8628,-6.49,7.77,-0.05,26.51
11632,0.3403,-0.0074,0.8607,-6.5,7.85,0.0,26.51
11642,0.342,-0.009,0.8594,-6.47,7.8,-0.03,26.52
11652,0.3402,-0.0101,0.8584,-6.47,7.85,0.02,26.51
11662,0.3389,-0.0103,0.8629,-6.46,7.89,0.02,26.52
11672,0.3416,-0.0085,0.86,-6.46,7.77,-0.06,26.52
11682,0.3403,-0.0101,0.8618,-6.53,7.82,0.0,26.52
11692,0.3419,-0.0117,0.8633,-6.44,7.88,0.05,26.52
11702,0.3389,-0.0079,0.8641,-6.47,7.77,-0.03,26.52
11712,0.3416,-0.0088,0.8615,-6.46,7.88,-0.03,26.54
11722,0.3418,-0.0107,0.8611,-6.38,7.79,-0.09,26.53
11732,0.3403,-0.0093,0.8672,-6.49,7.82,-0.11,26.53
11742,0.3402,-0.0106,0.8658,-6.35,7.88,-0.05,26.52
11752,0.3397,-0.0121,0.8611,-6.38,7.88,-0.03,26.53
11762,0.3424,-0.0099,0.8638,-6.43,7.86,0.0,26.53
11772,0.3394,-0.0089,0.8646,-6.46,7.82,0.03,26.53
11782,0.3403,-0.009,0.8625,-6.4,7.82,0.02,26.52
11792,0.3425,-0.0099,0.8607,-6.4,7.86,-0.14,26.5
11802,0.34,-0.0121,0.8663,-6.5,7.83,-0.02,26.52
11812,0.3403,-0.0081,0.8606,-6.5,7.79,-0.02,26.52
11822,0.3387,-0.0081,0.8647,-6.5,7.85,-0.02,26.52
11832,0.3372,-0.009,0.8635,-6.46,7.88,0.02,26.52
11842,0.3383,-0.0101,0.8636,-6.35,7.8,0.06,26.51
11852,0.3395,-0.0083,0.8672,-6.41,7.82,-0.15,26.54
11862,0.34,-0.0084,0.8605,-6.5,7.85,-0.03,26.49
11872,0.3408,-0.0067,0.8624,-6.43,7.88,0.02,26.51
11882,0.3428,-0.0077,0.8613,-6.47,7.91,-0.05,26.56
11892,0.3403,-0.0056,0.8628,-6.27,7.83,0.02,26.53
11902,0.3383,-0.0079,0.8632,-6.43,7.88,-0.05,26.52
11912,0.34,-0.0098,0.8673,-6.43,7.86,-0.03,26.52
11922,0.3389,-0.0092,0.8633,-6.41,7.77,-0.03,26.51
11932,0.343,-0.0105,0.8624,-6.55,7.86,-0.08,26.52
11942,0.3398,-0.0092,0.8651,-6.38,7.83,-0.06,26.55
11952,0.3394,-0.0099,0.8641,-6.49,7.77,-0.06,26.52
11962,0.3411,-0.0095,0.8646,-6.43,7.8,0.06,26.5
11972,0.3418,-0.0076,0.8633,-6.47,7.88,0.03,26.55
11982,0.3383,-0.0061,0.8635,-6.5,7.91,-0.08,26.53
11992,0.3408,-0.0094,0.8577,-6.41,7.86,-0.03,26.53
12002,0.3386,-0.009,0.8656,-6.47,7.79,-0.08,26.52
12012,0.339,-0.0062,0.8645,-6.41,7.83,0.05,26.54
12022,0.3419,-0.0057,0.8644,-6.47,7.83,-0.05,26.5
12032,0.3419,-0.0072,0.8638,-6.52,7.89,0.0,26.52
12042,0.3396,-0.0087,0.8636,-6.47,7.86,-0.12,26.54
12052,0.3408,-0.0093,0.8618,-6.47,7.82,0.0,26.57
12062,0.3412,-0.0062,0.8651,-6.41,7.85,0.0,26.51
12072,0.3391,-0.0104,0.8621,-6.41,7.73,-0.05,26.51
12082,0.3439,-0.0105,0.8647,-6.4,7.79,0.05,26.52
12092,0.3405,-0.0059,0.864,-6.41,7.85,0.05,26.5
12102,0.3419,-0.0104,0.8621,-6.5,7.82,0.03,26.51
12112,0.3403,-0.0117,0.8619,-6.49,7.79,0.0,26.52
12122,0.3395,-0.0085,0.861,-6.5,7.82,-0.06,26.51
12132,0.3417,-0.0092,0.8596,-6.41,7.85,-0.03,26.51
12142,0.3383,-0.0105,0.8612,-6.44,7.85,-0.08,26.53
12152,0.3389,-0.0089,0.8619,-6.38,7.79,0.0,26.52
12162,0.3422,-0.009,0.8646,-6.49,7.83,-0.06,26.54
12172,0.3427,-0.0101,0.8649,-6.49,7.83,0.0,26.52
12182,0.3381,-0.0065,0.866,-6.35,7.89,-0.08,26.51
12192,0.339,-0.01,0.8616,-6.32,7.82,-0.08,26.54
12202,0.3414,-0.0107,0.8641,-6.52,7.89,-0.03,26.53
12212,0.3383,-0.0072,0.8654,-6.49,7.83,-0.08,26.54
12222,0.342,-0.0093,0.8628,-6.5,7.85,-0.03,26.55
12232,0.3374,-0.0104,0.8624,-6.53,7.88,-0.09,26.56
12242,0.3412,-0.0089,0.8617,-6.43,7.85,-0.08,26.54
12252,0.3387,-0.0079,0.8608,-6.4,7.77,-0.11,26.54
12262,0.3414,-0.0066,0.8629,-6.43,7.76,0.03,26.54
12272,0.3425,-0.0098,0.8618,-6.46,7.74,-0.03,26.54
12282,0.34,-0.0112,0.8669,-6.4,7.85,-0.05,26.52
12292,0.3419,-0.0083,0.8662,-6.5,7.85,-0.05,26.54
12302,0.3387,-0.0077,0.8624,-6.47,7.89,0.02,26.54
12312,0.3408,-0.0067,0.8698,-6.5,7.89,-0.05,26.53
12322,0.3397,-0.0093,0.8594,-6.4,7.76,-0.05,26.52
12332,0.3363,-0.0082,0.8616,-6.35,7.82,-0.03,26.54
12342,0.3384,-0.01,0.866,-6.5,7.92,-0.03,26.51
12352,0.3372,-0.0117,0.8674,-6.46,7.86,-0.03,26.53
12362,0.338,-0.0082,0.8632,-6.43,7.77,-0.08,26.55
12372,0.3406,-0.0111,0.8628,-6.49,7.82,-0.02,26.54
12382,0.3397,-0.0085,0.8625,-6.43,7.89,-0.06,26.52
12392,0.3389,-0.0105,0.8654,-6.5,7.85,0.03,26.54
12402,0.3396,-0.0077,0.8634,-6.47,7.91,-0.02,26.54
12412,0.3398,-0.0094,0.8623,-6.49,7.91,0.0,26.52
12422,0.3431,-0.009,0.8639,-6.43,7.77,-0.03,26.52
12432,0.339,-0.0092,0.8602,-6.44,7.83,0.0,26.52
12442,0.3381,-0.0084,0.8633,-6.47,7.82,0.02,26.53
12452,0.3356,-0.0109,0.865,-6.43,7.83,0.03,26.53
12462,0.3395,-0.0109,0.8635,-6.38,7.85,-0.08,26.52
12472,0.3402,-0.0105,0.8613,-6.53,7.94,-0.03,26.52
12482,0.3413,-0.0114,0.8606,-6.47,7.85,-0.02,26.52
12492,0.3389,-0.01,0.8606,-6.46,7.79,-0.03,26.53
12502,0.3409,-0.0077,0.8638,-6.43,7.88,0.0,26.53
12512,0.3395,-0.0105,0.8633,-6.46,7.77,0.06,26.56
12522,0.342,-0.0083,0.8591,-6.38,7.85,-0.02,26.54
12532,0.3406,-0.0072,0.8635,-6.46,7.89,-0.02,26.53
12542,0.3418,-0.0073,0.8658,-6.52,7.83,0.0,26.53
12552,0.34,-0.0103,0.8632,-6.41,7.86,-0.02,26.51
12562,0.3406,-0.0093,0.8643,-6.38,7.85,0.05,26.53
12572,0.3372,-0.0114,0.8623,-6.47,7.8,-0.02,26.53
12582,0.3405,-0.009,0.8639,-6.35,7.85,-0.06,26.54
12592,0.3407,-0.0099,0.86,-6.4,7.85,0.02,26.54
12602,0.3403,-0.0077,0.8627,-6.41,7.8,0.0,26.52
12612,0.3428,-0.0066,0.864,-6.46,7.83,-0.06,26.52
12622,0.3417,-0.0066,0.8647,-6.44,7.82,-0.09,26.52
12632,0.3398,-0.0096,0.8668,-6.52,7.88,-0.08,26.54
12642,0.3395,-0.0111,0.8623,-6.46,7.85,-0.03,26.54
12652,0.3405,-0.0079,0.8629,-6.29,7.83,-0.02,26.53
12662,0.3413,-0.0073,0.8615,-6.5,7.79,-0.08,26.53
12672,0.3368,-0.0103,0.8641,-6.47,7.83,-0.05,26.53
12682,0.3395,-0.0066,0.8651,-6.47,7.85,-0.08,26.55
12692,0.3392,-0.0076,0.8633,-6.53,7.82,0.0,26.51
12702,0.3398,-0.0085,0.8635,-6.46,7.83,-0.05,26.56
12712,0.3396,-0.0067,0.8623,-6.35,7.89,-0.05,26.51
12722,0.3379,-0.0105,0.8647,-6.47,7.85,0.0,26.56
12732,0.3392,-0.0074,0.864,-6.41,7.86,-0.17,26.55
12742,0.3407,-0.0079,0.8672,-6.44,7.8,-0.09,26.54
12752,0.3385,-0.0083,0.8667,-6.52,7.88,0.0,26.53
12762,0.3408,-0.0093,0.8616,-6.4,7.79,0.06,26.56
12772,0.3418,-0.0099,0.8627,-6.5,7.82,-0.03,26.54
12782,0.3384,-0.0106,0.861,-6.44,7.91,-0.06,26.51
12792,0.3419,-0.0079,0.8635,-6.43,7.76,-0.08,26.52
12802,0.3378,-0.0072,0.8607,-6.5,7.82,0.0,26.52
12812,0.3398,-0.0083,0.865,-6.5,7.77,0.03,26.54
12822,0.3394,-0.0085,0.8617,-6.47,7.8,-0.02,26.54
12832,0.3395,-0.01,0.8607,-6.43,7.8,-0.03,26.55
12842,0.3407,-0.0061,0.8654,-6.49,7.85,0.03,26.55
12852,0.3396,-0.0095,0.8586,-6.43,7.83,-0.02,26.54
12862,0.3414,-0.0104,0.8661,-6.43,7.88,0.02,26.54
12872,0.3419,-0.0083,0.8621,-6.49,7.89,-0.05,26.58
12882,0.3378,-0.0121,0.8616,-6.44,7.85,-0.05,26.52
12892,0.3419,-0.0092,0.8633,-6.38,7.83,-0.12,26.53
12902,0.3385,-0.0093,0.8657,-6.35,7.86,-0.09,26.54
12912,0.3389,-0.0077,0.8623,-6.41,7.92,0.03,26.53
12922,0.3411,-0.0105,0.8632,-6.52,7.83,-0.02,26.53
12932,0.3405,-0.0099,0.8619,-6.49,7.83,-0.03,26.55
12942,0.3407,-0.0094,0.8596,-6.46,7.8,-0.06,26.53
12952,0.3412,-0.0109,0.863,-6.44,7.85,-0.05,26.56
12962,0.3384,-0.0076,0.8646,-6.43,7.8,0.02,26.54
12972,0.3384,-0.0068,0.8649,-6.47,7.79,0.03,26.54
12982,0.3398,-0.0089,0.8663,-6.43,7.8,0.0,26.55
12992,0.3398,-0.0087,0.8599,-6.43,7.8,-0.05,26.54
13002,0.3398,-0.0077,0.8684,-6.41,7.8,-0.09,26.55
13012,0.3372,-0.0094,0.8638,-6.43,7.86,-0.08,26.53
13022,0.3412,-0.0082,0.8627,-6.52,7.83,-0.08,26.54
13032,0.3386,-0.0115,0.8641,-6.5,7.83,0.02,26.54
13042,0.34,-0.0092,0.8617,-6.34,7.91,-0.03,26.55
13052,0.3405,-0.009,0.8638,-6.5,7.76,-0.08,26.52
13062,0.3414,-0.0077,0.8622,-6.55,7.88,-0.02,26.56
13072,0.3384,-0.0103,0.8574,-6.53,7.82,-0.03,26.52
13082,0.3441,-0.0121,0.8593,-6.41,7.83,0.02,26.56
13092,0.3398,-0.0088,0.8625,-6.46,7.88,-0.06,26.54
13102,0.3374,-0.0071,0.869,-6.43,7.8,-0.09,26.55
13112,0.3438,-0.0107,0.8628,-6.56,7.82,0.08,26.54
13122,0.3407,-0.0074,0.8658,-6.53,7.83,-0.06,26.52
13132,0.3392,-0.0087,0.8646,-6.5,7.83,-0.03,26.54
13142,0.3406,-0.0092,0.8629,-6.4,7.85,-0.12,26.55
13152,0.3414,-0.0096,0.8643,-6.47,7.88,-0.03,26.54
13162,0.3402,-0.0093,0.8646,-6.49,7.86,0.05,26.54
13173,0.3384,-0.0099,0.864,-6.49,7.79,0.0,26.56
13183,0.3408,-0.0074,0.8608,-6.43,7.79,-0.03,26.54
13193,0.3413,-0.0072,0.8632,-6.47,7.88,-0.05,26.54
13203,0.3381,-0.0079,0.8591,-6.44,7.86,0.08,26.55
13213,0.3392,-0.0077,0.8635,-6.44,7.92,-0.09,26.54
13223,0.3395,-0.0122,0.8629,-6.44,7.86,0.02,26.54
13233,0.3386,-0.0098,0.8612,-6.41,7.85,0.03,26.56
13243,0.3409,-0.0082,0.8633,-6.46,7.86,0.06,26.57
13253,0.3422,-0.0096,0.8641,-6.49,7.79,-0.02,26.56
13263,0.343,-0.0082,0.8645,-6.47,7.79,-0.06,26.53
13273,0.3385,-0.0098,0.864,-6.47,7.86,-0.05,26.57
13283,0.3378,-0.0101,0.8636,-6.49,7.79,0.02,26.54
13293,0.3403,-0.0079,0.8604,-6.49,7.82,-0.02,26.56
13303,0.3384,-0.0098,0.86,-6.41,7.8,-0.02,26.57
13313,0.338,-0.0081,0.8641,-6.4,7.86,0.0,26.57
13323,0.338,-0.0048,0.8638,-6.43,7.89,-0.02,26.53
13333,0.3427,-0.0099,0.8588,-6.46,7.83,-0.03,26.55
13343,0.3416,-0.0105,0.8621,-6.43,7.86,-0.11,26.56
13353,0.3422,-0.0098,0.8649,-6.41,7.82,-0.17,26.54
13363,0.3396,-0.01,0.8595,-6.38,7.89,0.0,26.53
13373,0.3433,-0.0106,0.8617,-6.41,7.8,-0.03,26.57
13383,0.3402,-0.0101,0.8634,-6.41,7.77,0.0,26.56
13393,0.3396,-0.0098,0.8595,-6.47,7.76,-0.06,26.56
13403,0.3376,-0.0087,0.8607,-6.52,7.83,-0.05,26.55
13413,0.3408,-0.0109,0.8613,-6.49,7.82,0.0,26.56
13423,0.3414,-0.0082,0.8663,-6.46,7.82,0.03,26.53
13433,0.3385,-0.0098,0.8632,-6.5,7.82,-0.02,26.55
13443,0.339,-0.0106,0.864,-6.46,7.79,-0.05,26.57
13453,0.3401,-0.0066,0.8641,-6.41,7.85,-0.02,26.54
13463,0.3396,-0.0103,0.8636,-6.41,7.85,-0.06,26.54
13473,0.3425,-0.0092,0.8635,-6.4,7.85,0.02,26.57
13483,0.343,-0.009,0.8629,-6.47,7.76,0.06,26.55
13493,0.3427,-0.01,0.8624,-6.47,7.82,-0.08,26.55
13503,0.3423,-0.011,0.8599,-6.52,7.79,-0.05,26.59
13513,0.3401,-0.0103,0.8655,-6.47,7.85,-0.06,26.56
13523,0.3394,-0.0083,0.8618,-6.55,7.8,-0.03,26.55
13533,0.3383,-0.0088,0.859,-6.47,7.82,-0.09,26.55
13543,0.3409,-0.0076,0.863,-6.47,7.83,-0.02,26.55
13553,0.3394,-0.0092,0.8629,-6.44,7.8,0.03,26.55
13563,0.34,-0.0073,0.8629,-6.35,7.83,0.0,26.58
13573,0.3412,-0.0121,0.8618,-6.53,7.8,0.0,26.54
13583,0.3391,-0.0087,0.8661,-6.49,7.79,0.02,26.54
13593,0.3394,-0.0114,0.8615,-6.38,7.88,-0.03,26.55
13603,0.339,-0.0096,0.8643,-6.4,7.85,-0.08,26.55
13613,0.3407,-0.0061,0.8627,-6.53,7.86,0.02,26.57
13623,0.3381,-0.0082,0.8633,-6.44,7.8,-0.08,26.56
13633,0.3412,-0.0068,0.8635,-6.46,7.79,-0.12,26.56
13643,0.3417,-0.01,0.8616,-6.5,7.85,0.02,26.58
13653,0.3406,-0.0094,0.8658,-6.44,7.89,-0.05,26.56
13663,0.3407,-0.0095,0.8596,-6.47,7.83,0.0,26.57
13673,0.3406,-0.0109,0.86,-6.4,7.88,-0.11,26.55
13683,0.34,-0.0081,0.8641,-6.46,7.83,-0.03,26.55
13693,0.3403,-0.0118,0.8622,-6.46,7.88,0.05,26.56
13703,0.3407,-0.0083,0.8611,-6.44,7.88,0.02,26.55
13713,0.3407,-0.0093,0.8608,-6.41,7.79,-0.06,26.57
13723,0.3395,-0.0079,0.8604,-6.41,7.77,0.08,26.56
13733,0.3403,-0.007,0.8594,-6.43,7.77,0.02,26.54
13743,0.3397,-0.0103,0.8602,-6.47,7.89,-0.02,26.54
13753,0.3406,-0.0059,0.864,-6.34,7.8,0.05,26.58
13763,0.3427,-0.0074,0.8612,-6.46,7.89,0.06,26.56
13773,0.3413,-0.0098,0.8619,-6.47,7.82,0.05,26.55
13783,0.3383,-0.0098,0.8668,-6.5,7.86,-0.03,26.58
13793,0.3369,-0.0088,0.8652,-6.47,7.83,-0.08,26.57
13803,0.3398,-0.0099,0.8628,-6.5,7.8,-0.06,26.54
13813,0.3412,-0.0114,0.8625,-6.52,7.76,-0.02,26.53
13823,0.3423,-0.0088,0.8625,-6.5,7.86,0.0,26.55
13833,0.3407,-0.0099,0.8612,-6.44,7.8,0.0,26.57
13843,0.3403,-0.0118,0.8616,-6.37,7.83,-0.08,26.57
13853,0.3407,-0.0049,0.8621,-6.47,7.79,-0.05,26.57
13863,0.3397,-0.0062,0.8627,-6.55,7.83,-0.08,26.56
13873,0.3422,-0.0071,0.8608,-6.41,7.86,-0.03,26.57
13883,0.3419,-0.0087,0.8612,-6.46,7.83,0.02,26.55
13893,0.3409,-0.0081,0.8622,-6.37,7.86,-0.05,26.56
13903,0.3389,-0.0079,0.8636,-6.47,7.82,-0.15,26.56
13913,0.3384,-0.0078,0.8655,-6.46,7.86,-0.03,26.56
13923,0.3411,-0.0082,0.8636,-6.5,7.85,-0.06,26.56
13933,0.3413,-0.0099,0.8597,-6.49,7.89,0.0,26.56
13943,0.3385,-0.0076,0.8623,-6.38,7.95,0.0,26.55
13953,0.3424,-0.0095,0.8667,-6.38,7.89,-0.03,26.54
13963,0.3398,-0.0099,0.8636,-6.47,7.85,0.0,26.57
13973,0.3403,-0.0099,0.8613,-6.46,7.88,-0.12,26.55
13983,0.3368,-0.0123,0.8641,-6.44,7.82,-0.06,26.52
13993,0.3392,-0.0079,0.8612,-6.49,7.79,0.0,26.54
14003,0.3406,-0.0076,0.8607,-6.46,7.8,-0.02,26.55
14013,0.3384,-0.0096,0.8595,-6.5,7.8,-0.03,26.57
14023,0.3385,-0.0078,0.8627,-6.47,7.82,0.0,26.57
14033,0.3411,-0.0116,0.8619,-6.49,7.79,-0.05,26.54
14043,0.3425,-0.0115,0.8644,-6.41,7.82,-0.06,26.58
14053,0.3413,-0.0088,0.8651,-6.44,7.86,0.0,26.55
14064,0.3424,-0.0104,0.8667,-6.4,7.8,0.02,26.58
14074,0.3385,-0.009,0.8638,-6.47,7.85,0.05,26.55
14084,0.3396,-0.0079,0.8685,-6.5,7.74,-0.03,26.56
14094,0.3423,-0.0067,0.8673,-6.35,7.88,-0.05,26.57
14104,0.34,-0.0103,0.8623,-6.41,7.88,0.09,26.55
14114,0.3405,-0.0083,0.8619,-6.52,7.88,0.03,26.57
14124,0.3424,-0.0093,0.8602,-6.47,7.83,-0.03,26.56
14134,0.3408,-0.0111,0.8602,-6.47,7.88,0.0,26.57
14144,0.3396,-0.0098,0.865,-6.41,7.86,0.06,26.57
14154,0.3411,-0.007,0.8593,-6.5,7.85,0.0,26.54
14164,0.338,-0.0081,0.8669,-6.44,7.88,-0.05,26.56
14174,0.3402,-0.0099,0.8583,-6.4,7.88,0.05,26.58
14184,0.3391,-0.0084,0.8651,-6.46,7.83,-0.03,26.58
14194,0.3402,-0.0105,0.8635,-6.49,7.86,-0.09,26.58
14204,0.3372,-0.0087,0.8644,-6.43,7.83,0.02,26.56
14214,0.343,-0.0105,0.8617,-6.46,7.86,0.03,26.56
14224,0.3411,-0.0065,0.8629,-6.47,7.83,-0.03,26.57
14234,0.3383,-0.0112,0.8602,-6.41,7.83,0.0,26.54
14244,0.3408,-0.0088,0.863,-6.55,7.79,0.06,26.57
14254,0.3442,-0.0083,0.8601,-6.47,7.8,-0.02,26.57
14264,0.339,-0.0087,0.8601,-6.47,7.76,-0.03,26.56
14274,0.3413,-0.0092,0.8605,-6.43,7.79,-0.06,26.57
14285,0.34,-0.0089,0.8607,-6.53,7.82,-0.05,26.59
14295,0.3412,-0.009,0.8621,-6.53,7.82,-0.02,26.55
14305,0.3396,-0.0098,0.864,-6.49,7.79,-0.03,26.56
14315,0.3409,-0.0089,0.8645,-6.47,7.86,0.0,26.6
14325,0.3402,-0.0095,0.8628,-6.47,7.91,-0.06,26.58
14335,0.3392,-0.0099,0.8619,-6.49,7.8,0.0,26.56
14345,0.3412,-0.0098,0.8638,-6.43,7.79,0.0,26.58
14355,0.3394,-0.009,0.8632,-6.46,7.8,-0.02,26.55
14365,0.3417,-0.0098,0.8612,-6.49,7.82,0.03,26.56
14375,0.3398,-0.0084,0.8584,-6.44,7.79,-0.02,26.57
14385,0.3418,-0.0083,0.8676,-6.49,7.82,-0.08,26.55
14395,0.3416,-0.0088,0.8618,-6.53,7.86,-0.02,26.56
14405,0.3407,-0.0092,0.864,-6.47,7.82,0.0,26.57
14415,0.3412,-0.0079,0.8613,-6.47,7.82,-0.05,26.57
14425,0.3409,-0.0103,0.8655,-6.46,7.86,-0.06,26.57
14435,0.3425,-0.0106,0.8658,-6.49,7.77,-0.12,26.56
14445,0.3419,-0.0093,0.8611,-6.37,7.77,0.02,26.6
14455,0.3392,-0.0095,0.8591,-6.35,7.85,-0.03,26.58
14465,0.3407,-0.0063,0.8656,-6.44,7.86,0.0,26.57
14475,0.3423,-0.0082,0.863,-6.49,7.88,0.0,26.56
14485,0.3372,-0.0081,0.865,-6.49,7.83,0.02,26.57
14495,0.3402,-0.0109,0.8636,-6.43,7.83,0.05,26.55
14505,0.3401,-0.0056,0.8633,-6.46,7.85,0.03,26.55
14515,0.3383,-0.01,0.8701,-6.5,7.95,-0.09,26.57
14525,0.3363,-0.009,0.8628,-6.52,7.86,-0.03,26.55
14535,0.3398,-0.0105,0.866,-6.5,7.85,0.06,26.55
14545,0.3425,-0.0115,0.8615,-6.43,7.89,-0.05,26.57
14556,0.3403,-0.0118,0.8649,-6.46,7.86,-0.03,26.55
14566,0.3419,-0.01,0.8632,-6.55,7.83,-0.03,26.55
14576,0.3401,-0.01,0.86,-6.46,7.77,-0.03,26.54
14586,0.3413,-0.0114,0.8619,-6.56,7.85,-0.02,26.57
14596,0.34,-0.0099,0.8661,-6.52,7.83,0.0,26.58
14608,0.3398,-0.0103,0.8629,-6.5,7.85,0.02,26.57
14618,0.3398,-0.0106,0.8621,-6.46,7.73,-0.06,26.6
14629,0.3385,-0.0123,0.8647,-6.47,7.82,0.06,26.57
14639,0.3397,-0.0101,0.8647,-6.55,7.82,0.0,26.58
14649,0.3381,-0.0067,0.859,-6.4,7.83,-0.05,26.57
14659,0.3422,-0.0087,0.8632,-6.44,7.76,-0.02,26.59
14669,0.3403,-0.0073,0.8633,-6.5,7.86,-0.03,26.57
14679,0.3414,-0.0073,0.8646,-6.49,7.79,-0.09,26.61
14690,0.3409,-0.0076,0.8628,-6.46,7.83,0.03,26.58
14700,0.3407,-0.0096,0.8647,-6.46,7.74,0.02,26.57
14710,0.3391,-0.0066,0.8658,-6.43,7.82,-0.03,26.57
14720,0.3391,-0.0071,0.8617,-6.44,7.79,0.02,26.56
14730,0.3414,-0.0085,0.865,-6.46,7.82,0.0,26.55
14740,0.3387,-0.0083,0.8633,-6.49,7.83,-0.08,26.59
14751,0.3435,-0.0114,0.8615,-6.55,7.79,-0.17,26.58
14761,0.3396,-0.0079,0.8611,-6.44,7.88,-0.02,26.56
14771,0.3374,-0.0072,0.8615,-6.46,7.82,0.05,26.58
14781,0.3416,-0.0061,0.8627,-6.46,7.82,-0.05,26.57
14791,0.3392,-0.007,0.8618,-6.43,7.74,0.0,26.58
14801,0.3392,-0.0114,0.8641,-6.46,7.76,0.03,26.57
14812,0.3384,-0.0092,0.8634,-6.5,7.83,-0.02,26.58
14822,0.3396,-0.007,0.865,-6.5,7.86,0.0,26.61
14832,0.3411,-0.0109,0.8668,-6.53,7.8,0.02,26.57
14842,0.3367,-0.0109,0.8682,-6.46,7.82,0.03,26.59
14852,0.338,-0.0092,0.8612,-6.43,7.79,-0.09,26.56
14862,0.3396,-0.0095,0.8632,-6.46,7.85,0.0,26.56
14872,0.3395,-0.0065,0.8667,-6.43,7.86,-0.05,26.57
14882,0.3417,-0.0081,0.8633,-6.43,7.85,0.0,26.57
14892,0.3406,-0.0088,0.8663,-6.43,7.83,0.03,26.57
14902,0.3403,-0.0068,0.8596,-6.52,7.83,-0.11,26.6
14912,0.3391,-0.0105,0.864,-6.43,7.79,-0.02,26.57
14922,0.3378,-0.0106,0.8618,-6.4,7.89,0.0,26.58
14932,0.3402,-0.0089,0.8616,-6.49,7.85,-0.02,26.57
14942,0.3403,-0.0094,0.8611,-6.52,7.86,0.05,26.58
14952,0.3375,-0.0093,0.8635,-6.46,7.82,-0.08,26.57
14962,0.3398,-0.0127,0.8627,-6.44,7.88,0.02,26.57
14972,0.3398,-0.0088,0.8646,-6.44,7.77,0.03,26.57
14982,0.3407,-0.0126,0.8646,-6.46,7.8,0.0,26.57
14992,0.3416,-0.007,0.8615,-6.47,7.8,-0.02,26.56
15002,0.3385,-0.0099,0.8606,-6.46,7.85,0.03,26.56
15012,0.342,-0.0104,0.863,-6.46,7.88,-0.03,26.56
15022,0.3441,-0.0074,0.8607,-6.49,7.86,0.03,26.57
15032,0.3401,-0.0094,0.8658,-6.43,7.82,-0.02,26.57
15042,0.3401,-0.0079,0.8622,-6.55,7.88,-0.02,26.55
15052,0.3418,-0.0101,0.8619,-6.56,7.79,0.03,26.54
15062,0.3416,-0.0089,0.8655,-6.49,7.76,-0.02,26.56
15072,0.3396,-0.0111,0.864,-6.47,7.82,0.02,26.56
15082,0.3394,-0.0071,0.8647,-6.53,7.8,-0.05,26.55
15092,0.3401,-0.0081,0.8643,-6.44,7.85,-0.06,26.56
15102,0.3409,-0.0065,0.8655,-6.52,7.85,-0.09,26.58
15112,0.3406,-0.0084,0.8677,-6.47,7.83,-0.09,26.57
15122,0.3386,-0.0067,0.8647,-6.43,7.76,0.02,26.56
15132,0.339,-0.0106,0.8641,-6.43,7.91,-0.03,26.58
15142,0.3408,-0.0083,0.8616,-6.5,7.88,-0.02,26.58
15152,0.3397,-0.0068,0.8583,-6.49,7.76,0.11,26.56
15162,0.3419,-0.0083,0.8601,-6.55,7.85,0.0,26.58
15172,0.3397,-0.0083,0.8617,-6.55,7.8,0.02,26.57
15182,0.3397,-0.0084,0.8616,-6.49,7.91,0.03,26.56
15192,0.3397,-0.0078,0.8606,-6.38,7.77,-0.06,26.58
15202,0.3427,-0.0095,0.8638,-6.49,7.77,0.0,26.57
15212,0.3419,-0.0083,0.8607,-6.44,7.82,0.08,26.57
15222,0.3403,-0.0094,0.8632,-6.38,7.82,0.02,26.57
15232,0.3413,-0.0085,0.8597,-6.37,7.83,-0.05,26.59
15242,0.3407,-0.0094,0.859,-6.44,7.86,-0.03,26.56
15252,0.3365,-0.0089,0.863,-6.4,7.82,-0.05,26.57
15262,0.3425,-0.0094,0.8654,-6.46,7.8,-0.09,26.59
15272,0.34,-0.0078,0.8611,-6.46,7.89,0.02,26.55
15282,0.3419,-0.0057,0.8622,-6.43,7.83,-0.08,26.57
15292,0.3408,-0.0076,0.8635,-6.46,7.82,-0.02,26.57
15302,0.3411,-0.0083,0.864,-6.4,7.89,-0.12,26.58
15312,0.3389,-0.0088,0.8613,-6.47,7.85,-0.03,26.56
15322,0.3392,-0.0089,0.8629,-6.43,7.88,-0.02,26.57
15332,0.3405,-0.0074,0.8651,-6.49,7.8,-0.06,26.58
15342,0.3402,-0.0074,0.8672,-6.43,7.86,-0.03,26.58
15352,0.34,-0.0098,0.8646,-6.43,7.79,-0.05,26.58
15362,0.3431,-0.011,0.8625,-6.47,7.82,0.05,26.57
15372,0.3397,-0.0112,0.8619,-6.44,7.85,-0.08,26.58
15382,0.3424,-0.0095,0.8644,-6.41,7.85,-0.03,26.58
15392,0.3423,-0.0093,0.8621,-6.37,7.77,-0.05,26.57
15402,0.34,-0.0093,0.8621,-6.46,7.82,-0.03,26.57
15413,0.3425,-0.0082,0.8616,-6.4,7.88,-0.06,26.57
15423,0.3398,-0.0094,0.8667,-6.49,7.89,-0.11,26.59
15433,0.3414,-0.0106,0.8602,-6.44,7.8,-0.06,26.59
15443,0.3414,-0.0082,0.8634,-6.5,7.8,-0.06,26.58
15453,0.3413,-0.0052,0.8596,-6.47,7.8,0.05,26.57
15463,0.3407,-0.0062,0.8618,-6.31,7.76,-0.03,26.58
15473,0.3411,-0.0082,0.86,-6.43,7.82,0.05,26.57
15483,0.3396,-0.0095,0.8618,-6.46,7.83,0.05,26.57
15493,0.3403,-0.0078,0.8623,-6.41,7.89,-0.02,26.55
15503,0.3408,-0.0076,0.8633,-6.49,7.85,0.02,26.58
15513,0.3389,-0.0078,0.8605,-6.41,7.8,-0.06,26.56
15523,0.339,-0.0082,0.8657,-6.46,7.8,-0.02,26.56
15533,0.3402,-0.0094,0.8638,-6.49,7.91,-0.08,26.57
15543,0.3409,-0.0111,0.8589,-6.4,7.8,-0.06,26.57
15553,0.3395,-0.0088,0.8645,-6.47,7.89,-0.06,26.58
15563,0.3389,-0.0096,0.8623,-6.41,7.88,-0.08,26.58
15573,0.3414,-0.0078,0.863,-6.34,7.89,-0.03,26.56
15583,0.338,-0.0068,0.8622,-6.41,7.83,-0.09,26.58
15593,0.3414,-0.0085,0.8634,-6.46,7.77,-0.03,26.57
15603,0.3402,-0.0077,0.8635,-6.4,7.85,0.02,26.55
15613,0.3392,-0.007,0.8646,-6.41,7.86,-0.08,26.6
15623,0.3408,-0.0087,0.861,-6.52,7.83,-0.03,26.57
15633,0.3413,-0.0079,0.8618,-6.55,7.77,-0.02,26.57
15643,0.3416,-0.0105,0.8672,-6.47,7.86,-0.06,26.6
15653,0.3394,-0.01,0.8629,-6.46,7.86,-0.18,26.58
15663,0.3412,-0.0073,0.863,-6.52,7.8,-0.05,26.57
15673,0.3395,-0.0061,0.8632,-6.6,7.79,-0.05,26.57
15683,0.3407,-0.0101,0.863,-6.47,7.77,0.03,26.57
15693,0.3403,-0.0089,0.8632,-6.4,7.91,-0.02,26.56
15703,0.3412,-0.0116,0.8647,-6.5,7.82,0.03,26.57
15715,0.3398,-0.0084,0.8676,-6.52,7.76,-0.03,26.57
15725,0.3416,-0.0104,0.8635,-6.49,7.86,-0.09,26.58
15735,0.3408,-0.0117,0.8671,-6.44,7.82,-0.06,26.6
15745,0.3407,-0.0079,0.8625,-6.46,7.86,-0.05,26.58
15755,0.3387,-0.0074,0.8646,-6.43,7.83,-0.03,26.59
15765,0.3378,-0.0104,0.8615,-6.43,7.79,-0.03,26.59
15775,0.3416,-0.0111,0.8597,-6.43,7.86,-0.03,26.58
15785,0.3428,-0.0099,0.8618,-6.46,7.91,-0.05,26.58
15795,0.3373,-0.009,0.8672,-6.53,7.83,0.06,26.58
15805,0.3387,-0.0098,0.8602,-6.46,7.89,0.02,26.57
15815,0.3397,-0.0076,0.8638,-6.41,7.83,0.02,26.56
15825,0.3436,-0.0089,0.8625,-6.41,7.85,-0.05,26.57
15835,0.3384,-0.0087,0.8628,-6.46,7.85,0.03,26.58
15845,0.3389,-0.01,0.8656,-6.47,7.79,0.03,26.58
15855,0.3402,-0.0085,0.8618,-6.47,7.82,0.05,26.59
15865,0.3394,-0.0079,0.8632,-6.47,7.86,-0.02,26.59
15875,0.3411,-0.0105,0.8636,-6.46,7.86,0.03,26.58
15885,0.3392,-0.0073,0.8597,-6.34,7.86,0.0,26.58
15895,0.3417,-0.0079,0.8624,-6.43,7.8,0.02,26.58
15905,0.3397,-0.0126,0.8622,-6.38,7.71,-0.05,26.59
15915,0.3395,-0.0104,0.8586,-6.43,7.83,-0.08,26.56
15925,0.3385,-0.0082,0.8617,-6.43,7.79,-0.02,26.57
15935,0.3398,-0.0107,0.86,-6.4,7.88,-0.03,26.6
15945,0.3405,-0.011,0.8622,-6.53,7.85,-0.06,26.57
15955,0.3397,-0.0087,0.8645,-6.52,7.83,-0.05,26.57
15965,0.3409,-0.009,0.8641,-6.49,7.82,-0.14,26.58
15975,0.3379,-0.0117,0.8615,-6.41,7.86,0.0,26.58
15985,0.3392,-0.0092,0.8654,-6.38,7.83,-0.02,26.58
15995,0.3411,-0.0044,0.8619,-6.41,7.8,-0.12,26.58
16005,0.3389,-0.0087,0.8619,-6.46,7.83,-0.03,26.58
16015,0.3411,-0.0083,0.8633,-6.49,7.86,-0.03,26.59
16025,0.3397,-0.0072,0.8638,-6.46,7.89,-0.06,26.59
16035,0.342,-0.0109,0.8689,-6.49,7.88,0.0,26.58
16045,0.3424,-0.0112,0.8619,-6.44,7.83,-0.03,26.57
16055,0.342,-0.0074,0.8651,-6.5,7.88,0.06,26.59
16065,0.3424,-0.0094,0.8607,-6.49,7.86,-0.05,26.58
16075,0.3407,-0.0092,0.8629,-6.52,7.8,-0.02,26.59
16085,0.3401,-0.01,0.8632,-6.53,7.88,0.06,26.59
16095,0.3394,-0.0063,0.8658,-6.49,7.88,-0.02,26.59
16105,0.3402,-0.009,0.8639,-6.44,7.83,0.0,26.57
16115,0.3427,-0.0099,0.8616,-6.47,7.79,0.05,26.59
16125,0.3402,-0.0085,0.8632,-6.46,7.83,-0.03,26.55
16135,0.338,-0.0077,0.8625,-6.43,7.77,-0.06,26.59
16145,0.339,-0.01,0.8572,-6.47,7.79,-0.06,26.58
16155,0.3396,-0.0095,0.8645,-6.46,7.82,-0.08,26.59
16165,0.3402,-0.0098,0.8607,-6.49,7.85,-0.08,26.59
16175,0.3411,-0.0079,0.8627,-6.43,7.82,-0.05,26.57
16185,0.3392,-0.0085,0.8619,-6.49,7.83,-0.03,26.58
16195,0.3403,-0.0071,0.868,-6.53,7.85,-0.11,26.58
16205,0.3413,-0.0065,0.8619,-6.44,7.85,-0.03,26.57
16215,0.3413,-0.0099,0.8627,-6.43,7.86,-0.02,26.57
16225,0.3411,-0.01,0.8616,-6.43,7.88,0.02,26.58
16235,0.3401,-0.0072,0.8618,-6.4,7.88,-0.05,26.58
16245,0.3394,-0.0093,0.8613,-6.49,7.79,0.0,26.57
16255,0.3402,-0.0073,0.863,-6.47,7.88,0.06,26.58
16265,0.3408,-0.01,0.8617,-6.41,7.82,-0.05,26.6
16275,0.3401,-0.0081,0.8643,-6.47,7.89,-0.09,26.62
16285,0.3405,-0.0095,0.86,-6.53,7.83,-0.03,26.6
16295,0.3405,-0.0082,0.8639,-6.46,7.73,-0.11,26.57
16305,0.3411,-0.0092,0.8654,-6.52,7.82,-0.08,26.59
16315,0.3392,-0.0081,0.8601,-6.4,7.86,-0.08,26.59
16326,0.3406,-0.0082,0.8666,-6.43,7.86,0.0,26.59
16336,0.3391,-0.0092,0.8633,-6.52,7.77,-0.03,26.59
16346,0.34,-0.0093,0.8622,-6.46,7.85,-0.02,26.58
16356,0.3396,-0.0101,0.8613,-6.41,7.85,-0.05,26.56
16366,0.3402,-0.0081,0.8632,-6.52,7.79,-0.05,26.6
16376,0.3403,-0.0104,0.8666,-6.47,7.85,-0.03,26.57
16386,0.3392,-0.0089,0.865,-6.43,7.83,-0.02,26.59
16396,0.3407,-0.0117,0.8652,-6.53,7.77,-0.08,26.61
16408,0.3418,-0.01,0.8627,-6.47,7.79,0.0,26.6
16418,0.3374,-0.0081,0.8621,-6.5,7.8,-0.06,26.62
16428,0.3414,-0.0077,0.8644,-6.58,7.88,-0.05,26.62
16438,0.3424,-0.009,0.8616,-6.52,7.83,-0.05,26.59
16448,0.3365,-0.0073,0.8618,-6.4,7.86,-0.06,26.59
16458,0.34,-0.0077,0.8622,-6.47,7.89,-0.05,26.59
16468,0.3425,-0.0077,0.8645,-6.41,7.89,-0.05,26.59
16478,0.3416,-0.0087,0.8638,-6.49,7.91,-0.05,26.59
16488,0.3401,-0.0083,0.8607,-6.47,7.79,-0.03,26.62
16498,0.3394,-0.01,0.8647,-6.46,7.8,-0.02,26.59
16508,0.3384,-0.0095,0.8607,-6.37,7.82,-0.06,26.62
16518,0.3398,-0.0099,0.8629,-6.56,7.82,-0.05,26.61
16529,0.3427,-0.0082,0.8606,-6.4,7.86,-0.09,26.62
16539,0.3381,-0.0073,0.8634,-6.44,7.86,0.03,26.59
16549,0.339,-0.0081,0.8616,-6.41,7.89,-0.05,26.61
16559,0.3384,-0.0099,0.8671,-6.49,7.83,0.0,26.61
16569,0.3361,-0.0082,0.8655,-6.49,7.92,0.0,26.59
16579,0.3395,-0.0088,0.8641,-6.52,7.83,0.03,26.59
16589,0.3391,-0.0112,0.8619,-6.46,7.88,-0.02,26.6
16599,0.338,-0.0077,0.8684,-6.35,7.85,-0.08,26.61
16611,0.3391,-0.0051,0.8641,-6.49,7.85,0.03,26.6
16621,0.3391,-0.0081,0.8627,-6.44,7.83,-0.05,26.59
16631,0.3423,-0.007,0.8633,-6.44,7.83,-0.06,26.58
16641,0.3407,-0.0083,0.8632,-6.5,7.83,0.0,26.59
16651,0.3378,-0.0084,0.8651,-6.43,7.86,-0.02,26.59
16661,0.3394,-0.0104,0.8635,-6.52,7.89,-0.05,26.62
16671,0.34,-0.0051,0.8666,-6.46,7.86,-0.03,26.58
16681,0.3411,-0.0074,0.8617,-6.43,7.76,0.0,26.61
16691,0.3356,-0.0087,0.8595,-6.52,7.91,-0.15,26.6
16701,0.3409,-0.0077,0.8611,-6.47,7.91,-0.09,26.6
16711,0.34,-0.0095,0.865,-6.55,7.95,-0.03,26.59
16721,0.3394,-0.0093,0.8673,-6.46,7.85,-0.03,26.6
16731,0.3414,-0.0112,0.8655,-6.38,7.76,0.03,26.59
16741,0.3397,-0.0087,0.8633,-6.44,7.77,-0.03,26.6
16751,0.3407,-0.0066,0.8625,-6.47,7.85,-0.05,26.61
16761,0.3402,-0.0098,0.8629,-6.53,7.85,-0.08,26.6
16771,0.3374,-0.0092,0.8633,-6.46,7.89,0.0,26.6
16781,0.3392,-0.0105,0.864,-6.43,7.8,-0.03,26.62
16791,0.3386,-0.0065,0.8651,-6.37,7.85,-0.03,26.58
16801,0.3401,-0.0076,0.8605,-6.46,7.88,-0.08,26.6
16811,0.3395,-0.0104,0.8632,-6.52,7.8,0.0,26.62
16821,0.3401,-0.0084,0.8647,-6.49,7.85,0.03,26.62
16831,0.3414,-0.0081,0.8652,-6.52,7.86,-0.02,26.59
16841,0.3425,-0.01,0.861,-6.49,7.88,-0.03,26.61
16851,0.3385,-0.0105,0.861,-6.4,7.85,0.0,26.59
16861,0.3396,-0.0087,0.8645,-6.47,7.83,-0.08,26.6
16871,0.3433,-0.0106,0.8623,-6.55,7.8,-0.11,26.57
16881,0.3401,-0.009,0.86,-6.52,7.89,0.05,26.59
16891,0.3409,-0.0099,0.8623,-6.5,7.8,-0.03,26.6
16901,0.3416,-0.01,0.8615,-6.44,7.77,-0.05,26.6
16911,0.3409,-0.01,0.8617,-6.41,7.92,0.03,26.59
16921,0.3405,-0.0082,0.8599,-6.47,7.88,0.03,26.61
16931,0.337,-0.0111,0.863,-6.58,7.86,0.08,26.58
16941,0.3407,-0.0084,0.8655,-6.44,7.8,-0.06,26.59
16951,0.3392,-0.0079,0.8647,-6.44,7.83,0.05,26.61
16961,0.3403,-0.0065,0.8597,-6.44,7.8,-0.03,26.59
16971,0.3412,-0.0082,0.8585,-6.47,7.83,-0.08,26.57
16981,0.3392,-0.0077,0.8645,-6.5,7.77,-0.03,26.58
16992,0.3414,-0.0084,0.8584,-6.43,7.79,-0.08,26.59
17002,0.3419,-0.0087,0.8628,-6.38,7.85,-0.03,26.61
17012,0.3392,-0.0085,0.861,-6.35,7.91,-0.08,26.62
17022,0.3406,-0.0093,0.865,-6.55,7.91,-0.02,26.6
17032,0.339,-0.0073,0.8627,-6.56,7.85,-0.08,26.61
17042,0.3406,-0.0072,0.8601,-6.46,7.79,-0.03,26.61
17052,0.3398,-0.0082,0.8638,-6.52,7.79,-0.11,26.59
17062,0.3383,-0.0096,0.8632,-6.43,7.85,-0.06,26.6
17072,0.338,-0.0059,0.8623,-6.5,7.86,-0.06,26.62
17082,0.3408,-0.0098,0.8608,-6.46,7.83,-0.03,26.61
17092,0.3406,-0.0095,0.8655,-6.52,7.92,-0.02,26.59
17102,0.3395,-0.0081,0.8633,-6.49,7.83,-0.06,26.6
17112,0.342,-0.0078,0.864,-6.52,7.76,-0.03,26.59
17122,0.3387,-0.0101,0.8619,-6.41,7.91,-0.06,26.59
17132,0.3403,-0.0078,0.8671,-6.43,7.83,-0.03,26.61
17142,0.3406,-0.0092,0.8633,-6.5,7.79,0.02,26.59
17152,0.3401,-0.0094,0.8636,-6.49,7.8,-0.03,26.6
17162,0.342,-0.0095,0.8645,-6.49,7.79,-0.03,26.62
17172,0.3424,-0.0112,0.8618,-6.5,7.88,0.02,26.61
17182,0.3414,-0.0087,0.8591,-6.46,7.85,-0.03,26.61
17192,0.3387,-0.0082,0.8619,-6.43,7.85,0.02,26.62
17202,0.3402,-0.0088,0.8674,-6.43,7.85,-0.05,26.59
17212,0.3401,-0.0094,0.8617,-6.49,7.83,0.03,26.63
17222,0.3402,-0.0085,0.8634,-6.49,7.88,0.0,26.6
17232,0.3423,-0.0103,0.8618,-6.43,7.83,-0.09,26.63
17242,0.3397,-0.0077,0.8593,-6.43,7.83,0.06,26.62
17252,0.3414,-0.0057,0.8601,-6.46,7.77,-0.05,26.63
17262,0.3428,-0.0103,0.8608,-6.5,7.82,-0.09,26.61
17272,0.3403,-0.011,0.8627,-6.49,7.86,-0.08,26.61
17282,0.3409,-0.0092,0.8619,-6.43,7.89,0.05,26.59
17294,0.343,-0.0067,0.861,-6.43,7.69,0.03,26.61
17304,0.343,-0.0092,0.8636,-6.52,7.86,0.0,26.61
17314,0.3431,-0.006,0.8656,-6.37,7.86,-0.03,26.59
17324,0.34,-0.0084,0.8618,-6.44,7.94,0.03,26.6
17334,0.338,-0.0051,0.8623,-6.44,7.8,-0.03,26.63
17344,0.3401,-0.0065,0.8639,-6.46,7.85,-0.05,26.6
17354,0.3416,-0.0112,0.8663,-6.53,7.83,0.0,26.62
17364,0.3376,-0.0095,0.8632,-6.53,7.94,0.0,26.61
17374,0.3372,-0.0081,0.8635,-6.49,7.85,0.02,26.63
17384,0.342,-0.0107,0.8673,-6.53,7.8,-0.02,26.62
17394,0.3423,-0.0115,0.8594,-6.58,7.89,-0.06,26.64
17404,0.3395,-0.0084,0.8623,-6.44,7.89,-0.05,26.61
17414,0.3391,-0.0085,0.864,-6.35,7.86,0.0,26.62
17424,0.3379,-0.0099,0.8646,-6.44,7.74,0.06,26.62
17434,0.3395,-0.0104,0.864,-6.41,7.83,0.0,26.61
17444,0.3406,-0.0081,0.8632,-6.43,7.82,-0.12,26.6
17454,0.3409,-0.0081,0.865,-6.47,7.77,0.0,26.61
17464,0.3403,-0.0079,0.8636,-6.44,7.86,-0.08,26.61
17474,0.3409,-0.0111,0.8643,-6.44,7.82,-0.08,26.62
17484,0.3391,-0.0083,0.8605,-6.47,7.8,0.05,26.6
17494,0.337,-0.0082,0.8646,-6.43,7.85,-0.05,26.62
17504,0.3414,-0.0094,0.8619,-6.44,7.86,-0.05,26.62
17514,0.3419,-0.01,0.8643,-6.41,7.86,0.06,26.6
17524,0.3413,-0.0105,0.8639,-6.46,7.76,0.03,26.62
17534,0.3389,-0.0098,0.8632,-6.5,7.8,0.02,26.63
17544,0.3384,-0.0083,0.8632,-6.46,7.86,-0.06,26.62
17554,0.3418,-0.0076,0.8655,-6.43,7.83,-0.03,26.63
17564,0.3385,-0.0073,0.8649,-6.47,7.88,-0.06,26.58
17574,0.3413,-0.0098,0.8649,-6.46,7.83,0.02,26.61
17584,0.3381,-0.0074,0.8628,-6.55,7.83,0.0,26.61
17594,0.3408,-0.0089,0.8632,-6.41,7.82,0.02,26.62
17604,0.3397,-0.0093,0.8636,-6.49,7.82,0.03,26.63
17614,0.3405,-0.0068,0.8658,-6.4,7.82,-0.03,26.61
17624,0.3408,-0.0072,0.8633,-6.46,7.85,-0.03,26.61
17634,0.3424,-0.0109,0.8625,-6.47,7.83,0.06,26.63
17644,0.3353,-0.0099,0.8593,-6.56,7.91,-0.05,26.61
17654,0.3419,-0.0125,0.8608,-6.37,7.79,0.06,26.61
17664,0.3403,-0.0114,0.8641,-6.55,7.77,-0.06,26.62
17674,0.3424,-0.0094,0.8652,-6.43,7.8,-0.09,26.63
17684,0.3427,-0.009,0.8635,-6.5,7.82,-0.05,26.61
17694,0.3406,-0.0096,0.8623,-6.53,7.86,-0.05,26.59
17704,0.3398,-0.0089,0.8633,-6.5,7.89,-0.08,26.62
17714,0.337,-0.0084,0.8624,-6.55,7.88,-0.08,26.62
17724,0.3419,-0.0082,0.8643,-6.47,7.88,-0.06,26.6
17734,0.3413,-0.0089,0.861,-6.5,7.86,-0.02,26.62
17744,0.3383,-0.0079,0.8662,-6.4,7.82,-0.08,26.61
17754,0.3396,-0.0107,0.8616,-6.49,7.79,-0.05,26.62
17764,0.3395,-0.0078,0.8613,-6.49,7.79,0.08,26.61
17774,0.34,-0.0105,0.861,-6.52,7.8,-0.08,26.61
17784,0.3412,-0.0106,0.8594,-6.49,7.85,0.02,26.6
17794,0.3402,-0.0073,0.8625,-6.49,7.86,0.03,26.61
17804,0.3364,-0.0082,0.8672,-6.44,7.77,-0.03,26.59
17814,0.3379,-0.0099,0.8619,-6.46,7.82,-0.03,26.61
17824,0.3375,-0.0074,0.8607,-6.49,7.79,0.0,26.59
17834,0.342,-0.0115,0.8647,-6.46,7.79,0.02,26.59
17844,0.3402,-0.0083,0.8628,-6.44,7.83,0.0,26.61
17854,0.3386,-0.0087,0.8615,-6.4,7.82,-0.12,26.6
17864,0.3409,-0.0065,0.8633,-6.56,7.77,-0.08,26.58
17874,0.3381,-0.0099,0.8632,-6.52,7.77,-0.06,26.61
17884,0.3448,-0.0104,0.8641,-6.37,7.77,-0.05,26.61
17894,0.3409,-0.0098,0.8647,-6.41,7.91,-0.06,26.62
17904,0.3398,-0.0103,0.86,-6.43,7.88,0.0,26.62
17914,0.3392,-0.0083,0.8617,-6.32,7.77,0.06,26.61
17924,0.3406,-0.0062,0.8654,-6.38,7.83,-0.02,26.64
17934,0.3401,-0.0098,0.8678,-6.43,7.92,-0.02,26.61
17944,0.3416,-0.0079,0.8634,-6.5,7.77,0.03,26.63
17954,0.3403,-0.0057,0.8629,-6.43,7.77,0.02,26.64
17964,0.3396,-0.0092,0.8622,-6.44,7.83,-0.05,26.63
17974,0.3394,-0.0092,0.8646,-6.43,7.86,0.05,26.61
17984,0.3397,-0.0096,0.8623,-6.5,7.82,0.0,26.62
17994,0.3413,-0.0121,0.8607,-6.52,7.92,-0.05,26.62
18004,0.3427,-0.0095,0.8623,-6.52,7.85,0.0,26.61
18014,0.3396,-0.0088,0.8651,-6.44,7.85,-0.02,26.62
18024,0.3405,-0.0098,0.8628,-6.52,7.91,0.05,26.59
18034,0.3353,-0.0115,0.8655,-6.44,7.88,-0.02,26.62
18044,0.3419,-0.0109,0.8629,-6.53,7.88,-0.03,26.63
18054,0.3376,-0.0094,0.866,-6.52,7.91,-0.05,26.63
18064,0.3403,-0.0095,0.8615,-6.49,7.89,-0.05,26.62
18074,0.3427,-0.01,0.8641,-6.47,7.85,0.05,26.66
18084,0.3407,-0.0114,0.8655,-6.53,7.79,0.0,26.62
18094,0.3381,-0.0084,0.8652,-6.35,7.88,0.02,26.61
18104,0.34,-0.0103,0.8646,-6.47,7.89,0.08,26.61
18114,0.3422,-0.0051,0.8606,-6.41,7.89,-0.08,26.63
18124,0.3405,-0.01,0.8647,-6.47,7.88,0.03,26.62
18134,0.3418,-0.0063,0.8607,-6.49,7.89,-0.03,26.62
18144,0.3398,-0.0066,0.8608,-6.47,7.85,-0.03,26.64
18154,0.3407,-0.0078,0.8618,-6.53,7.86,-0.08,26.64
18164,0.3389,-0.009,0.8645,-6.47,7.86,0.0,26.62
18174,0.3406,-0.0078,0.8621,-6.4,7.74,-0.02,26.61
18184,0.3419,-0.0084,0.8597,-6.44,7.88,0.02,26.63
18194,0.3438,-0.0082,0.866,-6.43,7.89,0.03,26.67
18204,0.3427,-0.0081,0.8651,-6.46,7.86,-0.08,26.62
18214,0.3405,-0.0083,0.8652,-6.52,7.91,-0.06,26.63
18224,0.3398,-0.0085,0.8673,-6.35,7.86,-0.05,26.62
18234,0.3364,-0.0085,0.8636,-6.41,7.86,-0.03,26.63
18244,0.3405,-0.0096,0.8596,-6.53,7.77,-0.06,26.62
18254,0.3405,-0.0093,0.8635,-6.44,7.92,-0.02,26.62
18264,0.3397,-0.0089,0.8618,-6.49,7.88,-0.05,26.6
18274,0.3381,-0.0084,0.863,-6.5,7.8,-0.06,26.64
18284,0.3413,-0.009,0.8628,-6.34,7.8,-0.05,26.63
18294,0.3411,-0.0106,0.8612,-6.5,7.77,0.02,26.63
18304,0.3412,-0.0096,0.8601,-6.44,7.89,-0.02,26.63
18314,0.3416,-0.0088,0.8615,-6.49,7.85,0.08,26.61
18324,0.3409,-0.0073,0.8649,-6.5,7.86,-0.08,26.64
18334,0.338,-0.0079,0.8623,-6.52,7.85,-0.03,26.63
18344,0.3405,-0.0109,0.8605,-6.47,7.79,-0.03,26.59
18354,0.3398,-0.0096,0.8647,-6.58,7.83,-0.03,26.6
18364,0.3389,-0.0098,0.8632,-6.43,7.85,-0.03,26.61
18374,0.3412,-0.0066,0.8616,-6.47,7.85,-0.08,26.63
18384,0.3438,-0.0104,0.8624,-6.49,7.82,-0.12,26.62
18394,0.3406,-0.0096,0.8632,-6.43,7.83,-0.08,26.62
18404,0.3383,-0.01,0.8618,-6.46,7.82,-0.03,26.64
18414,0.3422,-0.0074,0.8655,-6.44,7.79,-0.05,26.61
18424,0.3386,-0.0062,0.8649,-6.49,7.94,-0.06,26.61
18434,0.3395,-0.0095,0.8634,-6.49,7.85,0.0,26.61
18444,0.3411,-0.0095,0.8622,-6.56,7.83,-0.02,26.6
18454,0.3405,-0.0087,0.8645,-6.4,7.74,-0.02,26.62
18464,0.3413,-0.0104,0.8633,-6.41,7.8,-0.09,26.64
18474,0.3423,-0.0065,0.8657,-6.41,7.91,0.03,26.62
18484,0.3407,-0.0081,0.8639,-6.47,7.8,0.02,26.62
18494,0.3376,-0.0085,0.8663,-6.46,7.89,-0.06,26.62
18504,0.3414,-0.0087,0.8643,-6.5,7.88,-0.02,26.6
18514,0.3423,-0.0087,0.8656,-6.44,7.73,-0.02,26.63
18524,0.3407,-0.0112,0.8611,-6.47,7.82,-0.02,26.62
18534,0.3392,-0.0103,0.8632,-6.43,7.88,-0.02,26.62
18544,0.339,-0.0079,0.8645,-6.37,7.86,-0.05,26.63
18554,0.3392,-0.009,0.8619,-6.47,7.82,-0.06,26.6
18564,0.342,-0.0099,0.8611,-6.41,7.8,0.08,26.62
18574,0.3417,-0.0087,0.8651,-6.53,7.82,0.0,26.65
18584,0.3379,-0.0115,0.8657,-6.49,7.82,0.0,26.62
18594,0.3422,-0.0094,0.8655,-6.49,7.86,-0.06,26.64
18604,0.3403,-0.0083,0.8613,-6.43,7.85,-0.02,26.63
18614,0.3394,-0.0084,0.8623,-6.43,7.85,-0.02,26.64
18624,0.3389,-0.0117,0.8636,-6.49,7.91,0.03,26.62
18634,0.3376,-0.0095,0.8605,-6.46,7.8,-0.03,26.65
18644,0.3402,-0.0061,0.8624,-6.44,7.85,-0.06,26.65
18654,0.3413,-0.0083,0.861,-6.47,7.91,-0.02,26.64
18664,0.3396,-0.0085,0.8666,-6.55,7.77,-0.11,26.63
18674,0.3406,-0.0088,0.86,-6.47,7.82,-0.03,26.62
18685,0.3383,-0.0083,0.858,-6.43,7.82,-0.05,26.63
18695,0.3413,-0.0096,0.8666,-6.44,7.83,-0.03,26.62
18705,0.3395,-0.011,0.8612,-6.47,7.83,-0.03,26.62
18715,0.3401,-0.0074,0.8638,-6.4,7.85,-0.03,26.63
18725,0.3413,-0.0081,0.8613,-6.5,7.83,-0.08,26.64
18735,0.3408,-0.0104,0.8619,-6.52,7.85,-0.05,26.62
18745,0.3397,-0.0076,0.86,-6.47,7.77,-0.05,26.65
18755,0.3416,-0.0089,0.8627,-6.61,7.82,0.0,26.64
18765,0.3391,-0.0105,0.8666,-6.5,7.82,-0.09,26.64
18775,0.3406,-0.0077,0.8652,-6.47,7.8,-0.14,26.64
18785,0.3385,-0.0109,0.865,-6.55,7.95,0.03,26.63
18795,0.3387,-0.0059,0.8591,-6.37,7.83,0.02,26.63
18805,0.3428,-0.0106,0.8596,-6.44,7.79,-0.02,26.64
18815,0.3392,-0.0099,0.8647,-6.49,7.76,-0.08,26.63
18825,0.3409,-0.0087,0.8665,-6.52,7.74,-0.03,26.61
18835,0.3413,-0.0103,0.8666,-6.47,7.77,-0.08,26.63
18845,0.3419,-0.0101,0.8649,-6.41,7.79,0.02,26.64
18855,0.3406,-0.0093,0.865,-6.6,7.86,-0.12,26.64
18865,0.3385,-0.0112,0.8607,-6.38,7.89,0.02,26.65
18875,0.3402,-0.0132,0.8623,-6.46,7.83,-0.02,26.63
18885,0.3411,-0.0088,0.8662,-6.44,7.86,0.0,26.62
18895,0.3387,-0.0095,0.8655,-6.44,7.86,0.02,26.64
18905,0.3423,-0.0087,0.8643,-6.49,7.83,0.0,26.63
18915,0.337,-0.0068,0.8599,-6.46,7.77,0.02,26.63
18925,0.34,-0.0081,0.8619,-6.43,7.74,0.0,26.64
18936,0.3412,-0.0107,0.8625,-6.38,7.91,0.02,26.64
18946,0.3396,-0.0107,0.8674,-6.56,7.8,-0.09,26.62
18956,0.3416,-0.0072,0.866,-6.44,7.8,0.03,26.64
18969,0.3373,-0.0095,0.8622,-6.46,7.91,-0.14,26.65
18979,0.3396,-0.0117,0.8627,-6.46,7.83,0.0,26.66
18989,0.3392,-0.0101,0.8627,-6.41,7.86,-0.09,26.64
18999,0.3412,-0.0092,0.8695,-6.44,7.89,-0.06,26.64
19011,0.3403,-0.0087,0.8649,-6.5,7.83,-0.02,26.64
19021,0.3396,-0.011,0.8632,-6.52,7.83,-0.05,26.65
19031,0.3407,-0.0106,0.859,-6.52,7.83,-0.08,26.64
19041,0.339,-0.0101,0.8677,-6.47,7.85,0.0,26.67
19051,0.3407,-0.0084,0.8621,-6.56,7.85,-0.02,26.64
19061,0.343,-0.0081,0.8663,-6.46,7.82,-0.03,26.64
19071,0.3405,-0.0087,0.8666,-6.4,7.8,-0.06,26.64
19081,0.3396,-0.0118,0.863,-6.26,7.88,-0.06,26.64
19092,0.3389,-0.0084,0.866,-6.46,7.86,-0.03,26.66
19102,0.3402,-0.0089,0.8646,-6.47,7.8,-0.02,26.63
19112,0.3406,-0.0126,0.8636,-6.49,7.76,-0.05,26.64
19122,0.3406,-0.0074,0.8612,-6.43,7.86,-0.06,26.66
19132,0.3392,-0.0088,0.8634,-6.52,7.79,-0.12,26.66
19142,0.3407,-0.0098,0.8636,-6.46,7.85,-0.06,26.64
19152,0.3414,-0.0107,0.863,-6.5,7.8,-0.05,26.63
19162,0.3387,-0.0104,0.8632,-6.38,7.86,-0.02,26.64
19172,0.3419,-0.0105,0.8646,-6.5,7.85,0.02,26.63
19182,0.3411,-0.0085,0.8618,-6.53,7.79,-0.02,26.65
19193,0.34,-0.0088,0.8622,-6.52,7.86,-0.06,26.65
19203,0.3397,-0.01,0.8646,-6.41,7.89,0.06,26.65
19213,0.3405,-0.0087,0.8612,-6.52,7.95,0.0,26.63
19223,0.3434,-0.0089,0.8591,-6.44,7.91,-0.06,26.62
19233,0.3407,-0.0084,0.8665,-6.53,7.91,0.0,26.62
19243,0.3402,-0.0111,0.8638,-6.46,7.79,0.0,26.65
19253,0.3434,-0.0065,0.8616,-6.47,7.77,-0.08,26.65
19263,0.3372,-0.0078,0.8654,-6.43,7.91,-0.08,26.64
19273,0.3413,-0.0087,0.8655,-6.41,7.83,-0.14,26.66
19283,0.3418,-0.0081,0.865,-6.53,7.86,-0.03,26.66
19293,0.3414,-0.009,0.8651,-6.44,7.83,-0.08,26.62
19303,0.3409,-0.0084,0.8593,-6.52,7.8,-0.08,26.65
19313,0.3402,-0.0094,0.8613,-6.53,7.86,0.03,26.62
19323,0.3403,-0.0063,0.8627,-6.4,7.83,0.05,26.65
19333,0.3389,-0.0066,0.8647,-6.47,7.98,0.0,26.63
19343,0.3413,-0.0074,0.864,-6.44,7.83,0.02,26.65
19353,0.3396,-0.0079,0.8677,-6.4,7.94,-0.03,26.65
19363,0.34,-0.0057,0.8611,-6.52,7.82,-0.03,26.64
19373,0.3396,-0.0114,0.8595,-6.46,7.83,-0.14,26.64
19383,0.3406,-0.0079,0.8629,-6.37,7.85,-0.08,26.64
19393,0.3386,-0.0087,0.8643,-6.44,7.88,-0.08,26.64
19403,0.3417,-0.0094,0.8636,-6.47,7.86,-0.11,26.63
19413,0.34,-0.0095,0.8647,-6.41,7.8,-0.02,26.64
19423,0.3411,-0.0082,0.8624,-6.47,7.8,-0.06,26.63
19433,0.3418,-0.0085,0.8615,-6.46,7.82,-0.02,26.64
19443,0.3416,-0.0103,0.8604,-6.49,7.85,-0.06,26.64
19453,0.3431,-0.0089,0.8643,-6.43,7.88,-0.11,26.64
19463,0.3423,-0.0077,0.8635,-6.4,7.85,-0.02,26.63
19473,0.3407,-0.0112,0.8623,-6.46,7.89,0.05,26.65
19483,0.3403,-0.0085,0.8628,-6.47,7.85,0.0,26.64
19493,0.3383,-0.0099,0.8615,-6.46,7.95,0.05,26.64
19503,0.3403,-0.0061,0.8628,-6.47,7.86,0.0,26.64
19513,0.3419,-0.0087,0.8618,-6.44,7.79,-0.06,26.63
19523,0.3369,-0.0088,0.8655,-6.41,7.91,-0.03,26.64
19533,0.3402,-0.0104,0.8635,-6.38,7.88,-0.11,26.62
19543,0.3441,-0.0103,0.8624,-6.44,7.8,-0.08,26.65
19553,0.3413,-0.0101,0.8654,-6.37,7.82,-0.06,26.63
19563,0.3407,-0.0068,0.8636,-6.55,7.86,0.02,26.64
19573,0.339,-0.012,0.8632,-6.46,7.83,-0.05,26.65
19583,0.3414,-0.0114,0.8617,-6.52,7.82,-0.05,26.65
19593,0.339,-0.0098,0.8667,-6.47,7.8,-0.06,26.65
19603,0.3406,-0.0095,0.8652,-6.49,7.88,0.08,26.63
19613,0.3418,-0.0106,0.8624,-6.52,7.88,-0.02,26.63
19623,0.3444,-0.0111,0.8625,-6.46,7.82,0.0,26.67
19633,0.3403,-0.009,0.8636,-6.47,7.91,-0.06,26.65
19643,0.3433,-0.0087,0.8632,-6.5,7.74,-0.06,26.64
19653,0.3409,-0.0087,0.8623,-6.43,7.88,0.03,26.64
19663,0.3408,-0.0088,0.8629,-6.52,7.83,-0.02,26.67
19673,0.3411,-0.0111,0.8624,-6.41,7.8,-0.02,26.67
19683,0.3383,-0.0098,0.8638,-6.5,7.76,-0.08,26.64
19693,0.3383,-0.0107,0.8635,-6.41,7.88,-0.06,26.64
19703,0.3387,-0.0073,0.8627,-6.49,7.86,0.0,26.64
19713,0.343,-0.0081,0.8654,-6.46,7.85,0.02,26.67
19723,0.34,-0.0079,0.8624,-6.41,7.77,-0.02,26.64
19733,0.3417,-0.0111,0.8655,-6.4,7.8,0.0,26.66
19743,0.3413,-0.0098,0.8633,-6.49,7.88,0.08,26.67
19753,0.3394,-0.0105,0.8602,-6.44,7.86,-0.02,26.65
19763,0.3367,-0.0106,0.866,-6.47,7.88,0.03,26.65
19773,0.3394,-0.0105,0.8656,-6.47,7.8,-0.06,26.64
19783,0.3375,-0.007,0.8625,-6.46,7.83,0.05,26.66
19793,0.3392,-0.0076,0.864,-6.46,7.85,-0.08,26.66
19803,0.3401,-0.0076,0.863,-6.53,7.88,-0.12,26.65
19813,0.3401,-0.0071,0.8627,-6.49,7.89,0.0,26.66
19823,0.3374,-0.0103,0.8601,-6.44,7.95,-0.03,26.64
19833,0.3403,-0.0099,0.8644,-6.46,7.91,-0.06,26.67
19843,0.34,-0.0099,0.8621,-6.38,7.77,-0.08,26.64
19854,0.3406,-0.0076,0.8693,-6.43,7.77,-0.02,26.65
19864,0.3387,-0.0084,0.8638,-6.46,7.85,-0.06,26.66
19874,0.3408,-0.0099,0.8649,-6.47,7.89,-0.03,26.67
19884,0.3405,-0.0095,0.8619,-6.47,7.85,-0.02,26.67
19894,0.3395,-0.0087,0.863,-6.52,7.88,-0.08,26.67
19904,0.3407,-0.0077,0.8612,-6.41,7.79,-0.12,26.65
19914,0.3409,-0.0084,0.8636,-6.46,7.77,-0.09,26.67
19924,0.3385,-0.0093,0.8623,-6.49,7.8,0.02,26.62
19934,0.3406,-0.0109,0.8668,-6.41,7.83,0.0,26.64
19944,0.3402,-0.0084,0.8669,-6.46,7.88,-0.06,26.65
19954,0.3363,-0.0106,0.8619,-6.5,7.79,-0.06,26.66
19964,0.3418,-0.0114,0.8641,-6.5,7.89,-0.08,26.66
19974,0.3384,-0.0076,0.8673,-6.44,7.8,0.0,26.65
19984,0.3398,-0.0074,0.8649,-6.37,7.86,-0.03,26.66
19994,0.3406,-0.011,0.864,-6.44,7.82,-0.02,26.67
20004,0.3427,-0.0066,0.8645,-6.46,7.85,-0.03,26.67
20014,0.3406,-0.0066,0.8633,-6.4,7.8,0.02,26.67
20024,0.3405,-0.0093,0.8607,-6.47,7.8,-0.02,26.64
20034,0.3391,-0.0061,0.8627,-6.49,7.82,-0.02,26.65
20044,0.3414,-0.0095,0.8635,-6.44,7.85,-0.06,26.66
20054,0.3384,-0.0089,0.8604,-6.52,7.83,-0.03,26.65
20064,0.3392,-0.0077,0.8635,-6.37,7.85,-0.03,26.65
20074,0.3407,-0.0112,0.8667,-6.5,7.86,-0.02,26.63
20084,0.3403,-0.0105,0.859,-6.5,7.83,-0.02,26.67
20094,0.3418,-0.011,0.8601,-6.52,7.92,-0.03,26.65
20105,0.3412,-0.0114,0.8676,-6.55,7.8,0.02,26.64
20115,0.3419,-0.0049,0.8651,-6.34,7.8,0.03,26.66
20125,0.3392,-0.0103,0.8635,-6.44,7.89,0.0,26.67
20135,0.3412,-0.0105,0.8646,-6.47,7.8,0.02,26.64
20145,0.3412,-0.0111,0.8645,-6.4,7.88,-0.09,26.65
20155,0.3389,-0.0116,0.866,-6.53,7.95,-0.14,26.63
20165,0.3416,-0.0103,0.8649,-6.46,7.89,-0.03,26.65
20175,0.3405,-0.009,0.8594,-6.44,7.85,-0.05,26.64
20185,0.3428,-0.0076,0.8608,-6.47,7.86,-0.02,26.66
20196,0.3398,-0.0068,0.863,-6.49,7.83,0.03,26.67
20206,0.34,-0.0077,0.8618,-6.43,7.82,-0.02,26.64
20216,0.3379,-0.0089,0.8618,-6.52,7.85,0.05,26.65
20226,0.3424,-0.0099,0.8643,-6.47,7.82,-0.02,26.67
20236,0.3438,-0.0099,0.8634,-6.5,7.89,-0.05,26.64
20249,0.3412,-0.0085,0.859,-6.47,7.85,0.03,26.64
20259,0.3405,-0.0062,0.8639,-6.44,7.89,-0.06,26.66
20269,0.3403,-0.0105,0.8599,-6.41,7.85,-0.11,26.63
20279,0.3403,-0.0079,0.8623,-6.49,7.89,-0.03,26.64
20289,0.3417,-0.0076,0.8635,-6.47,7.85,-0.06,26.64
20299,0.3401,-0.0081,0.8605,-6.53,7.83,0.05,26.65
20309,0.3418,-0.0093,0.8641,-6.49,7.83,-0.08,26.66
20319,0.3385,-0.0109,0.8596,-6.47,7.83,-0.02,26.67
20329,0.3379,-0.0095,0.8617,-6.5,7.88,-0.05,26.66
20339,0.3413,-0.0078,0.8639,-6.5,7.91,0.0,26.67
20349,0.34,-0.0079,0.8645,-6.49,7.85,-0.05,26.65
20359,0.3387,-0.0114,0.8619,-6.53,7.82,-0.08,26.65
20369,0.343,-0.007,0.8667,-6.49,7.83,-0.05,26.65
20379,0.3401,-0.0117,0.8645,-6.5,7.82,0.0,26.66
20389,0.343,-0.0106,0.8635,-6.47,7.82,-0.05,26.67
20399,0.3406,-0.0063,0.8636,-6.47,7.85,-0.11,26.65
20409,0.3397,-0.0096,0.8657,-6.56,7.79,0.0,26.64
20419,0.3406,-0.0085,0.8657,-6.46,7.79,0.0,26.66
20429,0.3391,-0.0131,0.8658,-6.47,7.79,0.02,26.67
20439,0.3403,-0.0074,0.8644,-6.46,7.89,0.06,26.65
20449,0.3422,-0.011,0.8619,-6.5,7.83,-0.06,26.67
20459,0.3412,-0.0048,0.8644,-6.5,7.83,-0.06,26.64
20469,0.3387,-0.0092,0.8651,-6.41,7.79,0.02,26.65
20479,0.3435,-0.009,0.8668,-6.5,7.83,-0.11,26.67
20489,0.3376,-0.0109,0.8595,-6.41,7.86,0.0,26.67
20499,0.3408,-0.0101,0.8605,-6.4,7.85,0.05,26.64
20509,0.3392,-0.0114,0.8619,-6.56,7.86,0.05,26.64
20519,0.339,-0.0109,0.864,-6.43,7.8,0.05,26.65
20529,0.3383,-0.0073,0.8635,-6.47,7.82,-0.08,26.67
20539,0.3389,-0.0082,0.8647,-6.41,7.83,-0.08,26.63
20549,0.3401,-0.0089,0.8643,-6.53,7.83,-0.05,26.63
20559,0.3402,-0.0065,0.8615,-6.47,7.8,-0.03,26.64
20569,0.3414,-0.0077,0.863,-6.47,7.83,0.02,26.66
20579,0.3418,-0.0072,0.8655,-6.46,7.79,-0.03,26.65
20589,0.3413,-0.0117,0.8625,-6.49,7.86,-0.05,26.67
20599,0.3392,-0.0107,0.8627,-6.38,7.86,-0.02,26.63
20609,0.3397,-0.0096,0.8617,-6.49,7.86,-0.03,26.67
20619,0.3403,-0.0101,0.8649,-6.49,7.79,0.0,26.65
20629,0.3398,-0.011,0.8629,-6.43,7.82,0.05,26.64
20639,0.3405,-0.011,0.8622,-6.44,7.92,-0.05,26.66
20649,0.3397,-0.0065,0.8651,-6.6,7.8,-0.06,26.67
20659,0.3402,-0.0092,0.8623,-6.44,7.88,-0.06,26.67
20669,0.3384,-0.0082,0.8654,-6.47,7.79,0.03,26.65
20679,0.3403,-0.0114,0.8643,-6.4,7.88,-0.03,26.66
20689,0.3411,-0.0066,0.863,-6.52,7.82,0.02,26.66
20699,0.3409,-0.0087,0.8601,-6.52,7.82,-0.05,26.65
20712,0.3416,-0.0079,0.8616,-6.56,7.76,-0.05,26.68
20722,0.3406,-0.0106,0.8636,-6.5,7.82,-0.03,26.69
20732,0.3373,-0.0076,0.8634,-6.44,7.83,-0.03,26.67
20742,0.3365,-0.0094,0.8629,-6.47,7.77,0.09,26.68
20752,0.3362,-0.0083,0.8621,-6.44,7.8,-0.02,26.66
20762,0.3411,-0.0099,0.8672,-6.49,7.85,0.03,26.66
20772,0.3394,-0.0109,0.8641,-6.41,7.77,-0.06,26.64
20782,0.3396,-0.0076,0.8651,-6.52,7.76,0.03,26.65
20792,0.3381,-0.0093,0.8621,-6.46,7.95,-0.05,26.67
20802,0.3384,-0.0067,0.8645,-6.4,7.88,-0.05,26.65
20812,0.3424,-0.0105,0.8613,-6.52,7.77,0.0,26.64
20822,0.3422,-0.0083,0.8628,-6.49,7.86,0.03,26.66
20832,0.3401,-0.0093,0.8597,-6.46,7.83,0.06,26.62
20842,0.3374,-0.01,0.8649,-6.49,7.88,0.0,26.66
20852,0.3385,-0.0094,0.8622,-6.44,7.89,0.06,26.65
20862,0.3422,-0.0106,0.8649,-6.44,7.88,-0.02,26.68
20872,0.3411,-0.0115,0.8635,-6.38,7.85,-0.08,26.68
20882,0.3391,-0.0085,0.8599,-6.53,7.92,-0.05,26.66
20892,0.3406,-0.0056,0.8641,-6.44,7.89,-0.03,26.63
20902,0.3425,-0.0101,0.8636,-6.5,7.83,-0.08,26.66
20912,0.3417,-0.0105,0.8605,-6.52,7.86,-0.08,26.66
20922,0.3442,-0.0094,0.8583,-6.47,7.89,0.09,26.65
20932,0.3416,-0.0105,0.8583,-6.5,7.88,-0.02,26.65
20942,0.3408,-0.0104,0.8656,-6.49,7.74,0.02,26.66
20952,0.3392,-0.009,0.8636,-6.52,7.94,0.05,26.65
20962,0.3397,-0.009,0.8616,-6.43,7.86,-0.03,26.63
20972,0.3416,-0.0077,0.8658,-6.46,7.83,-0.05,26.65
20982,0.3418,-0.0068,0.8608,-6.47,7.88,-0.09,26.66
20992,0.3423,-0.0089,0.8629,-6.56,7.86,-0.03,26.66
21002,0.3386,-0.0083,0.865,-6.44,7.94,0.05,26.65
21012,0.3396,-0.0089,0.865,-6.49,7.83,0.02,26.65
21022,0.3368,-0.0117,0.8624,-6.46,7.91,-0.03,26.67
21032,0.3401,-0.0092,0.8663,-6.5,7.94,-0.14,26.65
21042,0.3389,-0.0099,0.865,-6.43,7.76,-0.02,26.67
21052,0.3397,-0.0079,0.8656,-6.46,7.89,0.0,26.67
21062,0.3392,-0.0112,0.863,-6.5,7.79,0.06,26.68
21072,0.3414,-0.0104,0.8605,-6.5,7.79,0.06,26.65
21082,0.342,-0.0077,0.8643,-6.43,7.79,-0.05,26.66
21092,0.3376,-0.0068,0.864,-6.43,7.86,0.0,26.64
21102,0.3418,-0.0114,0.8672,-6.44,7.8,0.03,26.65
21112,0.3403,-0.0082,0.8616,-6.5,7.85,0.02,26.65
21122,0.3417,-0.0106,0.8591,-6.43,7.91,-0.05,26.64
21132,0.3391,-0.0096,0.8656,-6.5,7.85,0.0,26.67
21142,0.3396,-0.0073,0.8634,-6.44,7.82,-0.03,26.67
21152,0.3408,-0.0123,0.8656,-6.4,7.86,0.03,26.63
21162,0.3414,-0.0103,0.8671,-6.47,7.82,0.03,26.65
21172,0.3394,-0.0115,0.8632,-6.58,7.83,-0.02,26.68
21182,0.3384,-0.0092,0.8654,-6.47,7.8,-0.08,26.67
21192,0.3408,-0.0083,0.8674,-6.4,7.92,-0.02,26.64
21202,0.3422,-0.0099,0.8624,-6.44,7.91,-0.02,26.68
21212,0.3381,-0.0098,0.8646,-6.47,7.77,0.02,26.64
21222,0.3427,-0.0099,0.8624,-6.49,7.85,-0.05,26.66
21232,0.3396,-0.0093,0.8644,-6.44,7.88,0.02,26.65
21242,0.3389,-0.0107,0.8622,-6.41,7.89,-0.02,26.65
21252,0.3369,-0.0079,0.8586,-6.58,7.89,0.09,26.65
21262,0.3424,-0.0101,0.8627,-6.38,7.91,-0.02,26.67
21272,0.3389,-0.0094,0.863,-6.4,7.86,0.03,26.67
21282,0.3414,-0.0093,0.8651,-6.5,7.85,0.06,26.65
21294,0.3403,-0.0099,0.8635,-6.5,7.83,0.03,26.67
21304,0.3392,-0.0105,0.8612,-6.47,7.8,0.0,26.65
21314,0.3411,-0.0112,0.8627,-6.41,7.91,-0.06,26.66
21324,0.3395,-0.0087,0.8657,-6.41,7.91,-0.05,26.64
21334,0.3424,-0.0107,0.8629,-6.46,7.86,-0.08,26.65
21344,0.3418,-0.0085,0.8595,-6.44,7.86,-0.08,26.65
21354,0.3412,-0.0082,0.8597,-6.52,7.86,0.02,26.65
21364,0.3418,-0.0071,0.8638,-6.52,7.83,-0.08,26.66
21374,0.3384,-0.011,0.8647,-6.55,7.82,-0.08,26.67
21384,0.3389,-0.0106,0.8633,-6.44,7.77,-0.02,26.65
21394,0.3416,-0.0114,0.8601,-6.47,7.88,-0.08,26.67
21404,0.3422,-0.0104,0.8612,-6.46,7.77,-0.05,26.65
21414,0.3418,-0.0087,0.8618,-6.4,7.74,-0.06,26.67
21424,0.3435,-0.0071,0.8654,-6.43,7.82,0.0,26.68
21434,0.34,-0.0105,0.8613,-6.56,7.92,-0.02,26.66
21444,0.3394,-0.0105,0.8662,-6.46,7.86,-0.09,26.64
21454,0.3401,-0.0101,0.8619,-6.56,7.77,-0.05,26.68
21464,0.3417,-0.0111,0.8621,-6.5,7.83,-0.03,26.68
21474,0.3401,-0.0106,0.8662,-6.38,7.88,0.08,26.67
21484,0.3408,-0.0093,0.8641,-6.53,7.89,0.0,26.69
21494,0.34,-0.0079,0.8629,-6.46,7.82,-0.02,26.66
21504,0.3398,-0.0089,0.8615,-6.4,7.85,0.02,26.68
21514,0.339,-0.0088,0.8616,-6.5,7.92,-0.05,26.69
21524,0.3376,-0.0084,0.8604,-6.4,7.91,0.02,26.68
21534,0.3373,-0.0079,0.8668,-6.47,7.85,-0.05,26.67
21544,0.3411,-0.0068,0.8611,-6.52,7.8,0.02,26.65
21554,0.3397,-0.0103,0.8621,-6.56,7.85,0.03,26.66
21564,0.3412,-0.0117,0.8643,-6.41,7.8,-0.06,26.65
21574,0.3401,-0.0106,0.8611,-6.52,7.79,-0.05,26.68
21584,0.3389,-0.0083,0.8665,-6.43,7.8,-0.02,26.66
21594,0.3416,-0.0083,0.8632,-6.4,7.83,0.0,26.67
21604,0.338,-0.0088,0.8663,-6.44,7.88,-0.11,26.66
21614,0.3428,-0.0077,0.8655,-6.44,7.86,-0.02,26.66
21625,0.3409,-0.0081,0.8672,-6.49,7.85,-0.05,26.66
21635,0.343,-0.0077,0.8601,-6.49,7.85,0.0,26.64
21645,0.3409,-0.0067,0.8627,-6.47,7.94,0.03,26.64
21655,0.3367,-0.01,0.8661,-6.46,7.89,0.06,26.66
21666,0.3408,-0.0095,0.8605,-6.4,7.88,-0.02,26.67
21676,0.3389,-0.0085,0.8647,-6.43,7.82,-0.05,26.65
21687,0.3387,-0.0105,0.8638,-6.44,7.8,-0.03,26.66
21697,0.3407,-0.0076,0.8612,-6.47,7.86,-0.02,26.67
21709,0.3424,-0.0103,0.8617,-6.55,7.85,0.0,26.67
21719,0.3368,-0.009,0.8616,-6.44,7.85,-0.02,26.68
21732,0.3378,-0.0077,0.8617,-6.46,7.83,-0.09,26.66
21742,0.3436,-0.0092,0.8634,-6.49,7.85,-0.05,26.66
21752,0.3395,-0.0105,0.863,-6.47,7.79,0.0,26.66
21762,0.3378,-0.0092,0.8618,-6.5,7.88,0.0,26.67
21772,0.3401,-0.0088,0.8611,-6.56,7.85,-0.06,26.68
21782,0.3408,-0.0117,0.8635,-6.52,7.88,-0.03,26.68
21792,0.3397,-0.0118,0.8599,-6.44,7.8,0.02,26.67
21802,0.34,-0.0057,0.8629,-6.47,7.88,-0.02,26.66
21812,0.3411,-0.009,0.8632,-6.49,7.8,0.03,26.65
21822,0.3387,-0.0081,0.8623,-6.61,7.83,-0.08,26.66
21832,0.3407,-0.0079,0.8595,-6.5,7.77,-0.03,26.69
21842,0.3386,-0.0101,0.8635,-6.46,7.85,-0.02,26.66
21852,0.3414,-0.0104,0.8611,-6.5,7.89,-0.06,26.65
21862,0.3411,-0.0117,0.8621,-6.47,7.83,0.0,26.66
21872,0.338,-0.0077,0.8607,-6.44,7.83,-0.03,26.67
21882,0.3386,-0.0092,0.8622,-6.49,7.77,0.0,26.64
21892,0.3394,-0.0099,0.8594,-6.47,7.76,-0.08,26.66
21902,0.3402,-0.0083,0.8649,-6.56,7.8,0.0,26.64
21912,0.3408,-0.0094,0.8635,-6.4,7.8,-0.02,26.64
21922,0.3418,-0.0074,0.8673,-6.53,7.86,-0.08,26.66
21932,0.3406,-0.0101,0.8655,-6.56,7.82,0.02,26.68
21942,0.3413,-0.0121,0.8611,-6.47,7.8,-0.03,26.68
21952,0.3419,-0.0079,0.861,-6.44,7.82,-0.02,26.68
21962,0.3397,-0.0068,0.8658,-6.41,7.79,0.02,26.64
21972,0.3412,-0.0078,0.8638,-6.5,7.83,-0.02,26.65
21982,0.3363,-0.0068,0.8644,-6.5,7.86,0.0,26.65
21992,0.3379,-0.0106,0.8638,-6.49,7.83,-0.03,26.66
22002,0.3425,-0.0104,0.8601,-6.55,7.86,-0.02,26.66
22012,0.3378,-0.0083,0.8629,-6.53,7.82,-0.09,26.68
22022,0.3378,-0.0074,0.8611,-6.41,7.83,-0.08,26.66
22033,0.3417,-0.0105,0.8611,-6.46,7.83,-0.02,26.67
22043,0.3425,-0.0126,0.8643,-6.5,7.83,0.0,26.65
22053,0.3406,-0.012,0.863,-6.46,7.89,-0.05,26.69
22063,0.3398,-0.0122,0.865,-6.38,7.85,0.03,26.67
22073,0.3407,-0.0085,0.863,-6.4,7.85,-0.02,26.67
22083,0.34,-0.0084,0.8623,-6.43,7.89,0.05,26.66
22093,0.3412,-0.0101,0.8616,-6.47,7.79,0.02,26.66
22103,0.3416,-0.0129,0.8635,-6.44,7.85,-0.03,26.67
22113,0.3395,-0.0099,0.8628,-6.52,7.86,-0.09,26.69
22123,0.3373,-0.009,0.8667,-6.44,7.85,0.03,26.69
22133,0.3402,-0.0103,0.8645,-6.4,7.89,-0.03,26.65
22143,0.3425,-0.009,0.8649,-6.52,7.8,-0.03,26.69
22153,0.3422,-0.0073,0.8625,-6.5,7.73,-0.08,26.67
22163,0.3405,-0.0092,0.8624,-6.47,7.77,-0.02,26.67
22173,0.3403,-0.0095,0.866,-6.44,7.88,-0.03,26.69
22183,0.3389,-0.0094,0.8607,-6.44,7.8,-0.05,26.69
22194,0.3413,-0.0085,0.8627,-6.5,7.79,-0.06,26.67
22204,0.3373,-0.0077,0.8662,-6.44,7.79,-0.03,26.66
22214,0.3427,-0.0076,0.8647,-6.44,7.88,0.06,26.67
22224,0.3409,-0.0082,0.8651,-6.29,7.86,0.06,26.67
22234,0.3412,-0.0078,0.8634,-6.56,7.8,0.0,26.66
22244,0.3386,-0.0087,0.8635,-6.5,7.83,-0.06,26.66
22254,0.3397,-0.0107,0.8635,-6.49,7.85,0.0,26.68
22264,0.3392,-0.0096,0.8627,-6.47,7.85,0.14,26.67
22274,0.3427,-0.0059,0.8638,-6.52,7.82,0.0,26.68
22284,0.3413,-0.0081,0.8629,-6.5,7.76,-0.08,26.68
22294,0.342,-0.0085,0.8621,-6.55,7.8,-0.02,26.69
22304,0.3424,-0.0088,0.8627,-6.44,7.85,-0.06,26.68
22314,0.3416,-0.0072,0.8622,-6.49,7.8,-0.02,26.7
22324,0.3392,-0.0106,0.8676,-6.41,7.77,0.02,26.69
22334,0.3394,-0.0088,0.8663,-6.43,7.8,0.03,26.69
22344,0.3392,-0.0088,0.8627,-6.46,7.89,-0.02,26.67
22354,0.3408,-0.0063,0.859,-6.66,7.85,0.03,26.69
22364,0.3408,-0.0078,0.8572,-6.64,7.8,-0.03,26.69
22374,0.3419,-0.0093,0.8586,-6.47,7.77,-0.05,26.7
22384,0.3405,-0.0089,0.8605,-6.44,7.83,-0.06,26.67
22394,0.338,-0.0117,0.8633,-6.5,7.86,-0.08,26.68
22404,0.3391,-0.01,0.8622,-6.43,7.82,-0.03,26.69
22414,0.3411,-0.011,0.8647,-6.49,7.97,0.05,26.68
22424,0.3402,-0.0078,0.8591,-6.5,7.85,-0.02,26.68
22434,0.3422,-0.0077,0.8612,-6.46,7.86,0.0,26.69
22444,0.3409,-0.0095,0.8619,-6.46,7.88,0.02,26.68
22454,0.3391,-0.0089,0.8662,-6.41,7.88,-0.06,26.71
22464,0.3379,-0.0081,0.8619,-6.52,7.92,-0.02,26.71
22474,0.3406,-0.0083,0.8639,-6.46,7.89,-0.02,26.69
22484,0.3391,-0.0046,0.8654,-6.43,7.79,-0.03,26.67
22494,0.3407,-0.0103,0.8619,-6.46,7.85,-0.11,26.68
22504,0.3419,-0.0078,0.863,-6.46,7.88,-0.02,26.68
22514,0.3391,-0.0104,0.8629,-6.46,7.83,-0.02,26.7
22524,0.3398,-0.01,0.863,-6.49,7.85,-0.17,26.71
22534,0.3407,-0.0101,0.8658,-6.46,7.79,-0.08,26.67
22544,0.34,-0.0098,0.864,-6.56,7.88,0.06,26.68
22554,0.3403,-0.0084,0.8602,-6.52,7.85,0.0,26.68
22564,0.3384,-0.0074,0.8625,-6.52,7.79,0.02,26.68
22574,0.3414,-0.0094,0.8625,-6.46,7.77,0.03,26.67
22584,0.3416,-0.0096,0.8628,-6.44,7.89,0.0,26.69
22594,0.3409,-0.0083,0.8617,-6.41,7.86,-0.02,26.67
22604,0.3394,-0.0077,0.8632,-6.47,7.89,0.0,26.68
22614,0.3391,-0.0101,0.8627,-6.47,7.92,0.02,26.7
22624,0.3414,-0.0098,0.8633,-6.52,7.77,-0.02,26.68
22634,0.3413,-0.007,0.8641,-6.44,7.86,-0.02,26.67
22645,0.339,-0.0079,0.8619,-6.46,7.79,0.0,26.69
22655,0.3412,-0.0105,0.8643,-6.47,7.88,0.0,26.67
22665,0.34,-0.0096,0.8625,-6.46,7.91,-0.12,26.67
22675,0.3395,-0.0077,0.8644,-6.53,7.86,-0.05,26.71
22685,0.3418,-0.01,0.8615,-6.41,7.83,0.09,26.71
22695,0.3423,-0.0101,0.8633,-6.47,7.79,0.09,26.73
22705,0.3402,-0.0082,0.8638,-6.34,7.82,0.02,26.7
22715,0.3401,-0.0094,0.8636,-6.53,7.86,-0.06,26.7
22725,0.3419,-0.0071,0.8599,-6.49,7.88,-0.06,26.69
22735,0.3378,-0.0088,0.8615,-6.47,7.86,0.06,26.68
22745,0.3376,-0.0103,0.8646,-6.49,7.94,-0.08,26.69
22755,0.3386,-0.0106,0.8632,-6.53,7.89,0.0,26.67
22765,0.3395,-0.0098,0.8595,-6.5,7.8,-0.05,26.68
22775,0.337,-0.0096,0.8588,-6.47,7.86,0.0,26.69
22785,0.3395,-0.0079,0.8623,-6.52,7.76,-0.09,26.68
22795,0.3413,-0.0085,0.8629,-6.44,7.8,-0.03,26.69
22806,0.3396,-0.0087,0.8618,-6.46,7.79,-0.02,26.69
22816,0.3407,-0.0088,0.8641,-6.49,7.88,0.05,26.69
22829,0.3394,-0.0077,0.8636,-6.41,7.82,0.06,26.68
22839,0.342,-0.0096,0.8594,-6.49,7.85,-0.06,26.7
22851,0.3394,-0.0071,0.8636,-6.44,7.77,-0.02,26.69
22861,0.3402,-0.0106,0.8597,-6.41,7.83,-0.06,26.7
22871,0.3396,-0.0105,0.8656,-6.38,7.83,-0.03,26.69
22881,0.343,-0.0101,0.8599,-6.53,7.86,0.09,26.66
22891,0.3427,-0.0121,0.8621,-6.44,7.92,0.02,26.68
22901,0.3407,-0.0084,0.8627,-6.44,7.83,-0.02,26.69
22911,0.3417,-0.0071,0.8619,-6.46,7.8,-0.03,26.68
22921,0.34,-0.0111,0.8627,-6.4,7.88,-0.09,26.69
22931,0.3407,-0.0079,0.8629,-6.44,7.94,0.03,26.71
22941,0.3406,-0.009,0.8616,-6.5,7.85,-0.03,26.71
22951,0.3392,-0.0077,0.8656,-6.41,7.89,0.0,26.69
22961,0.3411,-0.0066,0.8604,-6.49,7.89,0.0,26.72
22971,0.3395,-0.0106,0.8619,-6.5,7.83,-0.08,26.7
22981,0.3407,-0.0093,0.8594,-6.53,7.85,-0.09,26.69
22991,0.3405,-0.0093,0.8594,-6.52,7.76,-0.05,26.69
23001,0.3414,-0.0098,0.8634,-6.55,7.94,-0.05,26.68
23011,0.3427,-0.0089,0.8602,-6.5,7.91,0.0,26.68
23021,0.3387,-0.0103,0.8608,-6.53,7.86,-0.02,26.67
23031,0.3397,-0.0078,0.8647,-6.47,7.82,-0.15,26.68
23041,0.3391,-0.0095,0.8635,-6.49,7.89,-0.08,26.69
23051,0.3397,-0.0077,0.8668,-6.44,7.74,-0.09,26.7
23061,0.3386,-0.0093,0.86,-6.38,7.8,-0.09,26.69
23071,0.3392,-0.0109,0.8638,-6.44,7.89,-0.08,26.69
23082,0.3374,-0.0065,0.8628,-6.46,7.83,-0.05,26.7
23092,0.3396,-0.0098,0.8655,-6.46,7.92,-0.09,26.68
23102,0.3368,-0.009,0.8652,-6.46,7.88,-0.02,26.69
23112,0.3397,-0.0061,0.8655,-6.38,7.82,-0.02,26.72
23122,0.3402,-0.0084,0.8635,-6.41,7.92,-0.11,26.71
23132,0.3392,-0.0098,0.8645,-6.49,7.77,-0.09,26.73
23142,0.3396,-0.0074,0.8647,-6.44,7.79,-0.09,26.72
23152,0.3398,-0.0089,0.8652,-6.47,7.83,-0.03,26.71
23162,0.3418,-0.0099,0.8671,-6.37,7.88,0.0,26.7
23172,0.3397,-0.0103,0.8646,-6.43,7.88,0.08,26.66
23182,0.3401,-0.0071,0.8627,-6.46,7.86,-0.02,26.67
23192,0.3423,-0.0057,0.8641,-6.35,7.82,-0.05,26.67
23202,0.3398,-0.0085,0.861,-6.47,7.79,0.02,26.68
23212,0.3405,-0.0111,0.8623,-6.49,7.8,0.0,26.7
23222,0.3402,-0.0071,0.8616,-6.52,7.88,0.02,26.67
23232,0.3395,-0.0096,0.8594,-6.5,7.85,0.02,26.69
23242,0.3395,-0.0077,0.86,-6.46,7.86,-0.03,26.7
23252,0.3409,-0.0093,0.8629,-6.47,7.88,-0.06,26.71
23262,0.3412,-0.0087,0.8616,-6.52,7.86,-0.08,26.68
23272,0.3425,-0.0076,0.8607,-6.53,7.83,0.02,26.68
23282,0.3397,-0.0095,0.8632,-6.49,7.86,0.0,26.67
23292,0.3389,-0.0092,0.863,-6.5,7.89,0.06,26.68
23302,0.342,-0.0081,0.8649,-6.4,7.83,0.0,26.69
23312,0.3406,-0.0104,0.8605,-6.5,7.92,0.11,26.68
23322,0.3397,-0.0035,0.865,-6.5,7.86,-0.05,26.68
23332,0.3395,-0.0085,0.864,-6.49,7.83,-0.05,26.69
23342,0.3397,-0.0114,0.8671,-6.43,7.79,0.0,26.69
23352,0.3381,-0.0056,0.8646,-6.44,7.83,-0.05,26.69
23362,0.3423,-0.0085,0.8612,-6.49,7.76,-0.03,26.7
23372,0.3407,-0.0111,0.8618,-6.5,7.91,-0.03,26.68
23382,0.339,-0.0079,0.8635,-6.5,7.82,-0.06,26.72
23392,0.3395,-0.0095,0.8625,-6.44,7.83,-0.08,26.72
23402,0.3427,-0.0079,0.86,-6.46,7.85,-0.08,26.7
23412,0.3385,-0.0076,0.8624,-6.46,7.86,-0.08,26.69
23422,0.3392,-0.0114,0.8667,-6.47,7.77,0.02,26.69
23432,0.3392,-0.0094,0.8604,-6.44,7.76,-0.06,26.69
23442,0.3401,-0.0046,0.8632,-6.53,7.89,-0.05,26.67
23452,0.3408,-0.0099,0.8632,-6.53,7.85,-0.06,26.69
23462,0.3413,-0.0099,0.8621,-6.47,7.86,0.0,26.68
23472,0.3405,-0.0098,0.859,-6.44,7.89,-0.05,26.69
23482,0.3386,-0.0105,0.8663,-6.49,7.86,-0.08,26.67
23492,0.3405,-0.0103,0.8668,-6.4,7.76,-0.06,26.67
23502,0.3401,-0.0072,0.8595,-6.47,7.82,0.02,26.7
23512,0.337,-0.0101,0.8632,-6.52,7.98,-0.03,26.69
23522,0.338,-0.0074,0.8632,-6.46,7.86,-0.05,26.72
23532,0.3435,-0.0088,0.8619,-6.4,7.79,0.06,26.7
23542,0.3413,-0.0079,0.8665,-6.43,7.85,-0.03,26.68
23552,0.3386,-0.0079,0.863,-6.41,7.85,0.0,26.72
23562,0.3409,-0.0081,0.8622,-6.47,7.76,-0.02,26.69
23572,0.3429,-0.0116,0.8586,-6.6,7.79,0.0,26.67
23582,0.3396,-0.0087,0.8612,-6.47,7.82,-0.05,26.69
23592,0.3389,-0.0096,0.8629,-6.38,7.76,-0.03,26.69
23602,0.3408,-0.0071,0.8619,-6.46,7.79,0.05,26.68
23612,0.337,-0.0083,0.863,-6.46,7.89,0.03,26.7
23622,0.3395,-0.0081,0.8634,-6.5,7.86,-0.02,26.71
23632,0.3381,-0.0087,0.859,-6.46,7.91,-0.06,26.71
23642,0.3397,-0.0116,0.8655,-6.52,7.83,0.02,26.69
23652,0.3397,-0.009,0.863,-6.5,7.76,0.02,26.71
23662,0.3402,-0.0071,0.8635,-6.5,7.8,0.06,26.69
23672,0.343,-0.0082,0.8667,-6.53,7.77,-0.05,26.68
23682,0.3407,-0.0088,0.8602,-6.47,7.85,-0.03,26.68
23692,0.3405,-0.0076,0.863,-6.44,7.88,-0.03,26.69
23702,0.338,-0.0068,0.8634,-6.5,7.83,-0.06,26.69
23712,0.3402,-0.0105,0.8623,-6.46,7.83,-0.03,26.67
23722,0.3389,-0.0088,0.863,-6.49,7.74,0.02,26.69
23732,0.3392,-0.011,0.8646,-6.49,7.74,-0.03,26.71
23742,0.3383,-0.0073,0.8607,-6.5,7.86,0.02,26.7
23752,0.3402,-0.009,0.8652,-6.55,7.79,-0.02,26.69
23762,0.3413,-0.0095,0.8649,-6.41,7.86,-0.02,26.72
23773,0.3389,-0.0096,0.8629,-6.49,7.8,-0.02,26.72
23783,0.3416,-0.0117,0.8636,-6.49,7.8,-0.09,26.71
23793,0.3398,-0.0065,0.8633,-6.52,7.89,0.03,26.72
23803,0.3402,-0.0085,0.8628,-6.58,7.92,0.05,26.7
23813,0.3387,-0.0066,0.8644,-6.46,7.88,-0.02,26.72
23823,0.3401,-0.0088,0.8629,-6.47,7.86,-0.09,26.69
23833,0.3422,-0.0114,0.8658,-6.52,7.86,0.02,26.71
23843,0.3394,-0.0071,0.86,-6.6,7.83,0.0,26.71
23853,0.3368,-0.0089,0.863,-6.46,7.82,0.0,26.69
23863,0.3395,-0.0094,0.8619,-6.47,7.8,0.05,26.68
23873,0.3379,-0.0084,0.8618,-6.47,7.86,-0.02,26.69
23883,0.3457,-0.0078,0.8621,-6.55,7.82,-0.05,26.72
23893,0.3394,-0.0099,0.8619,-6.5,7.89,0.09,26.69
23903,0.342,-0.0074,0.8645,-6.49,7.83,-0.02,26.69
23913,0.3414,-0.0096,0.8629,-6.5,7.8,-0.09,26.68
23923,0.3384,-0.0079,0.8608,-6.46,7.77,0.0,26.68
23933,0.3381,-0.007,0.8657,-6.5,7.91,-0.02,26.71
23943,0.3396,-0.0096,0.865,-6.52,7.86,-0.03,26.7
23953,0.3409,-0.011,0.8654,-6.53,7.92,0.02,26.7
23963,0.3391,-0.0078,0.8644,-6.44,7.82,-0.09,26.7
23973,0.342,-0.0087,0.8645,-6.47,7.82,0.03,26.7
23983,0.3391,-0.0103,0.8606,-6.49,7.83,-0.02,26.69
23993,0.3416,-0.0059,0.8629,-6.55,7.89,-0.05,26.68
24003,0.3416,-0.0077,0.8618,-6.43,7.86,-0.06,26.71
24013,0.338,-0.0066,0.8591,-6.44,7.91,-0.11,26.7
24023,0.3416,-0.0088,0.8621,-6.49,7.91,-0.05,26.69
24033,0.3412,-0.0079,0.8677,-6.37,7.85,0.09,26.69
24043,0.3406,-0.0073,0.8627,-6.34,7.88,-0.05,26.72
24053,0.3397,-0.0085,0.8651,-6.46,7.85,0.02,26.71
24063,0.3392,-0.0115,0.8661,-6.46,7.89,-0.06,26.72
24073,0.34,-0.0088,0.8643,-6.46,7.83,-0.05,26.7
24083,0.3418,-0.0101,0.8654,-6.43,7.77,-0.02,26.72
24093,0.3378,-0.0085,0.8663,-6.53,7.77,-0.08,26.7
24103,0.3408,-0.0112,0.8629,-6.49,7.79,-0.06,26.71
24113,0.3416,-0.0088,0.8649,-6.43,7.85,0.02,26.69
24123,0.3412,-0.0078,0.8629,-6.47,7.88,0.02,26.7
24133,0.3407,-0.0099,0.8611,-6.55,7.91,-0.05,26.72
24143,0.3409,-0.0088,0.8643,-6.47,7.95,-0.02,26.7
24153,0.3402,-0.0083,0.8624,-6.5,7.91,-0.05,26.69
24163,0.3386,-0.009,0.8611,-6.37,7.82,0.02,26.69
24173,0.3416,-0.0096,0.8578,-6.46,7.8,-0.03,26.72
24183,0.3439,-0.0103,0.864,-6.46,7.8,-0.02,26.7
24193,0.3389,-0.0116,0.8606,-6.55,7.92,-0.06,26.7
24203,0.3392,-0.0099,0.8624,-6.56,7.85,0.02,26.67
24213,0.3395,-0.0083,0.8607,-6.47,7.89,-0.02,26.71
24223,0.3402,-0.009,0.8616,-6.41,7.89,-0.12,26.71
24233,0.3414,-0.0104,0.8619,-6.38,7.89,-0.02,26.71
24243,0.3412,-0.0101,0.8636,-6.41,7.88,-0.03,26.69
24253,0.3396,-0.0088,0.865,-6.5,7.83,-0.02,26.71
24263,0.3368,-0.0085,0.8611,-6.58,7.77,-0.05,26.68
24273,0.3431,-0.0106,0.8617,-6.5,7.83,-0.03,26.71
24283,0.3401,-0.0118,0.861,-6.47,7.83,-0.03,26.73
24294,0.3413,-0.0117,0.8668,-6.52,7.88,-0.06,26.71
24304,0.3389,-0.0076,0.8687,-6.47,7.82,-0.03,26.72
24314,0.3418,-0.0092,0.8619,-6.43,7.82,-0.02,26.7
24324,0.3417,-0.0088,0.8635,-6.47,7.83,0.08,26.69
24334,0.34,-0.0072,0.8611,-6.41,7.94,0.0,26.69
24344,0.3411,-0.0066,0.8705,-6.56,7.82,-0.02,26.72
24354,0.3392,-0.0094,0.8618,-6.44,7.88,-0.06,26.69
24364,0.3403,-0.0082,0.861,-6.47,7.8,-0.08,26.7
24374,0.3389,-0.0079,0.8627,-6.52,7.85,-0.05,26.74
24384,0.342,-0.0083,0.8658,-6.55,7.82,0.03,26.72
24394,0.3411,-0.0096,0.8679,-6.4,7.83,-0.06,26.72
24404,0.3413,-0.01,0.8621,-6.43,7.79,0.02,26.72
24414,0.3383,-0.0089,0.8632,-6.5,7.86,-0.05,26.71
24424,0.3408,-0.01,0.8617,-6.38,7.74,0.03,26.72
24434,0.3397,-0.0093,0.8584,-6.5,7.8,0.02,26.73
24444,0.3401,-0.01,0.8617,-6.41,7.79,0.0,26.73
24454,0.3397,-0.0092,0.8625,-6.41,7.88,-0.03,26.68
24464,0.34,-0.011,0.8612,-6.5,7.85,-0.05,26.73
24474,0.34,-0.0092,0.8623,-6.46,7.76,-0.02,26.71
24484,0.3397,-0.0084,0.8608,-6.49,7.82,0.0,26.71
24494,0.3398,-0.0104,0.8638,-6.47,7.85,-0.03,26.71
24504,0.3395,-0.0063,0.8666,-6.44,7.83,-0.02,26.71
24514,0.3413,-0.01,0.8635,-6.46,7.82,0.02,26.73
24524,0.337,-0.0099,0.8594,-6.44,7.85,-0.12,26.7
24534,0.3395,-0.0076,0.8635,-6.44,7.85,-0.06,26.72
24544,0.3401,-0.0094,0.8638,-6.41,7.83,-0.08,26.72
24554,0.3419,-0.0101,0.864,-6.6,7.76,-0.03,26.7
24564,0.3389,-0.0122,0.8654,-6.53,7.91,0.03,26.7
24574,0.3394,-0.0109,0.8638,-6.43,7.8,-0.03,26.73
24586,0.3403,-0.0105,0.8644,-6.34,7.85,-0.03,26.7
24596,0.3425,-0.0101,0.8621,-6.46,7.86,-0.03,26.7
24606,0.3405,-0.0074,0.8651,-6.53,7.85,-0.03,26.72
24616,0.3417,-0.009,0.8604,-6.49,7.83,0.08,26.73
24629,0.3397,-0.0115,0.8632,-6.52,7.85,-0.05,26.73
24639,0.3381,-0.011,0.8628,-6.52,7.85,-0.05,26.73
24649,0.3394,-0.0087,0.8655,-6.41,7.86,-0.09,26.74
24659,0.3408,-0.0103,0.8668,-6.44,7.77,-0.03,26.72
24669,0.3383,-0.0098,0.8629,-6.5,7.83,-0.05,26.71
24679,0.3407,-0.0105,0.861,-6.46,7.86,-0.11,26.71
24689,0.3397,-0.0112,0.8652,-6.5,7.85,-0.05,26.72
24699,0.3414,-0.0098,0.8645,-6.38,7.85,-0.11,26.73
24709,0.3409,-0.0078,0.8628,-6.55,7.94,-0.09,26.75
24719,0.3398,-0.0094,0.8628,-6.49,7.86,0.02,26.72
24729,0.3392,-0.0099,0.863,-6.47,7.85,-0.06,26.73
24739,0.3408,-0.0101,0.8639,-6.35,7.79,0.09,26.73
24749,0.3419,-0.0074,0.8599,-6.47,7.82,-0.02,26.7
24759,0.34,-0.0056,0.8636,-6.49,7.85,-0.05,26.7
24769,0.3411,-0.0085,0.8639,-6.4,7.86,-0.05,26.73
24779,0.3396,-0.011,0.8647,-6.46,7.79,-0.02,26.73
24791,0.3379,-0.0107,0.8623,-6.49,7.92,0.05,26.7
24801,0.3396,-0.0089,0.8602,-6.55,7.77,0.0,26.72
24811,0.3392,-0.0089,0.8606,-6.49,7.82,-0.03,26.72
24821,0.34,-0.0094,0.8638,-6.49,7.89,-0.03,26.73
24831,0.3395,-0.0073,0.8629,-6.43,7.86,-0.06,26.72
24841,0.3397,-0.0076,0.8629,-6.4,7.82,-0.05,26.72
24851,0.34,-0.0074,0.8662,-6.41,7.88,-0.03,26.74
24861,0.3396,-0.0089,0.8632,-6.49,7.82,-0.02,26.72
24871,0.3378,-0.0101,0.8644,-6.44,7.91,-0.08,26.74
24882,0.3451,-0.0092,0.8632,-6.49,7.83,-0.06,26.71
24892,0.3362,-0.009,0.8628,-6.53,7.89,-0.05,26.72
24902,0.3409,-0.01,0.8613,-6.5,7.86,-0.02,26.73
24912,0.3392,-0.0082,0.8617,-6.46,7.91,-0.06,26.74
24922,0.3401,-0.0104,0.8575,-6.52,7.89,-0.05,26.74
24932,0.3372,-0.0117,0.8615,-6.56,7.82,-0.03,26.72
24942,0.3398,-0.0107,0.8636,-6.5,7.82,0.08,26.71
24952,0.34,-0.0062,0.8656,-6.44,7.79,-0.08,26.72
24962,0.3414,-0.0085,0.8624,-6.49,7.85,0.03,26.72
24972,0.3386,-0.006,0.8638,-6.4,7.86,-0.05,26.74
24982,0.3401,-0.0073,0.8687,-6.38,7.83,0.02,26.73
24992,0.3428,-0.0059,0.8619,-6.58,7.74,0.03,26.75
25002,0.3397,-0.0063,0.863,-6.52,7.8,-0.09,26.72
25012,0.3407,-0.0094,0.86,-6.49,7.79,0.0,26.73
25022,0.3402,-0.0089,0.8602,-6.47,7.88,-0.08,26.73
25032,0.342,-0.0095,0.8651,-6.46,7.77,-0.05,26.74
25042,0.338,-0.0092,0.8629,-6.47,7.83,-0.05,26.73
25052,0.3434,-0.0083,0.8646,-6.44,7.82,-0.09,26.74
25062,0.3428,-0.0081,0.863,-6.46,7.82,0.08,26.71
25072,0.3407,-0.0099,0.8618,-6.44,7.95,-0.03,26.72
25082,0.3402,-0.0106,0.8619,-6.49,7.85,-0.11,26.72
25093,0.34,-0.0085,0.8633,-6.43,7.8,-0.02,26.72
25103,0.3401,-0.0094,0.8607,-6.38,7.73,0.08,26.72
25113,0.3414,-0.0096,0.8604,-6.46,7.89,-0.02,26.72
25123,0.3389,-0.0092,0.8628,-6.41,7.83,-0.02,26.72
25133,0.3385,-0.0073,0.8638,-6.55,7.77,0.02,26.73
25143,0.3387,-0.0074,0.864,-6.47,7.85,0.05,26.72
25153,0.3389,-0.0087,0.8621,-6.47,7.85,-0.09,26.72
25163,0.3392,-0.006,0.8651,-6.47,7.86,-0.05,26.72
25173,0.3392,-0.0048,0.8635,-6.47,7.85,-0.02,26.72
25183,0.3394,-0.0067,0.8629,-6.52,7.8,-0.03,26.72
25193,0.3407,-0.0072,0.8635,-6.52,7.8,-0.06,26.73
25203,0.3417,-0.0095,0.8604,-6.56,7.86,-0.08,26.73
25213,0.3418,-0.0078,0.8619,-6.4,7.85,-0.05,26.75
25223,0.3416,-0.0079,0.8585,-6.46,7.85,-0.14,26.74
25233,0.339,-0.0105,0.8639,-6.44,7.82,-0.08,26.73
25243,0.3396,-0.0074,0.8633,-6.47,7.88,0.02,26.72
25253,0.3417,-0.0096,0.8668,-6.5,7.83,0.0,26.72
25263,0.342,-0.0089,0.8607,-6.49,7.91,-0.05,26.72
25273,0.3392,-0.0087,0.8636,-6.53,7.89,0.03,26.73
25283,0.3429,-0.01,0.8649,-6.58,7.8,0.0,26.74
25301,0.3384,-0.0074,0.8646,-6.47,7.88,-0.08,26.72
25311,0.3391,-0.0078,0.8612,-6.52,7.82,-0.08,26.72
25321,0.34,-0.0082,0.8593,-6.52,7.77,-0.03,26.73
25331,0.3411,-0.0068,0.861,-6.41,7.79,-0.02,26.75
25341,0.3425,-0.0071,0.87,-6.37,7.88,0.02,26.73
25351,0.3401,-0.0087,0.865,-6.5,7.83,-0.08,26.73
25361,0.3396,-0.0073,0.8613,-6.49,7.86,-0.02,26.71
25371,0.3394,-0.0094,0.8593,-6.46,7.88,-0.08,26.72
25381,0.3406,-0.0099,0.8594,-6.56,7.91,-0.06,26.71
25391,0.3408,-0.0089,0.8635,-6.41,7.8,-0.05,26.74
25401,0.3431,-0.0079,0.8656,-6.5,7.85,0.05,26.73
25411,0.3387,-0.0083,0.8658,-6.53,7.83,-0.08,26.75
25421,0.3389,-0.0078,0.8644,-6.44,7.89,-0.08,26.74
25431,0.3416,-0.0083,0.8612,-6.37,7.86,-0.06,26.75
25441,0.3414,-0.0098,0.8607,-6.55,7.83,-0.05,26.72
25451,0.3422,-0.0085,0.8663,-6.43,7.8,-0.08,26.72
25461,0.3434,-0.0071,0.8608,-6.5,7.79,-0.06,26.75
25471,0.3402,-0.0078,0.863,-6.52,7.85,0.0,26.74
25481,0.34,-0.0099,0.861,-6.56,7.85,-0.03,26.72
25491,0.3406,-0.0094,0.864,-6.5,7.83,-0.09,26.74
25501,0.3423,-0.0094,0.8617,-6.47,7.77,-0.02,26.72
25511,0.3423,-0.01,0.8656,-6.44,7.83,0.05,26.71
25521,0.3402,-0.0074,0.8594,-6.52,7.85,-0.02,26.74
25531,0.3386,-0.0079,0.8627,-6.5,7.85,-0.05,26.73
25541,0.34,-0.0085,0.8632,-6.49,7.8,-0.05,26.73
25551,0.3434,-0.0111,0.861,-6.35,7.82,-0.02,26.75
25561,0.3387,-0.007,0.8645,-6.52,7.79,0.03,26.73
25571,0.3383,-0.011,0.8596,-6.44,7.82,0.05,26.73
25581,0.3398,-0.0099,0.8622,-6.41,7.89,-0.06,26.71
25591,0.3384,-0.01,0.8616,-6.5,7.91,0.02,26.72
25601,0.3392,-0.0101,0.8595,-6.53,7.85,0.06,26.72
25611,0.3409,-0.0093,0.8618,-6.43,7.85,-0.03,26.72
25621,0.3413,-0.0088,0.8644,-6.56,7.83,0.09,26.73
25631,0.3424,-0.0101,0.8618,-6.44,7.88,0.08,26.73
25641,0.3376,-0.0112,0.8661,-6.46,7.8,-0.03,26.74
25651,0.3396,-0.0082,0.8616,-6.46,7.74,-0.05,26.72
25661,0.34,-0.0104,0.8634,-6.46,7.88,-0.05,26.73
25671,0.3405,-0.0093,0.8612,-6.41,7.85,0.0,26.72
25681,0.3435,-0.0095,0.8618,-6.49,7.82,0.02,26.72
25691,0.34,-0.009,0.8624,-6.55,7.83,0.0,26.75
25701,0.3406,-0.0066,0.8652,-6.46,7.8,-0.06,26.72
25711,0.3411,-0.0071,0.8657,-6.53,7.86,-0.09,26.73
25721,0.3396,-0.0084,0.8652,-6.55,7.89,0.02,26.76
25732,0.3374,-0.009,0.8615,-6.47,7.83,-0.03,26.74
25742,0.3384,-0.0111,0.8612,-6.41,7.86,-0.05,26.71
25752,0.3381,-0.0092,0.8638,-6.53,7.77,-0.06,26.73
25762,0.3401,-0.0087,0.8639,-6.44,7.77,-0.08,26.74
25772,0.3422,-0.0095,0.8621,-6.43,7.82,-0.03,26.72
25782,0.3394,-0.0094,0.8641,-6.41,7.77,-0.02,26.74
25792,0.3406,-0.0079,0.8638,-6.44,7.8,-0.06,26.75
25802,0.3398,-0.009,0.8643,-6.5,7.89,-0.05,26.72
25812,0.3413,-0.0103,0.8577,-6.52,7.95,-0.05,26.72
25822,0.3389,-0.0079,0.8583,-6.46,7.83,-0.05,26.7
25832,0.3392,-0.0083,0.8639,-6.46,7.79,-0.02,26.72
25842,0.3414,-0.0083,0.8621,-6.49,7.86,-0.06,26.7
25852,0.3413,-0.0098,0.8618,-6.49,7.85,0.05,26.72
25862,0.3402,-0.0089,0.86,-6.44,7.82,0.03,26.73
25872,0.3383,-0.011,0.8638,-6.52,7.82,-0.06,26.74
25882,0.3398,-0.0076,0.8597,-6.55,7.74,-0.06,26.72
25892,0.3409,-0.0085,0.8643,-6.69,7.89,-0.03,26.73
25902,0.3391,-0.0098,0.865,-6.38,7.85,-0.05,26.72
25912,0.343,-0.009,0.8639,-6.43,7.82,-0.11,26.71
25922,0.3398,-0.0107,0.8685,-6.53,7.86,-0.02,26.72
25932,0.34,-0.0098,0.8646,-6.43,7.83,0.08,26.73
25942,0.3392,-0.009,0.8662,-6.47,7.82,-0.06,26.73
25952,0.3407,-0.0093,0.8625,-6.52,7.85,-0.06,26.74
25962,0.3406,-0.0101,0.8641,-6.52,7.89,0.03,26.73
25972,0.3395,-0.0087,0.8627,-6.58,7.86,0.05,26.72
25982,0.3409,-0.0073,0.8643,-6.43,7.85,-0.02,26.75
25992,0.3385,-0.0085,0.8619,-6.44,7.85,-0.06,26.74
26002,0.3398,-0.0096,0.8651,-6.43,7.83,0.0,26.76
26012,0.339,-0.0078,0.8643,-6.43,7.85,-0.05,26.76
26022,0.3403,-0.0073,0.8624,-6.5,7.82,-0.08,26.76
26032,0.3381,-0.0098,0.8634,-6.43,7.8,0.03,26.73
26042,0.3405,-0.0084,0.8618,-6.46,7.85,-0.05,26.74
26052,0.3401,-0.006,0.864,-6.44,7.86,-0.09,26.74
26062,0.339,-0.0079,0.8655,-6.38,7.83,-0.05,26.71
26072,0.3417,-0.0082,0.8629,-6.49,7.86,-0.05,26.71
26082,0.3395,-0.011,0.8634,-6.43,7.86,0.02,26.74
26092,0.3409,-0.0093,0.8638,-6.56,7.88,-0.11,26.73
26102,0.3422,-0.0101,0.8638,-6.4,7.85,-0.03,26.75
26112,0.337,-0.0079,0.8622,-6.46,7.89,-0.05,26.73
26122,0.3398,-0.0082,0.8676,-6.44,7.88,-0.02,26.74
26132,0.3398,-0.0105,0.8629,-6.46,7.86,-0.09,26.74
26142,0.339,-0.0089,0.8639,-6.46,7.86,-0.02,26.74
26152,0.3383,-0.011,0.8671,-6.47,7.86,-0.11,26.75
26162,0.3438,-0.01,0.8621,-6.55,7.91,-0.03,26.7
26172,0.3396,-0.0083,0.864,-6.41,7.89,-0.02,26.74
26182,0.3413,-0.0063,0.8662,-6.5,7.79,0.0,26.74
26192,0.3405,-0.0076,0.8644,-6.41,7.76,0.03,26.74
26202,0.3417,-0.0085,0.8629,-6.52,7.77,-0.03,26.73
26212,0.338,-0.0067,0.8635,-6.46,7.85,-0.08,26.73
26222,0.342,-0.0098,0.8641,-6.41,7.82,0.02,26.74
26232,0.34,-0.0096,0.8583,-6.44,7.79,-0.09,26.73
26242,0.3414,-0.0098,0.8579,-6.44,7.86,0.02,26.75
26252,0.3423,-0.0073,0.8625,-6.49,7.86,-0.03,26.74
26262,0.34,-0.0078,0.8607,-6.4,7.79,-0.02,26.77
26272,0.3369,-0.0099,0.8649,-6.55,7.85,0.0,26.74
26282,0.3394,-0.0066,0.8621,-6.44,7.95,-0.02,26.73
26293,0.34,-0.0078,0.8657,-6.35,7.85,-0.08,26.75
26303,0.3418,-0.0101,0.8591,-6.32,7.79,0.03,26.75
26313,0.3414,-0.01,0.8624,-6.38,7.88,-0.06,26.72
26323,0.3412,-0.0078,0.8621,-6.43,7.83,0.0,26.74
26333,0.3376,-0.0079,0.8615,-6.43,7.92,-0.03,26.74
26343,0.3425,-0.0114,0.8645,-6.5,7.85,-0.05,26.73
26353,0.3424,-0.0112,0.8627,-6.44,7.89,0.03,26.75
26363,0.3414,-0.0089,0.8586,-6.5,7.88,0.0,26.74
26373,0.337,-0.01,0.8658,-6.55,7.83,-0.12,26.74
26383,0.3401,-0.0099,0.8638,-6.4,7.86,-0.11,26.74
26393,0.3408,-0.0094,0.8672,-6.52,7.8,0.0,26.73
26403,0.3411,-0.0109,0.8632,-6.58,7.86,-0.09,26.75
26413,0.339,-0.0109,0.8613,-6.49,7.85,-0.05,26.72
26423,0.3409,-0.009,0.8641,-6.58,7.92,0.02,26.74
26433,0.3413,-0.0104,0.8629,-6.43,7.79,-0.11,26.74
26443,0.3403,-0.0103,0.8633,-6.55,7.82,0.02,26.74
26453,0.3407,-0.0089,0.8612,-6.46,7.83,-0.05,26.74
26463,0.3409,-0.0079,0.8619,-6.49,7.83,-0.08,26.73
26473,0.3413,-0.0107,0.8566,-6.41,7.82,-0.03,26.71
26483,0.3408,-0.0084,0.8619,-6.55,7.83,-0.02,26.74
26493,0.3408,-0.0092,0.8655,-6.55,7.82,-0.02,26.71
26503,0.3433,-0.0067,0.8623,-6.52,7.85,-0.02,26.72
26513,0.3405,-0.0081,0.8671,-6.5,7.8,-0.09,26.74
26523,0.3414,-0.009,0.8602,-6.5,7.82,0.0,26.75
26533,0.3406,-0.0084,0.8632,-6.6,7.86,-0.03,26.75
26543,0.339,-0.0084,0.8615,-6.37,7.85,-0.05,26.75
26553,0.3386,-0.0079,0.8601,-6.44,7.86,-0.02,26.71
26563,0.3379,-0.0072,0.8607,-6.55,7.83,-0.08,26.75
26573,0.34,-0.0109,0.8595,-6.56,7.8,-0.05,26.75
26583,0.34,-0.0056,0.863,-6.56,7.76,-0.11,26.74
26593,0.3405,-0.0099,0.8623,-6.44,7.83,0.02,26.74
26604,0.3396,-0.0105,0.866,-6.47,7.83,0.05,26.74
26614,0.3396,-0.0099,0.8622,-6.43,7.86,0.05,26.73
26624,0.3409,-0.0095,0.8636,-6.46,7.85,-0.06,26.73
26634,0.3417,-0.0098,0.8623,-6.43,7.82,0.0,26.75
26644,0.339,-0.0092,0.8636,-6.35,7.79,0.02,26.74
26654,0.3401,-0.0083,0.8634,-6.46,7.83,-0.03,26.73
26664,0.3384,-0.0118,0.8619,-6.5,7.83,-0.06,26.74
26674,0.3444,-0.0112,0.8619,-6.44,7.89,0.0,26.75
26684,0.3375,-0.0093,0.8662,-6.5,7.91,0.02,26.75
26694,0.3406,-0.0104,0.8623,-6.46,7.86,-0.03,26.77
26704,0.3408,-0.0096,0.8611,-6.44,7.86,-0.05,26.73
26714,0.3395,-0.0073,0.861,-6.46,7.86,-0.06,26.74
26724,0.3406,-0.0077,0.863,-6.49,7.77,0.0,26.74
26734,0.3414,-0.011,0.864,-6.52,7.83,0.02,26.71
26744,0.3395,-0.0099,0.8632,-6.49,7.85,0.06,26.74
26754,0.3405,-0.0133,0.8634,-6.43,7.85,-0.03,26.74
26764,0.3395,-0.0068,0.8678,-6.5,7.8,0.08,26.73
26774,0.3417,-0.0088,0.8663,-6.47,7.85,0.02,26.73
26784,0.3396,-0.009,0.865,-6.52,7.88,0.02,26.74
26794,0.3375,-0.0099,0.8615,-6.56,7.82,-0.05,26.76
26804,0.3373,-0.0066,0.8691,-6.43,7.77,0.03,26.73
26814,0.3412,-0.0087,0.8651,-6.43,7.83,-0.03,26.74
26824,0.3411,-0.0096,0.8635,-6.47,7.82,0.0,26.76
26834,0.3422,-0.0087,0.8618,-6.43,7.83,-0.09,26.73
26844,0.3418,-0.0092,0.8668,-6.5,7.69,0.0,26.74
26854,0.3395,-0.0079,0.8624,-6.44,7.82,-0.06,26.74
26864,0.3411,-0.0073,0.8634,-6.41,7.8,0.03,26.77
26874,0.342,-0.0098,0.8663,-6.49,7.89,0.02,26.74
26884,0.3417,-0.0094,0.8622,-6.47,7.83,-0.06,26.74
26894,0.3395,-0.0087,0.865,-6.56,7.82,-0.02,26.73
26904,0.3407,-0.01,0.8627,-6.49,7.83,-0.03,26.71
26914,0.3391,-0.0117,0.8643,-6.53,7.83,-0.02,26.73
26924,0.3423,-0.0083,0.8629,-6.52,7.83,-0.02,26.74
26934,0.3389,-0.0098,0.8632,-6.46,7.86,0.03,26.74
26944,0.3394,-0.0099,0.8628,-6.46,7.82,-0.05,26.74
26954,0.3409,-0.0088,0.8662,-6.41,7.85,-0.05,26.75
26964,0.34,-0.0121,0.8623,-6.43,7.89,-0.02,26.74
26974,0.3435,-0.0096,0.8594,-6.52,7.85,-0.09,26.74
26984,0.338,-0.0094,0.8634,-6.46,7.92,0.05,26.77
26994,0.3407,-0.0099,0.8651,-6.38,7.82,0.0,26.75
27004,0.3416,-0.0092,0.8678,-6.55,7.86,0.03,26.76
27014,0.3394,-0.0095,0.8616,-6.41,7.79,-0.08,26.76
27024,0.3402,-0.0077,0.8651,-6.5,7.82,-0.08,26.73
27034,0.3405,-0.0114,0.8621,-6.44,7.86,-0.03,26.77
27044,0.3373,-0.0095,0.8622,-6.44,7.89,-0.12,26.74
27054,0.3402,-0.0101,0.8591,-6.52,7.89,-0.02,26.73
27064,0.338,-0.0098,0.8647,-6.44,7.82,-0.02,26.73
27074,0.3398,-0.0078,0.8607,-6.37,7.85,-0.03,26.74
27084,0.3386,-0.0089,0.8677,-6.52,7.77,-0.02,26.76
27094,0.3406,-0.0067,0.8656,-6.38,7.85,-0.05,26.76
27104,0.3389,-0.0073,0.8619,-6.52,7.94,-0.05,26.76
27114,0.338,-0.0081,0.8578,-6.56,7.86,0.05,26.72
27124,0.3414,-0.0076,0.8622,-6.52,7.86,-0.03,26.76
27134,0.3402,-0.01,0.8606,-6.41,7.88,-0.03,26.74
27144,0.3397,-0.0103,0.8608,-6.49,7.91,-0.08,26.74
27154,0.339,-0.0105,0.8655,-6.53,7.89,-0.08,26.74
27164,0.343,-0.0081,0.8588,-6.52,7.77,-0.02,26.76
27174,0.3408,-0.01,0.8606,-6.47,7.82,-0.08,26.74
27184,0.3429,-0.0081,0.8639,-6.5,7.77,-0.03,26.74
27194,0.3412,-0.0107,0.8647,-6.53,7.79,0.02,26.75
27204,0.338,-0.0084,0.8636,-6.41,7.82,-0.11,26.75
27214,0.337,-0.0078,0.8611,-6.46,7.88,-0.11,26.74
27224,0.3403,-0.006,0.8624,-6.5,7.91,0.02,26.74
27234,0.3361,-0.0083,0.8593,-6.38,7.83,0.05,26.75
27244,0.3417,-0.01,0.8623,-6.49,7.91,-0.05,26.76
27254,0.3409,-0.0088,0.8636,-6.47,7.83,-0.05,26.76
27264,0.3387,-0.0092,0.8662,-6.47,7.79,-0.03,26.74
27274,0.3372,-0.0055,0.8655,-6.44,7.89,0.05,26.76
27284,0.3389,-0.0099,0.8636,-6.46,7.91,-0.11,26.75
27294,0.3419,-0.009,0.8619,-6.55,7.89,-0.12,26.72
27304,0.3424,-0.0112,0.8579,-6.5,7.83,-0.05,26.74
27314,0.3409,-0.0103,0.8649,-6.46,7.74,-0.03,26.74
27324,0.338,-0.0077,0.8633,-6.38,7.79,-0.03,26.77
27334,0.3397,-0.0099,0.8594,-6.53,7.85,0.02,26.74
27344,0.3402,-0.0118,0.8604,-6.47,7.86,-0.11,26.75
27354,0.3409,-0.01,0.865,-6.49,7.89,-0.03,26.77
27364,0.3428,-0.0105,0.8625,-6.52,7.86,0.0,26.74
27374,0.3356,-0.0114,0.8628,-6.46,7.82,-0.02,26.74
27384,0.3402,-0.0122,0.8656,-6.43,7.8,-0.03,26.77
27394,0.3433,-0.0068,0.8635,-6.49,7.89,-0.08,26.77
27404,0.3417,-0.0073,0.8619,-6.49,7.77,-0.05,26.75
27414,0.3402,-0.0076,0.8615,-6.46,7.8,0.03,26.74
27424,0.3413,-0.01,0.8605,-6.56,7.82,-0.03,26.76
27434,0.342,-0.0084,0.864,-6.5,7.76,-0.02,26.75
27444,0.3389,-0.0098,0.8627,-6.52,7.8,-0.03,26.76
27454,0.338,-0.0085,0.8591,-6.49,7.88,0.02,26.74
27464,0.3381,-0.0105,0.8623,-6.38,7.86,0.03,26.77
27474,0.3389,-0.0072,0.8687,-6.53,7.8,-0.02,26.75
27484,0.3368,-0.0067,0.8632,-6.5,7.82,0.02,26.77
27494,0.3416,-0.0099,0.8689,-6.5,7.8,0.0,26.75
27504,0.342,-0.0088,0.8641,-6.47,7.88,-0.06,26.72
27514,0.3418,-0.009,0.8615,-6.43,7.8,-0.05,26.72
27524,0.342,-0.0107,0.8602,-6.38,7.85,0.02,26.74
27534,0.3403,-0.0078,0.8627,-6.47,7.91,0.03,26.75
27544,0.3434,-0.01,0.8645,-6.43,7.88,-0.05,26.75
27554,0.3397,-0.0104,0.8663,-6.5,7.92,-0.06,26.74
27564,0.3375,-0.0073,0.8621,-6.52,7.82,-0.08,26.76
27574,0.3418,-0.0109,0.8638,-6.5,7.89,-0.02,26.77
