t_ms,accel_x_g,accel_y_g,accel_z_g,gyro_x_dps,gyro_y_dps,gyro_z_dps,imu_temp_c
3291,0.2117,-0.0256,0.8749,-6.52,8.92,-0.06,27.36
3301,0.213,-0.0215,0.8573,-6.56,7.11,0.0,27.38
3312,0.215,-0.0206,0.8531,-6.53,7.11,0.0,27.38
3322,0.2084,-0.0203,0.885,-6.63,7.02,-0.03,27.36
3332,0.2255,-0.0155,0.9119,-6.64,8.23,-0.03,27.37
3342,0.2178,-0.0209,0.9031,-6.55,7.92,-0.08,27.39
3355,0.2319,-0.0209,0.9033,-6.61,7.82,-0.03,27.37
3367,0.2314,-0.0206,0.8998,-6.56,7.42,0.03,27.39
3377,0.2057,-0.0248,0.8918,-6.61,8.78,-0.05,27.37
3393,0.2045,-0.0171,0.9031,-6.64,8.29,-0.11,27.38
3403,0.2323,-0.0121,0.9041,-6.56,7.88,0.02,27.37
3413,0.2008,-0.0255,0.899,-6.61,9.08,-0.02,27.38
3423,0.2179,-0.0219,0.8517,-6.56,8.64,-0.05,27.4
3439,0.1805,-0.0002,0.962,-6.6,8.78,0.09,27.39
3451,0.2305,-0.0374,0.9197,-6.43,15.92,-0.05,27.37
3463,0.2722,-0.0319,0.8574,-6.66,9.48,0.03,27.37
3475,0.2443,-0.0265,0.889,-6.55,4.49,0.0,27.36
3487,0.2227,-0.0203,0.9182,-6.43,5.91,0.0,27.38
3498,0.222,-0.0203,0.9268,-6.53,7.54,-0.14,27.39
3511,0.2264,-0.0188,0.9017,-6.55,6.95,-0.08,27.39
3521,0.2131,-0.0242,0.8999,-6.49,9.13,-0.05,27.35
3535,0.2189,-0.0118,0.8988,-6.52,7.19,0.05,27.38
3547,0.2217,-0.0188,0.9061,-6.61,7.31,-0.05,27.39
3557,0.2136,-0.0225,0.9159,-6.56,8.2,-0.05,27.4
3567,0.2234,-0.024,0.8738,-6.55,8.26,0.0,27.39
3577,0.2091,-0.0231,0.8693,-6.5,7.24,-0.08,27.38
3587,0.215,-0.0256,0.8665,-6.55,7.42,-0.06,27.4
3597,0.1565,0.0096,0.9409,-6.85,9.74,-0.08,27.39
3608,0.3171,-0.0146,0.8257,-6.03,6.82,-0.03,27.39
3619,0.1367,-0.0038,0.9829,-6.79,5.66,-0.06,27.41
3631,0.1794,-0.0228,0.9497,-6.78,16.44,-0.17,27.4
3641,0.2141,-0.028,0.8821,-6.5,3.37,0.03,27.42
3655,0.2351,-0.0242,0.8918,-6.49,4.85,-0.05,27.39
3665,0.1986,-0.0219,0.892,-6.5,11.51,-0.08,27.41
3679,0.2262,-0.0056,0.9059,-6.69,7.71,-0.02,27.41
3691,0.1981,-0.0281,0.933,-6.84,11.08,-0.03,27.41
3701,0.2511,-0.0248,0.8617,-6.4,6.41,-0.08,27.42
3711,0.1875,-0.0228,0.8958,-6.53,10.18,-0.11,27.43
3721,0.241,-0.0237,0.8376,-6.44,5.71,-0.05,27.4
3731,0.1803,-0.0211,0.9104,-6.55,8.5,-0.12,27.4
3741,0.2334,-0.02,0.8901,-6.58,7.45,-0.03,27.4
3751,0.1974,-0.022,0.9244,-6.5,7.97,-0.03,27.38
3763,0.2039,-0.0156,0.9204,-6.5,7.37,-0.02,27.43
3773,0.2192,-0.0182,0.8649,-6.63,8.53,-0.03,27.4
3787,0.2065,-0.0239,0.9005,-6.6,8.61,-0.03,27.42
3797,0.2081,-0.0228,0.8717,-6.56,8.66,0.03,27.42
3811,0.2184,-0.0179,0.8925,-6.5,8.21,0.05,27.42
3823,0.2211,-0.02,0.8978,-6.53,8.27,-0.03,27.41
3833,0.217,-0.0231,0.8798,-6.55,8.75,-0.12,27.4
3847,0.2288,-0.0211,0.9064,-6.63,7.19,0.02,27.42
3859,0.1975,-0.0227,0.9189,-6.58,9.08,-0.11,27.41
3869,0.2261,-0.022,0.8585,-6.6,8.58,-0.02,27.4
3879,0.2046,-0.0237,0.8657,-6.58,6.92,-0.09,27.4
3895,0.2106,-0.0232,0.8995,-6.6,9.34,-0.08,27.41
3908,0.2157,-0.0219,0.9171,-6.58,7.95,-0.02,27.43
3918,0.2178,-0.026,0.8719,-6.56,8.67,-0.08,27.42
3928,0.2146,-0.0229,0.8518,-6.41,7.83,-0.02,27.45
3938,0.21,-0.0229,0.8634,-6.53,6.93,-0.02,27.42
3948,0.2053,-0.0184,0.9005,-6.61,8.46,-0.05,27.43
3958,0.2297,-0.0162,0.8992,-6.58,7.07,0.03,27.44
3968,0.2024,-0.0192,0.9126,-6.63,8.7,-0.11,27.43
3978,0.2197,-0.0262,0.8636,-6.5,8.56,-0.08,27.41
3988,0.2048,-0.0243,0.8636,-6.58,7.4,0.0,27.43
4005,0.2157,-0.0165,0.9148,-6.61,8.09,0.0,27.42
4015,0.2129,-0.0211,0.8826,-6.52,8.49,0.03,27.43
4027,0.2119,-0.0209,0.887,-6.46,8.46,0.0,27.42
4037,0.2147,-0.0251,0.8624,-6.63,8.05,-0.06,27.42
4047,0.2125,-0.0245,0.8713,-6.64,6.98,-0.08,27.43
4057,0.2135,-0.0231,0.8984,-6.63,8.08,-0.03,27.41
4067,0.2281,-0.0194,0.9011,-6.58,7.6,-0.03,27.44
4077,0.2122,-0.0181,0.9084,-6.5,8.35,-0.09,27.42
4087,0.2169,-0.02,0.8691,-6.53,9.07,-0.11,27.44
4097,0.2076,-0.0219,0.8569,-6.49,6.78,-0.08,27.44
4107,0.197,-0.0236,0.8813,-6.63,7.97,-0.09,27.43
4117,0.2177,-0.0204,0.8901,-6.58,7.74,-0.06,27.41
4127,0.2189,-0.02,0.9053,-6.56,7.56,-0.06,27.43
4137,0.2095,-0.0231,0.9001,-6.49,8.82,-0.03,27.45
4147,0.2164,-0.0245,0.8644,-6.56,8.27,0.05,27.45
4157,0.2098,-0.025,0.8649,-6.6,6.64,-0.03,27.44
4167,0.2006,-0.0228,0.896,-6.64,8.4,-0.03,27.45
4177,0.2316,-0.0177,0.8962,-6.58,7.11,-0.12,27.44
4187,0.222,-0.0209,0.9072,-6.56,6.89,0.03,27.41
4197,0.2203,-0.0205,0.8877,-6.49,9.37,-0.03,27.44
4209,0.2085,-0.0201,0.8994,-6.56,9.56,-0.11,27.46
4219,0.2184,-0.0232,0.8574,-6.52,7.77,0.02,27.43
4231,0.2206,-0.0226,0.8571,-6.56,7.66,-0.14,27.45
4241,0.2021,-0.0255,0.8663,-6.49,7.39,-0.09,27.46
4255,0.2173,-0.0222,0.8627,-6.5,8.0,-0.02,27.45
4267,0.2152,-0.0193,0.8568,-6.58,7.74,-0.05,27.45
4277,0.2043,-0.0216,0.866,-6.55,7.11,-0.08,27.45
4291,0.2159,-0.0237,0.8519,-6.46,7.4,-0.05,27.44
4302,0.2095,-0.0228,0.8585,-6.47,7.04,-0.06,27.47
4312,0.203,-0.0222,0.8918,-6.61,7.83,-0.03,27.44
4322,0.2208,-0.0215,0.9025,-6.56,7.82,-0.02,27.46
4332,0.2213,-0.0227,0.9094,-6.53,7.77,-0.08,27.47
4342,0.2134,-0.0236,0.8951,-6.49,8.84,-0.06,27.45
4352,0.2163,-0.0199,0.8607,-6.49,8.15,-0.05,27.45
4362,0.2129,-0.0181,0.859,-6.52,7.21,-0.02,27.44
4375,0.2114,-0.0222,0.85,-6.49,7.66,-0.08,27.45
4387,0.2115,-0.0232,0.8479,-6.49,7.53,-0.08,27.45
4397,0.2083,-0.0222,0.8745,-6.56,7.01,-0.09,27.46
4407,0.2112,-0.0238,0.9062,-6.64,7.95,-0.05,27.47
4417,0.225,-0.0205,0.9042,-6.67,7.51,0.02,27.47
4427,0.2051,-0.0249,0.901,-6.56,8.66,-0.08,27.47
4437,0.2155,-0.0243,0.8627,-6.52,8.87,-0.03,27.44
4447,0.2177,-0.0243,0.855,-6.63,6.55,0.0,27.45
4459,0.2131,-0.0249,0.8595,-6.58,6.79,0.0,27.47
4471,0.2106,-0.0264,0.8604,-6.63,6.9,-0.09,27.44
4483,0.2114,-0.026,0.8544,-6.43,7.22,-0.11,27.49
4493,0.2059,-0.0192,0.884,-6.56,7.33,-0.09,27.51
4503,0.2115,-0.0177,0.9106,-6.67,8.17,-0.06,27.47
4519,0.2098,-0.0214,0.8475,-6.49,6.96,-0.03,27.45
4531,0.2118,-0.0222,0.8539,-6.47,6.82,-0.03,27.5
4543,0.2155,-0.0227,0.8558,-6.47,6.78,-0.05,27.43
4556,0.2238,-0.0236,0.8445,-6.5,7.04,-0.23,27.45
4567,0.2112,-0.0237,0.871,-6.53,6.44,0.03,27.46
4579,0.2037,-0.0208,0.8805,-6.56,7.02,-0.06,27.45
4591,0.2036,-0.0216,0.8798,-6.61,7.59,-0.02,27.44
4601,0.2198,-0.0172,0.8904,-6.64,7.59,-0.14,27.46
4611,0.2166,-0.0172,0.9034,-6.64,7.51,0.03,27.47
4621,0.2175,-0.0211,0.8988,-6.55,8.26,0.0,27.48
4631,0.2073,-0.0238,0.8754,-6.56,8.73,-0.02,27.46
4641,0.2137,-0.0275,0.8495,-6.49,8.11,-0.14,27.47
4651,0.2076,-0.021,0.8713,-6.53,6.5,0.03,27.47
4663,0.2129,-0.0195,0.8562,-6.5,6.21,0.0,27.47
4675,0.2052,-0.0221,0.8673,-6.63,6.5,-0.03,27.5
4685,0.2196,-0.0195,0.8899,-6.55,7.98,-0.05,27.49
4699,0.1998,-0.0212,0.8839,-6.55,8.02,0.02,27.46
4709,0.2185,-0.0183,0.8975,-6.55,7.36,-0.03,27.47
4723,0.213,-0.0208,0.8788,-6.53,7.4,-0.02,27.49
4733,0.2191,-0.0166,0.912,-6.52,7.68,-0.05,27.47
4747,0.215,-0.0223,0.8674,-6.67,7.01,-0.12,27.46
4758,0.2052,-0.0206,0.887,-6.64,7.25,0.03,27.49
4768,0.2306,-0.0194,0.9045,-6.56,7.73,0.03,27.5
4778,0.2103,-0.0203,0.9083,-6.55,8.2,-0.06,27.48
4788,0.2108,-0.0219,0.8776,-6.63,9.24,0.02,27.49
4798,0.2162,-0.0253,0.8481,-6.56,7.01,-0.08,27.5
4808,0.1987,-0.0249,0.8799,-6.64,7.36,-0.03,27.49
4818,0.2183,-0.0181,0.8937,-6.6,8.09,-0.08,27.48
4828,0.2179,-0.0204,0.9104,-6.58,7.22,0.03,27.47
4838,0.2078,-0.0233,0.8993,-6.56,9.45,-0.02,27.49
4848,0.2151,-0.0237,0.8679,-6.61,7.62,-0.05,27.48
4858,0.2113,-0.0266,0.8595,-6.53,7.83,-0.03,27.47
4868,0.2156,-0.0211,0.8796,-6.56,7.28,-0.06,27.47
4878,0.2151,-0.017,0.9067,-6.56,7.94,-0.06,27.47
4888,0.2253,-0.021,0.9039,-6.56,7.68,0.03,27.52
4903,0.2031,-0.0206,0.8926,-6.63,8.23,-0.02,27.48
4915,0.2056,-0.0226,0.8918,-6.63,8.26,-0.08,27.5
4925,0.2264,-0.0199,0.8961,-6.56,7.27,-0.02,27.47
4935,0.2123,-0.0208,0.9098,-6.64,7.97,-0.05,27.49
4945,0.2126,-0.0209,0.8798,-6.52,8.72,-0.03,27.49
4955,0.2102,-0.0197,0.8596,-6.47,8.02,-0.05,27.49
4965,0.213,-0.0195,0.8602,-6.53,6.9,-0.03,27.52
4975,0.2104,-0.0216,0.8964,-6.6,7.62,-0.12,27.51
4987,0.2103,-0.0181,0.9012,-6.61,7.56,-0.11,27.51
4999,0.2095,-0.0195,0.8998,-6.63,7.82,-0.09,27.48
5009,0.2236,-0.0166,0.9076,-6.56,7.97,-0.14,27.51
5019,0.2157,-0.0211,0.9064,-6.6,7.98,0.05,27.49
5029,0.2092,-0.0277,0.8813,-6.6,9.28,0.02,27.5
5039,0.2162,-0.0223,0.8512,-6.63,7.15,-0.03,27.5
5049,0.1979,-0.0237,0.8755,-6.53,7.47,-0.02,27.52
5059,0.2151,-0.0215,0.8944,-6.58,8.11,-0.11,27.5
5071,0.2179,-0.021,0.8934,-6.69,7.92,-0.02,27.51
5083,0.2152,-0.0234,0.8948,-6.64,7.69,-0.03,27.5
5095,0.2153,-0.0176,0.9023,-6.6,7.76,-0.06,27.51
5107,0.2177,-0.0159,0.9071,-6.6,8.09,0.02,27.5
5117,0.2283,-0.0162,0.9005,-6.63,7.89,-0.09,27.52
5127,0.2054,-0.0215,0.9044,-6.66,8.81,-0.02,27.52
5137,0.2153,-0.0256,0.8635,-6.55,8.73,0.05,27.5
5147,0.2117,-0.021,0.8601,-6.49,6.7,-0.02,27.52
5157,0.1975,-0.0237,0.8877,-6.6,8.05,-0.02,27.51
5167,0.2224,-0.0197,0.897,-6.6,7.91,0.0,27.48
5179,0.2236,-0.0201,0.9011,-6.56,7.74,0.02,27.51
5191,0.2281,-0.0195,0.8982,-6.55,7.65,-0.06,27.49
5201,0.2152,-0.0233,0.9044,-6.61,7.63,0.03,27.51
5211,0.2096,-0.0216,0.8883,-6.55,9.34,0.02,27.5
5221,0.2175,-0.0215,0.8643,-6.52,7.74,0.0,27.49
5231,0.2122,-0.0206,0.8708,-6.58,7.15,-0.08,27.47
5241,0.2083,-0.0221,0.9003,-6.6,7.88,-0.03,27.54
5251,0.2289,-0.0178,0.9023,-6.56,7.8,-0.02,27.53
5261,0.2103,-0.0176,0.9041,-6.6,7.92,0.05,27.49
5271,0.2103,-0.0187,0.8724,-6.5,9.11,-0.05,27.52
5281,0.2126,-0.0201,0.8558,-6.63,7.25,-0.12,27.53
5291,0.2025,-0.0212,0.8805,-6.66,7.59,-0.03,27.48
5301,0.2163,-0.0215,0.8904,-6.56,8.03,-0.06,27.47
5311,0.2228,-0.0233,0.9003,-6.58,7.33,-0.08,27.51
5321,0.2107,-0.025,0.9065,-6.58,7.97,-0.03,27.53
5335,0.2223,-0.022,0.9001,-6.56,7.1,-0.03,27.52
5345,0.2029,-0.0189,0.9033,-6.55,9.02,-0.02,27.5
5359,0.2264,-0.0181,0.8953,-6.5,7.02,-0.02,27.52
5369,0.2076,-0.0209,0.8837,-6.53,9.05,-0.02,27.51
5379,0.2146,-0.0229,0.859,-6.58,7.51,-0.08,27.52
5395,0.2124,-0.0208,0.8964,-6.58,7.91,-0.05,27.52
5407,0.2178,-0.019,0.9005,-6.56,7.48,-0.08,27.49
5417,0.2119,-0.0197,0.882,-6.58,8.66,-0.02,27.54
5431,0.2223,-0.02,0.9091,-6.5,7.89,-0.11,27.52
5441,0.215,-0.025,0.8845,-6.56,8.49,-0.05,27.52
5451,0.2172,-0.0245,0.8677,-6.52,8.0,-0.12,27.55
5461,0.2167,-0.0228,0.8822,-6.58,6.89,-0.05,27.52
5471,0.2128,-0.0219,0.9016,-6.67,8.5,-0.03,27.51
5481,0.2288,-0.0227,0.8978,-6.55,7.65,0.0,27.53
5491,0.2124,-0.0222,0.9033,-6.58,8.5,-0.02,27.52
5501,0.2184,-0.0212,0.8705,-6.52,8.53,-0.06,27.51
5515,0.2115,-0.0234,0.8983,-6.63,8.18,-0.05,27.52
5527,0.2096,-0.0282,0.8977,-6.66,8.23,-0.08,27.51
5537,0.2175,-0.0227,0.8619,-6.56,8.17,0.05,27.52
5551,0.203,-0.022,0.8966,-6.55,8.55,-0.06,27.52
5561,0.2191,-0.0251,0.856,-6.52,7.37,-0.06,27.53
5575,0.2013,-0.0211,0.8933,-6.61,9.27,-0.09,27.5
5587,0.2114,-0.0189,0.8878,-6.52,9.08,-0.06,27.51
5597,0.2134,-0.0206,0.8662,-6.5,7.05,-0.03,27.52
5611,0.2198,-0.0189,0.8904,-6.58,8.79,-0.06,27.53
5623,0.2208,-0.0231,0.8907,-6.56,8.89,-0.09,27.53
5635,0.217,-0.0315,0.8829,-6.53,8.79,0.06,27.54
5645,0.2117,-0.0295,0.8649,-6.55,7.47,0.02,27.54
5655,0.203,-0.0249,0.8691,-6.55,7.57,-0.02,27.54
5671,0.2052,-0.0179,0.8646,-6.5,8.18,-0.05,27.54
5681,0.2037,-0.017,0.8566,-6.46,7.34,-0.05,27.54
5695,0.1866,-0.0099,0.8514,-6.5,9.89,-0.09,27.57
5705,0.219,-0.0033,0.8033,-6.31,4.87,-0.12,27.52
5719,0.2142,-0.0101,0.8748,-6.53,9.51,-0.18,27.54
5729,0.2559,-0.0093,0.9001,-6.55,5.92,-0.14,27.52
5739,0.2612,-0.016,0.9397,-6.67,9.54,-0.18,27.53
5755,0.2548,-0.0371,0.9412,-6.78,6.38,0.02,27.54
5765,0.2485,-0.0399,0.9204,-6.73,10.02,0.06,27.55
5775,0.2433,-0.0311,0.9053,-6.6,6.38,0.08,27.54
5785,0.2111,-0.0167,0.9113,-6.53,9.65,0.09,27.55
5795,0.2174,-0.0176,0.8755,-6.61,7.53,0.02,27.57
5805,0.1798,-0.0229,0.8704,-6.55,9.62,-0.03,27.56
5815,0.2079,-0.0103,0.8101,-6.55,7.47,-0.03,27.55
5827,0.1929,-0.0127,0.8143,-6.63,7.18,-0.09,27.56
5837,0.1825,-0.0096,0.8402,-6.5,7.94,-0.17,27.56
5847,0.201,-0.017,0.858,-6.63,7.54,-0.12,27.53
5857,0.2054,-0.0199,0.8772,-6.58,7.51,-0.12,27.52
5867,0.2039,-0.0281,0.8866,-6.56,8.05,-0.02,27.54
5877,0.2122,-0.0298,0.8838,-6.67,8.34,-0.05,27.55
5887,0.2267,-0.0304,0.8828,-6.56,6.93,0.02,27.57
5897,0.2159,-0.0222,0.9211,-6.6,7.47,0.03,27.52
5907,0.2335,-0.0271,0.9288,-6.56,7.89,-0.05,27.56
5917,0.2321,-0.0151,0.9393,-6.52,7.6,-0.02,27.54
5927,0.2239,-0.0168,0.9167,-6.53,8.79,0.0,27.54
5937,0.2306,-0.022,0.8898,-6.55,8.05,-0.12,27.53
5947,0.2213,-0.0204,0.877,-6.64,7.5,-0.08,27.56
5957,0.2109,-0.0271,0.8811,-6.58,8.27,-0.03,27.54
5967,0.2233,-0.0275,0.8759,-6.58,7.92,-0.03,27.53
5977,0.2094,-0.0232,0.8746,-6.58,8.23,-0.15,27.56
5987,0.202,-0.0154,0.8557,-6.53,8.56,-0.03,27.54
5997,0.2034,-0.0156,0.8469,-6.55,7.68,0.0,27.53
6007,0.199,-0.0148,0.8606,-6.61,7.48,-0.08,27.56
6019,0.2019,-0.0182,0.8752,-6.64,7.5,-0.09,27.54
6029,0.2161,-0.0231,0.8937,-6.56,8.08,-0.03,27.56
6043,0.2146,-0.0286,0.895,-6.49,7.25,-0.03,27.55
6055,0.2173,-0.0258,0.8969,-6.5,7.33,-0.05,27.54
6067,0.2148,-0.026,0.9031,-6.53,7.47,-0.08,27.56
6077,0.2227,-0.0216,0.9098,-6.56,8.15,-0.08,27.54
6087,0.2255,-0.0181,0.8989,-6.56,7.56,-0.05,27.54
6097,0.2035,-0.0203,0.8955,-6.56,8.69,-0.03,27.52
6107,0.2245,-0.0204,0.8563,-6.6,8.09,-0.06,27.54
6117,0.2042,-0.0259,0.8733,-6.52,6.9,-0.03,27.55
6127,0.2106,-0.021,0.8798,-6.6,8.98,0.02,27.56
6137,0.225,-0.0194,0.8723,-6.64,7.5,-0.08,27.57
6147,0.2041,-0.0209,0.8918,-6.61,8.66,-0.14,27.55
6163,0.2135,-0.0225,0.8876,-6.61,7.92,-0.02,27.57
6175,0.2162,-0.0232,0.8933,-6.63,7.73,-0.14,27.57
6185,0.2146,-0.0242,0.9012,-6.61,7.57,-0.06,27.56
6195,0.2114,-0.0251,0.8964,-6.56,8.12,0.02,27.54
6205,0.2119,-0.0223,0.8834,-6.63,8.37,0.02,27.56
6215,0.2189,-0.0204,0.8743,-6.58,7.07,-0.03,27.58
6225,0.2054,-0.0156,0.9056,-6.64,7.92,-0.05,27.55
6235,0.224,-0.0192,0.8975,-6.56,8.0,-0.11,27.54
6245,0.2186,-0.0219,0.8971,-6.55,7.45,-0.05,27.57
6255,0.2124,-0.0256,0.8865,-6.52,8.93,-0.02,27.61
6265,0.2153,-0.0227,0.8635,-6.55,7.62,0.03,27.58
6275,0.2096,-0.0244,0.876,-6.58,7.56,0.0,27.59
6285,0.2046,-0.0229,0.8796,-6.58,7.82,-0.05,27.57
6295,0.2166,-0.0166,0.8905,-6.5,8.08,-0.05,27.59
6307,0.2185,-0.0194,0.8901,-6.55,7.94,-0.06,27.56
6319,0.2223,-0.0189,0.8918,-6.6,7.68,-0.02,27.58
6329,0.209,-0.0172,0.905,-6.63,7.71,-0.08,27.55
6339,0.2115,-0.022,0.8856,-6.63,8.82,-0.08,27.57
6355,0.2289,-0.0243,0.8956,-6.67,7.4,-0.02,27.57
6365,0.2136,-0.0256,0.9022,-6.6,8.32,-0.05,27.57
6379,0.2273,-0.0176,0.8977,-6.6,7.3,-0.05,27.55
6389,0.2103,-0.0258,0.8912,-6.6,8.35,-0.06,27.58
6399,0.2148,-0.0264,0.8691,-6.55,8.49,-0.12,27.57
6409,0.2153,-0.0199,0.8573,-6.55,7.39,-0.15,27.56
6419,0.2072,-0.0234,0.8839,-6.56,7.68,-0.09,27.58
6429,0.2188,-0.0178,0.8929,-6.56,8.21,-0.03,27.57
6440,0.2268,-0.0175,0.8933,-6.61,7.53,-0.08,27.57
6457,0.2174,-0.0193,0.8711,-6.58,6.99,0.03,27.59
6467,0.2092,-0.0234,0.8959,-6.6,8.38,-0.02,27.57
6477,0.2239,-0.0227,0.8898,-6.52,7.3,-0.08,27.58
6487,0.2109,-0.0247,0.8961,-6.61,8.02,-0.09,27.56
6499,0.2103,-0.026,0.8951,-6.61,8.0,-0.12,27.57
6509,0.212,-0.0258,0.8746,-6.56,8.63,-0.12,27.58
6523,0.2086,-0.0195,0.8938,-6.63,8.15,-0.05,27.58
6535,0.2079,-0.0226,0.9016,-6.52,8.31,-0.03,27.59
6546,0.2101,-0.0221,0.8868,-6.52,8.95,-0.08,27.57
6559,0.2036,-0.0204,0.9005,-6.53,8.92,0.03,27.57
6571,0.2057,-0.0211,0.8951,-6.55,9.16,-0.06,27.59
6581,0.2238,-0.0194,0.8691,-6.53,7.42,-0.02,27.57
6595,0.2123,-0.0206,0.8879,-6.6,9.04,0.0,27.6
6605,0.2191,-0.0209,0.8651,-6.67,7.3,-0.05,27.59
6619,0.218,-0.0227,0.8737,-6.55,8.29,-0.05,27.59
6629,0.2134,-0.0217,0.8693,-6.5,7.65,-0.06,27.58
6643,0.2103,-0.0217,0.8866,-6.73,8.5,-0.02,27.58
6657,0.222,-0.0208,0.8911,-6.53,7.36,0.03,27.58
6667,0.2092,-0.0227,0.8832,-6.64,8.99,-0.11,27.59
6677,0.2201,-0.019,0.8635,-6.58,6.98,-0.11,27.6
6687,0.2047,-0.0214,0.8909,-6.64,7.89,-0.09,27.6
6703,0.2166,-0.0242,0.8677,-6.58,7.98,-0.08,27.59
6715,0.2153,-0.0199,0.8717,-6.56,7.91,-0.02,27.58
6725,0.2129,-0.0228,0.8706,-6.67,7.69,-0.02,27.59
6739,0.2117,-0.0232,0.8761,-6.55,8.35,-0.06,27.59
6751,0.2115,-0.0234,0.8711,-6.52,8.53,-0.09,27.61
6763,0.215,-0.0222,0.8628,-6.61,8.18,-0.14,27.59
6775,0.2213,-0.0248,0.8636,-6.52,8.0,-0.03,27.6
6785,0.2136,-0.0232,0.8763,-6.58,6.98,0.0,27.59
6799,0.2208,-0.0212,0.8567,-6.56,7.71,-0.03,27.59
6811,0.2188,-0.0242,0.8662,-6.63,7.66,-0.08,27.6
6821,0.2064,-0.0205,0.8842,-6.58,7.45,-0.09,27.59
6831,0.2142,-0.0186,0.8945,-6.56,8.27,0.0,27.59
6841,0.2246,-0.0201,0.8948,-6.64,7.31,-0.06,27.6
6851,0.2076,-0.0234,0.901,-6.55,8.44,0.0,27.61
6861,0.218,-0.025,0.8745,-6.55,8.53,-0.08,27.59
6871,0.2201,-0.0238,0.86,-6.58,7.27,-0.05,27.6
6883,0.218,-0.0222,0.8599,-6.61,7.79,-0.05,27.64
6895,0.2201,-0.0221,0.8611,-6.58,7.39,-0.08,27.61
6905,0.2094,-0.021,0.892,-6.67,8.32,-0.11,27.58
6915,0.226,-0.0188,0.8921,-6.61,7.56,-0.08,27.6
6925,0.2087,-0.0195,0.8995,-6.47,7.88,-0.02,27.61
6935,0.2163,-0.0211,0.8843,-6.58,8.92,-0.05,27.61
6950,0.2251,-0.0186,0.8944,-6.6,7.22,-0.11,27.59
6967,0.2083,-0.0177,0.8762,-6.52,7.19,-0.06,27.6
6977,0.2092,-0.011,0.8904,-6.6,7.94,-0.11,27.59
6987,0.2257,-0.0126,0.8846,-6.55,7.53,-0.11,27.62
7000,0.2175,-0.0291,0.8926,-6.63,8.58,-0.05,27.61
7012,0.2327,-0.0424,0.8894,-6.6,7.82,-0.11,27.61
7022,0.2147,-0.0432,0.9084,-6.61,7.31,0.02,27.6
7036,0.2301,-0.0337,0.8927,-6.53,7.16,0.12,27.57
7048,0.2228,-0.0177,0.9064,-6.52,7.36,0.0,27.62
7058,0.2164,-0.0081,0.9047,-6.44,8.64,0.0,27.59
7068,0.2134,-0.0095,0.8843,-6.49,8.29,-0.11,27.61
7084,0.2178,-0.0189,0.8979,-6.64,8.18,-0.09,27.6
7094,0.2192,-0.0247,0.8889,-6.6,7.71,-0.09,27.59
7108,0.223,-0.0171,0.8969,-6.56,8.17,0.0,27.62
7118,0.2086,-0.0157,0.8927,-6.6,7.76,0.06,27.59
7132,0.2279,-0.009,0.8945,-6.58,7.59,-0.06,27.6
7142,0.2048,-0.0153,0.8949,-6.7,8.29,-0.03,27.62
7152,0.208,-0.0236,0.8688,-6.67,9.05,-0.09,27.6
7166,0.2015,-0.0273,0.9006,-6.58,8.84,-0.12,27.62
7177,0.2126,-0.0302,0.8826,-6.61,9.31,-0.12,27.62
7187,0.2213,-0.0315,0.8551,-6.61,6.93,-0.05,27.61
7201,0.2157,-0.0297,0.8794,-6.56,9.02,-0.05,27.61
7211,0.2205,-0.0198,0.8623,-6.55,7.02,-0.06,27.64
7221,0.2084,-0.0214,0.8885,-6.55,7.51,0.0,27.59
7231,0.2212,-0.0188,0.8993,-6.63,7.94,-0.06,27.63
7241,0.2247,-0.0194,0.9015,-6.6,7.4,-0.05,27.6
7251,0.2063,-0.02,0.8994,-6.56,8.81,-0.02,27.6
7261,0.2173,-0.0209,0.8628,-6.6,8.47,-0.08,27.61
7271,0.2057,-0.0208,0.8612,-6.6,7.13,-0.11,27.63
7281,0.2072,-0.0184,0.8876,-6.53,7.69,-0.08,27.6
7291,0.2168,-0.0142,0.9044,-6.64,8.17,-0.08,27.62
7301,0.223,-0.0197,0.8982,-6.64,7.71,-0.06,27.62
7311,0.2047,-0.0187,0.8873,-6.52,8.5,-0.02,27.63
7321,0.2081,-0.025,0.8594,-6.61,8.35,-0.08,27.64
7331,0.2186,-0.0221,0.8621,-6.61,6.87,0.02,27.62
7341,0.2062,-0.0243,0.8988,-6.58,7.34,-0.03,27.63
7351,0.2246,-0.025,0.9084,-6.56,8.23,-0.09,27.62
7361,0.2207,-0.0258,0.9061,-6.67,7.59,-0.08,27.61
7371,0.2092,-0.0254,0.8922,-6.58,9.25,0.03,27.62
7381,0.2172,-0.0262,0.8541,-6.6,7.76,-0.06,27.65
7393,0.2139,-0.0278,0.849,-6.52,7.66,0.02,27.63
7403,0.2128,-0.0184,0.8701,-6.44,6.96,0.0,27.61
7417,0.2102,-0.0199,0.8632,-6.55,8.66,-0.09,27.59
7429,0.2133,-0.0223,0.8522,-6.52,7.77,0.02,27.66
7441,0.2164,-0.0219,0.8518,-6.52,7.4,-0.05,27.63
7463,0.2064,-0.0172,0.8822,-6.6,7.05,-0.02,27.61
7473,0.2126,-0.0172,0.9058,-6.67,8.05,-0.09,27.64
7489,0.2166,-0.0239,0.8538,-6.5,7.4,-0.11,27.63
7499,0.2064,-0.0236,0.8839,-6.66,7.18,0.03,27.64
7509,0.2195,-0.0226,0.9059,-6.6,8.02,-0.06,27.64
7525,0.2169,-0.0225,0.8496,-6.56,7.71,-0.03,27.6
7537,0.2134,-0.0219,0.8525,-6.58,6.9,-0.06,27.64
7547,0.2069,-0.0226,0.8871,-6.58,7.25,-0.06,27.62
7557,0.2133,-0.0195,0.9119,-6.64,8.21,-0.03,27.64
7567,0.2247,-0.0197,0.9049,-6.6,8.27,-0.05,27.63
7577,0.2129,-0.0229,0.8851,-6.6,8.26,-0.06,27.63
7587,0.2076,-0.026,0.8572,-6.6,8.6,-0.06,27.63
7597,0.2184,-0.0216,0.8507,-6.56,6.87,-0.08,27.63
7607,0.2059,-0.0172,0.8984,-6.67,7.13,-0.02,27.64
7617,0.2224,-0.0184,0.9098,-6.7,8.66,-0.06,27.65
7627,0.2305,-0.0205,0.9019,-6.6,7.24,-0.02,27.64
7637,0.1991,-0.0242,0.8929,-6.61,9.22,-0.09,27.66
7647,0.2168,-0.0271,0.8459,-6.61,8.4,-0.08,27.63
7657,0.2092,-0.0217,0.86,-6.53,6.37,0.0,27.64
7667,0.2076,-0.0222,0.884,-6.56,6.95,0.0,27.6
7681,0.214,-0.0206,0.847,-6.56,6.95,0.0,27.65
7693,0.2137,-0.0242,0.8434,-6.52,6.95,0.03,27.65
7705,0.2161,-0.0205,0.8467,-6.47,7.07,-0.09,27.65
7715,0.2104,-0.0144,0.8806,-6.64,6.84,-0.05,27.63
7725,0.2147,-0.0162,0.917,-6.67,7.92,0.0,27.6
7741,0.2095,-0.0253,0.8466,-6.64,7.37,-0.02,27.64
7751,0.2113,-0.0228,0.8829,-6.55,6.72,0.0,27.64
7765,0.2139,-0.024,0.8439,-6.56,7.34,-0.08,27.64
7778,0.2095,-0.0277,0.8462,-6.49,8.27,-0.08,27.64
7788,0.2137,-0.0215,0.8612,-6.49,6.34,-0.02,27.61
7801,0.217,-0.0248,0.8464,-6.56,7.01,0.0,27.64
7813,0.2129,-0.02,0.8467,-6.55,7.04,0.02,27.64
7823,0.212,-0.0219,0.891,-6.64,6.87,-0.09,27.64
7837,0.2213,-0.0189,0.8456,-6.56,6.96,-0.05,27.65
7849,0.2175,-0.024,0.8407,-6.53,6.78,-0.02,27.64
7861,0.2148,-0.0203,0.8412,-6.66,6.82,0.02,27.66
7873,0.2153,-0.0231,0.848,-6.58,6.84,0.02,27.63
7883,0.2053,-0.0181,0.8909,-6.58,6.92,-0.08,27.66
7893,0.2159,-0.0135,0.9139,-6.63,8.43,-0.14,27.65
7903,0.2296,-0.0175,0.9038,-6.58,7.74,-0.03,27.64
7913,0.2056,-0.0269,0.8916,-6.63,8.72,-0.12,27.62
7923,0.2162,-0.026,0.85,-6.67,8.56,-0.03,27.66
7933,0.2109,-0.0232,0.8529,-6.63,6.69,-0.02,27.65
7945,0.2129,-0.0214,0.8535,-6.56,6.79,-0.08,27.65
7957,0.2102,-0.0214,0.8553,-6.6,6.82,-0.02,27.65
7967,0.2104,-0.0208,0.8765,-6.63,6.76,-0.05,27.63
7977,0.2166,-0.0165,0.9203,-6.67,8.4,-0.06,27.64
7987,0.2332,-0.0231,0.9014,-6.61,7.88,0.02,27.64
7997,0.2063,-0.03,0.8859,-6.61,8.75,-0.06,27.64
8007,0.2159,-0.0242,0.8463,-6.47,8.5,-0.08,27.65
8017,0.2145,-0.0243,0.8589,-6.56,6.53,0.0,27.65
8027,0.2063,-0.0142,0.9062,-6.66,7.6,-0.03,27.65
8037,0.2228,-0.0142,0.9171,-6.69,8.27,-0.05,27.65
8047,0.2189,-0.0198,0.9069,-6.7,8.09,-0.02,27.66
8057,0.2076,-0.0255,0.8811,-6.49,8.69,0.0,27.67
8067,0.2063,-0.0226,0.856,-6.5,8.53,-0.15,27.64
8077,0.2139,-0.0208,0.8571,-6.66,6.78,-0.02,27.65
8087,0.2076,-0.019,0.9019,-6.69,7.04,-0.06,27.66
8097,0.2231,-0.0167,0.9178,-6.66,8.5,-0.05,27.64
8113,0.2118,-0.0206,0.8594,-6.52,6.2,-0.17,27.64
8123,0.2052,-0.0177,0.908,-6.55,7.79,-0.06,27.64
8137,0.2125,-0.0214,0.8575,-6.58,6.73,-0.02,27.68
8149,0.2079,-0.026,0.8445,-6.6,7.57,-0.08,27.64
8161,0.2094,-0.0195,0.8561,-6.6,7.18,0.02,27.64
8172,0.2144,-0.0219,0.8716,-6.63,6.55,0.0,27.65
8182,0.2092,-0.0167,0.9186,-6.66,7.73,-0.05,27.68
8192,0.224,-0.0166,0.9146,-6.69,8.67,-0.11,27.65
8202,0.2208,-0.0242,0.89,-6.53,8.12,-0.08,27.67
8212,0.204,-0.0293,0.8635,-6.55,8.67,-0.12,27.67
8222,0.2111,-0.0208,0.8467,-6.58,7.95,-0.12,27.67
8232,0.2184,-0.0192,0.8743,-6.64,6.24,0.02,27.67
8242,0.2087,-0.0184,0.9252,-6.63,7.95,0.0,27.66
8252,0.2294,-0.0184,0.9225,-6.69,8.46,-0.06,27.68
8262,0.2166,-0.0221,0.8917,-6.53,8.09,-0.12,27.66
8272,0.2004,-0.0287,0.8707,-6.6,8.99,-0.11,27.66
8282,0.2173,-0.0239,0.8353,-6.56,7.65,0.0,27.7
8292,0.2102,-0.0204,0.8749,-6.55,5.83,0.03,27.65
8302,0.2052,-0.0151,0.9244,-6.7,8.67,-0.09,27.67
8312,0.2336,-0.0125,0.9137,-6.61,7.79,-0.08,27.67
8322,0.2111,-0.0243,0.9034,-6.63,8.27,0.0,27.66
8332,0.2087,-0.0244,0.863,-6.61,9.3,-0.05,27.65
8342,0.219,-0.0237,0.8389,-6.55,7.13,-0.09,27.66
8352,0.2074,-0.0209,0.8729,-6.64,6.5,-0.05,27.66
8362,0.2056,-0.0215,0.9081,-6.58,7.44,-0.05,27.67
8377,0.2134,-0.0272,0.837,-6.66,7.21,-0.05,27.66
8387,0.2064,-0.0197,0.8796,-6.66,6.75,0.0,27.65
8401,0.2152,-0.0254,0.8416,-6.5,7.1,-0.05,27.68
8413,0.2153,-0.0251,0.847,-6.53,7.16,-0.06,27.68
8425,0.2134,-0.0204,0.8491,-6.63,7.28,-0.08,27.7
8437,0.2122,-0.0203,0.8529,-6.56,7.34,-0.08,27.67
8449,0.2146,-0.0239,0.8494,-6.56,7.42,-0.05,27.68
8460,0.2164,-0.0203,0.8589,-6.6,6.6,-0.08,27.67
8473,0.2183,-0.0208,0.8416,-6.55,7.27,0.02,27.68
8487,0.2061,-0.0253,0.8579,-6.6,9.01,-0.12,27.69
8497,0.2178,-0.0232,0.8394,-6.61,6.76,-0.09,27.68
8509,0.2167,-0.0215,0.845,-6.56,6.63,-0.06,27.7
8521,0.2136,-0.0255,0.8466,-6.63,6.72,0.05,27.67
8533,0.2126,-0.0237,0.8512,-6.6,6.82,0.0,27.68
8545,0.2168,-0.0221,0.8503,-6.49,6.81,-0.03,27.7
8555,0.2079,-0.0192,0.8922,-6.6,7.1,0.05,27.69
8565,0.2198,-0.0171,0.9171,-6.61,8.23,-0.09,27.67
8575,0.2283,-0.019,0.91,-6.55,8.2,0.0,27.69
8586,0.2185,-0.0198,0.8981,-6.56,8.18,-0.05,27.66
8596,0.2053,-0.0292,0.8719,-6.56,8.78,-0.06,27.71
8606,0.2139,-0.0248,0.8479,-6.63,7.91,-0.06,27.71
8617,0.213,-0.0216,0.8512,-6.66,6.82,0.03,27.65
8627,0.2039,-0.0195,0.8932,-6.63,7.28,-0.06,27.68
8641,0.2114,-0.0226,0.8542,-6.53,6.79,-0.02,27.67
8651,0.2072,-0.0194,0.8979,-6.66,7.33,-0.03,27.69
8665,0.2123,-0.0255,0.8516,-6.53,6.78,-0.03,27.69
8677,0.2122,-0.0303,0.8466,-6.55,6.37,-0.06,27.68
8691,0.2137,-0.0254,0.8552,-6.49,8.34,-0.06,27.69
8701,0.2146,-0.0162,0.8672,-6.61,6.26,-0.05,27.69
8713,0.2076,-0.0179,0.8806,-6.66,6.78,-0.05,27.7
8723,0.2195,-0.0157,0.8983,-6.55,8.06,-0.14,27.69
8737,0.2017,-0.0273,0.8735,-6.55,8.09,-0.05,27.68
8747,0.2238,-0.0197,0.8925,-6.64,6.73,-0.08,27.68
8757,0.2097,-0.0188,0.931,-6.56,8.44,-0.02,27.68
8773,0.2191,-0.0186,0.8574,-6.5,6.67,0.0,27.68
8785,0.2225,-0.0166,0.8584,-6.58,6.12,-0.02,27.67
8799,0.2163,-0.0266,0.842,-6.56,7.92,0.0,27.7
8809,0.2125,-0.0261,0.8696,-6.58,6.12,-0.05,27.68
8819,0.2107,-0.0253,0.9121,-6.63,8.08,-0.02,27.71
8833,0.2115,-0.0242,0.8766,-6.6,6.6,-0.03,27.7
8845,0.2145,-0.0184,0.874,-6.6,6.61,-0.06,27.7
8857,0.2134,-0.0192,0.8566,-6.47,6.82,0.0,27.69
8867,0.2051,-0.0172,0.9137,-6.69,7.83,-0.12,27.66
8877,0.2249,-0.0236,0.9155,-6.58,8.49,-0.08,27.7
8893,0.2144,-0.0212,0.8503,-6.56,6.2,-0.06,27.7
8906,0.2178,-0.0255,0.8391,-6.55,6.84,-0.08,27.68
8917,0.2081,-0.0164,0.8582,-6.56,6.55,-0.08,27.72
8927,0.2153,-0.0126,0.9152,-6.58,8.02,-0.02,27.69
8941,0.212,-0.0173,0.8533,-6.6,6.17,0.03,27.71
8952,0.2089,-0.0168,0.8821,-6.6,6.92,-0.09,27.71
8965,0.1982,-0.0243,0.8625,-6.47,7.54,-0.03,27.71
8977,0.2067,-0.0233,0.8713,-6.52,7.8,-0.03,27.68
8989,0.2018,-0.0226,0.8522,-6.6,7.82,-0.08,27.68
9001,0.2191,-0.02,0.8623,-6.61,6.23,-0.08,27.71
9013,0.2196,-0.0249,0.8418,-6.66,6.53,-0.15,27.72
9025,0.2098,-0.021,0.8751,-6.56,5.59,-0.11,27.71
9037,0.2173,-0.0243,0.8502,-6.56,5.83,-0.05,27.69
9049,0.2136,-0.0225,0.8571,-6.66,6.06,-0.09,27.71
9061,0.2122,-0.0227,0.8619,-6.64,6.49,-0.05,27.7
9073,0.2137,-0.0188,0.8608,-6.46,6.72,-0.08,27.68
9085,0.2164,-0.0189,0.8562,-6.64,6.9,-0.06,27.7
9095,0.2108,-0.0184,0.9062,-6.66,6.98,-0.06,27.72
9105,0.2186,-0.0173,0.9321,-6.7,8.61,-0.03,27.7
9121,0.2135,-0.0226,0.8533,-6.55,6.72,0.09,27.71
9131,0.2019,-0.0179,0.9126,-6.63,7.36,-0.14,27.71
9141,0.2212,-0.0172,0.9146,-6.49,8.47,-0.06,27.69
9151,0.217,-0.019,0.9044,-6.61,8.0,-0.05,27.7
9161,0.205,-0.0227,0.8754,-6.58,8.98,-0.05,27.73
9171,0.2118,-0.0229,0.8429,-6.66,7.95,-0.03,27.7
9181,0.2201,-0.0208,0.8672,-6.63,6.5,-0.14,27.72
9192,0.2151,-0.0215,0.8909,-6.61,6.66,-0.05,27.72
9205,0.2184,-0.0205,0.8601,-6.58,6.46,-0.03,27.7
9217,0.2167,-0.0204,0.8585,-6.55,6.43,-0.08,27.72
9227,0.2025,-0.011,0.9114,-6.56,7.98,-0.08,27.72
9241,0.2112,-0.014,0.8712,-6.53,5.82,-0.06,27.69
9252,0.1936,0.0079,0.8724,-6.58,6.35,0.11,27.7
9265,0.147,-0.0184,0.9409,-7.01,9.16,-0.15,27.73
9277,0.2117,-0.0291,0.8582,-6.95,10.34,-0.08,27.7
9287,0.241,-0.0312,0.8871,-6.56,2.81,0.0,27.73
9297,0.2079,-0.033,0.9547,-6.79,10.05,-0.05,27.72
9307,0.2611,-0.0406,0.8817,-6.55,8.03,-0.08,27.72
9317,0.1959,-0.0273,0.8969,-6.67,8.89,-0.12,27.7
9327,0.2477,-0.0336,0.83,-6.56,7.69,-0.02,27.73
9337,0.2002,-0.027,0.8906,-6.55,6.27,-0.06,27.71
9347,0.223,-0.0237,0.896,-6.58,9.63,-0.12,27.72
9357,0.2246,-0.0245,0.8961,-6.53,6.87,-0.09,27.72
9373,0.2,-0.0281,0.8801,-6.53,7.94,-0.05,27.73
9383,0.2094,-0.0175,0.9016,-6.43,8.2,-0.05,27.71
9397,0.2029,-0.0189,0.887,-6.49,7.24,0.06,27.73
9410,0.2048,-0.0125,0.8785,-6.53,6.75,-0.03,27.71
9420,0.2062,-0.0145,0.9105,-6.6,8.15,-0.02,27.71
9433,0.1937,-0.0129,0.9161,-6.66,7.79,-0.06,27.7
9445,0.1913,-0.0144,0.9155,-6.64,8.38,-0.09,27.73
9455,0.2369,-0.0165,0.8965,-6.58,8.0,-0.06,27.72
9465,0.2106,-0.0227,0.9006,-6.53,7.39,-0.03,27.72
9475,0.2092,-0.0222,0.8782,-6.61,9.34,-0.03,27.71
9485,0.2157,-0.028,0.8474,-6.56,7.28,0.0,27.71
9495,0.2109,-0.0271,0.874,-6.6,7.1,-0.11,27.73
9505,0.2067,-0.0195,0.8998,-6.73,7.53,-0.12,27.71
9515,0.233,-0.0176,0.8967,-6.53,7.91,-0.05,27.72
9529,0.2054,-0.0209,0.9048,-6.72,10.21,-0.02,27.72
9541,0.2372,-0.0201,0.8784,-6.55,9.25,-0.06,27.73
9553,0.2435,-0.0189,0.8766,-6.66,7.05,-0.03,27.72
9565,0.2321,-0.0211,0.8881,-6.6,6.47,-0.12,27.7
9577,0.2257,-0.0238,0.8912,-6.61,6.99,-0.08,27.72
9587,0.213,-0.0222,0.9055,-6.63,8.66,-0.03,27.7
9601,0.212,-0.0225,0.9055,-6.55,8.05,-0.02,27.71
9611,0.2168,-0.0228,0.8931,-6.69,8.17,-0.06,27.74
9625,0.207,-0.0251,0.9003,-6.66,8.18,0.02,27.74
9635,0.2173,-0.0255,0.8909,-6.64,7.74,-0.12,27.73
9645,0.2069,-0.0293,0.8801,-6.6,8.73,0.03,27.71
9661,0.2219,-0.0204,0.9102,-6.52,8.41,-0.08,27.72
9673,0.2113,-0.0157,0.9192,-6.6,8.58,-0.14,27.72
9685,0.2129,-0.0132,0.9208,-6.6,8.78,-0.09,27.72
9695,0.2203,-0.0166,0.8936,-6.56,7.45,-0.05,27.69
9705,0.2043,-0.0236,0.8857,-6.58,9.54,0.03,27.73
9715,0.2277,-0.0209,0.8469,-6.61,7.04,0.05,27.73
9725,0.2021,-0.0172,0.8939,-6.61,6.81,0.03,27.72
9735,0.2161,-0.0187,0.9128,-6.63,8.7,0.02,27.73
9745,0.2303,-0.0189,0.9039,-6.56,7.51,0.02,27.71
9755,0.2024,-0.024,0.8949,-6.56,8.73,-0.09,27.74
9769,0.2273,-0.019,0.9065,-6.7,7.8,-0.08,27.72
9780,0.2213,-0.0198,0.9058,-6.61,7.88,-0.08,27.72
9790,0.2086,-0.0234,0.8866,-6.61,8.73,-0.09,27.72
9800,0.2081,-0.0264,0.8562,-6.56,8.38,-0.03,27.74
9817,0.2283,-0.0157,0.9109,-6.58,8.02,-0.06,27.73
9827,0.2164,-0.0231,0.903,-6.53,8.06,-0.09,27.75
9841,0.2277,-0.02,0.9108,-6.47,8.08,-0.11,27.74
9851,0.2108,-0.0219,0.9052,-6.69,8.38,-0.06,27.75
9865,0.2281,-0.019,0.9053,-6.66,7.74,-0.06,27.75
9877,0.2285,-0.0186,0.911,-6.56,7.66,0.0,27.74
9887,0.2095,-0.0205,0.894,-6.55,8.37,-0.08,27.69
9897,0.2057,-0.027,0.8627,-6.61,9.19,-0.14,27.72
9907,0.2207,-0.0264,0.8448,-6.56,6.56,0.0,27.74
9917,0.2051,-0.0215,0.8947,-6.58,7.25,-0.14,27.73
9927,0.2175,-0.0193,0.9138,-6.63,8.27,-0.11,27.75
9937,0.2228,-0.0227,0.9065,-6.52,7.85,-0.09,27.74
9949,0.2227,-0.02,0.9015,-6.58,7.95,-0.03,27.73
9960,0.2179,-0.0176,0.8929,-6.6,8.18,0.03,27.72
9973,0.2258,-0.0197,0.9012,-6.6,8.09,-0.12,27.73
9983,0.2109,-0.0201,0.8846,-6.58,8.46,-0.08,27.72
9993,0.2091,-0.0243,0.8583,-6.58,8.41,0.02,27.73
10003,0.2169,-0.0234,0.8588,-6.53,6.67,0.02,27.74
10013,0.2063,-0.0189,0.9095,-6.7,7.8,-0.12,27.72
10023,0.2273,-0.0176,0.9037,-6.61,8.34,-0.05,27.74
10033,0.2139,-0.021,0.8928,-6.61,7.54,-0.05,27.76
10045,0.2103,-0.0217,0.9032,-6.52,7.88,-0.03,27.73
10057,0.2087,-0.0238,0.8994,-6.6,8.35,-0.03,27.75
10067,0.2122,-0.0255,0.869,-6.6,8.67,-0.02,27.74
10077,0.2133,-0.0256,0.8589,-6.6,7.19,-0.02,27.76
10087,0.2089,-0.0261,0.8835,-6.66,7.21,0.0,27.76
10097,0.2145,-0.0166,0.9069,-6.56,7.98,-0.08,27.75
10107,0.2238,-0.02,0.9016,-6.6,8.02,-0.02,27.74
10117,0.2144,-0.0193,0.8862,-6.52,8.12,-0.15,27.73
10127,0.2083,-0.0253,0.8628,-6.6,8.21,0.0,27.72
10137,0.2068,-0.0239,0.8661,-6.61,7.56,-0.05,27.73
10147,0.2076,-0.0186,0.8962,-6.6,7.48,-0.05,27.75
10157,0.2155,-0.0198,0.9097,-6.6,8.55,-0.06,27.74
10167,0.2261,-0.0199,0.8953,-6.58,7.68,-0.14,27.76
10177,0.2076,-0.0222,0.886,-6.6,8.52,-0.02,27.75
10189,0.2063,-0.0217,0.8873,-6.66,8.52,-0.03,27.73
10201,0.2052,-0.0258,0.8848,-6.46,8.53,-0.06,27.74
10212,0.2103,-0.0245,0.8723,-6.55,8.76,-0.06,27.74
10222,0.2155,-0.0242,0.8615,-6.55,7.22,-0.05,27.75
10232,0.2051,-0.0236,0.8898,-6.53,7.36,-0.05,27.77
10242,0.2146,-0.0187,0.9067,-6.69,8.44,-0.05,27.74
10252,0.2253,-0.0206,0.8967,-6.56,7.59,-0.03,27.76
10262,0.2035,-0.0216,0.8934,-6.61,8.63,-0.08,27.76
10272,0.2141,-0.0237,0.8594,-6.61,8.4,-0.02,27.73
10282,0.217,-0.0248,0.8673,-6.58,6.73,-0.08,27.73
10297,0.2084,-0.0194,0.8716,-6.58,8.81,-0.06,27.74
10307,0.2189,-0.0248,0.8623,-6.6,6.82,-0.03,27.76
10322,0.204,-0.0221,0.8888,-6.64,8.47,-0.06,27.77
10332,0.2246,-0.0192,0.8522,-6.61,7.28,-0.08,27.74
10345,0.2128,-0.0221,0.8712,-6.56,9.13,-0.05,27.74
10357,0.2267,-0.0214,0.8523,-6.58,7.6,0.0,27.76
10367,0.2003,-0.024,0.8839,-6.56,7.25,-0.05,27.75
10377,0.218,-0.0189,0.8943,-6.58,8.61,-0.09,27.75
10393,0.2244,-0.0215,0.856,-6.56,7.48,-0.09,27.76
10403,0.2014,-0.0258,0.8947,-6.56,8.0,-0.14,27.75
10417,0.2186,-0.0217,0.8606,-6.5,7.27,0.0,27.76
10427,0.2057,-0.0236,0.8922,-6.66,7.92,0.02,27.75
10437,0.2227,-0.0176,0.8967,-6.61,8.09,-0.08,27.74
10447,0.2245,-0.0217,0.9012,-6.66,7.85,-0.08,27.75
10457,0.2136,-0.0232,0.8954,-6.69,8.05,-0.09,27.74
10467,0.2168,-0.0248,0.8613,-6.53,8.37,-0.02,27.77
10477,0.2163,-0.0227,0.8551,-6.67,7.28,0.03,27.76
10489,0.2147,-0.0217,0.8588,-6.58,7.19,-0.08,27.76
10501,0.2188,-0.0243,0.8604,-6.66,7.28,-0.03,27.75
10511,0.2043,-0.0226,0.8901,-6.64,7.28,-0.05,27.75
10527,0.2107,-0.0277,0.8656,-6.58,8.76,0.0,27.75
10537,0.2166,-0.0264,0.8604,-6.56,6.56,-0.06,27.76
10549,0.2157,-0.0277,0.8625,-6.53,6.79,-0.08,27.75
10561,0.214,-0.0226,0.8658,-6.53,6.92,-0.09,27.77
10573,0.2183,-0.0223,0.8671,-6.58,6.92,0.0,27.77
10585,0.2142,-0.025,0.8702,-6.63,6.87,0.0,27.76
10597,0.2117,-0.0216,0.8756,-6.56,6.78,0.02,27.77
10607,0.2091,-0.019,0.901,-6.6,8.15,0.03,27.75
10621,0.2075,-0.0227,0.8794,-6.64,6.99,-0.09,27.77
10633,0.2091,-0.0228,0.8806,-6.58,7.16,-0.05,27.75
10643,0.21,-0.0172,0.9025,-6.67,8.06,-0.03,27.76
10653,0.2249,-0.0221,0.8967,-6.61,7.89,-0.03,27.77
10663,0.2075,-0.0183,0.8987,-6.61,8.34,-0.05,27.75
10673,0.214,-0.0232,0.8669,-6.58,8.64,-0.08,27.79
10683,0.2162,-0.0231,0.8617,-6.66,6.85,-0.06,27.75
10693,0.2061,-0.0184,0.8931,-6.6,7.88,-0.12,27.76
10705,0.208,-0.0283,0.8845,-6.61,7.3,-0.05,27.75
10715,0.2241,-0.0189,0.9003,-6.61,8.05,-0.05,27.76
10730,0.2118,-0.0232,0.8723,-6.6,6.87,-0.02,27.73
10740,0.2111,-0.0179,0.9043,-6.64,8.7,-0.06,27.76
10750,0.2294,-0.0229,0.8865,-6.67,7.01,0.0,27.75
10760,0.1967,-0.0216,0.8929,-6.58,8.76,-0.12,27.74
10770,0.2257,-0.0197,0.8572,-6.64,8.31,-0.02,27.75
10780,0.2072,-0.022,0.8782,-6.58,6.41,-0.08,27.78
10790,0.205,-0.0228,0.9021,-6.67,9.02,-0.09,27.77
10800,0.2273,-0.0219,0.8884,-6.6,8.17,-0.08,27.77
10810,0.2015,-0.0195,0.907,-6.58,8.44,-0.11,27.77
10825,0.2245,-0.0212,0.8894,-6.58,7.11,-0.05,27.77
10836,0.2173,-0.0253,0.9072,-6.69,7.48,-0.05,27.77
10846,0.2141,-0.021,0.894,-6.6,7.97,-0.08,27.76
10856,0.2109,-0.0219,0.8712,-6.58,8.46,-0.06,27.79
10866,0.2177,-0.0226,0.8668,-6.66,7.08,-0.09,27.75
10876,0.2002,-0.0222,0.896,-6.64,7.62,0.0,27.75
10886,0.2201,-0.0204,0.8928,-6.67,8.52,-0.03,27.78
10896,0.2227,-0.0188,0.8971,-6.52,6.82,-0.06,27.75
10906,0.1996,-0.0226,0.8943,-6.64,9.62,-0.09,27.76
10916,0.226,-0.0206,0.8535,-6.53,7.57,0.02,27.77
10927,0.2156,-0.0214,0.8615,-6.58,6.56,0.0,27.78
10937,0.2014,-0.0251,0.8917,-6.64,8.23,-0.06,27.76
10947,0.2255,-0.0181,0.895,-6.56,7.69,-0.08,27.75
10957,0.2163,-0.0188,0.9045,-6.66,7.45,0.0,27.76
10967,0.2104,-0.0242,0.8898,-6.61,9.33,-0.08,27.78
10977,0.2213,-0.0251,0.8545,-6.69,7.48,-0.06,27.77
10987,0.202,-0.0204,0.8744,-6.63,7.3,-0.08,27.78
10997,0.2124,-0.0223,0.8881,-6.58,8.03,0.03,27.77
11007,0.2205,-0.0198,0.9039,-6.61,7.45,-0.03,27.78
11017,0.2158,-0.02,0.9045,-6.63,8.4,-0.08,27.77
11036,0.2178,-0.0221,0.8615,-6.61,7.53,-0.02,27.77
11046,0.2084,-0.0223,0.8861,-6.58,7.24,0.0,27.77
11056,0.2141,-0.0209,0.9038,-6.6,8.34,-0.02,27.75
11066,0.2269,-0.0216,0.8971,-6.6,7.37,-0.03,27.75
11076,0.2046,-0.0229,0.8984,-6.66,8.78,-0.11,27.78
11089,0.2168,-0.0247,0.8973,-6.63,7.3,-0.11,27.77
11101,0.2069,-0.0215,0.8998,-6.6,8.38,-0.06,27.77
11113,0.212,-0.0231,0.8944,-6.69,7.71,-0.14,27.78
11125,0.2117,-0.0208,0.8972,-6.6,7.91,-0.03,27.8
11135,0.22,-0.0221,0.8711,-6.66,8.08,-0.06,27.77
11145,0.215,-0.0186,0.8638,-6.61,7.45,-0.02,27.78
11155,0.2072,-0.0233,0.8949,-6.64,8.12,-0.02,27.76
11165,0.222,-0.0175,0.8978,-6.58,8.15,-0.03,27.78
11175,0.2235,-0.0175,0.8911,-6.55,7.59,-0.06,27.77
11185,0.2063,-0.0195,0.8944,-6.63,8.26,-0.08,27.77
11195,0.2151,-0.0228,0.8706,-6.55,8.49,0.0,27.77
11205,0.2125,-0.0244,0.8718,-6.41,6.67,-0.03,27.77
11215,0.2039,-0.0225,0.8992,-6.6,8.55,-0.02,27.77
11225,0.2274,-0.0219,0.8928,-6.58,7.68,-0.02,27.77
11235,0.2107,-0.0245,0.8987,-6.63,8.06,-0.11,27.77
11245,0.2139,-0.0262,0.8843,-6.56,8.81,-0.08,27.78
11255,0.2212,-0.0227,0.8654,-6.56,7.44,0.02,27.77
11265,0.2037,-0.024,0.8865,-6.55,7.65,-0.02,27.77
11281,0.2179,-0.0212,0.8737,-6.55,8.55,0.0,27.76
11291,0.217,-0.0216,0.8695,-6.66,7.02,-0.06,27.79
11308,0.2102,-0.0195,0.8998,-6.55,8.08,-0.06,27.78
11318,0.2147,-0.0243,0.8767,-6.56,8.44,-0.03,27.76
11328,0.2141,-0.0212,0.8713,-6.61,7.42,-0.08,27.77
11338,0.2083,-0.0209,0.8842,-6.61,7.88,-0.05,27.77
11353,0.2157,-0.0236,0.8713,-6.63,7.57,-0.03,27.77
11365,0.2178,-0.0194,0.8643,-6.58,7.65,-0.08,27.76
11375,0.2103,-0.0239,0.8766,-6.58,7.21,-0.02,27.78
11385,0.2083,-0.02,0.8989,-6.61,8.24,-0.12,27.76
11395,0.2241,-0.0232,0.8923,-6.58,7.79,-0.09,27.78
11405,0.2125,-0.0223,0.894,-6.66,7.97,-0.05,27.79
11415,0.2106,-0.0234,0.8833,-6.58,8.85,-0.11,27.79
11425,0.2218,-0.0262,0.863,-6.56,6.9,-0.08,27.79
11435,0.2045,-0.0239,0.8827,-6.6,7.31,-0.05,27.78
11445,0.2192,-0.0182,0.8921,-6.58,8.02,-0.03,27.79
11455,0.2151,-0.0199,0.8966,-6.69,7.59,-0.09,27.77
11465,0.2072,-0.0225,0.8899,-6.61,8.69,0.0,27.77
11475,0.2168,-0.0229,0.869,-6.52,7.83,-0.08,27.79
11485,0.2063,-0.0226,0.8781,-6.49,7.19,-0.08,27.78
11495,0.2094,-0.0201,0.8911,-6.6,8.32,-0.08,27.79
11509,0.2185,-0.0233,0.8729,-6.52,7.04,-0.03,27.78
11521,0.2064,-0.0233,0.8806,-6.56,7.34,-0.02,27.76
11533,0.2096,-0.0267,0.876,-6.66,7.08,-0.08,27.77
11545,0.2069,-0.0249,0.8811,-6.6,7.45,-0.12,27.81
11555,0.2219,-0.0236,0.8853,-6.63,8.06,-0.14,27.76
11565,0.2167,-0.022,0.8931,-6.63,7.01,-0.03,27.79
11575,0.2007,-0.024,0.8975,-6.63,9.1,0.0,27.79
11585,0.2208,-0.0226,0.8698,-6.56,7.66,-0.03,27.79
11595,0.2028,-0.0239,0.8817,-6.6,7.44,-0.05,27.78
11605,0.2014,-0.0201,0.8943,-6.6,8.38,-0.02,27.78
11615,0.2283,-0.0221,0.8855,-6.58,7.02,-0.03,27.78
11629,0.2201,-0.0209,0.8861,-6.58,8.49,-0.09,27.78
11640,0.2211,-0.0184,0.8811,-6.66,8.14,-0.08,27.8
11650,0.2079,-0.0215,0.8987,-6.52,7.95,-0.09,27.79
11660,0.2151,-0.0217,0.8845,-6.56,8.76,0.0,27.79
11670,0.2167,-0.0189,0.8751,-6.52,7.18,0.0,27.8
11680,0.204,-0.0256,0.8859,-6.6,8.03,0.0,27.79
11690,0.2159,-0.0271,0.8884,-6.63,8.11,-0.08,27.78
11701,0.2213,-0.0216,0.8873,-6.53,8.18,-0.06,27.8
11713,0.224,-0.0211,0.8855,-6.64,7.27,-0.03,27.79
11723,0.2095,-0.0209,0.8986,-6.64,7.95,0.03,27.79
11737,0.2188,-0.0159,0.8949,-6.64,8.14,-0.02,27.8
11747,0.2191,-0.0183,0.8826,-6.55,7.45,0.0,27.8
11757,0.2069,-0.024,0.8784,-6.56,8.72,-0.09,27.8
11773,0.2229,-0.0184,0.8881,-6.67,7.25,-0.09,27.81
11785,0.2214,-0.0178,0.8928,-6.63,7.6,-0.05,27.8
11795,0.209,-0.0189,0.8889,-6.56,8.4,-0.06,27.77
11805,0.2129,-0.0208,0.876,-6.61,8.27,-0.12,27.8
11821,0.2189,-0.0192,0.8926,-6.61,7.37,-0.06,27.82
11833,0.2351,-0.0251,0.8763,-6.53,6.5,-0.12,27.81
11844,0.2015,-0.0188,0.9033,-6.64,6.2,0.03,27.79
11854,0.2473,-0.0227,0.8453,-6.55,8.37,-0.03,27.8
11864,0.1876,-0.0264,0.9,-6.64,6.49,-0.08,27.79
11881,0.191,-0.024,0.911,-6.67,8.93,-0.08,27.8
11891,0.2302,-0.0216,0.8721,-6.56,8.69,-0.11,27.79
11901,0.2087,-0.0229,0.8779,-6.55,6.55,-0.06,27.79
11911,0.2053,-0.0242,0.8851,-6.56,9.51,-0.03,27.81
11921,0.2247,-0.0205,0.8789,-6.63,6.24,-0.02,27.81
11931,0.2053,-0.0222,0.9039,-6.6,8.78,-0.08,27.8
11941,0.2213,-0.02,0.8856,-6.61,8.05,-0.05,27.8
11951,0.2064,-0.0255,0.8795,-6.64,8.06,0.0,27.81
11965,0.2137,-0.0236,0.8912,-6.56,8.05,-0.11,27.81
11977,0.2092,-0.0217,0.8934,-6.64,8.34,-0.05,27.8
11987,0.2222,-0.0242,0.8721,-6.61,7.69,-0.02,27.78
11997,0.2025,-0.0254,0.8903,-6.61,7.57,-0.05,27.81
12007,0.223,-0.0209,0.8843,-6.6,8.66,-0.02,27.83
12017,0.2169,-0.0223,0.8931,-6.61,6.9,-0.09,27.82
12027,0.2118,-0.0221,0.8926,-6.66,8.93,0.0,27.81
12037,0.2222,-0.0228,0.8698,-6.6,7.66,-0.06,27.81
12048,0.2152,-0.0188,0.8732,-6.58,7.45,-0.09,27.81
12061,0.215,-0.0177,0.8719,-6.64,7.94,0.03,27.8
12073,0.2177,-0.0198,0.8668,-6.58,7.56,-0.06,27.79
12085,0.2266,-0.0214,0.8667,-6.63,7.11,-0.08,27.79
12097,0.2236,-0.0182,0.8641,-6.61,7.73,0.02,27.8
12107,0.1997,-0.0248,0.8876,-6.63,8.14,-0.03,27.81
12117,0.2239,-0.0219,0.8884,-6.63,7.86,-0.02,27.84
12127,0.2214,-0.0229,0.8912,-6.66,7.44,-0.08,27.83
12137,0.212,-0.0203,0.8951,-6.66,8.73,0.0,27.82
12147,0.225,-0.0217,0.8661,-6.66,8.09,-0.08,27.81
12157,0.2111,-0.0182,0.8763,-6.63,6.92,-0.08,27.82
12169,0.2068,-0.0195,0.884,-6.53,7.36,-0.03,27.83
12179,0.2173,-0.0181,0.8851,-6.69,8.61,-0.06,27.8
12193,0.1993,-0.0225,0.8855,-6.63,7.05,0.0,27.82
12205,0.1992,-0.0236,0.8949,-6.58,7.65,-0.03,27.8
12215,0.2305,-0.0188,0.8743,-6.66,7.44,-0.05,27.82
12225,0.2129,-0.022,0.8998,-6.61,7.34,-0.05,27.84
12235,0.2129,-0.0222,0.8899,-6.58,8.7,-0.05,27.82
12245,0.2183,-0.0251,0.8723,-6.63,8.03,-0.05,27.8
12255,0.2111,-0.0253,0.8776,-6.66,7.45,-0.02,27.81
12265,0.2029,-0.0261,0.8848,-6.52,8.38,-0.02,27.82
12275,0.2222,-0.0195,0.8818,-6.6,7.47,-0.11,27.8
12285,0.2125,-0.0214,0.895,-6.56,7.76,-0.06,27.8
12307,0.2124,-0.0214,0.8856,-6.55,8.7,-0.05,27.79
12317,0.2162,-0.0176,0.876,-6.61,7.15,-0.03,27.8
12327,0.2037,-0.0206,0.8915,-6.58,8.24,-0.02,27.79
12337,0.2185,-0.019,0.8884,-6.64,7.74,0.0,27.81
12349,0.2225,-0.0227,0.8816,-6.61,7.79,-0.08,27.82
12361,0.2208,-0.0233,0.89,-6.56,8.44,-0.03,27.83
12371,0.2136,-0.0222,0.8918,-6.64,7.54,0.0,27.82
12381,0.2119,-0.0233,0.8843,-6.53,8.76,-0.06,27.82
12391,0.2314,-0.0194,0.8629,-6.49,6.76,0.0,27.8
12401,0.1868,-0.0284,0.9004,-6.72,8.9,-0.08,27.82
12411,0.2289,-0.0203,0.877,-6.63,8.41,-0.12,27.81
12421,0.2327,-0.0211,0.8706,-6.58,5.89,-0.09,27.81
12433,0.2003,-0.0228,0.9025,-6.6,7.04,-0.02,27.81
12445,0.2103,-0.022,0.8954,-6.64,6.96,-0.09,27.82
12457,0.2115,-0.0201,0.8981,-6.63,7.62,-0.03,27.82
12469,0.2144,-0.0205,0.895,-6.61,7.34,-0.14,27.83
12482,0.2144,-0.0198,0.8903,-6.58,7.36,-0.09,27.82
12493,0.2156,-0.0206,0.8857,-6.66,7.63,0.02,27.81
12505,0.2162,-0.0262,0.891,-6.58,8.0,-0.05,27.8
12517,0.2175,-0.0233,0.8842,-6.63,7.83,0.0,27.82
12527,0.2094,-0.0225,0.8807,-6.6,8.38,-0.05,27.82
12537,0.2179,-0.0212,0.8749,-6.58,7.19,0.03,27.81
12553,0.2064,-0.0182,0.8994,-6.56,7.79,0.02,27.82
12563,0.2303,-0.0201,0.8651,-6.61,7.94,-0.05,27.83
12573,0.2019,-0.0222,0.8867,-6.61,7.08,-0.03,27.83
12583,0.1974,-0.0256,0.8976,-6.6,8.85,-0.05,27.82
12593,0.2463,-0.0201,0.8711,-6.56,6.31,-0.11,27.8
12603,0.1963,-0.0228,0.913,-6.55,7.94,-0.11,27.82
12613,0.229,-0.0247,0.8781,-6.66,9.24,-0.06,27.81
12625,0.2438,-0.0197,0.8634,-6.56,8.2,0.0,27.81
12637,0.231,-0.016,0.8693,-6.61,7.36,-0.09,27.81
12649,0.2068,-0.0232,0.8865,-6.58,9.1,0.02,27.83
12661,0.2126,-0.0219,0.8802,-6.66,8.99,0.05,27.82
12673,0.2192,-0.0217,0.875,-6.66,8.73,-0.06,27.82
12685,0.2212,-0.0199,0.8704,-6.49,8.29,-0.09,27.83
12695,0.209,-0.0232,0.8792,-6.52,6.6,0.03,27.82
12705,0.2026,-0.0233,0.8906,-6.66,9.18,-0.06,27.82
12721,0.224,-0.0233,0.8651,-6.6,6.89,-0.02,27.83
12733,0.2172,-0.0237,0.8719,-6.66,7.01,-0.06,27.82
12745,0.2134,-0.0245,0.8763,-6.58,7.42,-0.15,27.83
12757,0.2177,-0.0236,0.8716,-6.58,7.57,-0.08,27.84
12767,0.2047,-0.0251,0.8844,-6.66,8.06,-0.09,27.8
12781,0.2156,-0.0247,0.873,-6.5,7.34,-0.08,27.82
12793,0.2152,-0.022,0.879,-6.61,7.21,-0.02,27.82
12805,0.2205,-0.0189,0.8735,-6.5,7.33,-0.03,27.82
12817,0.2068,-0.021,0.8905,-6.61,7.5,-0.03,27.82
12829,0.2026,-0.0199,0.8881,-6.64,7.82,-0.08,27.8
12839,0.2177,-0.02,0.8802,-6.69,8.34,-0.02,27.84
12852,0.2076,-0.0255,0.8812,-6.63,7.86,-0.02,27.84
12862,0.2186,-0.0219,0.8898,-6.69,7.83,-0.06,27.81
12872,0.217,-0.0219,0.8898,-6.56,7.6,-0.02,27.83
12882,0.2081,-0.0192,0.8845,-6.67,8.82,-0.09,27.84
12892,0.2283,-0.0216,0.8645,-6.5,7.47,-0.15,27.82
12902,0.2023,-0.0226,0.8848,-6.61,7.42,-0.03,27.83
12912,0.2183,-0.0214,0.8894,-6.64,8.6,-0.06,27.82
12925,0.2098,-0.022,0.8917,-6.66,8.92,-0.02,27.83
12938,0.2052,-0.0221,0.8932,-6.64,8.72,-0.02,27.85
12949,0.2195,-0.0232,0.8835,-6.58,8.41,-0.08,27.84
12959,0.218,-0.022,0.8878,-6.56,6.9,0.0,27.83
12971,0.212,-0.0221,0.8939,-6.66,7.19,-0.02,27.81
12981,0.2081,-0.019,0.8953,-6.66,8.75,-0.05,27.85
12991,0.2241,-0.0225,0.8711,-6.55,7.59,-0.02,27.83
13001,0.2069,-0.0237,0.8793,-6.61,7.79,-0.05,27.84
13011,0.2108,-0.0208,0.884,-6.61,8.37,0.03,27.87
13021,0.219,-0.0206,0.8884,-6.61,7.51,-0.05,27.82
13033,0.2213,-0.02,0.8854,-6.58,7.31,-0.03,27.84
13045,0.2223,-0.0187,0.8777,-6.58,7.62,-0.05,27.85
13057,0.219,-0.0212,0.8896,-6.56,7.08,-0.08,27.84
13068,0.2137,-0.0222,0.895,-6.66,7.25,-0.06,27.83
13078,0.2185,-0.0208,0.8867,-6.66,8.43,-0.06,27.84
13088,0.2173,-0.0237,0.8768,-6.63,7.86,-0.02,27.83
13098,0.2137,-0.0251,0.873,-6.58,7.48,-0.06,27.82
13108,0.2092,-0.0194,0.8955,-6.67,8.24,-0.06,27.86
13118,0.223,-0.0199,0.8834,-6.67,7.54,0.02,27.84
13129,0.2249,-0.025,0.8856,-6.63,7.21,-0.06,27.82
13139,0.2051,-0.0211,0.8925,-6.56,9.08,-0.05,27.84
13150,0.2089,-0.0211,0.8861,-6.58,8.75,-0.06,27.82
13162,0.2146,-0.0208,0.8792,-6.5,8.55,-0.08,27.84
13172,0.2136,-0.0237,0.8778,-6.55,7.4,-0.05,27.82
13182,0.2103,-0.0243,0.8868,-6.58,8.27,0.0,27.83
13198,0.2159,-0.0206,0.8735,-6.6,7.92,-0.05,27.84
13210,0.2144,-0.0244,0.8813,-6.6,8.32,-0.03,27.83
13221,0.215,-0.02,0.8693,-6.63,7.74,-0.02,27.85
13231,0.205,-0.0195,0.887,-6.58,8.11,-0.02,27.83
13241,0.2251,-0.0209,0.8861,-6.55,7.71,-0.05,27.84
13258,0.222,-0.0198,0.87,-6.61,7.56,-0.12,27.84
13270,0.2183,-0.017,0.8726,-6.69,7.34,0.03,27.83
13280,0.2028,-0.0208,0.8844,-6.7,7.98,-0.02,27.82
13290,0.2201,-0.0225,0.885,-6.64,8.12,-0.08,27.82
13300,0.2211,-0.02,0.8872,-6.61,7.28,-0.08,27.84
13310,0.209,-0.0275,0.8853,-6.56,8.2,-0.14,27.83
13320,0.2029,-0.0273,0.881,-6.63,8.31,-0.05,27.84
13330,0.224,-0.0226,0.8695,-6.53,7.3,-0.02,27.85
13340,0.2025,-0.0242,0.9004,-6.61,7.82,0.09,27.84
13351,0.2111,-0.0212,0.9011,-6.63,8.93,0.0,27.85
13361,0.2263,-0.0208,0.8843,-6.53,6.95,-0.06,27.86
13375,0.2308,-0.0176,0.8832,-6.66,8.05,-0.05,27.85
13387,0.2343,-0.0181,0.8777,-6.55,7.27,-0.02,27.85
13398,0.233,-0.0195,0.8824,-6.64,6.69,-0.05,27.84
13411,0.2207,-0.0221,0.8923,-6.55,6.85,-0.08,27.84
13421,0.2109,-0.0159,0.9034,-6.58,8.4,-0.06,27.85
13431,0.2157,-0.0227,0.8802,-6.69,8.64,-0.03,27.86
13447,0.228,-0.0223,0.8889,-6.6,6.99,-0.12,27.87
13459,0.2208,-0.022,0.8884,-6.66,6.81,-0.02,27.86
13471,0.2137,-0.0198,0.9005,-6.61,7.19,0.05,27.86
13483,0.2156,-0.0199,0.9003,-6.63,7.74,-0.03,27.86
13493,0.2075,-0.0193,0.8943,-6.53,8.55,-0.06,27.85
13507,0.2115,-0.0223,0.8948,-6.5,7.71,0.0,27.86
13519,0.2131,-0.0197,0.8967,-6.58,7.77,-0.11,27.84
13531,0.2104,-0.0177,0.8954,-6.66,7.62,-0.09,27.86
13543,0.2113,-0.019,0.8933,-6.55,7.94,-0.05,27.85
13553,0.2117,-0.0206,0.8849,-6.61,8.5,-0.02,27.84
13567,0.2117,-0.0175,0.8928,-6.61,8.08,-0.03,27.84
13579,0.2137,-0.0226,0.8939,-6.6,7.69,-0.02,27.86
13591,0.2075,-0.0228,0.8934,-6.56,8.09,0.0,27.86
13603,0.2095,-0.0238,0.8928,-6.56,7.36,-0.08,27.87
13615,0.1982,-0.0228,0.8988,-6.52,8.82,-0.05,27.87
13625,0.2278,-0.0197,0.865,-6.58,7.85,-0.08,27.87
13635,0.2075,-0.025,0.8868,-6.56,6.81,-0.02,27.85
13651,0.2074,-0.0199,0.8859,-6.61,9.24,-0.06,27.84
13661,0.2224,-0.0206,0.8655,-6.58,6.5,-0.03,27.89
13671,0.1917,-0.0253,0.8868,-6.67,8.41,-0.08,27.86
13681,0.2251,-0.0197,0.8777,-6.61,7.97,-0.14,27.84
13691,0.2181,-0.0195,0.8944,-6.55,6.87,-0.05,27.85
13701,0.2065,-0.0222,0.9044,-6.66,9.36,-0.06,27.85
13711,0.2306,-0.021,0.8682,-6.61,7.6,-0.08,27.84
13721,0.2068,-0.015,0.892,-6.64,6.87,-0.02,27.87
13735,0.2338,-0.0229,0.8552,-6.61,7.77,-0.02,27.84
13745,0.1915,-0.0287,0.8997,-6.56,8.85,-0.09,27.85
13759,0.2084,-0.0262,0.887,-6.56,7.01,0.0,27.83
13770,0.1974,-0.0226,0.8921,-6.56,7.63,-0.05,27.87
13780,0.222,-0.0192,0.8744,-6.61,7.89,-0.11,27.84
13790,0.2156,-0.0187,0.8896,-6.63,7.39,-0.08,27.83
13800,0.2106,-0.0208,0.8905,-6.58,8.26,-0.06,27.85
13810,0.2148,-0.0228,0.8733,-6.52,8.32,0.0,27.84
13820,0.2175,-0.0245,0.8707,-6.55,7.1,-0.06,27.84
13830,0.1981,-0.0227,0.8975,-6.63,8.92,-0.06,27.85
13840,0.2334,-0.0188,0.8727,-6.63,7.76,0.0,27.83
13850,0.2061,-0.0226,0.9027,-6.66,7.02,-0.02,27.84
13867,0.1887,-0.0194,0.9015,-6.61,7.5,0.0,27.83
13878,0.2241,-0.0197,0.8837,-6.6,9.11,-0.06,27.83
13891,0.2072,-0.0217,0.8872,-6.67,9.68,-0.03,27.84
13901,0.2334,-0.0193,0.8794,-6.61,5.88,0.0,27.84
13916,0.2087,-0.0212,0.8809,-6.61,9.13,0.02,27.85
13926,0.2296,-0.0211,0.8793,-6.73,6.95,-0.08,27.82
13939,0.2219,-0.0221,0.8787,-6.58,7.94,-0.02,27.84
13949,0.2194,-0.0228,0.884,-6.64,6.7,-0.02,27.84
13959,0.1997,-0.0216,0.9056,-6.67,9.11,-0.02,27.85
13969,0.2286,-0.0222,0.8649,-6.55,7.95,-0.03,27.85
13979,0.2048,-0.0197,0.886,-6.55,7.13,-0.08,27.87
13989,0.2009,-0.0223,0.8898,-6.69,8.66,-0.06,27.86
13999,0.223,-0.0173,0.8784,-6.67,7.76,0.0,27.87
14009,0.219,-0.026,0.8918,-6.55,7.27,-0.11,27.88
14019,0.2107,-0.0242,0.8993,-6.63,8.44,-0.08,27.89
14029,0.2191,-0.0206,0.8809,-6.61,8.38,-0.02,27.89
14039,0.2148,-0.0232,0.8759,-6.64,6.98,0.02,27.87
14049,0.1973,-0.0249,0.892,-6.63,8.66,-0.06,27.88
14059,0.2325,-0.0194,0.8801,-6.49,7.39,-0.05,27.86
14069,0.2108,-0.022,0.8986,-6.61,7.18,-0.06,27.85
14079,0.2106,-0.0212,0.8983,-6.61,9.4,-0.08,27.88
14089,0.2261,-0.0248,0.8757,-6.5,7.1,-0.08,27.89
14099,0.1929,-0.0181,0.8934,-6.61,8.14,-0.02,27.86
14109,0.2239,-0.0153,0.8789,-6.61,8.24,-0.02,27.88
14119,0.2089,-0.0223,0.8934,-6.75,6.98,-0.03,27.9
14129,0.2128,-0.0219,0.8958,-6.53,9.74,-0.11,27.86
14139,0.2196,-0.022,0.8748,-6.53,6.66,-0.03,27.87
14155,0.2043,-0.0221,0.9049,-6.6,8.67,-0.05,27.86
14165,0.2273,-0.0221,0.8792,-6.5,7.83,-0.08,27.86
14175,0.2069,-0.0221,0.8854,-6.6,8.2,-0.08,27.88
14185,0.2241,-0.0219,0.8684,-6.61,7.47,0.03,27.86
14195,0.2025,-0.0209,0.8956,-6.61,8.12,-0.03,27.87
14205,0.2285,-0.0217,0.88,-6.66,7.74,0.05,27.87
14215,0.2041,-0.0217,0.907,-6.6,7.53,-0.06,27.89
14227,0.1947,-0.0227,0.9084,-6.69,8.55,0.06,27.86
14239,0.199,-0.0208,0.9099,-6.72,9.22,-0.05,27.89
14251,0.2067,-0.0201,0.8986,-6.66,9.5,-0.02,27.9
14263,0.2112,-0.0179,0.8918,-6.63,9.4,0.02,27.88
14275,0.2163,-0.0195,0.886,-6.61,8.98,-0.08,27.87
14286,0.2233,-0.0189,0.885,-6.63,8.27,-0.06,27.88
14296,0.2109,-0.0186,0.8831,-6.53,7.91,0.02,27.87
14306,0.215,-0.0211,0.8823,-6.64,7.91,0.02,27.87
14316,0.2177,-0.0199,0.8888,-6.55,7.83,-0.03,27.88
14326,0.2179,-0.0228,0.895,-6.63,7.63,0.0,27.91
14336,0.2098,-0.0216,0.887,-6.61,8.5,-0.05,27.86
14346,0.2185,-0.0231,0.8707,-6.58,7.62,-0.15,27.86
14359,0.22,-0.0186,0.8713,-6.6,8.27,-0.03,27.86
14369,0.2111,-0.0225,0.8795,-6.6,7.28,0.03,27.87
14379,0.2081,-0.0195,0.889,-6.58,8.56,-0.03,27.86
14389,0.2246,-0.0225,0.8821,-6.6,7.4,-0.05,27.88
14399,0.2072,-0.0214,0.8962,-6.55,7.83,-0.03,27.87
14409,0.2133,-0.0192,0.8818,-6.61,8.7,-0.05,27.88
14419,0.2223,-0.0186,0.8754,-6.58,6.99,-0.06,27.87
14429,0.2025,-0.0234,0.8871,-6.61,7.95,-0.09,27.9
14439,0.2183,-0.0186,0.8878,-6.64,8.52,-0.05,27.89
14449,0.222,-0.022,0.8842,-6.58,7.16,-0.05,27.88
14459,0.2041,-0.0193,0.8958,-6.6,8.5,-0.05,27.88
14469,0.2195,-0.0211,0.8733,-6.55,7.98,0.03,27.87
14479,0.209,-0.0231,0.8811,-6.58,7.07,-0.09,27.87
14489,0.2073,-0.0195,0.8923,-6.69,8.93,0.0,27.87
14503,0.2144,-0.0223,0.8835,-6.63,6.79,-0.12,27.88
14513,0.2217,-0.0233,0.8854,-6.56,8.53,-0.05,27.88
14527,0.2001,-0.0205,0.8937,-6.66,8.61,-0.06,27.89
14539,0.1997,-0.0236,0.891,-6.63,8.09,-0.03,27.88
14551,0.2034,-0.0233,0.8967,-6.73,8.44,-0.03,27.87
14561,0.2312,-0.0231,0.8834,-6.66,6.98,-0.05,27.86
14575,0.2028,-0.0217,0.8876,-6.61,8.66,-0.08,27.86
14587,0.2032,-0.0243,0.8876,-6.61,8.78,-0.02,27.87
14601,0.2059,-0.0221,0.8906,-6.6,7.66,-0.05,27.88
14611,0.2188,-0.0186,0.8824,-6.7,7.92,-0.02,27.88
14623,0.213,-0.0248,0.8816,-6.69,8.5,-0.09,27.86
14633,0.2152,-0.0221,0.8923,-6.56,7.36,0.0,27.87
14643,0.209,-0.0217,0.8986,-6.53,8.9,-0.11,27.87
14658,0.2247,-0.0212,0.8802,-6.6,7.13,-0.02,27.88
14668,0.2035,-0.0222,0.9039,-6.66,7.95,-0.05,27.89
14683,0.2283,-0.022,0.8845,-6.6,7.45,-0.02,27.87
14694,0.2231,-0.0236,0.8837,-6.53,7.08,-0.02,27.9
14707,0.2267,-0.0212,0.8821,-6.64,7.27,-0.08,27.89
14719,0.2228,-0.0204,0.884,-6.61,6.84,-0.09,27.89
14729,0.2073,-0.0212,0.8982,-6.73,8.34,-0.02,27.9
14743,0.2198,-0.0222,0.8866,-6.56,6.66,0.0,27.91
14753,0.2112,-0.0175,0.9016,-6.61,8.23,0.0,27.89
14763,0.2103,-0.0195,0.8881,-6.58,8.81,-0.12,27.87
14773,0.2335,-0.0233,0.8544,-6.61,3.73,-0.03,27.89
14783,0.1893,-0.0264,0.9119,-6.64,12.31,-0.09,27.88
14793,0.2366,-0.0171,0.8698,-6.6,4.17,-0.02,27.9
14803,0.191,-0.016,0.9126,-6.61,10.7,-0.11,27.91
14813,0.2321,-0.0198,0.8573,-6.64,6.32,-0.03,27.89
14827,0.2422,-0.0007,0.8824,-6.64,7.48,-0.11,27.91
14839,0.2496,-0.0223,0.8668,-6.44,8.99,-0.05,27.87
14849,0.1714,-0.0254,0.9127,-6.84,7.21,-0.05,27.88
14863,0.2048,-0.0233,0.9014,-6.56,5.45,0.02,27.9
14875,0.1864,-0.0182,0.9175,-6.56,8.85,-0.03,27.88
14887,0.1991,-0.015,0.907,-6.61,10.35,-0.08,27.87
14899,0.217,-0.0211,0.8856,-6.64,9.53,-0.06,27.88
14909,0.2233,-0.021,0.8802,-6.49,6.64,-0.02,27.91
14919,0.2051,-0.022,0.8914,-6.78,8.37,-0.08,27.87
14929,0.2219,-0.0251,0.8771,-6.64,8.06,-0.03,27.92
14939,0.2144,-0.0251,0.8925,-6.52,7.15,0.02,27.91
14949,0.2026,-0.0176,0.8927,-6.64,8.79,-0.03,27.88
14959,0.2189,-0.0204,0.8741,-6.63,7.82,0.05,27.88
14969,0.2065,-0.0226,0.8831,-6.64,7.47,0.02,27.9
14979,0.209,-0.0209,0.8871,-6.7,8.63,-0.02,27.9
14989,0.2258,-0.0212,0.8817,-6.52,7.02,-0.06,27.89
14999,0.2042,-0.0227,0.9025,-6.61,8.18,0.05,27.89
15009,0.2208,-0.0249,0.8756,-6.66,8.56,-0.06,27.87
15019,0.2198,-0.0198,0.8795,-6.5,7.01,-0.03,27.9
15029,0.2068,-0.0184,0.8988,-6.64,7.98,-0.05,27.9
15043,0.2125,-0.0175,0.8807,-6.58,6.78,-0.06,27.89
15053,0.2075,-0.0203,0.8879,-6.67,8.69,-0.09,27.88
15063,0.224,-0.0226,0.8861,-6.56,7.51,-0.05,27.9
15079,0.2089,-0.0227,0.8832,-6.63,7.6,-0.06,27.88
15091,0.2098,-0.0229,0.8833,-6.56,7.42,-0.02,27.91
15103,0.2059,-0.0231,0.8861,-6.6,7.6,0.06,27.89
15113,0.215,-0.0212,0.8846,-6.55,8.58,-0.02,27.92
15123,0.2152,-0.0212,0.8851,-6.58,7.07,-0.03,27.9
15133,0.2075,-0.0215,0.8983,-6.63,8.9,-0.05,27.9
15143,0.2246,-0.0227,0.8717,-6.64,7.71,-0.09,27.91
15153,0.2072,-0.0177,0.8921,-6.64,7.15,-0.05,27.91
15163,0.2131,-0.0193,0.8912,-6.67,9.13,-0.05,27.87
15173,0.2288,-0.0244,0.8842,-6.58,6.66,0.0,27.91
15183,0.2048,-0.0209,0.9027,-6.58,8.76,-0.03,27.91
15193,0.2184,-0.0214,0.8733,-6.63,8.29,0.02,27.92
15203,0.2123,-0.0249,0.8766,-6.6,7.04,0.02,27.9
15214,0.203,-0.026,0.8888,-6.61,7.91,-0.12,27.91
15224,0.2113,-0.0228,0.8855,-6.69,8.32,-0.12,27.9
15234,0.2184,-0.0223,0.8829,-6.6,7.31,-0.14,27.9
15244,0.2074,-0.0222,0.8929,-6.58,8.08,-0.03,27.91
15254,0.2125,-0.0208,0.877,-6.61,8.23,-0.03,27.9
15264,0.2157,-0.0225,0.8784,-6.56,7.31,0.0,27.9
15274,0.2048,-0.0221,0.889,-6.64,8.05,-0.02,27.9
15284,0.2219,-0.0239,0.8872,-6.6,7.97,-0.09,27.93
15294,0.217,-0.0228,0.8977,-6.58,7.53,-0.09,27.94
15304,0.208,-0.0171,0.8958,-6.56,8.73,-0.05,27.91
15314,0.2238,-0.0221,0.8733,-6.61,8.09,-0.05,27.91
15324,0.2,-0.0239,0.9,-6.64,8.14,-0.03,27.87
15334,0.2201,-0.0214,0.8828,-6.63,8.06,-0.05,27.92
15344,0.2179,-0.022,0.8881,-6.55,7.5,0.0,27.92
15355,0.2167,-0.0227,0.8882,-6.53,7.4,0.0,27.89
15365,0.2007,-0.0229,0.8944,-6.61,8.44,-0.12,27.9
15378,0.205,-0.0189,0.9004,-6.61,7.82,-0.08,27.9
15388,0.2229,-0.0211,0.8671,-6.67,7.77,-0.05,27.9
15398,0.2173,-0.0215,0.8757,-6.63,6.76,-0.09,27.91
15408,0.2017,-0.0175,0.8944,-6.63,8.82,-0.02,27.9
15418,0.2347,-0.0215,0.8728,-6.61,7.62,-0.03,27.91
15428,0.2078,-0.0236,0.8973,-6.69,7.3,-0.08,27.9
15438,0.2225,-0.025,0.8894,-6.63,8.6,-0.03,27.92
15448,0.1984,-0.0264,0.8992,-6.64,8.92,-0.06,27.91
15458,0.2369,-0.0179,0.8605,-6.61,6.96,0.02,27.9
15468,0.1986,-0.0201,0.9031,-6.55,7.63,-0.06,27.9
15478,0.2217,-0.0233,0.8806,-6.67,8.17,-0.15,27.91
15488,0.2039,-0.0176,0.8994,-6.7,8.11,-0.08,27.93
15499,0.2133,-0.0231,0.8892,-6.61,8.89,-0.06,27.92
15510,0.2241,-0.0234,0.8724,-6.58,7.6,-0.06,27.93
15520,0.2062,-0.0217,0.8896,-6.58,7.51,-0.03,27.91
15530,0.2141,-0.0212,0.8778,-6.58,8.69,0.0,27.89
15547,0.222,-0.0195,0.874,-6.63,7.48,-0.11,27.93
15557,0.212,-0.0206,0.8846,-6.58,7.86,-0.03,27.93
15567,0.2137,-0.0243,0.8867,-6.69,8.18,-0.11,27.92
15583,0.2174,-0.0217,0.8788,-6.6,8.05,0.02,27.89
15595,0.2184,-0.0221,0.8715,-6.61,7.76,-0.11,27.94
15605,0.2031,-0.0237,0.8832,-6.7,7.74,-0.02,27.91
15615,0.2122,-0.0189,0.8894,-6.67,8.53,-0.03,27.93
15625,0.2126,-0.0214,0.8898,-6.6,6.72,0.0,27.9
15635,0.2014,-0.024,0.9038,-6.67,9.07,-0.17,27.92
15645,0.2285,-0.0199,0.8679,-6.61,7.28,-0.08,27.88
15655,0.2164,-0.0226,0.8826,-6.61,6.35,0.0,27.92
15665,0.2196,-0.024,0.8818,-6.69,8.9,-0.03,27.91
15679,0.2015,-0.0226,0.8954,-6.64,8.66,-0.08,27.92
15691,0.2062,-0.0215,0.8901,-6.63,8.7,-0.03,27.93
15703,0.2114,-0.0216,0.8883,-6.7,8.46,-0.05,27.92
15715,0.2084,-0.027,0.8899,-6.61,8.12,-0.02,27.92
15725,0.2223,-0.0233,0.8832,-6.61,7.62,-0.06,27.92
15735,0.2087,-0.0212,0.9031,-6.53,7.86,0.02,27.93
15751,0.2034,-0.0234,0.8901,-6.66,8.29,-0.09,27.92
15761,0.217,-0.0193,0.8879,-6.63,7.08,-0.08,27.89
15771,0.2045,-0.0195,0.9025,-6.56,8.46,-0.12,27.92
15781,0.2168,-0.0229,0.8799,-6.66,8.14,-0.08,27.92
15791,0.2144,-0.0203,0.8779,-6.63,7.44,-0.06,27.9
15801,0.2098,-0.0232,0.8851,-6.73,8.2,-0.05,27.93
15811,0.2198,-0.0206,0.8831,-6.55,7.74,-0.05,27.9
15821,0.2125,-0.0214,0.8933,-6.6,7.66,-0.11,27.91
15835,0.2166,-0.0203,0.8833,-6.64,8.32,-0.03,27.92
15847,0.2258,-0.0209,0.8768,-6.69,7.13,-0.06,27.92
15860,0.2266,-0.0211,0.8766,-6.63,7.82,-0.12,27.93
15871,0.2201,-0.0209,0.8823,-6.63,6.95,0.0,27.93
15881,0.2061,-0.0181,0.8989,-6.6,8.43,-0.06,27.9
15895,0.2258,-0.0208,0.8794,-6.52,7.08,0.0,27.91
15906,0.2118,-0.0212,0.8973,-6.63,7.21,-0.06,27.89
15916,0.2211,-0.0188,0.8812,-6.69,8.55,-0.06,27.9
15926,0.2159,-0.0204,0.8755,-6.55,6.85,-0.02,27.91
15943,0.2048,-0.0232,0.905,-6.6,8.32,-0.03,27.89
15953,0.2223,-0.0187,0.8784,-6.61,8.49,-0.09,27.93
15963,0.2179,-0.0206,0.8781,-6.64,7.19,0.02,27.9
15979,0.2069,-0.0219,0.9021,-6.55,8.29,-0.02,27.92
15989,0.2188,-0.0188,0.8765,-6.69,7.94,-0.03,27.9
15999,0.21,-0.0223,0.8796,-6.63,7.4,0.02,27.91
16015,0.2068,-0.0181,0.9044,-6.53,8.52,-0.03,27.93
16029,0.2156,-0.024,0.8931,-6.56,7.36,-0.12,27.93
16039,0.2166,-0.0247,0.8842,-6.6,8.47,-0.05,27.92
16049,0.2206,-0.0233,0.8782,-6.63,7.8,-0.09,27.93
16063,0.2139,-0.0229,0.8944,-6.64,8.46,-0.14,27.92
16075,0.2133,-0.0205,0.8909,-6.69,8.49,-0.06,27.91
16085,0.2189,-0.0183,0.8749,-6.6,7.33,0.02,27.9
16099,0.2123,-0.0232,0.8846,-6.53,8.7,-0.03,27.94
16109,0.2183,-0.0194,0.8738,-6.61,7.28,-0.06,27.9
16123,0.2151,-0.0215,0.8751,-6.7,8.44,-0.05,27.94
16133,0.2158,-0.0201,0.8766,-6.64,6.93,-0.03,27.93
16147,0.2185,-0.0205,0.8751,-6.58,8.11,-0.05,27.93
16159,0.2191,-0.0203,0.8802,-6.56,8.34,0.02,27.94
16169,0.2172,-0.0222,0.8715,-6.55,6.66,0.0,27.94
16179,0.1979,-0.0206,0.8962,-6.64,9.22,-0.05,27.96
16189,0.233,-0.021,0.8737,-6.56,6.84,-0.03,27.94
16199,0.1993,-0.0209,0.907,-6.69,8.09,0.0,27.93
16209,0.2214,-0.0222,0.8801,-6.61,8.84,-0.05,27.93
16219,0.2222,-0.0198,0.8751,-6.61,6.79,0.03,27.95
16229,0.2003,-0.0201,0.8894,-6.6,8.75,-0.05,27.93
16243,0.2076,-0.0201,0.8838,-6.53,7.33,-0.08,27.92
16253,0.2054,-0.0234,0.8844,-6.61,8.5,-0.09,27.93
16267,0.2098,-0.0239,0.8839,-6.56,7.6,-0.05,27.94
16277,0.2081,-0.0223,0.8905,-6.66,8.27,-0.11,27.94
16287,0.222,-0.0182,0.8855,-6.53,7.44,0.03,27.95
16297,0.2101,-0.0212,0.8992,-6.61,7.92,-0.03,27.93
16307,0.2122,-0.0176,0.8833,-6.66,8.7,-0.05,27.94
16317,0.222,-0.0219,0.8728,-6.53,6.95,0.02,27.92
16327,0.2006,-0.0214,0.8929,-6.61,8.37,-0.05,27.92
16337,0.2269,-0.0205,0.8774,-6.66,7.85,-0.11,27.92
16347,0.2072,-0.0199,0.9023,-6.64,7.48,-0.06,27.92
16357,0.2113,-0.0225,0.8925,-6.69,9.02,-0.02,27.91
16367,0.2203,-0.0181,0.8707,-6.61,7.13,-0.02,27.92
16377,0.1993,-0.0215,0.885,-6.64,7.92,-0.06,27.92
16387,0.2128,-0.0211,0.8876,-6.64,8.31,0.0,27.92
16399,0.2153,-0.022,0.8868,-6.7,8.35,-0.03,27.92
16411,0.217,-0.0206,0.8862,-6.6,8.4,0.03,27.91
16423,0.2076,-0.0186,0.8888,-6.64,8.64,0.0,27.92
16433,0.2162,-0.0237,0.8921,-6.58,7.02,-0.02,27.92
16443,0.2048,-0.0228,0.896,-6.61,9.04,-0.06,27.96
16453,0.2267,-0.0204,0.8661,-6.6,7.54,-0.05,27.94
16463,0.2043,-0.0226,0.8842,-6.67,7.3,-0.03,27.93
16473,0.2158,-0.0214,0.8882,-6.6,8.6,0.0,27.92
16483,0.2217,-0.0209,0.8837,-6.63,7.13,0.03,27.93
16493,0.2084,-0.0204,0.9011,-6.66,8.27,0.0,27.93
16507,0.2184,-0.0229,0.8832,-6.64,6.98,-0.05,27.95
16519,0.218,-0.019,0.8901,-6.6,7.01,-0.06,27.94
16530,0.2045,-0.0179,0.8975,-6.64,8.18,-0.08,27.96
16540,0.2174,-0.0209,0.8783,-6.58,8.47,-0.09,27.93
16550,0.2141,-0.0219,0.876,-6.67,7.21,-0.02,27.95
16567,0.2134,-0.0212,0.8925,-6.58,7.39,-0.06,27.93
16579,0.2076,-0.0192,0.8964,-6.64,8.0,0.05,27.95
16589,0.2139,-0.025,0.8809,-6.64,8.49,-0.09,27.94
16603,0.2092,-0.0198,0.9015,-6.66,8.4,-0.11,27.95
16615,0.21,-0.0197,0.8973,-6.61,8.35,-0.02,27.94
16625,0.2158,-0.0198,0.8771,-6.64,8.43,-0.11,27.94
16639,0.2098,-0.0187,0.9001,-6.61,7.73,-0.08,27.92
16649,0.2195,-0.0182,0.8748,-6.6,8.24,-0.08,27.92
16663,0.2051,-0.021,0.8936,-6.73,8.75,-0.06,27.95
16675,0.2028,-0.0189,0.9008,-6.7,8.63,-0.14,27.93
16687,0.2086,-0.0201,0.8939,-6.61,8.82,-0.11,27.91
16699,0.2098,-0.0208,0.8928,-6.69,8.73,-0.02,27.94
16711,0.2217,-0.0214,0.8743,-6.63,8.41,0.02,27.94
16723,0.214,-0.0225,0.8848,-6.61,9.01,-0.05,27.96
16735,0.2159,-0.0247,0.8802,-6.64,8.58,-0.05,27.94
16749,0.2115,-0.0236,0.885,-6.6,8.7,-0.05,27.92
16759,0.2186,-0.0205,0.8757,-6.6,7.6,-0.02,27.94
16771,0.2222,-0.0209,0.874,-6.56,7.44,-0.02,27.95
16781,0.2117,-0.0223,0.8807,-6.58,7.21,-0.05,27.94
16796,0.2201,-0.0179,0.8804,-6.56,8.66,-0.03,27.93
16806,0.2159,-0.0193,0.8762,-6.72,6.95,-0.11,27.94
16819,0.2186,-0.0233,0.8696,-6.58,7.28,0.0,27.92
16829,0.2014,-0.0238,0.8892,-6.66,8.15,-0.03,27.94
16839,0.2195,-0.0206,0.8842,-6.73,8.31,-0.06,27.95
16849,0.2184,-0.0211,0.8892,-6.55,6.78,-0.05,27.97
16859,0.2067,-0.024,0.9032,-6.6,9.08,-0.05,27.94
16869,0.2212,-0.0217,0.866,-6.53,7.86,-0.03,27.91
16879,0.2068,-0.0229,0.8832,-6.58,7.51,-0.06,27.94
16891,0.2128,-0.0237,0.8804,-6.66,7.24,-0.03,27.95
16903,0.2008,-0.0247,0.8851,-6.66,7.83,-0.08,27.95
16913,0.2142,-0.0201,0.8905,-6.58,8.38,0.0,27.94
16927,0.2057,-0.0254,0.889,-6.69,8.05,-0.12,27.97
16939,0.2078,-0.0243,0.8885,-6.6,8.14,-0.08,27.96
16951,0.2084,-0.0193,0.8896,-6.63,8.15,-0.08,27.95
16961,0.2231,-0.019,0.8833,-6.6,8.06,-0.09,27.95
16971,0.214,-0.0183,0.8951,-6.67,7.08,-0.08,27.95
16981,0.2073,-0.0234,0.8904,-6.61,9.3,-0.03,27.94
16991,0.2257,-0.0242,0.8657,-6.64,7.07,-0.05,27.95
17001,0.1987,-0.0229,0.8906,-6.63,7.89,-0.03,27.94
17011,0.2238,-0.0239,0.881,-6.61,8.29,-0.02,27.96
17023,0.2261,-0.0223,0.8807,-6.56,7.88,-0.05,27.95
17033,0.2108,-0.021,0.8976,-6.6,7.36,-0.03,27.96
17043,0.2129,-0.0201,0.8947,-6.64,8.66,-0.05,27.96
17053,0.2162,-0.0228,0.8748,-6.64,7.83,-0.08,27.94
17063,0.2135,-0.0208,0.8829,-6.61,7.37,-0.03,27.95
17073,0.2085,-0.0201,0.8942,-6.6,8.46,-0.03,27.93
17083,0.2212,-0.0215,0.8888,-6.63,7.6,-0.03,27.95
17093,0.2144,-0.0222,0.8925,-6.61,7.85,-0.03,27.95
17103,0.21,-0.0226,0.8853,-6.63,8.31,-0.12,27.94
17119,0.2214,-0.0223,0.8833,-6.52,7.65,-0.05,27.96
17131,0.2218,-0.0226,0.8793,-6.55,7.45,0.0,27.98
17141,0.2031,-0.0193,0.8954,-6.63,8.06,-0.06,27.96
17151,0.2181,-0.0189,0.8735,-6.58,8.26,-0.03,27.96
17161,0.214,-0.0236,0.8776,-6.66,6.89,0.03,27.96
17171,0.2045,-0.0211,0.897,-6.64,8.69,-0.06,27.97
17181,0.2286,-0.0205,0.8831,-6.63,7.28,-0.08,27.97
17191,0.2159,-0.0208,0.8987,-6.52,6.95,-0.09,27.96
17201,0.2166,-0.0214,0.8817,-6.64,8.61,0.0,27.97
17215,0.2078,-0.0198,0.8992,-6.64,8.61,-0.09,27.97
17227,0.205,-0.0225,0.8986,-6.61,8.93,-0.06,27.97
17237,0.2212,-0.0187,0.8722,-6.58,7.88,0.0,27.95
17247,0.2178,-0.0201,0.8776,-6.66,7.34,0.0,27.97
17257,0.207,-0.0238,0.8882,-6.66,8.27,0.03,27.96
17267,0.219,-0.0201,0.8843,-6.6,7.69,-0.03,27.97
17277,0.2115,-0.0206,0.8939,-6.7,7.76,0.0,27.96
17287,0.2104,-0.0244,0.8887,-6.58,8.63,-0.02,27.96
17299,0.2107,-0.0204,0.8839,-6.63,8.79,-0.05,27.96
17311,0.207,-0.024,0.8944,-6.56,8.55,-0.06,27.96
17321,0.2173,-0.0212,0.8719,-6.58,7.45,-0.12,27.95
17331,0.21,-0.0255,0.8872,-6.55,7.82,-0.06,27.96
17347,0.2046,-0.02,0.8912,-6.66,8.69,0.03,27.98
17357,0.2184,-0.0248,0.8715,-6.6,7.08,0.03,27.96
17367,0.203,-0.0236,0.8953,-6.67,8.14,-0.06,27.96
17383,0.2197,-0.0193,0.8737,-6.63,8.0,-0.14,27.96
17395,0.2196,-0.0206,0.8729,-6.61,8.6,0.0,27.96
17405,0.2023,-0.0267,0.8937,-6.58,7.57,-0.06,27.98
17419,0.2224,-0.0194,0.8737,-6.63,6.98,-0.06,27.96
17429,0.2003,-0.0204,0.892,-6.61,8.4,-0.08,27.98
17439,0.2146,-0.0172,0.8888,-6.66,8.7,-0.17,27.96
17450,0.2283,-0.0188,0.8772,-6.6,7.31,-0.06,27.95
17467,0.2147,-0.0212,0.876,-6.58,6.61,-0.11,27.97
17479,0.2092,-0.0237,0.8837,-6.63,6.93,-0.06,27.97
17491,0.2048,-0.0243,0.8894,-6.55,7.27,-0.05,27.96
17503,0.2035,-0.0221,0.8901,-6.52,7.66,-0.06,27.98
17515,0.2054,-0.0239,0.8875,-6.69,7.92,-0.09,27.99
17527,0.2046,-0.0212,0.8889,-6.66,8.21,-0.05,27.96
17539,0.2091,-0.0225,0.8865,-6.6,8.11,0.0,27.99
17552,0.208,-0.0236,0.8816,-6.61,7.57,-0.02,27.97
17563,0.2072,-0.0254,0.8868,-6.61,8.17,-0.03,27.95
17575,0.2048,-0.0215,0.886,-6.6,8.18,-0.06,27.97
17587,0.2074,-0.0208,0.8877,-6.66,8.4,-0.08,27.97
17599,0.2068,-0.0219,0.8881,-6.58,8.6,-0.12,27.95
17611,0.2126,-0.0203,0.8866,-6.61,8.72,-0.05,27.96
17624,0.2006,-0.024,0.8928,-6.72,8.6,-0.05,27.98
17635,0.2076,-0.0238,0.8899,-6.58,8.58,-0.06,27.99
17647,0.2196,-0.0228,0.8867,-6.64,7.95,-0.05,27.94
17661,0.2059,-0.0199,0.89,-6.72,8.29,-0.12,27.99
17671,0.2256,-0.0238,0.8795,-6.7,7.76,0.03,27.99
17683,0.2211,-0.0175,0.8866,-6.66,8.34,-0.06,27.97
17696,0.224,-0.0197,0.8848,-6.67,8.2,0.0,27.97
17707,0.2219,-0.0176,0.8862,-6.53,7.39,-0.03,27.96
17719,0.2216,-0.0208,0.8859,-6.69,7.45,-0.08,27.97
17731,0.2196,-0.0209,0.8745,-6.56,7.63,-0.06,27.97
17743,0.2191,-0.0212,0.8816,-6.63,7.5,-0.02,27.99
17756,0.2224,-0.0232,0.8834,-6.66,7.27,-0.05,27.99
17767,0.2245,-0.0228,0.8796,-6.58,7.05,0.0,27.97
17779,0.2261,-0.0203,0.885,-6.56,6.89,0.03,27.99
17791,0.2197,-0.0219,0.8849,-6.6,6.95,0.03,28.0
17803,0.2168,-0.0238,0.8922,-6.6,7.18,-0.03,27.98
17815,0.2126,-0.0197,0.8907,-6.67,7.59,-0.06,27.99
17827,0.2101,-0.0237,0.8916,-6.6,7.62,0.0,27.99
17839,0.2078,-0.0223,0.8973,-6.64,7.79,0.02,27.98
17852,0.2009,-0.0161,0.9104,-6.55,8.17,-0.02,27.97
17865,0.214,-0.0217,0.8884,-6.5,6.9,-0.06,27.96
17875,0.2074,-0.0216,0.8962,-6.6,8.89,-0.06,27.96
17887,0.2106,-0.0239,0.8903,-6.63,8.6,0.0,27.99
17899,0.213,-0.0219,0.8883,-6.73,8.37,-0.08,27.98
17911,0.2098,-0.0193,0.8882,-6.6,8.58,-0.08,27.99
17923,0.2087,-0.0234,0.8871,-6.67,8.81,-0.09,27.99
17935,0.2114,-0.0216,0.8898,-6.63,9.01,-0.06,28.0
17947,0.2179,-0.0238,0.884,-6.64,8.81,-0.06,28.0
17959,0.2242,-0.0216,0.8702,-6.63,7.44,-0.06,28.0
17969,0.2019,-0.0211,0.8854,-6.6,7.68,-0.05,28.0
17983,0.2202,-0.0214,0.8734,-6.6,7.86,-0.03,27.98
17996,0.2247,-0.0199,0.8695,-6.6,7.77,-0.11,27.98
18007,0.225,-0.019,0.8678,-6.63,7.56,-0.05,27.99
18019,0.2256,-0.0189,0.8689,-6.6,7.24,-0.06,27.97
18032,0.2253,-0.0219,0.873,-6.61,7.98,-0.06,27.98
18043,0.2236,-0.0215,0.8748,-6.6,7.04,-0.11,27.99
18056,0.2251,-0.0194,0.8738,-6.58,7.31,-0.14,27.98
18068,0.2203,-0.0231,0.8735,-6.6,6.98,-0.03,27.98
18079,0.2109,-0.0236,0.8805,-6.6,7.04,-0.11,27.99
18092,0.2191,-0.0197,0.8738,-6.67,6.93,-0.06,28.01
18103,0.2064,-0.021,0.8865,-6.61,7.44,-0.03,27.98
18116,0.2129,-0.0193,0.8796,-6.58,7.24,-0.03,27.99
18128,0.2042,-0.0222,0.8893,-6.61,8.0,-0.02,27.99
18139,0.2023,-0.0236,0.8934,-6.63,8.15,-0.06,27.98
18151,0.1992,-0.0212,0.8958,-6.6,8.4,-0.08,27.99
18163,0.1997,-0.0216,0.8948,-6.53,8.67,-0.11,28.01
18175,0.2072,-0.0222,0.8949,-6.73,8.73,-0.11,27.98
18188,0.2023,-0.0188,0.8937,-6.66,8.27,-0.05,27.99
18199,0.2179,-0.0192,0.8872,-6.66,8.66,-0.06,27.97
18211,0.2202,-0.0222,0.8829,-6.61,8.37,-0.09,27.97
18223,0.2241,-0.0195,0.882,-6.69,8.06,0.05,28.01
18235,0.223,-0.0234,0.8804,-6.66,7.85,-0.06,28.0
18247,0.2245,-0.0193,0.8833,-6.6,7.77,-0.09,27.99
18259,0.2279,-0.0229,0.8749,-6.58,7.33,0.05,27.99
18273,0.2146,-0.0244,0.8849,-6.63,8.9,-0.06,27.98
18283,0.2223,-0.0195,0.8846,-6.55,6.75,-0.06,27.99
18295,0.2238,-0.0212,0.8835,-6.56,7.01,-0.09,28.0
18308,0.2239,-0.0189,0.8861,-6.52,7.13,-0.03,28.01
18319,0.2095,-0.0204,0.8964,-6.69,7.69,0.02,28.03
18329,0.2109,-0.0208,0.8829,-6.61,8.56,-0.08,28.0
18344,0.2168,-0.0231,0.8873,-6.56,7.36,-0.09,28.01
18356,0.2166,-0.0233,0.8909,-6.6,7.18,-0.03,27.99
18367,0.212,-0.0187,0.8883,-6.6,6.99,-0.03,28.02
18380,0.2063,-0.0222,0.8967,-6.6,7.47,-0.05,27.99
18392,0.2069,-0.0214,0.8923,-6.58,7.82,-0.06,28.0
18403,0.2076,-0.02,0.9,-6.56,8.0,-0.05,27.99
18415,0.2079,-0.0217,0.8989,-6.63,8.32,-0.05,27.99
18428,0.2056,-0.0215,0.8975,-6.61,8.43,-0.12,27.98
18440,0.2029,-0.0199,0.8994,-6.64,8.56,-0.02,27.99
18451,0.2034,-0.0214,0.8997,-6.66,8.95,-0.05,27.99
18462,0.2233,-0.0214,0.8687,-6.56,7.63,-0.03,27.99
18477,0.208,-0.02,0.8999,-6.6,8.15,-0.03,27.98
18488,0.2145,-0.0234,0.8809,-6.69,8.35,0.0,27.99
18499,0.2175,-0.0234,0.8765,-6.6,8.37,0.03,28.01
18511,0.2158,-0.0217,0.8777,-6.63,8.24,-0.06,28.01
18521,0.2101,-0.0206,0.8829,-6.64,7.51,0.02,28.0
18535,0.2172,-0.0198,0.8765,-6.55,7.83,-0.06,28.0
18547,0.219,-0.0192,0.8745,-6.58,7.71,0.0,28.0
18559,0.2174,-0.0204,0.876,-6.61,7.54,0.0,28.02
18569,0.2053,-0.024,0.8828,-6.69,7.66,-0.06,28.01
18583,0.2201,-0.0179,0.8782,-6.73,7.19,-0.05,27.99
18593,0.209,-0.0205,0.8893,-6.56,8.6,-0.11,27.99
18607,0.2152,-0.0203,0.8805,-6.61,7.11,0.0,28.0
18619,0.2166,-0.024,0.8831,-6.52,7.08,-0.08,28.0
18632,0.2142,-0.0226,0.8783,-6.64,7.05,-0.02,28.0
18642,0.2061,-0.0209,0.8915,-6.7,8.44,-0.09,28.0
18656,0.21,-0.0225,0.886,-6.6,7.45,-0.03,28.0
18666,0.2129,-0.021,0.8883,-6.7,8.47,-0.05,27.99
18681,0.2213,-0.0216,0.8755,-6.66,7.18,-0.06,28.0
18691,0.2031,-0.0248,0.8898,-6.63,8.2,-0.06,27.99
18703,0.2004,-0.0253,0.8923,-6.69,8.64,0.0,28.0
18715,0.2039,-0.0215,0.8896,-6.63,8.66,0.0,28.0
18725,0.2192,-0.0251,0.8815,-6.63,7.02,-0.02,28.01
18739,0.2126,-0.0211,0.8916,-6.63,8.96,-0.03,28.02
18751,0.2123,-0.021,0.8864,-6.66,8.99,-0.08,28.01
18763,0.2208,-0.0173,0.8828,-6.6,8.58,-0.03,28.03
18776,0.2101,-0.021,0.891,-6.58,9.19,0.0,28.02
18786,0.214,-0.0176,0.8933,-6.55,6.81,0.05,28.02
18799,0.2312,-0.0212,0.8805,-6.64,7.16,-0.09,27.99
18811,0.2317,-0.017,0.8804,-6.56,6.81,-0.05,27.99
18821,0.2061,-0.0183,0.8975,-6.61,9.02,-0.12,27.99
18835,0.2202,-0.0229,0.8878,-6.58,7.01,0.02,28.01
18848,0.2277,-0.0203,0.8792,-6.63,7.18,-0.08,28.03
18858,0.2087,-0.0209,0.8984,-6.56,8.66,-0.11,28.01
18871,0.2159,-0.0181,0.8896,-6.56,7.34,-0.02,28.03
18885,0.2211,-0.022,0.8849,-6.56,7.71,-0.02,28.02
18895,0.2151,-0.0197,0.8918,-6.64,7.62,0.03,28.01
18905,0.2086,-0.0205,0.8954,-6.66,8.31,0.06,28.01
18919,0.2161,-0.0223,0.8898,-6.6,7.56,-0.08,28.0
18929,0.2084,-0.0222,0.8918,-6.58,8.64,-0.08,28.01
18943,0.2081,-0.0211,0.8997,-6.66,7.86,-0.08,28.02
18955,0.2078,-0.0205,0.8984,-6.58,8.2,-0.11,28.0
18967,0.2025,-0.0215,0.8983,-6.69,8.63,-0.06,28.01
18980,0.2076,-0.021,0.8982,-6.72,7.88,0.0,28.01
18990,0.2169,-0.0256,0.879,-6.6,8.78,-0.06,28.01
19003,0.213,-0.0226,0.8822,-6.6,8.67,-0.03,28.03
19013,0.2194,-0.0197,0.8701,-6.63,7.37,-0.06,28.02
19027,0.2086,-0.0226,0.8912,-6.56,8.56,-0.12,28.01
19037,0.2216,-0.0205,0.8774,-6.63,7.28,-0.12,28.0
19047,0.2061,-0.0195,0.8844,-6.64,7.76,-0.05,28.0
19063,0.2131,-0.0212,0.8805,-6.55,8.38,-0.03,27.99
19073,0.2115,-0.0269,0.8798,-6.5,7.11,-0.05,27.99
19083,0.205,-0.0226,0.897,-6.55,8.92,-0.09,28.03
19101,0.2135,-0.0199,0.8816,-6.58,8.92,-0.06,28.02
19111,0.2174,-0.0226,0.8765,-6.52,6.98,-0.06,28.02
19123,0.2218,-0.0211,0.8713,-6.61,7.5,0.02,28.02
19133,0.2048,-0.0226,0.8872,-6.67,8.38,-0.03,28.03
19143,0.2205,-0.0219,0.8818,-6.67,7.89,-0.03,28.0
19159,0.2217,-0.0206,0.8729,-6.52,7.21,0.06,28.01
19169,0.205,-0.0195,0.8948,-6.6,8.67,-0.09,28.04
19183,0.2174,-0.0228,0.8776,-6.66,6.7,-0.03,28.0
19193,0.2169,-0.0227,0.8849,-6.61,8.73,-0.09,28.01
19203,0.2228,-0.0209,0.8827,-6.61,6.92,-0.08,28.02
19219,0.2062,-0.024,0.8859,-6.66,7.63,-0.03,28.01
19229,0.2217,-0.0186,0.8835,-6.56,7.8,-0.06,28.02
19239,0.2148,-0.0195,0.8969,-6.66,7.57,-0.06,28.01
19249,0.2086,-0.0198,0.8879,-6.58,8.49,-0.12,28.01
19259,0.2162,-0.0211,0.8785,-6.61,7.8,-0.09,28.0
19269,0.2109,-0.0239,0.8844,-6.61,7.6,-0.02,28.02
19279,0.2158,-0.0188,0.8899,-6.58,8.21,-0.08,28.02
19289,0.2227,-0.0221,0.8859,-6.67,7.44,-0.08,28.02
19304,0.2051,-0.0204,0.891,-6.72,8.58,-0.02,28.04
19314,0.2291,-0.0203,0.8793,-6.6,7.45,0.02,28.01
19324,0.2072,-0.0204,0.9037,-6.63,7.74,0.02,28.04
19334,0.2198,-0.0222,0.8734,-6.64,8.98,-0.11,28.04
19344,0.215,-0.0258,0.8752,-6.61,6.58,-0.09,28.02
19354,0.2012,-0.0247,0.8922,-6.66,9.19,-0.05,28.01
19364,0.231,-0.021,0.8751,-6.63,6.79,-0.06,28.02
19374,0.2013,-0.0222,0.9025,-6.55,7.8,-0.09,28.01
19384,0.22,-0.0226,0.8772,-6.63,8.82,-0.08,28.03
19394,0.2172,-0.0227,0.8789,-6.52,6.84,-0.06,28.0
19408,0.2162,-0.0209,0.8922,-6.63,8.73,0.02,28.02
19420,0.2109,-0.0198,0.8861,-6.63,8.64,-0.03,28.02
19432,0.2211,-0.0206,0.8801,-6.64,8.09,-0.08,27.99
19442,0.2107,-0.0201,0.8832,-6.63,7.22,-0.08,28.01
19455,0.2251,-0.0211,0.8715,-6.61,7.86,-0.11,27.99
19465,0.1979,-0.0209,0.895,-6.66,8.53,-0.09,28.03
19475,0.2314,-0.0187,0.8839,-6.61,8.14,-0.06,28.01
19485,0.2073,-0.02,0.9025,-6.63,7.07,-0.02,28.02
19495,0.2051,-0.0183,0.8868,-6.64,9.31,-0.06,28.03
19505,0.2195,-0.0262,0.8701,-6.67,7.33,-0.08,28.03
19515,0.1998,-0.0234,0.8857,-6.64,7.91,-0.03,28.06
19525,0.2091,-0.0227,0.8866,-6.7,8.6,-0.03,28.01
19535,0.2155,-0.0233,0.8933,-6.75,7.34,-0.05,28.04
19549,0.2123,-0.0206,0.8868,-6.66,8.31,-0.06,28.04
19559,0.2168,-0.0184,0.8899,-6.66,7.56,0.0,28.03
19573,0.2122,-0.0222,0.8959,-6.63,8.53,-0.09,28.01
19585,0.2117,-0.0214,0.8951,-6.63,8.5,-0.08,28.02
19595,0.2242,-0.0194,0.8854,-6.5,6.99,0.05,28.02
19609,0.2183,-0.0219,0.8854,-6.64,8.34,-0.05,28.05
19622,0.2151,-0.02,0.8882,-6.73,8.66,-0.05,28.03
19632,0.2212,-0.0227,0.884,-6.6,7.08,0.0,28.04
19642,0.202,-0.0181,0.8972,-6.61,8.61,-0.02,28.01
19652,0.2206,-0.024,0.8674,-6.67,8.05,-0.11,28.04
19662,0.2115,-0.0231,0.8834,-6.63,7.21,-0.03,28.02
19672,0.2107,-0.0197,0.8915,-6.63,8.73,-0.06,28.05
19682,0.2233,-0.0206,0.8875,-6.66,7.25,0.02,28.06
19692,0.2097,-0.0197,0.8998,-6.64,7.97,-0.02,28.03
19702,0.2163,-0.021,0.8843,-6.58,8.38,-0.02,28.04
19717,0.2155,-0.0228,0.8984,-6.56,7.51,-0.06,28.04
19729,0.2223,-0.0223,0.8855,-6.61,7.22,0.0,28.03
19739,0.2041,-0.021,0.8955,-6.58,9.04,-0.05,28.04
19749,0.2266,-0.0193,0.8711,-6.61,7.25,-0.08,28.04
19766,0.2117,-0.0206,0.8944,-6.6,7.05,0.02,28.04
19778,0.2085,-0.0231,0.8975,-6.64,7.53,-0.09,28.03
19788,0.2108,-0.0208,0.886,-6.6,8.76,-0.06,28.05
19798,0.2191,-0.0227,0.8735,-6.67,7.27,-0.03,28.02
19813,0.205,-0.022,0.9022,-6.64,8.06,-0.06,28.04
19825,0.2006,-0.0194,0.905,-6.58,8.38,-0.08,28.07
19837,0.2028,-0.0199,0.91,-6.66,8.75,-0.12,28.01
19850,0.2028,-0.0203,0.9025,-6.63,9.16,-0.06,28.04
19861,0.2091,-0.0201,0.8953,-6.66,9.1,-0.08,28.03
19873,0.2118,-0.0211,0.8923,-6.67,9.19,-0.06,28.02
19883,0.214,-0.0258,0.8795,-6.58,6.89,0.0,28.02
19893,0.2031,-0.0217,0.8894,-6.69,8.72,-0.11,28.04
19903,0.2252,-0.0201,0.8788,-6.61,7.45,-0.06,28.04
19913,0.2124,-0.0205,0.8971,-6.63,7.37,0.02,28.04
19923,0.2107,-0.0201,0.8925,-6.58,8.64,-0.05,28.04
19933,0.223,-0.02,0.8739,-6.55,7.56,0.0,28.02
19946,0.2289,-0.0176,0.8696,-6.6,7.69,-0.05,28.04
19957,0.2271,-0.022,0.8667,-6.6,7.08,0.0,28.02
19967,0.2015,-0.0214,0.8871,-6.64,9.08,-0.05,28.02
19981,0.2156,-0.0216,0.8776,-6.67,6.93,-0.09,28.04
19994,0.2126,-0.0206,0.8802,-6.64,7.33,-0.03,28.04
20004,0.2035,-0.0208,0.8868,-6.66,8.37,-0.05,28.04
20018,0.2106,-0.0223,0.8849,-6.64,7.42,-0.05,28.02
20030,0.2136,-0.0245,0.8824,-6.63,7.27,-0.03,28.02
20040,0.2039,-0.0209,0.8938,-6.56,8.43,-0.14,28.04
20050,0.2292,-0.0221,0.8839,-6.66,7.48,-0.05,28.02
20065,0.2017,-0.0199,0.8905,-6.64,7.53,-0.02,28.04
20077,0.1992,-0.0238,0.8954,-6.69,8.21,-0.08,28.02
20087,0.2314,-0.0261,0.8793,-6.55,7.11,-0.05,28.02
20097,0.2113,-0.0237,0.892,-6.61,6.96,-0.08,28.05
20107,0.2223,-0.0232,0.8763,-6.64,8.72,0.0,28.05
20117,0.2119,-0.0229,0.8816,-6.61,6.95,0.0,28.03
20127,0.2015,-0.0261,0.8857,-6.61,8.72,0.03,28.02
20137,0.2214,-0.021,0.8801,-6.56,7.51,-0.02,28.03
20149,0.2092,-0.0214,0.8896,-6.67,8.08,-0.06,28.05
20159,0.218,-0.0211,0.8882,-6.64,7.69,-0.05,28.0
20174,0.2114,-0.0193,0.8956,-6.7,8.35,0.02,28.05
20184,0.2206,-0.0172,0.8893,-6.64,7.48,-0.14,28.06
20194,0.2068,-0.0209,0.899,-6.61,8.2,-0.02,28.03
20204,0.2198,-0.0227,0.8737,-6.6,8.38,-0.02,28.04
20214,0.218,-0.0217,0.8787,-6.63,6.84,-0.12,28.03
20224,0.2057,-0.0187,0.9015,-6.61,8.96,-0.11,28.04
20234,0.2308,-0.0215,0.8741,-6.64,7.05,-0.02,28.04
20246,0.2338,-0.0227,0.873,-6.64,7.85,-0.03,28.03
20258,0.2231,-0.0204,0.8884,-6.5,6.55,-0.06,28.04
20268,0.1997,-0.0186,0.9032,-6.66,9.19,-0.05,28.04
20281,0.203,-0.0267,0.8995,-6.56,7.22,-0.09,28.03
20291,0.2253,-0.0228,0.8677,-6.63,8.64,-0.11,28.03
20306,0.2109,-0.0229,0.9,-6.47,6.96,-0.03,28.02
20319,0.2185,-0.022,0.8851,-6.66,6.89,-0.05,28.04
20330,0.2107,-0.0227,0.8979,-6.66,7.71,-0.03,28.02
20340,0.2125,-0.0203,0.8909,-6.69,9.02,-0.03,28.02
20353,0.204,-0.021,0.8993,-6.63,8.92,-0.09,28.03
20363,0.2201,-0.0229,0.8707,-6.64,8.03,-0.11,28.04
20373,0.2103,-0.0205,0.8817,-6.67,7.15,-0.15,28.04
20390,0.2012,-0.0188,0.9023,-6.63,8.79,-0.08,28.05
20401,0.2133,-0.0219,0.8844,-6.56,8.95,-0.03,28.04
20413,0.212,-0.0203,0.8922,-6.67,9.11,-0.09,28.03
20423,0.2156,-0.0205,0.8807,-6.55,7.01,-0.08,28.05
20433,0.2054,-0.0232,0.8894,-6.67,8.26,-0.09,28.04
20443,0.2246,-0.0214,0.885,-6.64,7.56,0.0,28.05
20453,0.2123,-0.0193,0.8942,-6.55,7.66,-0.06,28.04
20463,0.2085,-0.0189,0.8915,-6.6,8.63,-0.12,28.06
20473,0.2227,-0.0208,0.8691,-6.56,7.71,-0.09,28.05
20483,0.2059,-0.0236,0.886,-6.64,7.34,-0.11,28.05
20493,0.2148,-0.0223,0.8931,-6.64,8.79,-0.05,28.0
20503,0.2212,-0.0211,0.8868,-6.56,6.95,0.03,28.03
20514,0.2129,-0.0231,0.8984,-6.55,7.51,-0.05,28.06
20524,0.2123,-0.024,0.892,-6.56,8.96,0.0,28.06
20534,0.2228,-0.0173,0.873,-6.61,7.34,-0.02,28.07
20545,0.2242,-0.0189,0.8694,-6.66,7.01,-0.02,28.05
20555,0.2013,-0.021,0.8905,-6.6,8.84,0.06,28.05
20565,0.2281,-0.0184,0.8737,-6.6,7.27,0.0,28.04
20575,0.2073,-0.0179,0.9003,-6.58,7.82,-0.05,28.04
20585,0.2118,-0.0198,0.8845,-6.67,8.89,-0.03,28.04
20595,0.2206,-0.0188,0.8713,-6.58,7.13,-0.15,28.07
20606,0.2113,-0.0205,0.8813,-6.56,7.25,-0.09,28.03
20616,0.2091,-0.0162,0.8906,-6.56,8.46,-0.05,28.07
20626,0.2251,-0.0199,0.8811,-6.63,7.57,0.0,28.05
20636,0.2083,-0.0237,0.9,-6.61,7.8,-0.03,28.04
20646,0.2112,-0.0233,0.8809,-6.6,8.98,-0.09,28.08
20656,0.222,-0.0228,0.8684,-6.56,6.87,-0.08,28.05
20666,0.1968,-0.0264,0.8909,-6.67,8.06,-0.05,28.06
20677,0.2009,-0.0253,0.8947,-6.7,8.35,0.0,28.07
20687,0.2233,-0.0238,0.8839,-6.63,7.01,0.0,28.08
20701,0.2054,-0.0173,0.8939,-6.56,8.61,0.0,28.06
20711,0.2142,-0.0201,0.89,-6.55,6.93,-0.02,28.05
20725,0.2218,-0.0189,0.8895,-6.64,8.72,-0.08,28.06
20735,0.2128,-0.0201,0.9041,-6.63,7.37,-0.03,28.08
20750,0.2156,-0.0198,0.8894,-6.7,8.72,0.02,28.03
20761,0.2266,-0.0216,0.8824,-6.67,7.66,-0.05,28.07
20771,0.204,-0.0181,0.9042,-6.6,8.38,0.0,28.08
20786,0.2236,-0.0214,0.8842,-6.72,6.95,-0.05,28.06
20797,0.2236,-0.019,0.8831,-6.63,6.99,-0.06,28.07
20807,0.2101,-0.022,0.8923,-6.61,8.7,-0.08,28.07
20817,0.218,-0.0206,0.8767,-6.61,8.2,-0.05,28.06
20827,0.2135,-0.0223,0.8782,-6.6,7.42,-0.05,28.08
20837,0.2134,-0.02,0.8931,-6.64,8.08,-0.05,28.09
20847,0.2233,-0.0197,0.8866,-6.56,7.82,-0.06,28.09
20857,0.2128,-0.0216,0.8956,-6.64,7.66,-0.06,28.07
20869,0.2168,-0.0217,0.8929,-6.58,7.34,-0.05,28.08
20882,0.2163,-0.0172,0.8951,-6.58,7.21,-0.03,28.07
20893,0.2085,-0.0176,0.899,-6.66,7.6,-0.05,28.07
20906,0.218,-0.0216,0.8933,-6.52,7.4,0.08,28.09
20918,0.2153,-0.0232,0.895,-6.6,7.63,-0.06,28.07
20931,0.2161,-0.0197,0.886,-6.6,7.54,-0.03,28.07
20941,0.2102,-0.0229,0.8838,-6.7,8.43,-0.15,28.07
20951,0.2205,-0.0222,0.8773,-6.61,7.53,-0.05,28.07
20961,0.2166,-0.0221,0.8776,-6.53,7.08,-0.03,28.07
20971,0.2029,-0.0217,0.8938,-6.64,8.5,-0.12,28.07
20981,0.2245,-0.0199,0.886,-6.58,6.96,-0.06,28.09
20991,0.2085,-0.022,0.9009,-6.69,7.86,-0.06,28.08
21001,0.2179,-0.0214,0.8794,-6.63,8.95,0.0,28.06
21013,0.2211,-0.0237,0.8743,-6.6,8.72,-0.11,28.04
21026,0.2161,-0.0248,0.8838,-6.6,9.3,-0.15,28.05
21036,0.2252,-0.0193,0.868,-6.63,6.17,0.03,28.08
21046,0.1899,-0.0244,0.8984,-6.7,8.79,-0.05,28.1
21056,0.225,-0.022,0.8782,-6.6,7.39,-0.08,28.05
21066,0.2002,-0.021,0.9059,-6.66,8.27,-0.09,28.07
21076,0.2213,-0.0239,0.8765,-6.63,8.35,-0.09,28.04
21086,0.2112,-0.022,0.8794,-6.61,7.89,-0.06,28.07
21096,0.2244,-0.0195,0.868,-6.61,6.21,-0.06,28.07
21106,0.2002,-0.0217,0.896,-6.58,8.46,-0.03,28.1
21116,0.2274,-0.0237,0.8799,-6.61,8.05,0.0,28.09
21126,0.2072,-0.0132,0.8967,-6.58,7.47,-0.08,28.09
21136,0.2262,-0.0342,0.8807,-6.61,9.22,-0.05,28.07
21146,0.2031,-0.0254,0.8789,-6.72,5.88,0.0,28.09
21156,0.2089,-0.0133,0.8756,-6.69,11.16,-0.02,28.09
21166,0.2322,-0.0294,0.8647,-6.5,3.27,0.02,28.07
21176,0.1865,-0.021,0.9291,-6.67,11.24,-0.12,28.09
21186,0.249,-0.0198,0.8685,-6.46,6.43,-0.08,28.08
21196,0.181,-0.0198,0.9077,-6.6,8.7,0.03,28.08
21206,0.2467,-0.0281,0.8372,-6.58,7.6,-0.03,28.07
21216,0.176,-0.0244,0.9117,-6.69,7.02,-0.02,28.09
21226,0.2074,-0.0181,0.9,-6.76,11.63,0.0,28.06
21236,0.191,-0.0215,0.9148,-6.63,5.63,-0.09,28.07
21246,0.2235,-0.0209,0.8745,-6.63,10.52,-0.12,28.08
21256,0.2096,-0.0226,0.8795,-6.63,5.79,-0.08,28.08
21266,0.2087,-0.0262,0.8877,-6.64,9.62,-0.08,28.06
21276,0.2246,-0.0211,0.8873,-6.6,6.29,-0.11,28.07
21286,0.2064,-0.0223,0.9032,-6.61,8.87,-0.08,28.11
21296,0.2225,-0.0258,0.8777,-6.66,7.98,-0.08,28.09
21313,0.2144,-0.0201,0.8857,-6.6,7.92,0.0,28.09
21323,0.2185,-0.0233,0.8934,-6.56,7.69,-0.02,28.08
21337,0.2179,-0.0172,0.8861,-6.67,8.03,-0.03,28.09
21347,0.2086,-0.0195,0.9004,-6.61,7.89,-0.12,28.1
21357,0.2134,-0.0204,0.8823,-6.6,8.73,-0.05,28.08
21367,0.2164,-0.0212,0.8718,-6.63,7.18,-0.09,28.09
21377,0.2042,-0.019,0.8904,-6.66,8.31,-0.08,28.07
21387,0.2242,-0.0217,0.8823,-6.61,7.74,-0.06,28.08
21397,0.2146,-0.0219,0.8933,-6.58,7.22,-0.05,28.09
21407,0.2072,-0.0225,0.8936,-6.53,8.66,-0.03,28.08
21417,0.2229,-0.0253,0.8716,-6.56,8.03,-0.05,28.08
21427,0.2198,-0.022,0.8683,-6.58,7.08,-0.09,28.07
21437,0.2094,-0.0208,0.8922,-6.64,8.69,0.0,28.09
21447,0.2239,-0.0247,0.8864,-6.49,7.19,-0.03,28.07
21457,0.2048,-0.0201,0.9042,-6.6,8.34,-0.02,28.07
21467,0.2144,-0.0177,0.8783,-6.6,8.78,-0.08,28.07
21477,0.2119,-0.0236,0.87,-6.66,6.84,-0.11,28.1
21487,0.2002,-0.0204,0.8884,-6.66,8.61,-0.02,28.07
21497,0.2306,-0.0164,0.8757,-6.6,7.59,-0.06,28.07
21507,0.2036,-0.0192,0.9045,-6.55,6.7,-0.02,28.07
21518,0.1807,-0.0198,0.9207,-6.73,9.94,-0.15,28.08
21530,0.1831,-0.0233,0.9214,-6.72,9.25,-0.09,28.09
21543,0.1932,-0.024,0.9229,-6.7,8.41,-0.05,28.1
21553,0.2251,-0.0253,0.8723,-6.63,8.64,-0.02,28.09
21563,0.2064,-0.0251,0.8794,-6.58,7.89,-0.11,28.07
21573,0.2144,-0.0231,0.8804,-6.69,8.12,-0.02,28.07
21589,0.2144,-0.0208,0.8773,-6.58,8.27,0.02,28.09
21601,0.2152,-0.0215,0.8838,-6.7,8.5,-0.06,28.09
21611,0.2104,-0.0206,0.8752,-6.63,7.24,-0.09,28.1
21621,0.2042,-0.0186,0.8961,-6.7,8.31,-0.06,28.08
21631,0.2267,-0.0225,0.8796,-6.6,7.08,0.0,28.09
21641,0.2024,-0.0212,0.9075,-6.63,8.23,-0.06,28.07
21651,0.2107,-0.0214,0.8972,-6.63,9.47,-0.03,28.07
21661,0.2299,-0.0198,0.8698,-6.6,6.63,0.0,28.09
21673,0.2227,-0.0221,0.8646,-6.64,6.31,0.09,28.09
21683,0.2114,-0.0247,0.8853,-6.56,9.11,-0.05,28.08
21693,0.2288,-0.0214,0.8812,-6.61,7.42,-0.08,28.1
21703,0.2113,-0.0222,0.8972,-6.55,7.5,-0.03,28.09
21713,0.2106,-0.0249,0.8956,-6.69,8.72,-0.12,28.08
21723,0.2184,-0.0215,0.8749,-6.53,7.83,-0.06,28.09
21733,0.2086,-0.021,0.8811,-6.53,7.31,-0.03,28.09
21743,0.2101,-0.0214,0.892,-6.66,8.63,-0.09,28.12
21753,0.2249,-0.0212,0.8815,-6.56,7.07,-0.05,28.09
21763,0.2036,-0.0167,0.907,-6.67,8.34,-0.05,28.11
21773,0.2247,-0.0216,0.8722,-6.6,8.53,0.05,28.1
21783,0.2101,-0.02,0.8829,-6.66,6.93,0.02,28.08
21793,0.2076,-0.0249,0.8848,-6.64,8.75,-0.06,28.1
21806,0.2021,-0.0173,0.886,-6.67,8.31,-0.08,28.11
21817,0.2036,-0.022,0.8866,-6.64,8.26,-0.08,28.09
21827,0.2211,-0.0222,0.8823,-6.63,7.21,-0.15,28.07
21837,0.2075,-0.0188,0.9028,-6.64,8.23,-0.12,28.07
21847,0.2173,-0.0183,0.8818,-6.58,8.41,-0.06,28.09
21857,0.2142,-0.0203,0.8737,-6.66,7.33,-0.03,28.09
21867,0.2054,-0.0265,0.8857,-6.6,7.88,-0.03,28.09
21877,0.2179,-0.0236,0.8916,-6.63,8.17,-0.05,28.09
21889,0.2086,-0.0239,0.8911,-6.67,8.29,-0.06,28.07
21899,0.2163,-0.0216,0.895,-6.7,7.44,-0.03,28.08
21909,0.2084,-0.0229,0.8928,-6.63,8.72,-0.09,28.12
21925,0.222,-0.0221,0.8872,-6.61,8.05,-0.02,28.08
21935,0.2053,-0.0208,0.9058,-6.66,8.05,-0.08,28.1
21945,0.2179,-0.0226,0.8821,-6.61,8.84,-0.02,28.08
21955,0.2231,-0.0187,0.8804,-6.61,6.9,-0.08,28.06
21965,0.1993,-0.0212,0.8893,-6.63,8.73,-0.09,28.07
21975,0.2262,-0.02,0.8751,-6.61,7.45,0.02,28.08
21985,0.2079,-0.0188,0.9004,-6.64,7.68,-0.06,28.09
21995,0.2145,-0.0194,0.8892,-6.64,8.93,-0.08,28.07
22005,0.2205,-0.0186,0.8717,-6.61,7.05,-0.09,28.1
22021,0.2081,-0.0221,0.8977,-6.66,7.63,0.0,28.12
22032,0.2065,-0.0209,0.902,-6.6,8.81,-0.11,28.11
22042,0.2245,-0.0216,0.8785,-6.5,7.05,-0.05,28.09
22058,0.2078,-0.0194,0.903,-6.61,8.47,-0.09,28.1
22068,0.2188,-0.0225,0.8799,-6.6,8.43,-0.09,28.08
22078,0.2164,-0.0243,0.8765,-6.58,7.39,-0.03,28.11
22088,0.204,-0.0229,0.8876,-6.61,8.17,-0.03,28.1
22098,0.223,-0.0209,0.8829,-6.73,7.85,-0.09,28.09
22108,0.2128,-0.0198,0.8922,-6.6,7.48,-0.03,28.09
22118,0.2054,-0.0211,0.89,-6.73,8.82,-0.15,28.06
22128,0.2252,-0.0194,0.8706,-6.6,7.37,0.0,28.07
22138,0.2078,-0.0243,0.8889,-6.7,7.3,-0.06,28.09
22148,0.2158,-0.0214,0.8914,-6.66,8.72,-0.05,28.09
22158,0.2231,-0.0236,0.8826,-6.69,7.02,0.0,28.09
22168,0.2048,-0.019,0.9022,-6.66,8.5,-0.06,28.09
22178,0.2213,-0.0215,0.8745,-6.6,8.26,-0.12,28.09
22188,0.2125,-0.019,0.8824,-6.61,6.89,-0.11,28.1
22201,0.2261,-0.0197,0.8667,-6.6,7.3,-0.02,28.12
22213,0.2297,-0.02,0.8657,-6.63,6.84,-0.03,28.11
22223,0.2021,-0.0214,0.8929,-6.72,9.18,-0.08,28.1
22233,0.2312,-0.0228,0.885,-6.61,6.98,-0.03,28.11
22243,0.2007,-0.0225,0.9033,-6.6,8.21,-0.09,28.11
22253,0.2139,-0.0234,0.8782,-6.61,8.92,-0.08,28.1
22263,0.2195,-0.022,0.8707,-6.56,6.96,-0.05,28.11
22273,0.2025,-0.0221,0.8912,-6.63,8.12,0.05,28.11
22283,0.2192,-0.0194,0.8868,-6.7,8.34,-0.03,28.09
22293,0.2198,-0.0237,0.8871,-6.56,6.78,-0.14,28.12
22303,0.202,-0.0193,0.9031,-6.56,9.16,-0.06,28.11
22313,0.2281,-0.0208,0.8641,-6.64,7.59,-0.02,28.13
22323,0.2019,-0.0233,0.8915,-6.63,7.39,-0.03,28.12
22333,0.2163,-0.0217,0.8846,-6.63,8.87,-0.06,28.09
22343,0.2306,-0.0223,0.8772,-6.64,7.44,-0.03,28.1
22358,0.1982,-0.0219,0.8933,-6.61,8.5,-0.11,28.09
22369,0.2137,-0.0251,0.8866,-6.63,8.67,-0.11,28.11
22379,0.2144,-0.0229,0.8928,-6.7,7.18,-0.09,28.09
22389,0.2078,-0.0193,0.9004,-6.75,8.14,-0.06,28.11
22399,0.2167,-0.02,0.8789,-6.75,8.87,-0.03,28.1
22409,0.2028,-0.0234,0.8876,-6.61,7.18,0.0,28.08
22419,0.1995,-0.0227,0.8921,-6.72,8.69,-0.09,28.1
22429,0.2274,-0.0199,0.8796,-6.64,7.66,-0.08,28.09
22439,0.2104,-0.0227,0.8982,-6.64,7.45,0.05,28.12
22449,0.2104,-0.0215,0.8905,-6.6,9.31,-0.08,28.09
22459,0.2239,-0.0209,0.8646,-6.69,6.93,-0.09,28.09
22469,0.1979,-0.0229,0.8931,-6.64,8.03,-0.02,28.08
22479,0.222,-0.0223,0.8835,-6.63,8.26,-0.08,28.08
22489,0.2184,-0.0199,0.8945,-6.61,6.9,-0.12,28.11
22499,0.2129,-0.0209,0.8998,-6.63,8.66,-0.09,28.11
22509,0.2169,-0.0229,0.8774,-6.58,7.71,-0.05,28.11
22519,0.2098,-0.0227,0.8774,-6.55,7.45,-0.02,28.12
22529,0.21,-0.0244,0.8855,-6.53,8.34,0.0,28.12
22539,0.2202,-0.0212,0.8896,-6.73,7.56,0.02,28.1
22551,0.2198,-0.0221,0.8923,-6.55,7.4,-0.05,28.11
22561,0.2175,-0.0234,0.897,-6.53,7.5,-0.05,28.11
22571,0.2097,-0.0179,0.8838,-6.67,8.76,-0.14,28.09
22581,0.2198,-0.0223,0.8707,-6.56,6.99,-0.06,28.12
22591,0.1979,-0.0229,0.8937,-6.69,8.46,-0.03,28.08
22601,0.2267,-0.0208,0.8801,-6.64,7.83,-0.05,28.09
22611,0.212,-0.0216,0.8987,-6.64,7.37,-0.02,28.11
22621,0.2128,-0.0216,0.8906,-6.7,8.64,-0.12,28.1
22631,0.2203,-0.0231,0.8711,-6.61,7.59,-0.02,28.09
22641,0.2065,-0.0238,0.8846,-6.58,7.56,0.0,28.13
22651,0.2172,-0.0214,0.8956,-6.64,8.47,-0.03,28.09
22661,0.2213,-0.0208,0.8888,-6.61,7.28,-0.12,28.1
22671,0.2078,-0.0189,0.9016,-6.56,8.31,-0.08,28.11
22681,0.2104,-0.0208,0.8892,-6.67,9.01,-0.12,28.11
22691,0.2174,-0.0219,0.8732,-6.6,6.99,-0.08,28.12
22701,0.2034,-0.0223,0.8916,-6.66,8.23,-0.09,28.1
22711,0.2197,-0.0205,0.8854,-6.64,7.77,-0.06,28.11
22721,0.2131,-0.0222,0.9001,-6.6,7.51,-0.03,28.12
22731,0.2068,-0.0227,0.8851,-6.72,8.98,-0.03,28.1
22741,0.2252,-0.0236,0.8729,-6.56,7.36,-0.06,28.11
22751,0.199,-0.0236,0.8931,-6.64,7.86,0.02,28.1
22761,0.2173,-0.0233,0.8915,-6.7,8.38,-0.02,28.09
22771,0.2211,-0.0175,0.8909,-6.53,7.15,-0.09,28.11
22781,0.2032,-0.0201,0.8969,-6.67,8.7,-0.09,28.12
22791,0.2212,-0.0205,0.8708,-6.69,8.0,-0.02,28.12
22801,0.2106,-0.0209,0.8796,-6.58,7.18,-0.05,28.11
22811,0.2097,-0.0204,0.8937,-6.63,8.73,-0.05,28.11
22826,0.218,-0.0247,0.8713,-6.64,7.24,0.0,28.12
22837,0.2117,-0.0237,0.8777,-6.66,7.16,-0.02,28.12
22847,0.207,-0.0195,0.8923,-6.7,8.29,-0.05,28.11
22857,0.2206,-0.0242,0.8846,-6.58,7.53,-0.09,28.11
22873,0.2072,-0.0258,0.8857,-6.64,7.01,-0.06,28.13
22885,0.1998,-0.0212,0.8927,-6.6,7.34,-0.02,28.1
22897,0.1969,-0.0189,0.8978,-6.7,8.06,-0.02,28.09
22909,0.1985,-0.0221,0.9027,-6.72,8.92,-0.05,28.12
22919,0.2325,-0.0211,0.8806,-6.56,6.52,-0.06,28.13
22933,0.2109,-0.0208,0.8967,-6.72,9.27,0.0,28.11
22945,0.2156,-0.0219,0.8883,-6.76,8.95,-0.08,28.09
22955,0.2084,-0.0237,0.8982,-6.6,7.3,-0.06,28.11
22965,0.2054,-0.0211,0.8916,-6.69,9.33,-0.05,28.11
22982,0.2284,-0.0206,0.8765,-6.69,7.79,-0.06,28.11
22993,0.2306,-0.0197,0.8799,-6.61,7.5,-0.08,28.13
23003,0.2043,-0.02,0.9031,-6.64,8.84,-0.09,28.14
23013,0.2198,-0.0188,0.8744,-6.61,7.97,-0.09,28.13
23023,0.2079,-0.0208,0.8809,-6.64,7.36,-0.03,28.13
23033,0.2083,-0.0248,0.8839,-6.66,8.37,0.02,28.1
23043,0.2198,-0.0161,0.8931,-6.64,7.65,-0.06,28.11
23053,0.2216,-0.0192,0.8889,-6.69,7.56,-0.09,28.11
23065,0.2241,-0.0217,0.8896,-6.55,7.27,0.02,28.14
23075,0.2046,-0.0204,0.8971,-6.63,8.44,-0.05,28.12
23085,0.2239,-0.0203,0.8624,-6.58,7.34,-0.03,28.14
23095,0.2001,-0.0256,0.8866,-6.61,7.77,0.03,28.13
23105,0.2042,-0.0225,0.8986,-6.56,8.95,0.02,28.13
23115,0.231,-0.021,0.8782,-6.52,7.04,-0.03,28.12
23125,0.1982,-0.0205,0.9047,-6.61,7.8,-0.08,28.12
23135,0.219,-0.0197,0.8763,-6.61,9.02,-0.05,28.12
23145,0.2231,-0.0214,0.8705,-6.61,6.53,-0.11,28.11
23155,0.1981,-0.0208,0.8898,-6.61,8.63,0.06,28.12
23165,0.225,-0.0217,0.8862,-6.67,7.66,-0.06,28.12
23175,0.2104,-0.0182,0.897,-6.6,7.66,0.02,28.11
23185,0.2131,-0.0216,0.8884,-6.63,8.76,-0.06,28.12
23195,0.2192,-0.0186,0.8787,-6.58,7.82,-0.08,28.09
23205,0.2094,-0.0226,0.8789,-6.64,7.59,-0.14,28.12
23215,0.2106,-0.0201,0.8923,-6.66,8.18,0.0,28.12
23225,0.2202,-0.0227,0.8867,-6.66,7.86,-0.08,28.14
23235,0.2108,-0.0211,0.8931,-6.66,7.85,0.03,28.12
23245,0.2113,-0.0239,0.8761,-6.67,8.6,-0.06,28.14
23255,0.2238,-0.0176,0.8705,-6.72,7.54,-0.05,28.13
23269,0.2141,-0.0219,0.8796,-6.64,9.1,0.0,28.12
23281,0.215,-0.0206,0.874,-6.56,8.58,-0.02,28.13
23291,0.2041,-0.0232,0.8875,-6.72,7.54,0.05,28.12
23301,0.2188,-0.0194,0.8859,-6.56,8.58,0.0,28.1
23311,0.2214,-0.0186,0.8885,-6.5,6.72,-0.06,28.14
23321,0.2028,-0.0199,0.9083,-6.69,9.1,-0.05,28.12
23331,0.226,-0.0216,0.8662,-6.63,8.18,-0.03,28.12
23342,0.22,-0.0215,0.8694,-6.56,6.95,-0.05,28.11
23352,0.1973,-0.0225,0.8909,-6.56,8.75,-0.06,28.12
23366,0.213,-0.0143,0.8804,-6.58,7.39,0.03,28.14
23376,0.2407,-0.0247,0.875,-6.61,4.32,-0.08,28.12
23386,0.1798,-0.0219,0.9261,-6.69,10.9,-0.12,28.12
23402,0.2473,-0.0286,0.8591,-6.5,6.26,0.0,28.14
23412,0.184,-0.0194,0.9265,-6.69,8.27,-0.03,28.11
23425,0.1991,-0.021,0.8987,-6.55,5.77,-0.02,28.13
23437,0.1813,-0.0215,0.9116,-6.73,8.31,-0.03,28.1
23449,0.1921,-0.0247,0.8975,-6.66,9.33,0.02,28.13
23461,0.2079,-0.0219,0.8888,-6.7,9.08,0.02,28.14
23474,0.2168,-0.017,0.8866,-6.67,8.38,0.0,28.12
23484,0.2294,-0.0214,0.8849,-6.56,7.13,-0.06,28.12
23494,0.2013,-0.0214,0.9091,-6.66,7.92,-0.05,28.14
23504,0.2185,-0.0217,0.8827,-6.63,9.22,-0.09,28.14
23514,0.2198,-0.0194,0.8712,-6.66,6.34,-0.14,28.14
23524,0.1947,-0.0236,0.8865,-6.66,9.21,-0.03,28.12
23534,0.2258,-0.019,0.8765,-6.66,7.28,-0.03,28.1
23546,0.2109,-0.0237,0.8912,-6.63,7.89,-0.06,28.14
23557,0.2196,-0.0221,0.8859,-6.67,8.15,0.0,28.11
23570,0.2158,-0.0203,0.8868,-6.55,8.67,-0.11,28.14
23580,0.2023,-0.0215,0.8973,-6.6,7.45,-0.05,28.13
23590,0.2163,-0.0228,0.8788,-6.7,9.48,-0.06,28.13
23600,0.2235,-0.0209,0.874,-6.61,6.14,-0.06,28.14
23610,0.1948,-0.0208,0.8981,-6.73,9.4,-0.08,28.14
23620,0.2401,-0.0186,0.8776,-6.58,7.01,0.03,28.13
23630,0.2002,-0.0199,0.9109,-6.63,7.86,-0.05,28.12
23641,0.2046,-0.0225,0.9082,-6.66,8.52,-0.02,28.15
23651,0.2233,-0.0203,0.88,-6.58,7.6,-0.06,28.14
23661,0.2094,-0.0215,0.8839,-6.61,7.77,-0.06,28.13
23671,0.2051,-0.0211,0.8835,-6.6,8.05,-0.03,28.13
23681,0.2159,-0.0215,0.8861,-6.58,7.8,-0.06,28.14
23691,0.2152,-0.0216,0.8862,-6.6,7.53,-0.05,28.16
23701,0.2031,-0.0242,0.8892,-6.67,8.82,-0.08,28.15
23711,0.2249,-0.0245,0.8643,-6.63,7.53,-0.03,28.16
23721,0.2039,-0.0254,0.8885,-6.53,7.37,-0.11,28.14
23731,0.2179,-0.0248,0.8865,-6.63,8.69,-0.08,28.16
23741,0.22,-0.021,0.8943,-6.6,6.73,-0.08,28.15
23751,0.209,-0.0219,0.9033,-6.53,9.02,-0.05,28.12
23761,0.2231,-0.0188,0.8806,-6.58,8.44,-0.08,28.16
23771,0.2072,-0.0205,0.885,-6.56,7.47,-0.11,28.15
23781,0.2122,-0.0187,0.8879,-6.56,8.46,-0.09,28.14
23798,0.2134,-0.0214,0.8876,-6.63,8.53,-0.06,28.12
23810,0.2096,-0.0204,0.8833,-6.61,8.7,-0.09,28.14
23820,0.2194,-0.0211,0.8662,-6.67,7.47,-0.12,28.19
23830,0.1997,-0.0234,0.8846,-6.7,7.95,-0.03,28.16
23840,0.2222,-0.0176,0.8815,-6.64,8.11,-0.05,28.14
23850,0.2147,-0.0187,0.8928,-6.52,7.42,-0.06,28.15
23860,0.2042,-0.0193,0.8948,-6.67,8.63,-0.09,28.15
23870,0.2194,-0.0236,0.8745,-6.64,8.24,-0.06,28.1
23880,0.2117,-0.0221,0.8815,-6.64,6.96,-0.02,28.12
23893,0.2247,-0.0188,0.8695,-6.64,7.47,0.02,28.13
23906,0.2212,-0.0203,0.8744,-6.69,7.34,-0.03,28.14
23916,0.2053,-0.0236,0.8888,-6.55,7.76,0.02,28.13
23929,0.2104,-0.0251,0.8762,-6.6,7.1,-0.06,28.12
23939,0.2063,-0.0214,0.8953,-6.75,8.37,-0.06,28.14
23953,0.2214,-0.0225,0.8669,-6.61,6.93,-0.12,28.14
23963,0.2068,-0.0214,0.8942,-6.55,8.6,-0.08,28.13
23973,0.2233,-0.0225,0.8866,-6.63,7.27,-0.14,28.16
23983,0.2031,-0.0203,0.8981,-6.56,8.55,-0.08,28.13
23993,0.2157,-0.0226,0.8706,-6.67,8.27,0.03,28.14
24003,0.214,-0.0208,0.8779,-6.58,6.85,-0.02,28.14
24013,0.2062,-0.0249,0.8929,-6.63,8.32,-0.05,28.14
24023,0.22,-0.022,0.891,-6.55,7.63,-0.09,28.16
24033,0.2151,-0.0212,0.8998,-6.52,7.8,-0.09,28.16
24043,0.2111,-0.024,0.8918,-6.61,8.5,-0.06,28.16
24053,0.2194,-0.0209,0.8726,-6.47,7.8,-0.02,28.12
24063,0.2101,-0.0209,0.8816,-6.63,7.3,-0.05,28.14
24073,0.2124,-0.0221,0.897,-6.66,8.37,-0.14,28.13
24083,0.2251,-0.0198,0.8844,-6.67,7.48,-0.03,28.14
24093,0.2032,-0.02,0.8969,-6.63,8.27,0.05,28.15
24103,0.222,-0.0211,0.8674,-6.63,8.61,-0.05,28.17
24113,0.2096,-0.0255,0.8737,-6.61,6.69,-0.05,28.14
24123,0.2028,-0.0222,0.8907,-6.61,8.93,-0.02,28.15
24133,0.2278,-0.0184,0.8815,-6.61,6.73,-0.03,28.11
24143,0.2021,-0.0236,0.9086,-6.63,8.38,-0.09,28.14
24153,0.2214,-0.0259,0.88,-6.56,8.81,0.0,28.15
24163,0.214,-0.024,0.8737,-6.61,6.73,-0.11,28.15
24173,0.2026,-0.0237,0.8896,-6.66,8.53,-0.08,28.16
24184,0.2063,-0.0221,0.8917,-6.72,8.52,-0.08,28.17
24194,0.2218,-0.0194,0.892,-6.61,7.1,0.0,28.15
24204,0.2103,-0.0183,0.9034,-6.67,8.26,-0.06,28.14
24217,0.219,-0.0193,0.8898,-6.6,7.47,0.02,28.13
24229,0.2205,-0.0227,0.8895,-6.63,7.25,0.03,28.15
24242,0.2216,-0.0171,0.8809,-6.63,7.27,-0.11,28.18
24252,0.2056,-0.02,0.8889,-6.64,8.7,-0.09,28.16
24262,0.2216,-0.0209,0.87,-6.63,7.53,-0.11,28.16
24272,0.2015,-0.0201,0.8876,-6.6,7.66,-0.05,28.15
24282,0.2147,-0.0226,0.8918,-6.61,8.26,-0.03,28.15
24292,0.2186,-0.0247,0.886,-6.56,7.39,-0.02,28.15
24302,0.2092,-0.0236,0.8973,-6.53,8.47,-0.09,28.15
24312,0.218,-0.0231,0.8795,-6.66,8.03,-0.05,28.14
24322,0.2129,-0.0237,0.8812,-6.58,7.25,-0.03,28.13
24332,0.2072,-0.0211,0.8921,-6.63,8.44,-0.09,28.16
24342,0.2247,-0.0255,0.8875,-6.55,7.51,-0.03,28.15
24352,0.2128,-0.0186,0.894,-6.53,7.89,-0.05,28.15
24362,0.2098,-0.0197,0.8771,-6.66,8.61,-0.05,28.15
24372,0.2152,-0.0222,0.8693,-6.61,7.19,-0.05,28.17
24382,0.2043,-0.0223,0.8894,-6.73,8.12,-0.09,28.15
24392,0.2216,-0.0228,0.8895,-6.63,8.05,0.05,28.14
24402,0.2164,-0.0217,0.8925,-6.63,7.6,0.06,28.15
24412,0.2076,-0.0253,0.8914,-6.63,8.72,-0.03,28.2
24422,0.2212,-0.0187,0.8711,-6.58,7.77,-0.02,28.16
24432,0.2091,-0.0204,0.8838,-6.56,7.5,-0.09,28.16
24442,0.2169,-0.0188,0.8912,-6.6,8.34,-0.09,28.17
24452,0.2205,-0.0198,0.8936,-6.66,7.65,-0.02,28.15
24462,0.21,-0.0231,0.8954,-6.66,8.17,-0.08,28.16
24472,0.2173,-0.0223,0.8784,-6.58,8.44,-0.08,28.17
24482,0.2188,-0.0247,0.8738,-6.66,6.82,-0.14,28.18
24492,0.2025,-0.0232,0.8895,-6.58,7.82,-0.06,28.16
24502,0.2288,-0.0209,0.8883,-6.69,7.4,-0.06,28.16
24517,0.2003,-0.0247,0.8812,-6.61,7.48,-0.02,28.17
24529,0.197,-0.0221,0.8815,-6.67,7.76,-0.06,28.16
24539,0.2174,-0.0184,0.8846,-6.61,8.44,-0.11,28.16
24549,0.2196,-0.0217,0.8966,-6.64,7.1,-0.12,28.17
24559,0.204,-0.0192,0.9019,-6.69,9.01,-0.09,28.17
24569,0.2242,-0.0205,0.8662,-6.67,7.88,-0.09,28.16
24579,0.2091,-0.0244,0.8772,-6.63,7.08,-0.11,28.16
24589,0.2117,-0.02,0.886,-6.63,8.52,-0.08,28.16
24599,0.2268,-0.0216,0.8857,-6.53,7.42,-0.05,28.18
24613,0.2153,-0.0199,0.8905,-6.61,8.18,-0.03,28.17
24625,0.2178,-0.0181,0.891,-6.67,8.2,-0.06,28.18
24635,0.2244,-0.0215,0.8888,-6.64,7.44,-0.06,28.17
24645,0.2045,-0.0232,0.8964,-6.64,8.46,-0.09,28.17
24655,0.2183,-0.0256,0.8695,-6.67,8.38,-0.08,28.17
24665,0.2147,-0.0215,0.8778,-6.55,7.11,-0.02,28.19
24675,0.2026,-0.0192,0.8896,-6.58,8.29,-0.06,28.19
24685,0.2122,-0.0228,0.8933,-6.61,8.34,-0.06,28.17
24695,0.2153,-0.0209,0.8966,-6.56,7.68,-0.06,28.17
24705,0.208,-0.0199,0.8896,-6.69,8.6,-0.03,28.18
24715,0.2198,-0.0204,0.868,-6.52,7.8,0.0,28.16
24725,0.2063,-0.0206,0.8829,-6.53,7.37,-0.02,28.17
24735,0.2167,-0.0212,0.8934,-6.69,8.61,-0.09,28.17
24745,0.2264,-0.0199,0.8901,-6.61,6.75,-0.12,28.16
24755,0.2047,-0.017,0.9091,-6.61,8.9,-0.06,28.17
24765,0.2214,-0.022,0.8728,-6.58,8.12,-0.08,28.18
24781,0.2178,-0.02,0.8903,-6.6,7.34,-0.03,28.18
24794,0.2146,-0.0217,0.8901,-6.67,7.37,-0.14,28.16
24804,0.2036,-0.0238,0.8979,-6.67,8.72,-0.03,28.17
24814,0.2203,-0.0219,0.8663,-6.63,8.2,-0.09,28.17
24824,0.2122,-0.0216,0.8778,-6.64,6.96,-0.09,28.15
24834,0.208,-0.0203,0.8953,-6.63,8.73,-0.06,28.18
24844,0.2267,-0.0228,0.8875,-6.61,7.13,-0.05,28.19
24854,0.2106,-0.0209,0.9017,-6.66,8.15,0.03,28.2
24865,0.209,-0.0226,0.9019,-6.56,8.37,-0.05,28.17
24875,0.2212,-0.0236,0.8704,-6.6,7.88,-0.06,28.16
24885,0.2078,-0.0233,0.8804,-6.55,7.33,-0.03,28.16
24895,0.2083,-0.0193,0.8895,-6.6,8.53,-0.06,28.15
24905,0.225,-0.0222,0.8855,-6.55,7.21,-0.11,28.17
24915,0.2067,-0.0189,0.9061,-6.6,7.97,-0.08,28.16
24925,0.2048,-0.0204,0.897,-6.67,9.05,-0.05,28.17
24937,0.2092,-0.019,0.8896,-6.61,9.11,-0.17,28.17
24947,0.2144,-0.0198,0.8765,-6.67,6.93,0.0,28.18
24957,0.1989,-0.0234,0.8914,-6.64,8.79,-0.06,28.19
24974,0.224,-0.0201,0.8739,-6.64,8.56,-0.02,28.18
24985,0.2203,-0.0182,0.8735,-6.67,8.61,0.0,28.19
24995,0.2021,-0.0226,0.8823,-6.63,7.5,-0.03,28.2
25005,0.2162,-0.0225,0.8879,-6.63,8.78,-0.08,28.18
25015,0.2249,-0.0249,0.8881,-6.67,6.75,0.0,28.17
25025,0.2023,-0.0225,0.9009,-6.72,9.08,-0.14,28.21
25035,0.2236,-0.0205,0.8657,-6.63,7.86,0.05,28.18
25045,0.2153,-0.0215,0.8722,-6.61,6.82,-0.05,28.17
25058,0.2152,-0.0204,0.8722,-6.61,7.02,-0.03,28.17
25068,0.2021,-0.019,0.8903,-6.66,8.0,-0.05,28.17
25078,0.2186,-0.0157,0.8912,-6.7,8.14,-0.09,28.17
25088,0.2181,-0.0199,0.8893,-6.63,7.34,-0.02,28.19
25098,0.2024,-0.0222,0.8904,-6.64,8.89,-0.06,28.18
25108,0.2255,-0.0204,0.8647,-6.61,7.76,-0.03,28.18
25118,0.2058,-0.0237,0.8827,-6.69,7.18,-0.06,28.2
25128,0.2148,-0.0219,0.8889,-6.63,8.64,-0.15,28.2
25138,0.2211,-0.0228,0.8939,-6.58,7.22,-0.09,28.21
25148,0.2078,-0.0229,0.9006,-6.58,8.32,-0.12,28.2
25158,0.2128,-0.0211,0.886,-6.64,8.79,-0.06,28.19
25168,0.2114,-0.0306,0.8818,-6.6,7.3,-0.12,28.19
25178,0.2094,-0.0229,0.8906,-6.66,8.11,-0.12,28.18
25188,0.2024,-0.0176,0.9019,-6.75,9.02,-0.08,28.19
25198,0.2373,-0.0181,0.8707,-6.56,6.79,0.02,28.18
25208,0.1906,-0.0209,0.9052,-6.63,8.4,-0.06,28.17
25218,0.2297,-0.0189,0.8647,-6.63,9.02,-0.06,28.19
25228,0.2119,-0.0175,0.8799,-6.69,5.6,-0.08,28.18
25238,0.2086,-0.0176,0.8949,-6.66,9.34,-0.08,28.17
25249,0.2314,-0.0232,0.8857,-6.69,7.83,-0.15,28.17
25259,0.2136,-0.0199,0.8983,-6.67,7.33,-0.05,28.18
25269,0.2065,-0.0244,0.8901,-6.64,8.96,-0.14,28.19
25279,0.2181,-0.0227,0.8677,-6.58,7.82,-0.06,28.19
25289,0.2092,-0.0245,0.8748,-6.67,7.33,-0.03,28.21
25299,0.2095,-0.0211,0.8906,-6.63,7.95,-0.03,28.19
25309,0.2153,-0.0227,0.8951,-6.67,7.69,-0.11,28.19
25319,0.2152,-0.0222,0.8997,-6.61,7.98,-0.09,28.19
25329,0.2086,-0.0227,0.8805,-6.5,8.56,0.02,28.18
25339,0.2174,-0.0195,0.8723,-6.56,7.74,-0.05,28.18
25349,0.2097,-0.0238,0.882,-6.67,7.25,-0.09,28.21
25359,0.2102,-0.0209,0.8962,-6.64,8.4,-0.03,28.19
25369,0.2224,-0.0211,0.8939,-6.56,8.08,-0.12,28.2
25379,0.2072,-0.0195,0.8965,-6.53,8.24,-0.14,28.18
25389,0.2137,-0.0197,0.8695,-6.69,8.47,-0.02,28.18
25399,0.2129,-0.021,0.8757,-6.6,6.93,-0.02,28.18
25409,0.2063,-0.0217,0.8932,-6.66,8.52,-0.09,28.21
25419,0.2252,-0.0161,0.8865,-6.5,7.53,0.0,28.2
25430,0.2172,-0.0188,0.8955,-6.64,7.28,-0.14,28.18
25441,0.2158,-0.0212,0.8966,-6.56,7.11,-0.06,28.17
25451,0.2162,-0.021,0.8794,-6.63,8.85,-0.05,28.2
25461,0.2169,-0.0221,0.8705,-6.63,6.87,-0.06,28.17
25478,0.2084,-0.0201,0.8981,-6.56,8.2,0.0,28.19
25489,0.2068,-0.0217,0.9016,-6.63,8.38,-0.06,28.19
25500,0.2084,-0.0236,0.8881,-6.67,8.85,-0.03,28.2
25510,0.2136,-0.0234,0.8757,-6.66,6.9,-0.08,28.18
25520,0.2057,-0.0254,0.8898,-6.72,8.32,-0.05,28.18
25530,0.2217,-0.0211,0.8883,-6.64,7.6,-0.09,28.18
25540,0.2123,-0.0216,0.8981,-6.6,7.79,0.02,28.19
25550,0.2086,-0.0214,0.886,-6.61,8.6,-0.08,28.19
25560,0.2188,-0.0215,0.8726,-6.56,7.76,-0.05,28.17
25570,0.2092,-0.0236,0.8766,-6.56,7.19,-0.02,28.17
25582,0.2192,-0.0232,0.8672,-6.52,6.79,-0.05,28.19
25594,0.2172,-0.0234,0.8673,-6.55,6.89,-0.05,28.17
25604,0.2134,-0.0249,0.8938,-6.6,8.61,-0.06,28.18
25614,0.2219,-0.0203,0.887,-6.56,7.24,0.0,28.23
25624,0.2029,-0.0251,0.8928,-6.63,8.7,-0.06,28.22
25634,0.2211,-0.0203,0.866,-6.6,8.11,-0.08,28.19
25644,0.2064,-0.0214,0.8821,-6.58,7.02,-0.09,28.18
25654,0.2115,-0.0205,0.8865,-6.64,8.5,0.02,28.2
25664,0.2216,-0.0195,0.8842,-6.66,7.42,-0.06,28.19
25674,0.213,-0.0216,0.8953,-6.56,8.18,-0.02,28.17
25684,0.2136,-0.0253,0.8785,-6.63,8.55,-0.11,28.19
25694,0.2169,-0.0182,0.8685,-6.6,7.3,-0.08,28.17
25704,0.2061,-0.0222,0.8883,-6.67,7.86,-0.03,28.2
25714,0.2188,-0.0216,0.8906,-6.58,8.18,0.0,28.17
25724,0.2201,-0.0192,0.8937,-6.53,7.39,-0.08,28.19
25734,0.204,-0.0205,0.892,-6.6,8.75,-0.11,28.2
25744,0.2224,-0.0231,0.864,-6.64,7.88,-0.08,28.18
25754,0.2035,-0.0231,0.8851,-6.56,7.3,-0.06,28.21
25772,0.2091,-0.019,0.9038,-6.63,7.18,-0.06,28.17
25784,0.199,-0.0249,0.9089,-6.69,9.19,-0.03,28.17
25794,0.2306,-0.019,0.866,-6.69,8.02,-0.05,28.19
25804,0.2024,-0.0216,0.8822,-6.56,6.99,-0.05,28.18
25814,0.2073,-0.0175,0.89,-6.66,9.48,-0.05,28.19
25824,0.2401,-0.0197,0.8741,-6.56,6.05,0.02,28.19
25834,0.1962,-0.021,0.9219,-6.61,9.04,-0.09,28.18
25844,0.2296,-0.0208,0.8696,-6.6,8.47,-0.11,28.19
25854,0.2098,-0.0232,0.8785,-6.58,7.24,-0.03,28.18
25864,0.2125,-0.0223,0.8778,-6.64,8.37,-0.03,28.2
25880,0.2134,-0.0188,0.8778,-6.63,8.31,-0.02,28.17
25891,0.2117,-0.0173,0.8766,-6.7,8.82,-0.06,28.18
25903,0.2146,-0.0229,0.8711,-6.63,9.11,-0.03,28.2
25916,0.2013,-0.0237,0.8905,-6.64,9.97,-0.03,28.2
25926,0.225,-0.0223,0.8588,-6.69,6.6,-0.08,28.19
25936,0.1931,-0.0249,0.9021,-6.73,8.95,-0.05,28.2
25946,0.2322,-0.0236,0.8767,-6.56,7.04,-0.09,28.19
25956,0.2017,-0.021,0.91,-6.63,8.53,-0.11,28.23
25966,0.2206,-0.0214,0.8713,-6.53,8.44,-0.05,28.19
25976,0.2152,-0.024,0.8748,-6.56,6.93,-0.03,28.21
25986,0.2008,-0.026,0.8885,-6.67,8.5,-0.03,28.2
25999,0.2019,-0.0233,0.8872,-6.56,8.12,-0.11,28.23
26012,0.2065,-0.0231,0.8832,-6.56,7.63,-0.02,28.18
26022,0.21,-0.0214,0.8885,-6.61,8.23,-0.03,28.2
26032,0.2216,-0.0178,0.8864,-6.64,7.62,-0.05,28.19
26042,0.2076,-0.0211,0.9034,-6.64,7.83,-0.15,28.22
26052,0.2156,-0.0176,0.8828,-6.66,8.9,-0.11,28.22
26062,0.226,-0.0193,0.869,-6.6,6.75,-0.06,28.22
26072,0.2001,-0.0242,0.8938,-6.66,8.38,-0.05,28.22
26082,0.2302,-0.0184,0.8866,-6.7,7.68,0.0,28.21
26096,0.207,-0.0233,0.8944,-6.67,9.1,-0.02,28.21
26107,0.2133,-0.021,0.8877,-6.78,8.89,-0.02,28.19
26121,0.1996,-0.0217,0.8887,-6.73,9.04,-0.08,28.2
26131,0.2229,-0.0221,0.8832,-6.69,8.26,-0.06,28.22
26141,0.2048,-0.0192,0.9093,-6.6,8.08,-0.05,28.21
26151,0.2152,-0.0242,0.8829,-6.64,8.9,-0.08,28.24
26161,0.2172,-0.0203,0.8705,-6.63,7.05,-0.03,28.2
26171,0.2036,-0.0245,0.8807,-6.67,8.26,-0.05,28.2
26181,0.2212,-0.0206,0.8864,-6.69,7.89,-0.03,28.2
26191,0.2178,-0.0182,0.8964,-6.7,7.57,-0.08,28.2
26201,0.2098,-0.0192,0.8971,-6.64,8.27,-0.08,28.21
26211,0.2135,-0.0227,0.877,-6.6,8.56,-0.08,28.19
26221,0.2191,-0.0238,0.8732,-6.56,6.9,-0.03,28.18
26231,0.2036,-0.024,0.8967,-6.53,8.52,-0.02,28.22
26241,0.229,-0.0217,0.8831,-6.61,7.48,0.03,28.19
26251,0.208,-0.0184,0.902,-6.64,7.69,-0.05,28.21
26261,0.2081,-0.0221,0.881,-6.63,8.98,-0.11,28.22
26271,0.2196,-0.0236,0.871,-6.61,6.92,-0.03,28.22
26281,0.1965,-0.0239,0.8949,-6.7,8.08,-0.06,28.23
26291,0.2218,-0.0173,0.8914,-6.63,8.23,-0.12,28.2
26301,0.2234,-0.0182,0.8901,-6.61,7.01,-0.05,28.22
26312,0.2097,-0.0236,0.9026,-6.64,7.94,0.0,28.22
26327,0.2174,-0.0212,0.8894,-6.63,8.29,-0.06,28.21
26337,0.2113,-0.0208,0.8981,-6.49,7.48,0.0,28.22
26347,0.2095,-0.0199,0.8873,-6.61,9.11,-0.06,28.19
26357,0.245,-0.0226,0.8478,-6.52,4.87,-0.03,28.2
26367,0.1716,-0.0267,0.9126,-6.63,8.49,-0.02,28.18
26383,0.2181,-0.0228,0.8773,-6.72,10.5,-0.11,28.21
26396,0.2336,-0.0225,0.8595,-6.63,8.96,-0.08,28.2
26406,0.2059,-0.0195,0.8765,-6.6,6.37,-0.03,28.23
26416,0.2092,-0.0247,0.8812,-6.67,9.1,-0.03,28.2
26431,0.2126,-0.0176,0.8761,-6.56,7.34,-0.02,28.24
26444,0.205,-0.0269,0.8887,-6.63,8.7,-0.09,28.24
26454,0.2183,-0.0254,0.8663,-6.6,7.01,-0.02,28.2
26464,0.2013,-0.0216,0.9014,-6.66,7.88,-0.08,28.19
26479,0.2303,-0.0206,0.8562,-6.66,8.12,-0.05,28.21
26492,0.2219,-0.0242,0.8624,-6.52,9.18,-0.03,28.2
26502,0.1836,-0.0227,0.9,-6.63,7.44,-0.06,28.21
26512,0.2302,-0.0186,0.8823,-6.63,8.99,0.03,28.19
26527,0.2091,-0.0225,0.8783,-6.6,6.46,-0.09,28.2
26539,0.1996,-0.0228,0.8807,-6.64,7.21,-0.09,28.21
26549,0.2301,-0.0227,0.8812,-6.67,7.68,0.0,28.22
26559,0.2189,-0.0219,0.8967,-6.63,7.28,0.02,28.24
26575,0.2069,-0.0247,0.8818,-6.63,7.4,-0.05,28.21
26588,0.213,-0.0243,0.8765,-6.55,7.01,0.02,28.22
26599,0.1998,-0.0208,0.8877,-6.64,7.62,-0.11,28.22
26611,0.1963,-0.0247,0.8916,-6.66,7.95,-0.05,28.22
26621,0.2203,-0.0199,0.8881,-6.64,8.34,-0.11,28.24
26631,0.2179,-0.0242,0.8944,-6.61,6.84,0.03,28.24
26641,0.2024,-0.0198,0.9011,-6.7,9.39,-0.05,28.22
26651,0.2281,-0.0183,0.8657,-6.56,7.83,0.02,28.23
26661,0.2108,-0.0204,0.8801,-6.6,7.07,-0.08,28.22
26671,0.2096,-0.0167,0.8907,-6.66,8.76,-0.05,28.21
26681,0.2255,-0.0208,0.8866,-6.67,7.3,-0.05,28.2
26696,0.2001,-0.0239,0.8893,-6.67,8.2,-0.08,28.22
26707,0.199,-0.0251,0.8926,-6.63,8.44,-0.06,28.2
26718,0.2255,-0.0215,0.8805,-6.63,7.92,0.03,28.22
26728,0.2134,-0.0221,0.8995,-6.64,7.25,-0.06,28.23
26738,0.204,-0.0215,0.8873,-6.67,9.16,-0.06,28.23
26748,0.2278,-0.0253,0.8629,-6.56,7.02,0.02,28.22
26758,0.198,-0.024,0.8994,-6.66,7.91,-0.03,28.22
26768,0.2277,-0.0187,0.8881,-6.55,8.61,-0.05,28.22
26778,0.2201,-0.0194,0.8992,-6.5,6.67,0.06,28.22
26788,0.2036,-0.0211,0.9006,-6.69,9.57,0.02,28.21
26798,0.2285,-0.0184,0.8644,-6.58,7.54,-0.09,28.23
26808,0.2024,-0.0217,0.8813,-6.66,7.31,-0.06,28.21
26818,0.2131,-0.0184,0.8875,-6.69,8.81,-0.05,28.23
26828,0.225,-0.0203,0.8851,-6.67,6.84,-0.09,28.2
26838,0.2057,-0.022,0.8984,-6.61,8.24,-0.08,28.22
26848,0.2145,-0.0201,0.8778,-6.7,8.92,-0.06,28.21
26858,0.2184,-0.021,0.8643,-6.63,6.87,-0.05,28.22
26868,0.1997,-0.0254,0.8898,-6.67,8.15,-0.05,28.22
26878,0.2227,-0.0247,0.8829,-6.56,8.2,-0.03,28.23
26888,0.2179,-0.0188,0.8954,-6.6,7.02,-0.08,28.22
26898,0.202,-0.0242,0.894,-6.63,9.34,-0.02,28.24
26908,0.2314,-0.0214,0.8638,-6.53,6.92,0.02,28.23
26918,0.199,-0.0232,0.8984,-6.56,7.37,-0.03,28.22
26935,0.2003,-0.0175,0.9093,-6.6,8.58,-0.02,28.24
26948,0.205,-0.0212,0.9037,-6.56,8.9,-0.03,28.22
26958,0.2258,-0.021,0.8683,-6.58,8.09,-0.03,28.24
26968,0.2103,-0.0195,0.8737,-6.6,6.99,-0.06,28.24
26978,0.2042,-0.0244,0.8861,-6.66,8.7,-0.08,28.24
26988,0.2255,-0.0243,0.8816,-6.55,7.34,-0.02,28.2
26998,0.2092,-0.0234,0.8979,-6.58,7.73,0.03,28.24
27008,0.2069,-0.024,0.8831,-6.63,8.79,-0.03,28.23
27018,0.2213,-0.0233,0.8708,-6.56,7.02,-0.03,28.2
27028,0.1997,-0.0254,0.8967,-6.61,8.14,-0.06,28.24
27038,0.2274,-0.0156,0.8857,-6.56,8.24,-0.09,28.22
27048,0.2192,-0.0171,0.8961,-6.6,6.85,-0.03,28.22
27058,0.2031,-0.021,0.8967,-6.63,9.42,-0.14,28.22
27068,0.2264,-0.016,0.8661,-6.6,7.3,-0.15,28.24
27078,0.2029,-0.0216,0.8824,-6.56,7.34,-0.05,28.24
27091,0.223,-0.0179,0.8656,-6.66,6.95,-0.06,28.22
27101,0.2023,-0.022,0.8928,-6.67,8.56,-0.05,28.22
27111,0.2234,-0.0184,0.8831,-6.69,7.86,-0.06,28.24
27121,0.2155,-0.0212,0.8936,-6.66,7.33,-0.08,28.23
27131,0.2009,-0.0256,0.8916,-6.69,9.1,-0.14,28.22
27141,0.2247,-0.0265,0.8643,-6.6,7.45,-0.09,28.23
27151,0.2191,-0.0247,0.8751,-6.61,6.46,-0.06,28.22
27164,0.2137,-0.0233,0.879,-6.66,6.78,-0.03,28.23
27174,0.2059,-0.0231,0.9049,-6.63,8.47,-0.06,28.24
27184,0.2247,-0.0277,0.8864,-6.64,7.82,-0.06,28.24
27194,0.2189,-0.0211,0.8951,-6.53,7.42,-0.03,28.23
27204,0.2035,-0.0228,0.8774,-6.66,8.96,-0.09,28.25
27214,0.2235,-0.0242,0.8594,-6.6,7.22,-0.06,28.23
27224,0.1976,-0.0195,0.8899,-6.66,7.66,-0.12,28.23
27234,0.223,-0.0193,0.8932,-6.63,8.6,-0.09,28.23
27247,0.1979,-0.0168,0.9032,-6.64,8.93,-0.09,28.24
27259,0.21,-0.0249,0.8933,-6.7,8.95,-0.05,28.21
27269,0.223,-0.022,0.9015,-6.58,6.99,-0.03,28.23
27279,0.212,-0.0199,0.9088,-6.69,8.27,-0.08,28.23
27289,0.2216,-0.0171,0.8732,-6.72,8.03,-0.02,28.24
27299,0.2098,-0.0247,0.876,-6.6,7.27,0.02,28.22
27309,0.1986,-0.0249,0.887,-6.72,7.8,-0.02,28.22
27319,0.215,-0.0204,0.894,-6.61,8.7,-0.03,28.24
27330,0.2246,-0.0223,0.886,-6.61,7.86,-0.09,28.22
27345,0.1993,-0.0221,0.8956,-6.63,8.24,0.02,28.23
27356,0.2114,-0.0231,0.8922,-6.7,8.81,-0.11,28.22
27366,0.2207,-0.0242,0.8842,-6.64,7.1,0.0,28.22
27379,0.2311,-0.0217,0.8821,-6.55,7.31,-0.02,28.24
27391,0.223,-0.0195,0.8848,-6.52,7.19,-0.12,28.23
27401,0.2058,-0.0229,0.8997,-6.52,7.95,-0.06,28.24
27411,0.2087,-0.0225,0.8883,-6.6,8.99,-0.03,28.21
27421,0.2236,-0.0214,0.8652,-6.53,6.87,-0.02,28.21
27431,0.1991,-0.0216,0.8995,-6.64,7.98,-0.05,28.24
27441,0.2216,-0.019,0.8916,-6.61,8.24,0.03,28.2
27451,0.2206,-0.0203,0.8967,-6.56,7.08,-0.08,28.24
27461,0.2035,-0.0222,0.895,-6.64,9.24,-0.02,28.24
27471,0.2327,-0.0198,0.8538,-6.66,7.31,-0.03,28.22
27481,0.1968,-0.0244,0.8896,-6.66,7.07,-0.06,28.2
27491,0.2148,-0.0201,0.8906,-6.67,9.13,0.03,28.24
27501,0.2197,-0.0179,0.8871,-6.61,6.67,-0.03,28.23
27511,0.1995,-0.0179,0.906,-6.64,9.05,-0.02,28.23
27521,0.2247,-0.0172,0.8728,-6.64,8.23,0.05,28.22
27531,0.2142,-0.0186,0.877,-6.66,6.89,-0.06,28.24
27541,0.2053,-0.0175,0.8972,-6.61,8.52,-0.12,28.23
27551,0.2278,-0.0162,0.8896,-6.66,7.76,-0.03,28.21
27561,0.2161,-0.0144,0.895,-6.67,7.47,0.02,28.24
27571,0.2056,-0.0226,0.889,-6.63,9.19,-0.06,28.23
27583,0.201,-0.0254,0.9016,-6.67,8.76,-0.11,28.22
27596,0.1984,-0.0253,0.8937,-6.72,9.07,-0.09,28.23
27606,0.2255,-0.0247,0.8663,-6.61,7.69,-0.02,28.21
27616,0.2025,-0.0276,0.8882,-6.66,7.16,0.0,28.24
27626,0.2174,-0.0236,0.8887,-6.69,9.16,-0.02,28.23
27637,0.2294,-0.0225,0.8723,-6.67,7.16,-0.05,28.25
27647,0.2029,-0.0188,0.9045,-6.58,8.03,-0.02,28.24
27657,0.2156,-0.0205,0.8748,-6.61,8.84,-0.02,28.22
27667,0.2185,-0.0182,0.8704,-6.53,7.01,-0.06,28.23
27677,0.2037,-0.0194,0.8933,-6.58,8.32,-0.14,28.21
27687,0.2214,-0.019,0.8856,-6.58,8.06,-0.09,28.22
27697,0.2162,-0.019,0.8959,-6.64,7.3,-0.05,28.21
27707,0.208,-0.0228,0.8929,-6.63,8.92,-0.03,28.2
27717,0.2207,-0.0205,0.8699,-6.6,7.79,-0.12,28.25
27727,0.2037,-0.0219,0.8843,-6.63,7.15,0.03,28.24
27738,0.2023,-0.0232,0.8844,-6.63,7.3,-0.08,28.23
27751,0.208,-0.0205,0.8729,-6.67,6.79,-0.06,28.23
27763,0.2032,-0.024,0.8773,-6.6,7.27,-0.05,28.24
27773,0.2212,-0.0217,0.8846,-6.66,7.91,-0.03,28.24
27783,0.2169,-0.02,0.8923,-6.64,7.44,-0.06,28.22
27793,0.2102,-0.0198,0.8953,-6.63,8.46,-0.06,28.26
27803,0.2162,-0.0198,0.8781,-6.73,8.34,-0.06,28.23
27813,0.2167,-0.0216,0.8733,-6.69,6.99,-0.09,28.21
27823,0.2057,-0.0211,0.895,-6.76,8.08,-0.11,28.25
27833,0.2177,-0.0217,0.8866,-6.7,8.06,-0.02,28.25
27843,0.2134,-0.0209,0.8909,-6.69,7.59,-0.05,28.24
27853,0.2073,-0.0249,0.8862,-6.6,8.95,-0.11,28.25
27863,0.2244,-0.0233,0.8647,-6.55,6.84,-0.03,28.24
27873,0.1986,-0.0247,0.8925,-6.64,8.0,0.0,28.21
27883,0.2201,-0.025,0.8887,-6.64,8.52,-0.11,28.22
27893,0.2197,-0.0225,0.8878,-6.56,7.05,-0.08,28.25
27903,0.203,-0.0208,0.8901,-6.67,8.92,-0.05,28.25
27913,0.224,-0.0231,0.864,-6.61,7.83,0.06,28.23
27923,0.2015,-0.0256,0.8832,-6.58,7.25,-0.06,28.25
27933,0.2133,-0.0245,0.8948,-6.66,8.84,-0.03,28.25
27943,0.2255,-0.02,0.8854,-6.58,6.82,-0.03,28.26
27953,0.2,-0.0211,0.9032,-6.61,8.63,-0.08,28.24
27963,0.222,-0.019,0.8741,-6.67,8.24,-0.06,28.25
27973,0.2148,-0.0214,0.8866,-6.6,6.81,-0.05,28.25
27983,0.209,-0.0187,0.8962,-6.72,8.99,-0.05,28.24
27993,0.2266,-0.0233,0.8822,-6.58,6.87,0.0,28.22
28003,0.2047,-0.0229,0.9038,-6.72,8.2,-0.09,28.26
28015,0.2152,-0.0187,0.8962,-6.63,7.56,0.0,28.25
28028,0.2181,-0.0204,0.8918,-6.6,7.66,0.02,28.24
28038,0.2112,-0.0192,0.8934,-6.64,7.98,-0.11,28.23
28048,0.2114,-0.0194,0.8812,-6.64,8.75,-0.05,28.22
28058,0.2198,-0.0228,0.8738,-6.61,6.95,-0.11,28.24
28068,0.1992,-0.0217,0.9025,-6.63,8.49,-0.06,28.23
28078,0.2296,-0.0203,0.8833,-6.63,7.76,0.03,28.23
28088,0.207,-0.0193,0.9008,-6.64,7.74,-0.06,28.24
28098,0.2151,-0.0182,0.8793,-6.7,9.07,-0.11,28.24
28112,0.2036,-0.0242,0.9023,-6.67,8.58,0.02,28.24
28123,0.205,-0.0214,0.8992,-6.63,8.73,-0.05,28.23
28133,0.2256,-0.0209,0.8679,-6.67,7.05,-0.03,28.24
28143,0.1982,-0.0225,0.8893,-6.66,7.76,-0.15,28.23
28153,0.219,-0.0222,0.8878,-6.63,8.61,-0.02,28.24
28163,0.2238,-0.0227,0.8854,-6.63,6.63,0.0,28.25
28173,0.2043,-0.0227,0.9037,-6.6,8.99,-0.03,28.23
28183,0.2257,-0.0208,0.8641,-6.64,8.02,-0.08,28.23
28193,0.2057,-0.0229,0.8807,-6.66,6.79,0.02,28.22
28203,0.2076,-0.0214,0.8926,-6.61,9.36,-0.06,28.24
28213,0.2318,-0.0208,0.8824,-6.53,6.7,-0.15,28.24
28223,0.1986,-0.017,0.9072,-6.66,8.2,-0.03,28.24
28233,0.2141,-0.0215,0.8746,-6.6,8.81,-0.08,28.24
28243,0.2178,-0.0209,0.8717,-6.58,7.01,-0.08,28.25
28253,0.2057,-0.0231,0.8907,-6.63,7.88,-0.08,28.25
28263,0.2175,-0.0205,0.8901,-6.69,8.2,-0.06,28.24
28273,0.2217,-0.0209,0.8918,-6.7,7.16,-0.08,28.24
28283,0.2007,-0.0232,0.9017,-6.64,8.85,-0.11,28.24
28293,0.228,-0.019,0.8687,-6.61,8.2,-0.02,28.24
28303,0.2063,-0.0227,0.8845,-6.63,6.9,-0.05,28.24
28313,0.2101,-0.0215,0.8949,-6.69,8.85,0.0,28.25
28323,0.2288,-0.0229,0.8781,-6.53,7.04,-0.09,28.24
28333,0.2051,-0.0231,0.9001,-6.69,8.24,-0.06,28.25
28343,0.2172,-0.0226,0.8712,-6.64,8.73,-0.06,28.24
28353,0.2139,-0.0255,0.8755,-6.61,6.67,0.05,28.27
28363,0.1995,-0.0221,0.895,-6.64,9.04,0.0,28.23
28373,0.2284,-0.0238,0.8801,-6.67,7.21,-0.05,28.24
28383,0.2039,-0.0188,0.9045,-6.67,7.92,0.0,28.23
28393,0.2122,-0.0219,0.882,-6.55,8.72,-0.14,28.24
28403,0.2235,-0.0198,0.8728,-6.67,7.21,-0.09,28.23
28413,0.1996,-0.0188,0.8888,-6.69,7.77,-0.03,28.25
28423,0.2188,-0.0183,0.8884,-6.7,8.44,-0.06,28.27
28433,0.2173,-0.0183,0.8925,-6.63,7.07,-0.06,28.24
28443,0.204,-0.0201,0.8988,-6.61,8.63,-0.12,28.24
28453,0.209,-0.02,0.8826,-6.55,8.7,-0.08,28.26
28463,0.2114,-0.0243,0.8761,-6.69,7.01,0.02,28.27
28473,0.2072,-0.0264,0.895,-6.7,8.37,-0.08,28.27
28483,0.2242,-0.0198,0.8872,-6.53,7.63,-0.05,28.27
28493,0.2087,-0.0198,0.8949,-6.58,7.91,-0.08,28.24
28503,0.2156,-0.0229,0.879,-6.63,8.61,-0.05,28.27
28513,0.2177,-0.0216,0.8712,-6.61,7.4,-0.15,28.24
28523,0.2097,-0.0243,0.8889,-6.6,7.91,0.02,28.25
28533,0.2172,-0.0215,0.8942,-6.61,8.18,-0.06,28.27
28543,0.2198,-0.0203,0.8921,-6.58,7.68,-0.02,28.26
28554,0.2147,-0.02,0.8929,-6.56,7.8,0.03,28.24
28564,0.2091,-0.0168,0.8812,-6.69,8.64,-0.12,28.25
28574,0.2195,-0.021,0.8651,-6.58,7.05,0.0,28.25
28584,0.1957,-0.0215,0.897,-6.66,8.02,0.0,28.27
28594,0.2222,-0.0225,0.886,-6.61,8.12,-0.14,28.24
28604,0.2172,-0.0203,0.8982,-6.61,7.04,-0.08,28.27
28614,0.2054,-0.0205,0.8855,-6.6,9.39,-0.05,28.25
28624,0.225,-0.0215,0.8561,-6.56,6.9,0.0,28.24
28640,0.2108,-0.0194,0.9095,-6.61,7.68,-0.05,28.28
28652,0.2067,-0.0206,0.9022,-6.63,7.95,-0.03,28.26
28662,0.2219,-0.02,0.8651,-6.61,8.21,0.02,28.25
28672,0.2131,-0.0254,0.8754,-6.64,7.11,-0.11,28.26
28682,0.2051,-0.0212,0.8929,-6.7,8.11,-0.11,28.24
28692,0.2139,-0.02,0.8948,-6.72,8.46,-0.06,28.29
28702,0.2161,-0.0181,0.8943,-6.56,7.42,-0.03,28.27
28712,0.203,-0.0221,0.8955,-6.61,8.6,-0.05,28.26
28722,0.2197,-0.0195,0.8672,-6.73,8.29,-0.11,28.27
28732,0.2111,-0.0209,0.8754,-6.63,6.76,-0.03,28.24
28742,0.2072,-0.0228,0.8959,-6.66,8.41,-0.06,28.24
28759,0.2192,-0.021,0.8749,-6.63,8.44,-0.08,28.27
28771,0.2129,-0.0217,0.8818,-6.61,8.99,-0.14,28.27
28783,0.2224,-0.0247,0.8679,-6.58,7.8,-0.03,28.27
28796,0.2206,-0.0223,0.8745,-6.6,8.64,-0.03,28.26
28806,0.2131,-0.0248,0.8688,-6.61,6.64,0.02,28.26
28816,0.2008,-0.0223,0.8939,-6.6,8.69,0.02,28.28
28826,0.2295,-0.0212,0.8799,-6.52,7.24,-0.02,28.25
28836,0.2053,-0.02,0.9061,-6.63,7.98,0.0,28.27
28846,0.2164,-0.02,0.8837,-6.63,8.93,-0.08,28.27
28856,0.2229,-0.0211,0.8691,-6.56,6.95,0.05,28.29
28866,0.1968,-0.0226,0.8896,-6.49,8.05,-0.09,28.27
28876,0.2235,-0.0212,0.8854,-6.7,8.29,-0.05,28.27
28886,0.2218,-0.0194,0.89,-6.67,7.11,-0.03,28.28
28896,0.2063,-0.0211,0.8965,-6.67,8.69,-0.05,28.26
28906,0.2196,-0.0193,0.87,-6.55,8.26,-0.05,28.27
28916,0.2115,-0.021,0.8794,-6.61,6.93,-0.02,28.27
28926,0.2042,-0.0199,0.8978,-6.67,8.89,-0.08,28.27
28936,0.2294,-0.0238,0.8794,-6.66,7.18,-0.05,28.28
28946,0.2061,-0.0177,0.9028,-6.63,7.92,-0.08,28.25
28956,0.2152,-0.0212,0.8827,-6.63,8.93,-0.09,28.28
28966,0.2202,-0.0211,0.8706,-6.52,6.98,-0.05,28.29
28976,0.2007,-0.0243,0.8916,-6.63,7.95,0.0,28.27
28988,0.2015,-0.0239,0.8923,-6.56,8.06,-0.06,28.28
28999,0.2052,-0.0228,0.8934,-6.64,8.5,-0.14,28.27
29009,0.2227,-0.0199,0.8864,-6.56,7.19,-0.06,28.25
29019,0.2021,-0.0189,0.901,-6.63,8.4,-0.05,28.25
29029,0.2206,-0.0198,0.8722,-6.6,8.44,0.02,28.27
29039,0.2136,-0.0237,0.8744,-6.64,6.78,-0.11,28.27
29049,0.2037,-0.0248,0.8967,-6.58,8.47,-0.06,28.27
29059,0.2239,-0.0231,0.89,-6.58,7.83,-0.03,28.27
29069,0.2137,-0.0187,0.8975,-6.52,7.62,-0.06,28.27
29079,0.2069,-0.0226,0.8864,-6.69,8.99,-0.05,28.27
29089,0.2192,-0.022,0.869,-6.63,7.36,-0.02,28.26
29099,0.2069,-0.0239,0.8936,-6.58,7.48,-0.08,28.3
29109,0.2218,-0.0216,0.8916,-6.61,8.7,-0.06,28.27
29119,0.224,-0.0214,0.8855,-6.56,6.75,0.02,28.26
29129,0.1952,-0.0214,0.8999,-6.66,9.48,-0.09,28.3
29139,0.2313,-0.0217,0.8577,-6.6,7.6,-0.08,28.28
29149,0.1998,-0.0239,0.886,-6.64,7.16,-0.05,28.28
29159,0.2144,-0.0186,0.8859,-6.69,9.08,-0.06,28.26
29169,0.2252,-0.0206,0.8859,-6.56,6.47,-0.03,28.29
29179,0.2043,-0.0205,0.9014,-6.56,8.81,-0.05,28.28
29192,0.2078,-0.0212,0.8988,-6.61,7.79,-0.02,28.28
29203,0.2073,-0.0219,0.9055,-6.6,7.85,-0.05,28.27
29213,0.2236,-0.0219,0.8685,-6.63,8.15,-0.05,28.3
29223,0.2089,-0.0264,0.8798,-6.66,6.82,0.05,28.29
29233,0.2052,-0.0231,0.897,-6.69,9.08,-0.08,28.28
29243,0.2316,-0.0209,0.8798,-6.64,6.92,-0.09,28.27
29253,0.2017,-0.0172,0.9062,-6.66,8.08,-0.12,28.27
29263,0.2174,-0.0164,0.8754,-6.64,8.72,0.02,28.27
29273,0.2195,-0.0195,0.8772,-6.6,7.88,-0.06,28.3
29283,0.2047,-0.0231,0.8905,-6.7,8.02,-0.05,28.29
29299,0.2142,-0.0261,0.8777,-6.64,8.75,0.08,28.29
29311,0.207,-0.0228,0.8796,-6.67,8.23,-0.03,28.29
29322,0.2106,-0.0228,0.8802,-6.58,8.99,-0.05,28.28
29332,0.1986,-0.0193,0.9022,-6.7,7.18,-0.08,28.27
29347,0.2301,-0.0217,0.858,-6.64,8.17,-0.09,28.29
29360,0.2346,-0.0192,0.8618,-6.61,7.27,-0.05,28.27
29370,0.2028,-0.0251,0.8917,-6.56,7.3,-0.06,28.28
29380,0.2201,-0.022,0.8892,-6.63,8.98,-0.06,28.31
29390,0.2257,-0.0137,0.8895,-6.58,6.69,0.05,28.3
29400,0.2056,-0.0173,0.9,-6.6,7.98,0.03,28.29
29410,0.2136,-0.0225,0.8826,-6.6,8.7,-0.06,28.29
29420,0.2205,-0.0139,0.8767,-6.58,7.21,-0.06,28.27
29430,0.2015,-0.0222,0.8811,-6.7,7.89,-0.08,28.28
29440,0.2068,-0.0223,0.8901,-6.69,8.12,0.0,28.28
29450,0.2202,-0.0229,0.8887,-6.61,7.73,-0.11,28.27
29460,0.2078,-0.0231,0.8949,-6.67,7.98,0.02,28.27
29470,0.2111,-0.0273,0.8796,-6.67,8.47,-0.05,28.29
29480,0.2155,-0.0267,0.8788,-6.66,7.25,0.0,28.31
29492,0.22,-0.0237,0.8787,-6.55,7.25,-0.05,28.3
29504,0.2175,-0.0227,0.8787,-6.6,7.1,-0.14,28.28
29514,0.21,-0.021,0.8984,-6.61,8.75,-0.11,28.3
29524,0.2313,-0.0206,0.884,-6.6,7.5,-0.09,28.28
29534,0.2042,-0.0209,0.9044,-6.64,8.17,-0.09,28.3
29544,0.2202,-0.0203,0.8704,-6.55,8.78,-0.06,28.3
29554,0.2124,-0.0177,0.8745,-6.61,6.41,0.0,28.3
29564,0.1975,-0.0204,0.8979,-6.72,9.57,-0.11,28.31
29574,0.2341,-0.014,0.8757,-6.64,6.73,-0.09,28.31
29584,0.1953,-0.0159,0.9095,-6.58,8.2,-0.03,28.31
29594,0.2181,-0.0205,0.876,-6.63,8.81,-0.05,28.32
29604,0.2133,-0.0188,0.876,-6.63,6.93,-0.03,28.34
29614,0.2017,-0.0211,0.8885,-6.69,8.49,-0.03,28.32
