t_ms,accel_x_g,accel_y_g,accel_z_g,gyro_x_dps,gyro_y_dps,gyro_z_dps,imu_temp_c
3278,0.1807,-0.0281,0.8868,-6.75,7.83,-0.02,32.42
3289,0.1823,-0.0308,0.8906,-6.72,7.4,0.0,32.42
3299,0.1816,-0.0262,0.889,-6.7,7.33,-0.03,32.44
3309,0.168,-0.025,0.9039,-6.73,8.44,-0.05,32.43
3319,0.1696,-0.026,0.9039,-6.78,8.35,0.02,32.43
3329,0.1809,-0.0208,0.8989,-6.84,7.92,-0.09,32.42
3339,0.1777,-0.0216,0.9011,-6.75,7.48,0.05,32.42
3349,0.1721,-0.022,0.9043,-6.78,8.15,-0.06,32.44
3359,0.1725,-0.0214,0.9021,-6.72,8.58,-0.06,32.44
3369,0.1749,-0.0271,0.887,-6.76,8.47,-0.09,32.44
3379,0.1788,-0.0245,0.884,-6.79,7.73,0.02,32.43
3389,0.1779,-0.024,0.8883,-6.73,7.5,-0.09,32.44
3399,0.1671,-0.0272,0.9026,-6.89,7.98,-0.02,32.44
3409,0.1816,-0.0222,0.9025,-6.87,8.64,-0.02,32.43
3419,0.1925,-0.026,0.8958,-6.78,7.56,0.05,32.42
3429,0.1907,-0.0233,0.8918,-6.79,7.18,-0.05,32.44
3439,0.1631,-0.0269,0.9152,-6.84,9.01,-0.11,32.44
3449,0.1826,-0.0291,0.8865,-6.64,8.79,-0.03,32.42
3459,0.1787,-0.03,0.8698,-6.73,7.18,0.0,32.42
3469,0.1615,-0.03,0.8796,-6.72,7.31,0.02,32.43
3479,0.166,-0.03,0.8956,-6.76,8.21,0.02,32.43
3489,0.1666,-0.0277,0.8965,-6.81,8.26,-0.05,32.44
3499,0.1862,-0.0201,0.9144,-6.75,7.56,-0.03,32.44
3509,0.1741,-0.0248,0.9222,-6.82,7.86,0.03,32.44
3519,0.1665,-0.0232,0.9136,-6.76,9.16,-0.02,32.44
3529,0.1798,-0.025,0.8817,-6.76,8.4,-0.09,32.43
3539,0.174,-0.0273,0.8766,-6.73,7.4,-0.11,32.44
3549,0.1681,-0.0262,0.8873,-6.7,7.37,-0.05,32.46
3559,0.16,-0.0277,0.9001,-6.76,8.11,0.0,32.44
3569,0.178,-0.0267,0.9061,-6.79,8.79,-0.03,32.45
3579,0.1978,-0.0261,0.8971,-6.76,7.42,0.0,32.43
3589,0.1766,-0.0238,0.9108,-6.7,7.21,-0.15,32.46
3599,0.158,-0.0292,0.9155,-6.7,8.92,-0.06,32.45
3609,0.1594,-0.0208,0.9117,-6.75,9.48,0.03,32.47
3619,0.186,-0.0281,0.8768,-6.81,8.61,0.06,32.44
3629,0.1849,-0.0261,0.8802,-6.78,6.58,-0.05,32.47
3639,0.1637,-0.0254,0.9054,-6.76,7.69,-0.03,32.46
3649,0.1698,-0.0262,0.9041,-6.78,8.78,-0.03,32.44
3659,0.1835,-0.0253,0.8923,-6.81,7.83,-0.06,32.45
3669,0.1732,-0.0314,0.8876,-6.75,7.44,-0.05,32.44
3679,0.1703,-0.0253,0.8937,-6.69,7.89,-0.02,32.44
3689,0.1741,-0.0286,0.8923,-6.84,7.88,0.05,32.46
3699,0.1665,-0.0264,0.8936,-6.76,7.77,0.0,32.42
3709,0.168,-0.0198,0.9081,-6.82,8.14,-0.03,32.44
3719,0.173,-0.0221,0.9055,-6.75,7.91,-0.08,32.43
3729,0.1832,-0.0248,0.9144,-6.73,7.85,-0.08,32.46
3739,0.1899,-0.0182,0.9198,-6.87,7.8,-0.09,32.45
3749,0.1694,-0.0319,0.9089,-6.75,8.11,-0.14,32.45
3759,0.1506,-0.0292,0.8947,-6.66,9.34,-0.05,32.44
3769,0.1936,-0.0225,0.8767,-6.82,8.38,-0.06,32.44
3779,0.1763,-0.0392,0.8604,-6.81,6.24,-0.03,32.46
3789,0.1506,-0.024,0.8949,-6.76,7.57,0.0,32.46
3799,0.1792,-0.016,0.92,-6.89,8.89,-0.15,32.47
3809,0.1918,-0.0339,0.886,-6.73,7.51,0.0,32.46
3819,0.1647,-0.0236,0.8894,-6.67,6.98,-0.08,32.45
3829,0.1819,-0.0222,0.9094,-6.76,8.44,-0.11,32.46
3839,0.1899,-0.03,0.8988,-6.67,7.92,-0.09,32.45
3849,0.1646,-0.0299,0.8895,-6.76,8.09,-0.08,32.47
3859,0.162,-0.0284,0.8877,-6.69,8.66,-0.02,32.47
3869,0.1846,-0.0298,0.8994,-6.7,8.23,0.0,32.46
3879,0.1843,-0.032,0.8837,-6.64,6.89,-0.02,32.46
3889,0.1571,-0.0299,0.8958,-6.82,7.25,-0.06,32.46
3899,0.1654,-0.0228,0.9143,-6.72,8.93,0.02,32.47
3909,0.1846,-0.0271,0.9081,-6.87,8.03,-0.03,32.47
3919,0.1721,-0.024,0.8959,-6.82,8.49,-0.08,32.48
3929,0.1813,-0.0187,0.8798,-6.82,7.48,-0.08,32.46
3939,0.1825,-0.0198,0.8975,-6.85,6.56,-0.12,32.44
3949,0.1606,-0.0262,0.923,-6.75,8.52,-0.06,32.48
3959,0.1729,-0.0256,0.9083,-6.85,9.21,-0.09,32.46
3969,0.1881,-0.026,0.8838,-6.69,8.0,-0.03,32.45
3979,0.1847,-0.0325,0.8892,-6.67,7.08,-0.02,32.45
3989,0.1659,-0.0292,0.891,-6.75,8.08,0.02,32.47
3999,0.1643,-0.0284,0.8771,-6.85,8.15,-0.05,32.47
4009,0.1616,-0.0322,0.8831,-6.89,7.59,-0.08,32.45
4019,0.1749,-0.0238,0.913,-6.75,7.94,0.02,32.48
4029,0.1968,-0.0244,0.9294,-6.67,7.97,0.02,32.48
4039,0.1896,-0.019,0.9156,-6.84,7.51,-0.06,32.47
4049,0.1492,-0.0281,0.9076,-6.84,9.47,-0.05,32.49
4059,0.1669,-0.0309,0.8518,-6.84,9.42,-0.05,32.48
4069,0.1893,-0.0341,0.8459,-6.63,5.89,-0.05,32.47
4079,0.1614,-0.0225,0.9052,-6.6,6.78,-0.06,32.49
4089,0.163,-0.022,0.9232,-6.67,8.08,-0.02,32.48
4099,0.1912,-0.0129,0.9038,-6.99,7.74,0.02,32.49
4109,0.1873,-0.0184,0.9037,-6.87,7.6,-0.06,32.46
4119,0.1729,-0.0244,0.8986,-6.79,7.16,-0.08,32.47
4129,0.1643,-0.0293,0.9089,-6.72,8.11,-0.09,32.47
4139,0.1655,-0.0266,0.908,-6.67,8.73,0.0,32.43
4149,0.1722,-0.0244,0.907,-6.78,8.76,-0.05,32.48
4159,0.1871,-0.0278,0.8798,-6.87,7.31,-0.03,32.48
4169,0.1672,-0.0276,0.8892,-6.89,7.33,-0.11,32.46
4179,0.166,-0.0303,0.8943,-6.72,8.41,-0.03,32.48
4189,0.1873,-0.0337,0.9092,-6.81,7.27,-0.05,32.47
4199,0.1697,-0.0249,0.9208,-6.73,8.63,0.08,32.47
4209,0.1844,-0.0249,0.9128,-6.87,8.89,0.0,32.47
4219,0.1665,-0.0315,0.8851,-6.76,7.47,-0.06,32.47
4229,0.1626,-0.03,0.8866,-6.79,8.35,0.0,32.48
4239,0.1732,-0.0289,0.8699,-6.87,7.95,0.0,32.47
4249,0.1857,-0.0299,0.8929,-6.7,6.41,0.02,32.47
4259,0.1627,-0.0181,0.9268,-6.73,7.65,-0.03,32.48
4269,0.1652,-0.0171,0.9406,-6.89,9.57,-0.09,32.47
4288,0.141,-0.0244,0.915,-6.87,9.1,-0.11,32.47
4298,0.1957,-0.0297,0.8381,-6.75,6.9,-0.08,32.46
4308,0.1796,-0.0289,0.895,-6.78,4.98,-0.06,32.48
4318,0.141,-0.0194,0.9541,-6.64,9.57,-0.06,32.49
4328,0.2043,-0.0179,0.9144,-6.87,9.91,0.0,32.51
4338,0.2025,-0.021,0.8934,-6.87,6.02,0.0,32.49
4348,0.1685,-0.0287,0.9137,-6.79,6.9,-0.12,32.48
4358,0.1515,-0.0259,0.9113,-6.9,10.11,0.18,32.5
4368,0.1825,-0.0306,0.8685,-6.89,8.63,-0.06,32.47
4378,0.1934,-0.0269,0.8663,-6.75,6.31,-0.14,32.49
4388,0.1637,-0.03,0.8918,-6.72,6.9,0.05,32.49
4398,0.1614,-0.026,0.921,-6.64,9.27,-0.06,32.48
4408,0.1919,-0.025,0.8864,-6.66,8.38,0.0,32.47
4418,0.1901,-0.0271,0.8889,-6.7,6.73,-0.03,32.46
4428,0.1544,-0.0306,0.8971,-6.76,7.68,-0.06,32.49
4438,0.1487,-0.0271,0.9122,-6.82,9.48,-0.11,32.47
4448,0.178,-0.026,0.8901,-6.87,8.75,-0.03,32.47
4458,0.1995,-0.0287,0.8937,-6.73,5.74,-0.06,32.5
4468,0.1472,-0.0262,0.9269,-6.75,8.14,0.0,32.48
4478,0.1714,-0.0227,0.9064,-6.78,10.31,-0.11,32.49
4488,0.2106,-0.0233,0.8566,-6.84,6.46,-0.09,32.49
4498,0.1639,-0.0305,0.8873,-6.81,6.26,-0.05,32.49
4508,0.1357,-0.0294,0.9111,-6.81,10.43,0.0,32.49
4518,0.1871,-0.0236,0.869,-6.78,8.82,-0.06,32.5
4528,0.2017,-0.0216,0.8738,-6.78,5.13,-0.05,32.5
4538,0.1554,-0.0265,0.9269,-6.76,7.33,-0.03,32.49
4548,0.1555,-0.0216,0.9216,-6.73,9.36,0.03,32.49
4558,0.1888,-0.0255,0.8806,-6.7,8.92,0.0,32.5
4568,0.1984,-0.0212,0.8807,-6.69,6.2,-0.05,32.5
4578,0.1653,-0.0225,0.9132,-6.75,6.81,0.0,32.46
4588,0.1538,-0.0244,0.9502,-6.89,10.47,-0.02,32.5
4598,0.1825,-0.025,0.9036,-6.9,9.28,-0.09,32.49
4608,0.2018,-0.0247,0.8864,-6.81,7.04,-0.09,32.5
4618,0.163,-0.0316,0.8871,-6.69,7.3,0.05,32.51
4628,0.1543,-0.0321,0.897,-6.72,8.96,-0.02,32.52
4638,0.1779,-0.0269,0.8759,-6.61,9.1,0.02,32.5
4648,0.1969,-0.0299,0.8735,-6.75,6.92,-0.11,32.51
4658,0.1759,-0.0292,0.8979,-6.72,6.18,-0.06,32.48
4668,0.1384,-0.0283,0.9309,-6.84,10.06,-0.02,32.48
4678,0.1898,-0.0232,0.8823,-6.75,9.08,-0.05,32.49
4689,0.202,-0.0264,0.8655,-6.76,7.85,0.08,32.49
4699,0.1885,-0.0281,0.8864,-6.78,6.31,0.06,32.49
4709,0.1476,-0.0338,0.9092,-6.7,7.63,0.06,32.51
4719,0.1521,-0.0237,0.9133,-6.61,9.73,-0.08,32.5
4729,0.1887,-0.0209,0.8773,-6.72,8.24,0.0,32.49
4739,0.2057,-0.0217,0.8912,-6.81,5.13,-0.06,32.5
4749,0.1707,-0.0244,0.926,-6.81,7.44,-0.09,32.51
4759,0.1512,-0.0281,0.9364,-6.84,10.11,-0.11,32.51
4769,0.1747,-0.0242,0.9003,-6.82,10.41,-0.02,32.51
4779,0.1993,-0.0286,0.8468,-6.67,7.21,-0.08,32.52
4789,0.1729,-0.0315,0.8652,-6.58,5.42,-0.02,32.51
4799,0.141,-0.0326,0.8989,-6.69,8.44,0.02,32.52
4809,0.1458,-0.0277,0.9132,-6.72,9.37,-0.03,32.52
4819,0.1996,-0.0212,0.8922,-6.75,6.98,-0.11,32.51
4829,0.1851,-0.027,0.9237,-6.66,6.35,-0.03,32.5
4839,0.141,-0.0243,0.9376,-6.81,10.2,-0.02,32.48
4849,0.1907,-0.0206,0.8865,-6.79,9.94,-0.03,32.49
4859,0.1995,-0.0233,0.8451,-6.73,6.0,-0.09,32.5
4869,0.1643,-0.0271,0.8755,-6.63,6.43,-0.06,32.48
4879,0.1399,-0.0281,0.9109,-6.64,8.6,0.02,32.49
4889,0.1625,-0.0212,0.9207,-6.73,9.3,-0.02,32.51
4899,0.2,-0.011,0.9115,-6.79,7.88,-0.02,32.51
4909,0.201,-0.0182,0.915,-6.81,6.47,-0.09,32.52
4919,0.1724,-0.0226,0.941,-6.85,8.26,-0.14,32.51
4929,0.1504,-0.0265,0.9186,-6.79,11.21,-0.09,32.51
4939,0.1896,-0.0273,0.8732,-6.82,9.24,-0.05,32.49
4949,0.1875,-0.0298,0.8409,-6.63,6.52,-0.03,32.5
4959,0.17,-0.0316,0.8804,-6.78,5.92,-0.05,32.51
4969,0.1476,-0.0293,0.9011,-6.73,8.87,0.0,32.5
4979,0.1791,-0.0314,0.8987,-6.7,9.27,-0.03,32.49
4989,0.1855,-0.0298,0.8933,-6.61,8.5,-0.03,32.52
4999,0.1608,-0.0325,0.9154,-6.73,6.44,-0.06,32.51
5009,0.1537,-0.0287,0.9153,-6.79,9.19,0.0,32.51
5019,0.1677,-0.0281,0.8811,-6.79,9.34,-0.06,32.51
5029,0.2046,-0.0283,0.8682,-6.78,7.22,-0.03,32.51
5039,0.179,-0.0311,0.8833,-6.75,5.97,0.06,32.5
5049,0.1768,-0.0288,0.9045,-6.76,5.79,0.03,32.51
5059,0.1575,-0.0272,0.9159,-6.6,9.6,-0.06,32.5
5069,0.1975,-0.0233,0.8895,-6.7,8.23,-0.08,32.51
5079,0.2009,-0.0248,0.8706,-6.6,5.88,-0.09,32.49
5089,0.1581,-0.0255,0.9146,-6.79,7.11,-0.05,32.49
5099,0.1493,-0.0256,0.923,-6.82,10.32,0.0,32.5
5109,0.1532,-0.0226,0.9104,-6.95,9.07,-0.06,32.5
5119,0.2078,-0.0187,0.8829,-6.93,7.5,-0.14,32.49
5129,0.1927,-0.0229,0.8812,-6.85,6.99,-0.08,32.52
5139,0.1802,-0.0253,0.9169,-6.79,6.69,-0.09,32.52
5149,0.1498,-0.0306,0.9264,-6.69,9.08,-0.17,32.48
5159,0.1704,-0.0266,0.9082,-6.72,9.82,-0.14,32.51
5169,0.202,-0.0266,0.86,-6.67,7.63,0.0,32.52
5179,0.1804,-0.0304,0.8776,-6.76,5.89,-0.06,32.5
5189,0.1455,-0.0341,0.9069,-6.79,8.7,-0.09,32.49
5199,0.1544,-0.0315,0.9019,-6.84,9.92,0.0,32.5
5209,0.2079,-0.0233,0.8683,-6.79,7.6,-0.06,32.5
5219,0.1825,-0.0236,0.8879,-6.79,5.71,-0.17,32.51
5229,0.1672,-0.0243,0.9227,-6.69,7.94,-0.12,32.5
5239,0.144,-0.028,0.9192,-6.78,10.35,-0.03,32.48
5249,0.1901,-0.0249,0.8877,-6.69,8.5,-0.08,32.48
5259,0.1945,-0.0222,0.8743,-6.64,6.38,-0.08,32.52
5269,0.177,-0.0248,0.9026,-6.75,6.27,-0.03,32.5
5279,0.1606,-0.025,0.9171,-6.79,6.93,0.03,32.52
5289,0.1685,-0.0233,0.9078,-6.92,10.29,-0.09,32.52
5299,0.2001,-0.0236,0.8792,-6.93,7.5,-0.05,32.51
5309,0.1763,-0.0259,0.8872,-6.89,6.02,-0.12,32.52
5319,0.1587,-0.0282,0.9092,-6.72,8.24,-0.05,32.52
5329,0.1594,-0.0292,0.8998,-6.82,9.92,0.02,32.51
5339,0.1996,-0.0247,0.8782,-6.84,7.51,-0.03,32.52
5349,0.1823,-0.0288,0.879,-6.76,5.92,-0.05,32.54
5359,0.1637,-0.0322,0.9155,-6.79,7.16,-0.03,32.5
5369,0.1506,-0.027,0.9214,-6.9,10.05,-0.06,32.51
5379,0.1897,-0.0309,0.8878,-6.78,9.48,-0.03,32.52
5389,0.1946,-0.0289,0.8737,-6.73,6.98,0.02,32.52
5399,0.1675,-0.035,0.8922,-6.66,6.46,0.03,32.54
5409,0.1454,-0.032,0.9097,-6.64,8.7,-0.06,32.53
5419,0.1702,-0.0238,0.8821,-6.67,8.96,0.0,32.51
5429,0.1993,-0.0178,0.8835,-6.7,7.07,-0.06,32.51
5439,0.1896,-0.015,0.8978,-6.73,6.34,-0.11,32.51
5449,0.1635,-0.0237,0.9448,-6.84,7.22,0.08,32.52
5459,0.1536,-0.016,0.9454,-6.89,9.86,-0.03,32.54
5469,0.1968,-0.0175,0.9091,-6.78,9.74,0.03,32.52
5479,0.2028,-0.0226,0.8834,-6.87,6.64,-0.11,32.52
5489,0.1565,-0.0294,0.9049,-6.66,7.27,-0.08,32.52
5499,0.1433,-0.0278,0.9161,-6.76,10.06,-0.02,32.52
5509,0.1802,-0.0278,0.8761,-6.76,9.19,-0.03,32.51
5519,0.2068,-0.0238,0.8577,-6.7,6.41,-0.05,32.51
5529,0.1915,-0.0239,0.859,-6.75,6.73,-0.08,32.51
5539,0.1443,-0.0292,0.9174,-6.87,8.73,0.06,32.51
5549,0.1544,-0.025,0.9001,-6.92,10.12,0.11,32.54
5559,0.2017,-0.0208,0.8773,-6.72,7.98,0.03,32.54
5569,0.192,-0.0251,0.8788,-6.84,5.45,-0.02,32.51
5579,0.1517,-0.0282,0.9237,-6.73,8.18,-0.03,32.53
5589,0.155,-0.0276,0.9161,-6.7,10.12,0.0,32.53
5599,0.1809,-0.0249,0.8907,-6.6,8.41,-0.03,32.54
5609,0.1954,-0.0259,0.8848,-6.66,6.41,-0.17,32.52
5619,0.1793,-0.0275,0.8951,-6.72,5.8,0.0,32.53
5629,0.1498,-0.0287,0.9342,-6.81,8.73,0.06,32.54
5639,0.1649,-0.0247,0.9001,-6.87,10.27,-0.03,32.5
5649,0.2018,-0.0281,0.8776,-6.78,7.31,-0.05,32.5
5659,0.1647,-0.0219,0.8903,-6.81,6.14,-0.11,32.53
5669,0.1566,-0.0281,0.9111,-6.73,9.01,-0.03,32.54
5679,0.1693,-0.02,0.8977,-6.76,8.98,0.06,32.53
5689,0.1838,-0.0194,0.896,-6.73,8.5,0.0,32.49
5699,0.2013,-0.0217,0.8945,-6.75,5.98,-0.05,32.53
5709,0.1663,-0.0222,0.9214,-6.7,7.18,-0.12,32.51
5719,0.1588,-0.0216,0.9392,-6.85,10.03,0.0,32.54
5729,0.183,-0.0265,0.8917,-6.92,10.38,-0.08,32.53
5739,0.204,-0.0304,0.8712,-6.78,6.79,-0.11,32.52
5749,0.1581,-0.033,0.8862,-6.76,6.72,-0.03,32.54
5759,0.1581,-0.0349,0.9005,-6.64,8.5,0.0,32.54
5769,0.1672,-0.0289,0.8914,-6.73,9.01,0.03,32.54
5779,0.1888,-0.0255,0.8809,-6.75,8.23,0.03,32.49
5789,0.1912,-0.0253,0.8717,-6.64,6.53,-0.02,32.52
5799,0.1471,-0.0293,0.9099,-6.73,7.33,-0.18,32.56
5809,0.1569,-0.0211,0.9131,-6.79,10.0,0.03,32.54
5819,0.1984,-0.0209,0.8634,-6.85,7.94,-0.03,32.52
5829,0.201,-0.0256,0.8669,-6.79,7.08,-0.05,32.53
5839,0.1411,-0.0233,0.9305,-6.78,7.86,-0.03,32.54
5849,0.1663,-0.0211,0.938,-6.73,9.15,-0.08,32.54
5859,0.1796,-0.0156,0.9059,-6.73,8.55,-0.12,32.54
5869,0.2192,-0.0292,0.8641,-6.47,5.11,-0.03,32.52
5879,0.1155,-0.0294,0.9545,-6.95,8.14,-0.08,32.51
5889,0.1423,-0.0383,0.9351,-6.85,11.83,-0.03,32.53
5899,0.1992,-0.0272,0.8763,-6.92,6.7,0.0,32.53
5909,0.1595,-0.024,0.8992,-6.81,8.82,-0.03,32.54
5919,0.1797,-0.0312,0.8829,-6.84,8.87,-0.12,32.52
5930,0.1737,-0.0314,0.8776,-6.79,8.52,0.02,32.54
5940,0.2002,-0.0303,0.8629,-6.72,6.46,-0.06,32.54
5950,0.1587,-0.0243,0.8967,-6.76,6.46,0.02,32.53
5960,0.1499,-0.0217,0.9252,-6.75,10.78,-0.09,32.54
5970,0.2091,-0.0188,0.8864,-6.73,6.89,0.05,32.53
5980,0.1736,-0.0254,0.921,-6.79,6.38,-0.03,32.54
5990,0.1667,-0.0243,0.9268,-6.81,8.89,-0.06,32.52
6000,0.1638,-0.0264,0.8994,-6.9,10.34,-0.02,32.54
6010,0.1959,-0.0284,0.8721,-6.76,8.21,0.02,32.55
6020,0.1775,-0.03,0.8673,-6.84,6.64,-0.02,32.52
6030,0.1726,-0.0273,0.8899,-6.76,6.63,-0.03,32.53
6040,0.1548,-0.031,0.8966,-6.73,7.74,-0.02,32.53
6050,0.1562,-0.0262,0.9219,-6.85,10.15,0.02,32.54
6060,0.2003,-0.0304,0.875,-6.63,7.16,-0.08,32.53
6070,0.1677,-0.0261,0.9144,-6.81,5.83,-0.17,32.54
6080,0.1544,-0.0182,0.9365,-6.75,9.1,-0.11,32.52
6090,0.1656,-0.0215,0.9021,-6.84,9.74,-0.05,32.54
6100,0.1904,-0.0167,0.8876,-6.75,8.14,0.0,32.5
6110,0.1808,-0.0245,0.8826,-6.64,7.15,-0.18,32.52
6120,0.1649,-0.0283,0.9158,-6.78,7.24,0.02,32.52
6130,0.1542,-0.0188,0.9149,-6.76,9.83,0.03,32.53
6140,0.199,-0.0288,0.8865,-6.81,8.52,0.05,32.51
6150,0.1993,-0.0284,0.8834,-6.7,6.73,0.0,32.54
6160,0.1625,-0.0278,0.911,-6.73,7.21,-0.06,32.53
6170,0.1538,-0.0298,0.9092,-6.84,9.39,-0.03,32.54
6180,0.172,-0.0306,0.8837,-6.76,8.41,-0.11,32.52
6190,0.1897,-0.0248,0.8773,-6.81,7.53,0.03,32.53
6200,0.1761,-0.0288,0.8854,-6.76,6.64,-0.06,32.51
6210,0.1575,-0.0325,0.924,-6.69,7.79,-0.02,32.55
6220,0.1497,-0.0255,0.9224,-6.73,9.66,-0.05,32.53
6230,0.1985,-0.0223,0.8877,-6.73,8.37,-0.05,32.53
6240,0.1932,-0.0209,0.8811,-6.79,6.31,0.0,32.54
6250,0.1678,-0.0249,0.9069,-6.79,7.44,0.05,32.53
6260,0.1432,-0.0264,0.9176,-6.85,9.94,-0.05,32.54
6270,0.1714,-0.0239,0.8846,-6.75,9.19,-0.06,32.54
6280,0.2048,-0.0188,0.8667,-6.78,6.23,-0.02,32.52
6290,0.1591,-0.0221,0.8973,-6.84,6.26,0.0,32.54
6300,0.1514,-0.0254,0.9302,-6.76,9.4,-0.12,32.52
6310,0.1726,-0.0239,0.9081,-6.76,9.28,-0.11,32.54
6320,0.2114,-0.0216,0.9021,-6.85,7.27,-0.03,32.55
6330,0.1846,-0.0227,0.9088,-6.7,6.43,-0.06,32.55
6340,0.1819,-0.0234,0.9229,-6.82,7.3,-0.02,32.55
6350,0.1648,-0.0309,0.9017,-6.79,10.41,-0.05,32.56
6360,0.1819,-0.0344,0.863,-6.72,8.7,0.0,32.53
6370,0.1908,-0.0359,0.8522,-6.67,6.34,-0.03,32.54
6380,0.1686,-0.0376,0.8744,-6.69,5.33,-0.03,32.55
6390,0.1475,-0.0304,0.9277,-6.66,9.47,0.02,32.54
6400,0.1887,-0.0284,0.8939,-6.63,9.08,0.02,32.55
6410,0.201,-0.0264,0.9003,-6.69,6.27,-0.11,32.53
6420,0.1615,-0.025,0.9159,-6.7,7.05,-0.12,32.52
6430,0.1595,-0.0258,0.9214,-6.84,9.54,-0.02,32.53
6446,0.178,-0.025,0.8938,-6.67,9.5,2.23,32.51
6456,0.1899,-0.0175,0.8734,-6.76,7.07,0.11,32.55
6466,0.1882,-0.0223,0.8977,-6.72,6.29,0.0,32.54
6477,0.1826,-0.0211,0.894,-6.7,6.61,-0.05,32.54
6487,0.1453,-0.0271,0.9341,-6.89,8.56,-0.05,32.54
6497,0.1658,-0.0189,0.9233,-6.84,10.35,-0.03,32.56
6507,0.1951,-0.0193,0.874,-6.79,8.9,-0.02,32.54
6517,0.2004,-0.0264,0.8646,-6.79,5.89,-0.11,32.53
6527,0.1511,-0.0354,0.8947,-6.67,7.1,-0.17,32.52
6537,0.1569,-0.0302,0.922,-6.7,9.85,-0.06,32.53
6547,0.178,-0.0266,0.8915,-6.73,8.92,0.0,32.54
6557,0.2092,-0.0239,0.8772,-6.63,6.6,-0.05,32.57
6567,0.177,-0.0288,0.8885,-6.66,6.53,-0.05,32.53
6577,0.1416,-0.0275,0.912,-6.9,9.28,-0.06,32.54
6587,0.1771,-0.0212,0.8862,-6.79,9.4,-0.03,32.56
6597,0.187,-0.025,0.8792,-6.89,8.43,0.0,32.54
6607,0.1825,-0.0232,0.8979,-6.79,6.14,-0.06,32.51
6617,0.1517,-0.028,0.923,-6.79,8.27,0.0,32.56
6627,0.1624,-0.026,0.9247,-6.67,10.34,0.02,32.55
6637,0.1632,-0.0247,0.907,-6.72,9.83,0.02,32.54
6647,0.2036,-0.0269,0.8767,-6.7,5.92,-0.05,32.55
6657,0.188,-0.0251,0.8885,-6.75,6.29,-0.05,32.56
6667,0.1504,-0.0315,0.9215,-6.79,7.95,-0.08,32.57
6677,0.1543,-0.0275,0.9144,-6.87,10.17,-0.05,32.57
6687,0.1821,-0.0311,0.8771,-6.76,8.4,-0.05,32.56
6697,0.1987,-0.0236,0.8708,-6.76,6.26,-0.06,32.56
6707,0.1586,-0.033,0.8929,-6.81,6.98,-0.03,32.58
6717,0.1519,-0.033,0.9231,-6.84,9.05,0.0,32.54
6727,0.1677,-0.0276,0.9136,-6.66,9.47,0.03,32.57
6737,0.2224,-0.0219,0.8898,-6.76,6.72,-0.09,32.58
6747,0.1759,-0.0266,0.9127,-6.7,6.73,-0.08,32.54
6757,0.1472,-0.0287,0.907,-6.78,10.06,-0.08,32.54
6767,0.1691,-0.0312,0.8685,-6.75,9.73,-0.05,32.57
6777,0.1896,-0.0254,0.8528,-6.73,6.08,0.0,32.56
6787,0.1737,-0.0242,0.8926,-6.67,5.98,-0.03,32.54
6797,0.1599,-0.0237,0.9247,-6.75,7.94,0.02,32.54
6807,0.1721,-0.0236,0.9376,-6.79,9.51,0.06,32.56
6817,0.1768,-0.0203,0.9149,-6.69,9.47,0.0,32.55
6827,0.2067,-0.0193,0.8848,-6.75,6.75,0.02,32.57
6837,0.1667,-0.0258,0.8973,-6.79,6.85,-0.03,32.54
6847,0.1464,-0.0256,0.9047,-6.89,9.97,-0.02,32.57
6857,0.1748,-0.0271,0.8735,-6.84,9.73,-0.02,32.54
6867,0.1896,-0.0264,0.8636,-6.79,7.4,0.0,32.55
6877,0.1945,-0.0286,0.8979,-6.79,5.34,-0.11,32.55
6887,0.1562,-0.0293,0.928,-6.81,8.05,-0.05,32.56
6897,0.1683,-0.0276,0.9196,-6.75,10.26,-0.08,32.56
6907,0.1949,-0.0269,0.8663,-6.79,7.86,-0.03,32.53
6917,0.1917,-0.0337,0.8802,-6.67,5.5,0.02,32.54
6927,0.1395,-0.0281,0.9171,-6.75,8.15,-0.14,32.55
6937,0.1672,-0.0293,0.9017,-6.89,10.14,0.02,32.55
6947,0.1948,-0.0265,0.8677,-6.79,7.89,-0.05,32.57
6957,0.1851,-0.028,0.8618,-6.67,6.43,-0.09,32.55
6967,0.1542,-0.0308,0.8861,-6.73,6.87,-0.09,32.53
6977,0.1444,-0.0303,0.9055,-6.79,8.38,-0.08,32.55
6987,0.1768,-0.0217,0.9216,-6.73,9.42,-0.09,32.56
6997,0.2133,-0.022,0.8937,-6.66,6.52,0.05,32.55
7007,0.1821,-0.0226,0.9291,-6.76,6.27,0.02,32.56
7017,0.1431,-0.0204,0.9458,-6.76,10.05,-0.05,32.54
7027,0.175,-0.0188,0.9064,-6.79,10.21,-0.02,32.55
7037,0.2004,-0.0231,0.854,-6.84,7.07,-0.14,32.58
7047,0.1697,-0.0228,0.8802,-6.78,6.43,-0.06,32.56
7057,0.1385,-0.0227,0.9161,-6.75,9.18,0.0,32.57
7067,0.174,-0.021,0.9005,-6.7,9.18,0.02,32.55
7077,0.2076,-0.0148,0.8931,-6.7,7.11,0.0,32.54
7087,0.193,-0.0209,0.8982,-6.72,6.7,0.0,32.56
7097,0.1613,-0.0304,0.922,-6.82,8.52,0.0,32.54
7107,0.1456,-0.0289,0.8967,-6.92,10.95,-0.06,32.56
7117,0.1837,-0.024,0.8514,-6.85,8.64,-0.08,32.56
7127,0.1902,-0.0238,0.8451,-6.81,5.85,-0.02,32.58
7137,0.1721,-0.0255,0.8904,-6.7,5.74,-0.06,32.57
7147,0.1497,-0.0265,0.9325,-6.87,8.52,-0.02,32.57
7157,0.1683,-0.0261,0.9314,-6.69,9.73,-0.08,32.55
7167,0.1906,-0.022,0.9172,-6.67,9.01,-0.11,32.54
7177,0.1851,-0.0299,0.8888,-6.64,6.38,-0.11,32.56
7187,0.1586,-0.0298,0.9042,-6.69,7.95,-0.08,32.55
7197,0.1517,-0.0333,0.8871,-6.84,10.12,-0.05,32.55
7207,0.1835,-0.032,0.8688,-6.84,8.32,-0.06,32.57
7217,0.1948,-0.0184,0.8759,-6.73,6.61,-0.06,32.55
7227,0.1967,-0.0214,0.895,-6.78,4.78,-0.02,32.56
7237,0.1379,-0.0253,0.9524,-6.85,9.88,-0.08,32.53
7247,0.1938,-0.0216,0.8934,-6.72,9.79,0.03,32.57
7257,0.1946,-0.0237,0.8857,-6.76,6.41,0.0,32.56
7267,0.1622,-0.0276,0.9003,-6.76,7.11,-0.11,32.56
7277,0.1573,-0.0256,0.9167,-6.9,9.69,-0.03,32.55
7287,0.1898,-0.0221,0.8755,-6.92,8.79,-0.02,32.56
7297,0.1923,-0.0247,0.8857,-6.78,6.67,0.05,32.55
7307,0.1562,-0.0225,0.9042,-6.72,6.78,0.06,32.56
7317,0.1594,-0.0259,0.9147,-6.73,8.9,-0.03,32.54
7327,0.1605,-0.0212,0.8978,-6.73,9.01,-0.06,32.57
7337,0.1895,-0.022,0.8855,-6.73,8.61,0.03,32.56
7347,0.193,-0.0232,0.8918,-6.84,8.32,-0.02,32.56
7357,0.1635,-0.0275,0.9033,-6.85,6.93,-0.06,32.56
7367,0.153,-0.0311,0.905,-6.81,9.51,-0.05,32.56
7377,0.1495,-0.0289,0.8922,-6.82,10.15,-0.03,32.57
7387,0.2025,-0.0267,0.8625,-6.66,5.66,-0.09,32.54
7397,0.1481,-0.0298,0.9203,-6.75,6.72,0.03,32.55
7407,0.1562,-0.0288,0.9357,-6.78,7.89,-0.03,32.54
7417,0.1649,-0.0223,0.9408,-6.82,9.4,0.02,32.57
7427,0.1964,-0.0231,0.9061,-6.82,9.22,0.0,32.56
7437,0.1979,-0.0277,0.8889,-6.72,6.81,-0.08,32.57
7448,0.1948,-0.0251,0.8859,-6.76,6.0,-0.02,32.56
7458,0.1611,-0.0273,0.9198,-6.79,8.23,-0.02,32.57
7468,0.1553,-0.03,0.9023,-6.9,10.67,0.02,32.58
7478,0.1877,-0.0321,0.8768,-6.87,9.01,-0.03,32.56
7488,0.189,-0.0316,0.8506,-6.7,6.26,-0.02,32.57
7498,0.1639,-0.0314,0.8921,-6.75,6.34,-0.09,32.57
7508,0.1453,-0.0255,0.9116,-6.72,8.61,0.02,32.58
7518,0.1716,-0.025,0.905,-6.67,9.42,0.11,32.57
7528,0.1962,-0.0237,0.8911,-6.69,7.27,-0.03,32.54
7538,0.1781,-0.0244,0.9043,-6.75,6.03,-0.03,32.57
7548,0.1508,-0.024,0.9329,-6.79,8.93,0.0,32.57
7558,0.1681,-0.0269,0.9088,-6.96,10.63,-0.02,32.56
7568,0.2062,-0.028,0.8734,-6.84,7.53,-0.06,32.56
7578,0.184,-0.033,0.8816,-6.84,6.31,-0.15,32.57
7588,0.1571,-0.0333,0.9062,-6.67,7.34,-0.11,32.55
7598,0.149,-0.0267,0.9019,-6.75,9.39,0.0,32.57
7608,0.1915,-0.0206,0.8827,-6.72,8.64,-0.05,32.55
7618,0.2051,-0.0238,0.885,-6.78,5.85,-0.02,32.56
7628,0.1564,-0.0258,0.9292,-6.78,7.11,-0.09,32.58
7638,0.1564,-0.0216,0.9353,-6.82,10.24,-0.06,32.54
7648,0.1796,-0.0221,0.8984,-6.89,9.54,-0.05,32.56
7658,0.2064,-0.0221,0.8729,-6.85,7.28,-0.08,32.58
7668,0.1769,-0.0287,0.8873,-6.7,6.82,-0.06,32.56
7678,0.1487,-0.0287,0.9272,-6.72,8.58,0.06,32.57
7688,0.1664,-0.0266,0.9028,-6.73,10.31,0.03,32.54
7698,0.2141,-0.0256,0.869,-6.78,6.43,0.0,32.55
7708,0.1755,-0.0278,0.8939,-6.79,6.05,-0.11,32.54
7718,0.1362,-0.0311,0.9233,-6.72,9.45,-0.08,32.56
7728,0.1656,-0.0259,0.8905,-6.78,9.97,-0.02,32.57
7738,0.1891,-0.0261,0.8627,-6.79,7.27,-0.06,32.55
7748,0.1935,-0.0276,0.8776,-6.73,5.73,-0.02,32.58
7758,0.1555,-0.0311,0.9059,-6.7,7.08,-0.06,32.57
7768,0.1561,-0.028,0.9232,-6.7,9.57,-0.05,32.56
7778,0.173,-0.0277,0.8975,-6.72,9.42,-0.05,32.57
7788,0.2111,-0.0281,0.8793,-6.73,6.23,0.0,32.56
7798,0.1719,-0.0248,0.9028,-6.81,6.44,0.09,32.57
7808,0.1558,-0.0245,0.9333,-6.84,9.45,-0.08,32.57
7818,0.1731,-0.0197,0.9161,-6.89,10.15,-0.02,32.58
7828,0.194,-0.0231,0.8876,-6.79,7.51,-0.03,32.57
7838,0.1809,-0.0205,0.8978,-6.67,6.53,-0.08,32.57
7848,0.1534,-0.0233,0.8999,-6.81,8.2,-0.14,32.54
7858,0.1624,-0.0261,0.9099,-6.76,9.92,-0.09,32.56
7868,0.1882,-0.0232,0.876,-6.73,8.12,0.06,32.57
7878,0.1979,-0.0228,0.8871,-6.75,5.31,-0.06,32.54
7888,0.1415,-0.0215,0.9209,-6.84,8.17,-0.09,32.57
7898,0.1698,-0.0266,0.9106,-6.84,10.35,-0.03,32.59
7908,0.1975,-0.024,0.8738,-6.84,8.46,-0.11,32.55
7918,0.1858,-0.0333,0.8688,-6.69,6.64,-0.06,32.55
7928,0.1561,-0.0342,0.8884,-6.75,7.07,-0.08,32.57
7938,0.1526,-0.0394,0.8898,-6.7,8.37,-0.03,32.55
7948,0.167,-0.0317,0.9001,-6.64,9.27,-0.03,32.54
7958,0.2037,-0.0248,0.8722,-6.64,6.81,-0.03,32.58
7968,0.187,-0.0271,0.9147,-6.82,5.39,-0.03,32.57
7978,0.1433,-0.0227,0.9525,-6.89,9.21,0.0,32.57
7988,0.186,-0.0171,0.9181,-6.89,9.83,0.03,32.54
7998,0.2041,-0.0166,0.8749,-6.78,7.01,-0.05,32.56
8008,0.175,-0.026,0.8906,-6.72,6.38,-0.12,32.58
8018,0.1414,-0.0258,0.9164,-6.76,9.18,0.02,32.59
8028,0.1646,-0.0297,0.8901,-6.64,9.22,0.06,32.6
8038,0.191,-0.0275,0.8754,-6.72,8.11,0.0,32.58
8048,0.1971,-0.0275,0.8658,-6.76,5.65,-0.02,32.6
8058,0.1603,-0.0289,0.9269,-6.84,7.42,-0.02,32.59
8068,0.1456,-0.0299,0.9261,-6.89,8.14,-0.09,32.57
8079,0.1421,-0.0316,0.9407,-6.87,9.62,0.0,32.57
8089,0.2019,-0.025,0.8715,-6.82,7.37,-0.02,32.59
8099,0.1803,-0.0315,0.8947,-6.69,6.96,-0.09,32.59
8109,0.1692,-0.0281,0.9087,-6.73,7.44,-0.06,32.57
8119,0.1573,-0.0264,0.92,-6.72,8.41,0.02,32.58
8129,0.1654,-0.0228,0.9344,-6.75,9.22,0.02,32.58
8139,0.1761,-0.0229,0.9072,-6.75,9.73,-0.03,32.6
8149,0.2113,-0.0221,0.8828,-6.75,6.81,-0.05,32.56
8159,0.167,-0.0272,0.8934,-6.82,6.76,-0.03,32.56
8169,0.1448,-0.0264,0.9081,-6.85,10.15,-0.12,32.56
8179,0.1888,-0.0242,0.851,-6.78,9.28,-0.09,32.59
8189,0.1857,-0.0295,0.8623,-6.76,6.12,-0.12,32.56
8199,0.1703,-0.0272,0.8921,-6.79,6.15,-0.05,32.57
8209,0.1477,-0.026,0.9242,-6.7,8.58,-0.08,32.57
8219,0.1821,-0.0223,0.9148,-6.7,9.59,-0.05,32.57
8229,0.2015,-0.0243,0.8972,-6.73,7.42,0.0,32.57
8239,0.1827,-0.0288,0.9133,-6.79,6.49,-0.06,32.57
8249,0.1407,-0.0297,0.9233,-6.78,9.31,-0.08,32.57
8259,0.1597,-0.027,0.8995,-6.92,10.21,0.0,32.55
8269,0.1919,-0.0266,0.845,-6.76,8.05,-0.02,32.57
8279,0.1829,-0.0332,0.8469,-6.7,7.22,-0.02,32.58
8289,0.146,-0.0349,0.9095,-6.63,7.21,-0.03,32.59
8299,0.1503,-0.0286,0.9333,-6.73,9.37,-0.08,32.57
8309,0.1987,-0.0197,0.9121,-6.72,8.87,0.05,32.6
8319,0.204,-0.0259,0.905,-6.7,6.47,0.02,32.59
8329,0.1716,-0.0255,0.928,-6.76,7.65,-0.02,32.58
8339,0.1423,-0.026,0.9172,-6.75,11.6,-0.08,32.59
8349,0.1947,-0.0289,0.8552,-6.78,8.67,-0.09,32.57
8359,0.1908,-0.024,0.8462,-6.81,6.2,0.0,32.56
8369,0.1783,-0.0267,0.8733,-6.72,6.15,0.05,32.57
8379,0.1488,-0.0269,0.9127,-6.75,7.73,0.09,32.57
8389,0.1534,-0.0225,0.9292,-6.84,10.11,0.0,32.58
8399,0.202,-0.0159,0.8948,-6.78,7.91,-0.03,32.58
8409,0.1903,-0.0238,0.8954,-6.82,5.28,-0.08,32.57
8419,0.1577,-0.0262,0.9305,-6.81,8.21,-0.12,32.59
8429,0.1467,-0.0287,0.9152,-6.89,10.66,-0.03,32.58
8439,0.1943,-0.0286,0.8828,-6.89,8.73,-0.05,32.58
8449,0.1901,-0.0271,0.871,-6.76,5.68,0.0,32.56
8459,0.1644,-0.0293,0.9109,-6.7,7.33,-0.06,32.59
8469,0.1494,-0.0299,0.9213,-6.72,10.05,-0.06,32.56
8479,0.1869,-0.0269,0.8875,-6.69,9.3,0.0,32.58
8489,0.1991,-0.027,0.8704,-6.67,6.47,-0.09,32.59
8499,0.1633,-0.03,0.8998,-6.63,6.0,-0.15,32.58
8509,0.1527,-0.0272,0.9271,-6.75,9.54,-0.06,32.58
8519,0.173,-0.0251,0.8883,-6.87,10.06,-0.02,32.6
8529,0.1986,-0.0275,0.8711,-6.78,7.48,-0.05,32.56
8539,0.1733,-0.0293,0.8843,-6.75,5.6,-0.09,32.59
8549,0.1584,-0.0277,0.9231,-6.66,8.32,-0.05,32.6
8559,0.1572,-0.0234,0.9127,-6.6,9.66,-0.08,32.59
8569,0.1941,-0.0233,0.8885,-6.72,8.41,-0.06,32.57
8579,0.1938,-0.0259,0.8853,-6.6,6.72,-0.03,32.6
8589,0.1591,-0.0258,0.9083,-6.75,6.78,0.03,32.6
8599,0.1494,-0.0254,0.9159,-6.81,10.06,0.05,32.58
8609,0.1942,-0.0228,0.856,-6.87,8.08,0.05,32.59
8619,0.1877,-0.0258,0.8782,-6.7,5.66,0.0,32.57
8629,0.1427,-0.021,0.9166,-6.81,7.57,-0.12,32.59
8639,0.1542,-0.0199,0.9353,-6.82,9.57,-0.02,32.58
8649,0.187,-0.017,0.9099,-6.98,8.64,0.03,32.59
8659,0.2064,-0.031,0.8928,-6.69,7.91,-0.08,32.58
8669,0.1898,-0.0271,0.8907,-6.81,6.09,-0.05,32.57
8679,0.1362,-0.0245,0.925,-6.84,10.32,-0.08,32.59
8689,0.1721,-0.0234,0.8777,-6.87,10.26,-0.12,32.58
8699,0.1975,-0.0255,0.8409,-6.84,6.26,-0.08,32.57
8709,0.1783,-0.0259,0.8829,-6.67,5.54,-0.05,32.59
8719,0.1439,-0.0277,0.9196,-6.7,8.84,-0.02,32.57
8729,0.1791,-0.0276,0.9221,-6.64,9.11,0.0,32.6
8739,0.1788,-0.0232,0.9113,-6.7,8.38,-0.09,32.59
8749,0.2017,-0.0226,0.8969,-6.66,7.11,-0.05,32.57
8759,0.1674,-0.0283,0.8966,-6.75,7.44,-0.05,32.59
8769,0.1412,-0.0311,0.8945,-6.75,10.24,0.09,32.58
8779,0.1495,-0.0284,0.8882,-6.79,10.15,0.02,32.59
8789,0.1921,-0.0261,0.8455,-6.67,5.19,-0.08,32.57
8799,0.1884,-0.0266,0.8627,-6.73,5.36,0.05,32.59
8809,0.1547,-0.021,0.9276,-6.64,8.78,-0.03,32.59
8819,0.177,-0.0197,0.9321,-6.79,9.08,0.02,32.59
8829,0.187,-0.0208,0.9199,-6.76,8.17,-0.14,32.58
8839,0.2051,-0.0227,0.9142,-6.82,6.29,-0.12,32.56
8849,0.1511,-0.0248,0.928,-6.81,8.89,-0.14,32.59
8859,0.1409,-0.0287,0.9315,-6.84,10.18,-0.08,32.58
8869,0.1636,-0.0312,0.885,-6.78,10.34,-0.06,32.58
8879,0.182,-0.0297,0.8597,-6.75,5.97,-0.03,32.59
8889,0.188,-0.028,0.8781,-6.6,5.8,0.0,32.58
8899,0.1543,-0.0261,0.9202,-6.78,8.85,-0.05,32.57
8909,0.1974,-0.0194,0.9088,-6.76,9.08,-0.09,32.58
8919,0.1981,-0.0256,0.8953,-6.82,6.96,-0.17,32.58
8929,0.2095,-0.0229,0.9012,-6.73,5.86,0.0,32.57
8939,0.1622,-0.0226,0.924,-6.9,8.0,-0.02,32.56
8949,0.1597,-0.0243,0.9125,-6.79,10.69,-0.08,32.58
8959,0.1816,-0.0229,0.8649,-6.89,9.44,-0.03,32.57
8969,0.1924,-0.0292,0.843,-6.78,5.89,-0.09,32.59
8979,0.1647,-0.0298,0.8899,-6.79,6.11,-0.03,32.58
8989,0.149,-0.0264,0.9139,-6.72,8.72,-0.05,32.59
8999,0.175,-0.0243,0.9071,-6.79,9.54,-0.05,32.59
9009,0.2009,-0.0228,0.8777,-6.84,7.02,-0.06,32.59
9019,0.1821,-0.0315,0.9065,-6.73,5.73,-0.09,32.6
9029,0.1429,-0.0255,0.9226,-6.95,8.78,-0.05,32.6
9039,0.1672,-0.0308,0.9053,-6.81,10.24,-0.08,32.59
9049,0.1978,-0.0256,0.8691,-6.76,7.65,0.05,32.59
9059,0.1803,-0.0327,0.8939,-6.73,6.06,0.02,32.59
9069,0.1525,-0.0303,0.9294,-6.73,8.05,-0.11,32.58
9079,0.1659,-0.0344,0.9188,-6.56,9.6,0.03,32.57
9089,0.203,-0.0255,0.8871,-6.58,8.58,0.05,32.59
9099,0.2034,-0.0331,0.8676,-6.63,6.29,0.06,32.59
9109,0.1555,-0.0347,0.9037,-6.64,7.04,-0.06,32.58
9119,0.1447,-0.0275,0.9038,-6.85,10.21,-0.11,32.6
9129,0.1873,-0.0211,0.8833,-6.79,8.98,0.03,32.58
9139,0.2014,-0.015,0.8678,-6.75,6.12,-0.11,32.58
9149,0.1638,-0.0212,0.9049,-6.72,6.7,-0.03,32.58
9159,0.1416,-0.0137,0.9335,-6.78,9.54,-0.14,32.57
9169,0.1747,-0.016,0.9025,-6.75,9.13,-0.06,32.59
9179,0.2001,-0.0149,0.8889,-6.85,6.79,-0.09,32.59
9189,0.1787,-0.0206,0.8934,-6.84,6.58,-0.05,32.58
9199,0.1517,-0.0264,0.9266,-6.87,8.35,-0.11,32.58
9209,0.1533,-0.0227,0.902,-7.02,10.55,-0.03,32.57
9219,0.198,-0.025,0.8602,-7.01,7.62,-0.14,32.6
9229,0.1852,-0.0282,0.8632,-6.85,4.95,-0.11,32.61
9239,0.1489,-0.0325,0.9144,-6.87,7.92,-0.02,32.59
9249,0.1562,-0.0314,0.9141,-6.9,9.95,-0.06,32.59
9259,0.1868,-0.0312,0.8998,-6.67,8.89,0.0,32.59
9269,0.2112,-0.0288,0.8867,-6.75,6.4,-0.11,32.58
9279,0.1976,-0.0309,0.8904,-6.7,6.18,-0.03,32.58
9289,0.1591,-0.0336,0.9375,-6.82,9.69,0.0,32.61
9299,0.1683,-0.0305,0.8936,-6.84,10.82,0.0,32.59
9309,0.2039,-0.0312,0.85,-6.72,7.02,-0.03,32.58
9319,0.1649,-0.0309,0.8643,-6.64,5.33,-0.02,32.59
9329,0.1412,-0.0237,0.9081,-6.61,8.55,0.05,32.59
9339,0.1714,-0.0186,0.8965,-6.69,9.27,0.05,32.59
9349,0.1919,-0.0166,0.8971,-6.76,7.18,0.02,32.59
9359,0.1771,-0.0177,0.915,-6.7,6.63,-0.08,32.61
9369,0.1503,-0.0198,0.9326,-6.79,8.76,-0.03,32.58
9379,0.1747,-0.0182,0.9136,-6.82,10.31,-0.03,32.58
9389,0.1954,-0.0215,0.8584,-6.84,7.94,-0.12,32.59
9399,0.189,-0.0223,0.865,-6.76,5.8,-0.08,32.6
9409,0.1279,-0.0334,0.9059,-6.72,7.73,0.0,32.59
9419,0.1738,-0.0284,0.8972,-6.81,9.36,0.02,32.58
9429,0.1932,-0.0209,0.8787,-6.78,7.62,-0.05,32.59
9439,0.1992,-0.0286,0.9091,-6.7,6.17,-0.06,32.59
9449,0.1959,-0.0186,0.916,-6.82,5.97,-0.14,32.6
9459,0.1506,-0.0294,0.9473,-6.87,10.14,-0.12,32.61
9469,0.1852,-0.0259,0.9053,-7.02,10.12,-0.11,32.58
9479,0.2028,-0.0295,0.8563,-6.75,7.39,-0.11,32.59
9489,0.1771,-0.032,0.8802,-6.78,6.64,-0.05,32.61
9499,0.1409,-0.0315,0.892,-6.61,8.99,0.03,32.61
9509,0.1689,-0.0321,0.8915,-6.72,8.9,0.02,32.57
9519,0.1765,-0.0256,0.8802,-6.53,9.28,0.0,32.59
9529,0.1891,-0.0201,0.8933,-6.79,5.77,-0.03,32.59
9539,0.149,-0.0197,0.925,-6.72,8.27,-0.02,32.59
9549,0.1473,-0.0234,0.9298,-6.95,10.55,-0.12,32.61
9559,0.1942,-0.0206,0.8799,-6.78,8.49,-0.02,32.59
9569,0.1924,-0.0217,0.8734,-6.85,5.28,-0.06,32.61
9579,0.1571,-0.0292,0.8961,-6.63,7.57,0.0,32.58
9589,0.1439,-0.0266,0.9023,-6.63,9.66,-0.08,32.61
9599,0.1919,-0.0259,0.8776,-6.69,8.52,-0.03,32.58
9609,0.1874,-0.0244,0.8799,-6.76,5.36,-0.02,32.62
9619,0.171,-0.0271,0.9224,-6.87,6.58,-0.05,32.61
9629,0.1521,-0.0265,0.9373,-6.93,9.18,-0.05,32.6
9639,0.1488,-0.0267,0.9468,-6.99,9.57,-0.03,32.61
9649,0.1874,-0.0159,0.9014,-6.87,10.2,0.03,32.59
9659,0.2004,-0.0242,0.8768,-6.84,6.23,-0.03,32.56
9669,0.1779,-0.0243,0.9095,-6.81,7.33,-0.03,32.59
9679,0.1451,-0.0293,0.9166,-6.76,9.5,-0.06,32.61
9689,0.1786,-0.0293,0.9019,-6.69,9.82,-0.02,32.6
9699,0.2063,-0.031,0.8679,-6.66,6.31,-0.03,32.57
9709,0.1748,-0.0322,0.9136,-6.79,6.43,-0.03,32.58
9719,0.1515,-0.0287,0.9207,-6.78,9.79,-0.02,32.6
9729,0.165,-0.0286,0.8984,-6.87,10.81,0.02,32.61
9739,0.1918,-0.0265,0.8601,-6.81,7.89,-0.08,32.61
9749,0.1787,-0.0293,0.8584,-6.7,5.16,-0.02,32.61
9759,0.1556,-0.0306,0.9025,-6.78,7.47,-0.08,32.61
9769,0.145,-0.0225,0.9098,-6.76,9.66,0.0,32.59
9779,0.2041,-0.0222,0.8901,-6.61,8.2,-0.05,32.57
9789,0.1876,-0.0216,0.8936,-6.81,5.89,-0.06,32.6
9800,0.1979,-0.0159,0.9036,-6.78,6.23,0.0,32.58
9810,0.1577,-0.0227,0.9222,-6.89,8.0,0.0,32.6
9820,0.1603,-0.0256,0.9158,-6.89,10.44,-0.06,32.6
9830,0.1948,-0.0251,0.8687,-6.9,7.69,-0.12,32.59
9840,0.1887,-0.0327,0.8754,-6.7,5.8,0.0,32.59
9850,0.1604,-0.0338,0.9091,-6.82,7.33,-0.05,32.57
9860,0.1492,-0.0348,0.9187,-6.63,10.27,-0.14,32.59
9870,0.1954,-0.0259,0.8901,-6.66,8.32,-0.02,32.61
9880,0.1917,-0.0291,0.8792,-6.7,6.2,-0.08,32.6
9890,0.1724,-0.0281,0.9177,-6.79,6.67,-0.02,32.59
9900,0.1497,-0.0269,0.9252,-6.93,9.54,0.05,32.59
9910,0.1851,-0.0211,0.9014,-6.89,10.49,0.02,32.62
9920,0.2054,-0.0208,0.8673,-6.66,6.64,-0.06,32.6
9930,0.17,-0.0272,0.8939,-6.69,6.18,-0.15,32.59
9940,0.1558,-0.025,0.9122,-6.66,8.82,-0.06,32.61
9950,0.1749,-0.0265,0.8854,-6.63,9.3,-0.06,32.6
9960,0.1996,-0.0221,0.8806,-6.64,7.4,-0.09,32.6
9970,0.1725,-0.0269,0.8905,-6.64,6.7,-0.06,32.59
9980,0.1564,-0.026,0.9127,-6.79,8.27,-0.02,32.6
9990,0.1639,-0.0212,0.8873,-6.9,9.45,-0.03,32.6
10000,0.198,-0.0232,0.8674,-6.87,7.65,-0.09,32.6
10010,0.1831,-0.0251,0.8784,-6.75,6.02,0.02,32.59
10020,0.1492,-0.0282,0.923,-6.73,7.37,-0.02,32.61
10030,0.1512,-0.028,0.9242,-6.69,9.5,-0.08,32.57
10040,0.1947,-0.0255,0.8932,-6.76,8.69,-0.05,32.6
10050,0.2069,-0.0242,0.8981,-6.73,5.94,-0.2,32.63
10060,0.1611,-0.0315,0.921,-6.82,7.82,-0.11,32.58
10070,0.1555,-0.0333,0.9252,-6.95,10.15,-0.06,32.59
10080,0.1927,-0.0293,0.8698,-6.73,9.13,-0.11,32.62
10090,0.2026,-0.0287,0.8671,-6.87,5.31,0.0,32.61
10100,0.1569,-0.0284,0.9044,-6.76,8.0,-0.05,32.6
10110,0.165,-0.0251,0.9017,-6.7,8.82,-0.02,32.61
10120,0.1698,-0.02,0.9089,-6.75,8.75,0.03,32.61
10130,0.1973,-0.0233,0.8866,-6.63,7.31,-0.02,32.61
10140,0.1888,-0.02,0.9017,-6.73,6.24,-0.08,32.62
10150,0.1416,-0.0294,0.9257,-6.78,9.19,-0.03,32.59
10160,0.1649,-0.0244,0.9109,-6.95,10.9,-0.08,32.59
10170,0.1941,-0.0247,0.8561,-6.81,7.98,-0.06,32.59
10180,0.1859,-0.0277,0.8735,-6.85,5.27,0.06,32.59
10190,0.1592,-0.0299,0.8945,-6.67,7.5,-0.09,32.59
10200,0.1537,-0.0221,0.9193,-6.81,9.15,0.08,32.59
10210,0.1874,-0.02,0.9022,-6.72,8.9,0.05,32.61
10220,0.2,-0.021,0.8889,-6.78,6.08,-0.08,32.58
10230,0.1725,-0.0229,0.9252,-6.82,6.55,-0.08,32.59
10240,0.1484,-0.0228,0.9296,-6.93,9.79,0.0,32.58
10251,0.1536,-0.0277,0.932,-6.87,10.64,0.02,32.58
10261,0.1798,-0.0232,0.8806,-6.87,9.07,-0.08,32.56
10271,0.2123,-0.0289,0.8666,-6.73,6.12,-0.03,32.57
10281,0.1929,-0.0267,0.8712,-6.69,5.45,-0.02,32.57
10291,0.1508,-0.0243,0.926,-6.72,10.58,0.03,32.59
10301,0.1858,-0.0231,0.8979,-6.89,9.1,0.03,32.6
10311,0.1993,-0.0222,0.8867,-6.79,8.52,-0.02,32.6
10321,0.1733,-0.0237,0.9088,-6.78,6.78,-0.02,32.59
10331,0.155,-0.0272,0.8987,-6.85,8.99,-0.03,32.6
10341,0.1636,-0.0248,0.9003,-6.76,9.86,-0.02,32.6
10351,0.1866,-0.0264,0.8633,-6.89,7.97,-0.05,32.58
10361,0.1967,-0.0292,0.8722,-6.67,4.81,-0.08,32.62
10371,0.1713,-0.0247,0.8831,-6.7,5.63,0.03,32.58
10381,0.1649,-0.0262,0.9219,-6.72,10.15,0.0,32.59
10391,0.1733,-0.0209,0.9098,-6.76,9.53,-0.06,32.61
10401,0.1884,-0.0283,0.901,-6.82,6.05,-0.08,32.59
10412,0.2129,-0.0233,0.902,-6.79,6.5,-0.05,32.61
10422,0.1494,-0.027,0.9163,-6.81,9.24,-0.09,32.6
10432,0.1664,-0.0293,0.8944,-6.82,10.14,-0.06,32.6
10442,0.1696,-0.0309,0.8727,-6.73,9.74,-0.09,32.59
10452,0.2035,-0.0299,0.8447,-6.84,6.32,-0.02,32.58
10462,0.1862,-0.0291,0.8748,-6.69,5.47,0.02,32.59
10472,0.1355,-0.0244,0.9374,-6.72,8.27,-0.02,32.58
10482,0.1719,-0.0177,0.9237,-6.72,10.06,0.02,32.6
10492,0.2019,-0.0215,0.8961,-6.7,7.07,-0.11,32.6
10502,0.1938,-0.0179,0.9098,-6.76,6.35,-0.05,32.59
10512,0.1515,-0.0289,0.9248,-6.79,8.69,-0.08,32.59
10522,0.1558,-0.0308,0.9181,-6.84,11.01,-0.05,32.61
10532,0.1843,-0.0256,0.8595,-6.7,8.95,-0.02,32.61
10542,0.1951,-0.0242,0.8521,-6.81,5.45,0.02,32.6
10552,0.16,-0.0265,0.8921,-6.76,6.64,0.03,32.6
10562,0.1497,-0.0215,0.9302,-6.67,9.48,-0.09,32.6
10572,0.1948,-0.0178,0.9066,-6.73,8.87,-0.11,32.62
10582,0.202,-0.0232,0.8988,-6.67,5.91,-0.09,32.62
10592,0.1688,-0.024,0.9197,-6.72,7.39,-0.11,32.61
10602,0.1492,-0.0326,0.9067,-6.78,10.05,0.0,32.59
10612,0.1788,-0.0249,0.8718,-6.72,10.03,-0.06,32.61
10622,0.1962,-0.0349,0.8239,-6.56,6.32,0.0,32.62
10632,0.1591,-0.0365,0.8693,-6.76,4.43,-0.05,32.62
10642,0.1365,-0.0293,0.9104,-6.85,10.38,0.0,32.59
10652,0.2062,-0.0209,0.8936,-6.73,6.87,0.03,32.58
10662,0.1857,-0.0183,0.9285,-6.73,7.01,-0.11,32.61
10672,0.1788,-0.0237,0.9325,-6.76,7.5,-0.14,32.62
10682,0.1622,-0.0233,0.9364,-6.79,9.07,-0.14,32.61
10692,0.1669,-0.0264,0.9053,-6.87,9.54,-0.09,32.59
10702,0.1748,-0.0226,0.882,-6.81,9.33,-0.06,32.59
10712,0.1879,-0.0292,0.8459,-6.73,7.44,-0.05,32.62
10722,0.174,-0.0298,0.8942,-6.7,5.4,-0.08,32.62
10732,0.139,-0.0217,0.9264,-6.76,9.83,-0.03,32.61
10742,0.199,-0.0214,0.8969,-6.72,8.79,-0.05,32.63
10752,0.2036,-0.0198,0.8864,-6.81,6.02,-0.05,32.6
10762,0.1606,-0.0248,0.9205,-6.72,7.71,-0.12,32.59
10772,0.1538,-0.0239,0.9148,-6.72,10.41,-0.09,32.59
10782,0.1791,-0.0291,0.8763,-6.82,9.3,0.0,32.59
10792,0.2012,-0.0249,0.8596,-6.89,6.58,-0.03,32.6
10802,0.1746,-0.0348,0.8735,-6.69,6.35,-0.11,32.6
10812,0.1505,-0.0298,0.9111,-6.73,8.2,-0.11,32.6
10822,0.1543,-0.0251,0.9032,-6.72,9.6,-0.09,32.62
10832,0.2019,-0.0178,0.8815,-6.78,7.34,0.05,32.61
10842,0.1917,-0.0192,0.8978,-6.79,5.48,-0.03,32.61
10852,0.1566,-0.0229,0.941,-6.92,8.35,0.03,32.63
10862,0.1666,-0.0249,0.9155,-6.75,10.67,0.0,32.61
10872,0.1952,-0.027,0.8688,-6.93,7.98,-0.05,32.6
10882,0.1854,-0.0261,0.8695,-6.78,6.18,-0.11,32.59
10892,0.156,-0.0315,0.8878,-6.82,6.98,-0.03,32.62
10902,0.1539,-0.0317,0.9188,-6.61,9.5,-0.11,32.6
10912,0.176,-0.0262,0.8888,-6.75,8.84,0.0,32.61
10922,0.2087,-0.0267,0.8977,-6.69,6.06,-0.06,32.62
10932,0.1694,-0.0265,0.9271,-6.84,6.47,-0.11,32.61
10942,0.1509,-0.0248,0.9447,-6.87,10.4,-0.06,32.6
10952,0.151,-0.0234,0.937,-6.85,11.11,0.02,32.62
10962,0.1993,-0.0219,0.8674,-6.81,7.37,-0.08,32.6
10972,0.1758,-0.0262,0.8813,-6.81,6.06,-0.02,32.64
10982,0.1467,-0.0275,0.9054,-6.67,8.61,0.03,32.62
10992,0.1744,-0.0201,0.9017,-6.76,9.79,-0.06,32.6
11002,0.2048,-0.0206,0.8693,-6.63,7.04,0.0,32.62
11012,0.1809,-0.0276,0.9092,-6.73,6.18,0.02,32.62
11022,0.1455,-0.0248,0.9215,-6.82,8.89,-0.03,32.61
11032,0.1689,-0.0214,0.905,-6.81,9.68,-0.06,32.6
11042,0.1948,-0.0195,0.8634,-6.95,7.53,-0.08,32.61
11052,0.1895,-0.0299,0.8796,-6.78,6.03,-0.06,32.6
11062,0.1552,-0.03,0.9163,-6.69,7.21,-0.06,32.61
11072,0.1536,-0.0358,0.9236,-6.66,9.57,0.02,32.61
11082,0.1925,-0.0273,0.896,-6.61,8.92,0.06,32.62
11092,0.2032,-0.0298,0.871,-6.6,6.09,-0.05,32.62
11102,0.163,-0.0337,0.9058,-6.75,7.13,-0.08,32.61
11112,0.1433,-0.0337,0.912,-6.87,10.18,-0.08,32.6
11122,0.1882,-0.0287,0.8895,-6.92,9.04,0.02,32.6
11132,0.1976,-0.0225,0.8712,-6.75,6.47,-0.11,32.6
11142,0.175,-0.0225,0.9055,-6.76,6.72,-0.11,32.64
11152,0.1573,-0.0195,0.9227,-6.78,8.5,-0.03,32.6
11162,0.1548,-0.0242,0.9302,-6.75,9.62,-0.09,32.6
11172,0.1641,-0.0159,0.9253,-6.73,10.06,-0.03,32.62
11182,0.1991,-0.0231,0.8799,-6.76,5.08,-0.11,32.6
11192,0.1707,-0.0254,0.9186,-6.76,6.64,-0.09,32.6
11202,0.136,-0.0291,0.9209,-6.84,10.73,-0.05,32.61
11212,0.1815,-0.0239,0.8755,-6.82,9.6,-0.03,32.61
11222,0.2045,-0.0276,0.8427,-6.79,6.23,-0.05,32.62
11232,0.1743,-0.0321,0.8777,-6.78,6.26,-0.08,32.58
11242,0.1389,-0.0332,0.9069,-6.64,8.75,-0.02,32.61
11252,0.1587,-0.0282,0.8978,-6.81,9.31,-0.03,32.61
11262,0.1991,-0.0233,0.8879,-6.66,7.48,0.05,32.59
11272,0.1895,-0.0254,0.897,-6.75,5.71,-0.06,32.62
11282,0.1703,-0.0228,0.9388,-6.89,7.76,-0.11,32.58
11292,0.1494,-0.027,0.9379,-6.81,10.96,-0.08,32.59
11302,0.1946,-0.0247,0.8918,-6.82,8.98,-0.11,32.62
11312,0.1869,-0.0225,0.8657,-6.78,6.21,-0.09,32.64
11322,0.1698,-0.0256,0.8942,-6.85,6.96,-0.11,32.61
11332,0.1466,-0.0294,0.9187,-6.79,9.21,0.02,32.59
11342,0.1722,-0.0254,0.9075,-6.75,9.66,-0.08,32.61
11352,0.2036,-0.0248,0.8754,-6.61,7.01,-0.05,32.61
11362,0.1718,-0.0276,0.8939,-6.72,6.14,-0.18,32.62
11372,0.1522,-0.0243,0.9215,-6.84,9.39,-0.02,32.6
11382,0.1667,-0.0251,0.8877,-6.89,9.86,-0.05,32.62
11392,0.1997,-0.0229,0.8695,-6.81,7.69,0.0,32.6
11402,0.1771,-0.0264,0.8822,-6.78,5.71,-0.08,32.61
11412,0.1571,-0.0267,0.9181,-6.61,7.76,-0.08,32.6
11422,0.1575,-0.0199,0.9186,-6.66,9.42,-0.03,32.6
11432,0.1958,-0.0178,0.8949,-6.66,8.96,-0.06,32.61
11442,0.1995,-0.0247,0.8811,-6.76,6.66,-0.15,32.59
11452,0.1558,-0.0319,0.9143,-6.87,6.82,-0.12,32.64
11462,0.1498,-0.0248,0.9154,-6.79,10.56,-0.15,32.62
11472,0.2002,-0.0267,0.8531,-6.92,7.74,-0.05,32.62
11482,0.1881,-0.0319,0.8807,-6.79,5.71,0.02,32.6
11492,0.1382,-0.0289,0.9227,-6.81,8.0,-0.05,32.59
11502,0.1649,-0.0225,0.9232,-6.82,9.57,0.0,32.6
11512,0.1926,-0.0198,0.8928,-6.82,8.29,-0.05,32.6
11522,0.2013,-0.0265,0.8903,-6.78,6.18,0.03,32.61
11532,0.162,-0.0305,0.9049,-6.84,7.73,-0.11,32.6
11542,0.1422,-0.0291,0.908,-6.89,9.63,-0.05,32.63
11552,0.1681,-0.0267,0.887,-6.87,9.79,0.06,32.62
11562,0.2041,-0.0264,0.8488,-6.82,6.31,-0.05,32.63
11572,0.1777,-0.0265,0.8932,-6.69,5.82,-0.12,32.6
11582,0.1326,-0.0287,0.9185,-6.73,8.87,0.0,32.62
11592,0.1718,-0.0243,0.9077,-6.73,9.42,-0.03,32.61
11602,0.1876,-0.0212,0.8881,-6.72,6.84,-0.05,32.61
11612,0.1887,-0.0258,0.9067,-6.76,6.49,-0.17,32.61
11622,0.16,-0.0319,0.9204,-6.82,8.26,-0.12,32.59
11632,0.1583,-0.0303,0.9147,-6.85,10.84,-0.05,32.59
11642,0.197,-0.0284,0.8617,-6.73,8.38,-0.05,32.59
11652,0.1893,-0.0305,0.8586,-6.75,5.22,-0.05,32.61
11662,0.1565,-0.0295,0.9089,-6.66,7.59,-0.03,32.61
11672,0.1565,-0.0254,0.9055,-6.78,9.69,-0.05,32.62
11682,0.1935,-0.0237,0.8926,-6.79,8.27,0.02,32.6
11692,0.1868,-0.0212,0.8976,-6.78,6.6,-0.11,32.6
11702,0.1741,-0.0212,0.9287,-6.82,7.22,-0.06,32.62
11712,0.1509,-0.0211,0.9376,-6.98,9.39,-0.05,32.63
11722,0.1772,-0.0215,0.9115,-6.9,10.99,0.0,32.62
11732,0.2073,-0.0248,0.8627,-6.76,6.81,-0.05,32.61
11742,0.1654,-0.032,0.8815,-6.7,6.66,-0.09,32.6
11752,0.1481,-0.0269,0.8964,-6.76,8.29,-0.08,32.59
11762,0.1669,-0.0272,0.8772,-6.64,8.9,-0.02,32.59
11772,0.204,-0.0275,0.876,-6.75,6.78,-0.09,32.61
11782,0.1791,-0.0286,0.8936,-6.73,5.82,-0.03,32.62
11792,0.1455,-0.0314,0.9366,-6.75,9.16,-0.06,32.63
11802,0.1669,-0.0269,0.899,-6.85,9.8,-0.08,32.63
11812,0.2056,-0.0291,0.8713,-6.72,7.45,-0.08,32.64
11822,0.1844,-0.0282,0.8818,-6.78,5.63,-0.09,32.62
11832,0.1495,-0.0304,0.916,-6.7,8.0,-0.03,32.62
11842,0.1542,-0.0256,0.9185,-6.7,9.88,0.0,32.61
11852,0.2003,-0.0237,0.877,-6.66,7.6,-0.02,32.62
11862,0.2015,-0.0212,0.9028,-6.67,5.83,0.02,32.59
11872,0.1653,-0.0219,0.9186,-6.85,7.39,0.02,32.61
11882,0.1534,-0.0253,0.9299,-6.89,10.47,-0.03,32.6
11892,0.184,-0.0219,0.8737,-6.89,9.05,-0.09,32.61
11902,0.1996,-0.0195,0.8699,-6.85,8.05,-0.06,32.62
11912,0.162,-0.0225,0.8978,-6.82,6.81,-0.09,32.59
11922,0.1453,-0.0249,0.9156,-6.81,7.91,-0.05,32.61
11932,0.1575,-0.0208,0.9246,-6.75,10.12,-0.03,32.63
11942,0.2041,-0.024,0.8824,-6.79,6.41,-0.06,32.61
11952,0.2048,-0.0198,0.899,-6.92,6.12,-0.06,32.62
11962,0.161,-0.0269,0.91,-6.92,7.74,0.02,32.61
11972,0.1472,-0.032,0.9186,-6.85,10.26,0.0,32.62
11982,0.1719,-0.0286,0.8717,-6.9,9.92,-0.02,32.64
11992,0.21,-0.0344,0.8374,-6.75,5.56,-0.03,32.6
12002,0.1587,-0.0348,0.8744,-6.78,5.88,-0.06,32.62
12012,0.1361,-0.0323,0.9149,-6.76,9.65,-0.06,32.6
12022,0.1825,-0.0254,0.8956,-6.72,8.7,-0.08,32.61
12032,0.2013,-0.0276,0.8953,-6.69,6.21,-0.12,32.61
12042,0.182,-0.0239,0.9243,-6.73,6.58,-0.08,32.62
12052,0.1553,-0.0308,0.9319,-6.72,9.59,-0.08,32.6
12063,0.1624,-0.0303,0.9358,-6.78,9.62,0.06,32.61
12073,0.1648,-0.0269,0.8931,-6.81,10.0,-0.02,32.59
12083,0.2045,-0.0314,0.8468,-6.66,7.16,-0.08,32.62
12093,0.1757,-0.0297,0.8677,-6.55,5.56,0.0,32.63
12103,0.1312,-0.0277,0.9249,-6.66,8.76,-0.03,32.63
12113,0.1702,-0.0209,0.9121,-6.69,9.71,-0.06,32.63
12123,0.1997,-0.0167,0.8953,-6.72,6.61,-0.05,32.6
12133,0.187,-0.0165,0.9185,-6.7,6.32,-0.02,32.59
12143,0.1487,-0.0186,0.9353,-6.82,8.81,-0.06,32.64
12153,0.1605,-0.022,0.9209,-6.85,11.01,0.05,32.62
12163,0.1852,-0.0238,0.8723,-6.87,9.05,-0.03,32.62
12173,0.2087,-0.0292,0.8564,-6.64,5.1,-0.08,32.62
12183,0.1445,-0.0319,0.9139,-6.76,7.3,-0.06,32.62
12193,0.162,-0.0311,0.91,-6.7,10.69,-0.12,32.6
12203,0.1995,-0.028,0.8706,-6.6,8.06,0.02,32.62
12213,0.181,-0.0298,0.88,-6.7,5.74,-0.05,32.6
12223,0.1515,-0.0294,0.9167,-6.79,8.64,0.02,32.64
12233,0.1637,-0.0256,0.8962,-6.82,9.48,-0.05,32.62
12243,0.1909,-0.0265,0.8815,-6.75,8.55,-0.03,32.61
12253,0.1923,-0.0282,0.8711,-6.7,6.79,-0.09,32.61
12263,0.1815,-0.0282,0.9006,-6.79,5.51,-0.06,32.62
12273,0.135,-0.0253,0.9344,-6.72,9.5,-0.11,32.62
12289,0.1622,-0.0254,0.9019,-6.9,10.55,-0.06,32.62
12299,0.205,-0.0212,0.8807,-6.9,7.69,-0.05,32.62
12309,0.1884,-0.0248,0.8877,-6.79,5.51,-0.02,32.63
12319,0.1542,-0.0292,0.9222,-6.79,8.2,-0.09,32.6
12329,0.1593,-0.0251,0.9052,-6.87,10.56,0.05,32.62
12339,0.1982,-0.0253,0.8646,-6.75,7.91,0.02,32.61
12349,0.1815,-0.027,0.8857,-6.79,6.17,-0.08,32.6
12359,0.149,-0.0292,0.9043,-6.85,8.06,0.03,32.61
12369,0.1599,-0.0291,0.8973,-6.9,9.85,-0.11,32.62
12379,0.1884,-0.0291,0.8584,-6.89,7.92,-0.09,32.65
12389,0.1938,-0.0293,0.8781,-6.82,5.69,0.02,32.62
12399,0.1422,-0.0294,0.9148,-6.78,6.92,-0.05,32.62
12409,0.1598,-0.026,0.9373,-6.76,9.47,-0.08,32.62
12419,0.1887,-0.0197,0.9193,-6.76,8.79,-0.03,32.64
12429,0.2118,-0.0255,0.9001,-6.72,6.72,0.02,32.63
12439,0.1693,-0.0281,0.9176,-6.75,7.16,-0.08,32.62
12449,0.1405,-0.0292,0.9156,-6.75,10.27,-0.05,32.62
12459,0.1759,-0.026,0.8739,-6.87,9.63,-0.05,32.62
12469,0.1979,-0.0239,0.8481,-6.95,6.06,-0.09,32.64
12479,0.1793,-0.0288,0.8923,-6.81,6.27,-0.08,32.63
12489,0.1432,-0.0247,0.9333,-6.87,8.72,-0.08,32.62
12499,0.1819,-0.0216,0.9222,-6.78,9.82,-0.05,32.63
12509,0.2053,-0.0153,0.8904,-6.95,6.69,0.02,32.66
12519,0.1874,-0.0258,0.9137,-6.92,6.73,-0.03,32.64
12529,0.1472,-0.0278,0.9255,-6.92,9.85,0.0,32.64
12539,0.1697,-0.0253,0.8804,-6.93,10.56,-0.09,32.62
12549,0.1926,-0.03,0.8468,-6.84,7.22,-0.06,32.62
12559,0.1699,-0.0294,0.8628,-6.73,4.6,0.03,32.59
12569,0.149,-0.0248,0.9301,-6.85,8.47,0.0,32.63
12579,0.156,-0.0262,0.9199,-6.84,8.53,0.0,32.6
12589,0.1938,-0.0211,0.9293,-6.82,8.5,-0.02,32.62
12599,0.1887,-0.0201,0.9027,-6.95,7.48,-0.09,32.62
12609,0.1836,-0.0289,0.8992,-6.89,7.11,-0.09,32.62
12619,0.1454,-0.0327,0.906,-6.95,9.16,-0.06,32.62
12629,0.1708,-0.031,0.8616,-6.95,10.0,-0.02,32.62
12639,0.1809,-0.0342,0.8562,-6.75,8.84,-0.06,32.62
12649,0.1606,-0.0342,0.8878,-6.73,5.51,-0.02,32.64
12659,0.146,-0.028,0.9279,-6.61,9.22,-0.06,32.64
12669,0.178,-0.0261,0.9037,-6.73,9.28,-0.12,32.63
12679,0.202,-0.0308,0.9055,-6.72,8.03,-0.05,32.62
12689,0.1526,-0.03,0.9364,-6.72,7.95,-0.06,32.62
12699,0.1721,-0.032,0.9319,-6.7,8.58,-0.02,32.62
12709,0.1593,-0.0299,0.9078,-6.78,9.74,-0.02,32.62
12719,0.1743,-0.0291,0.8824,-6.58,10.12,-0.06,32.63
12729,0.1967,-0.0297,0.8507,-6.63,7.21,-0.02,32.61
12739,0.171,-0.0253,0.865,-6.58,5.57,-0.03,32.59
12749,0.1499,-0.0232,0.9,-6.61,7.74,-0.08,32.62
12759,0.1497,-0.0153,0.9083,-6.72,9.54,-0.09,32.6
12769,0.2065,-0.0151,0.9015,-6.81,7.95,-0.03,32.62
12779,0.1907,-0.0165,0.9181,-6.87,5.82,-0.09,32.62
12789,0.1702,-0.0222,0.9436,-6.85,8.03,-0.12,32.61
12799,0.1565,-0.0231,0.9216,-6.89,10.4,-0.12,32.61
12809,0.1934,-0.024,0.8672,-6.76,9.04,0.0,32.64
12819,0.1844,-0.033,0.8583,-6.69,6.23,0.06,32.63
12829,0.1401,-0.0332,0.8951,-6.73,6.93,0.0,32.63
12839,0.1498,-0.0305,0.9102,-6.79,10.05,-0.05,32.64
12849,0.1973,-0.0289,0.8806,-6.81,7.24,0.02,32.63
12859,0.1985,-0.0299,0.8954,-6.66,7.11,-0.03,32.64
12869,0.1555,-0.0303,0.9296,-6.93,7.94,-0.02,32.64
12879,0.1602,-0.0305,0.9327,-6.84,10.18,-0.09,32.62
12889,0.1802,-0.0244,0.8876,-6.87,9.33,-0.08,32.62
12899,0.2139,-0.0283,0.8563,-6.72,6.41,0.02,32.63
12909,0.168,-0.0294,0.8892,-6.78,6.5,-0.11,32.6
12919,0.1404,-0.0282,0.9102,-6.64,9.4,-0.02,32.62
12929,0.167,-0.0259,0.8943,-6.64,9.54,0.02,32.64
12939,0.2012,-0.0233,0.8694,-6.56,6.32,0.05,32.62
12949,0.1797,-0.0217,0.9113,-6.78,6.17,-0.05,32.63
12959,0.1438,-0.022,0.931,-6.9,9.85,0.05,32.64
12969,0.1807,-0.0259,0.9003,-6.9,9.89,-0.08,32.63
12979,0.1891,-0.0255,0.8643,-6.82,6.87,0.02,32.62
12989,0.1803,-0.028,0.8877,-6.72,5.88,-0.05,32.62
12999,0.1516,-0.0277,0.906,-6.7,7.48,-0.05,32.63
13009,0.1503,-0.0289,0.9205,-6.79,10.38,-0.06,32.62
13019,0.1974,-0.02,0.8966,-6.67,8.17,0.0,32.64
13029,0.1965,-0.0242,0.9004,-6.73,5.79,-0.06,32.65
13039,0.1614,-0.0269,0.9381,-6.89,7.88,-0.06,32.63
13049,0.1564,-0.0293,0.9243,-6.89,10.53,0.0,32.62
13059,0.1628,-0.0254,0.9277,-6.96,10.72,-0.09,32.64
13069,0.1927,-0.0299,0.8583,-6.78,6.75,0.0,32.63
13079,0.1633,-0.0315,0.8926,-6.73,6.89,0.02,32.64
13089,0.1489,-0.0311,0.8954,-6.61,9.01,-0.02,32.64
13099,0.197,-0.0216,0.881,-6.72,8.38,-0.02,32.63
13109,0.199,-0.0251,0.8871,-6.6,6.37,0.0,32.64
13119,0.1593,-0.0269,0.9243,-6.81,7.24,-0.02,32.63
13129,0.1569,-0.0239,0.9296,-6.81,10.31,0.0,32.63
13139,0.181,-0.0223,0.8855,-6.98,9.44,0.03,32.63
13149,0.2021,-0.0215,0.866,-6.85,6.69,-0.09,32.63
13159,0.1715,-0.0325,0.8735,-6.7,6.55,-0.05,32.64
13169,0.1458,-0.0336,0.9146,-6.64,8.02,0.05,32.64
13179,0.1492,-0.0314,0.8983,-6.64,10.03,0.03,32.65
13189,0.2064,-0.0253,0.87,-6.61,6.98,-0.03,32.65
13199,0.1904,-0.024,0.8894,-6.64,5.13,-0.03,32.63
13209,0.1492,-0.0264,0.9387,-6.79,8.82,-0.05,32.63
13219,0.1628,-0.0227,0.9076,-6.92,10.15,-0.05,32.62
13229,0.1902,-0.0253,0.8824,-6.73,7.88,-0.05,32.63
13239,0.1935,-0.0234,0.8916,-6.78,5.86,-0.06,32.62
13249,0.1559,-0.0306,0.9204,-6.7,8.2,-0.03,32.63
13259,0.1674,-0.026,0.9263,-6.76,9.98,-0.08,32.62
13269,0.1831,-0.0253,0.8951,-6.72,9.27,-0.06,32.62
13279,0.2003,-0.022,0.8918,-6.75,8.43,-0.08,32.61
13289,0.171,-0.0234,0.9032,-6.75,6.47,-0.09,32.61
13299,0.146,-0.0219,0.9238,-6.87,9.85,0.0,32.63
13309,0.1838,-0.0212,0.8741,-6.79,10.02,0.0,32.62
13320,0.1678,-0.025,0.8861,-6.81,10.15,0.02,32.64
13330,0.1931,-0.0271,0.869,-6.72,5.48,0.0,32.62
13340,0.1447,-0.0282,0.9139,-6.78,7.44,-0.08,32.59
13350,0.1539,-0.0251,0.9381,-6.84,10.49,-0.02,32.62
13360,0.1865,-0.02,0.901,-6.84,8.5,0.0,32.62
13370,0.2079,-0.0243,0.8905,-6.73,6.09,-0.02,32.62
13380,0.1661,-0.0254,0.9137,-6.81,7.76,-0.03,32.62
13390,0.1631,-0.0284,0.9034,-6.95,10.27,0.0,32.64
13400,0.1858,-0.0331,0.8525,-6.85,9.1,-0.05,32.64
13410,0.1906,-0.035,0.8417,-6.81,5.51,0.0,32.62
13420,0.1608,-0.0304,0.8936,-6.69,6.24,-0.12,32.62
13430,0.1458,-0.0314,0.9182,-6.69,8.53,-0.02,32.64
13440,0.1505,-0.0337,0.9392,-6.79,9.31,-0.03,32.64
13450,0.1958,-0.022,0.9094,-6.79,7.97,-0.05,32.62
13460,0.1976,-0.0271,0.9135,-6.75,6.17,-0.02,32.64
13470,0.1678,-0.0189,0.9205,-6.78,6.69,-0.18,32.61
13480,0.1469,-0.0264,0.922,-6.78,10.75,-0.06,32.64
13490,0.1718,-0.0254,0.8801,-6.82,9.73,-0.06,32.63
13500,0.1882,-0.0265,0.8562,-6.76,7.22,-0.02,32.63
13510,0.1868,-0.0278,0.8679,-6.75,5.59,-0.15,32.64
13520,0.1525,-0.0288,0.8937,-6.7,7.11,-0.12,32.62
13530,0.1505,-0.0244,0.929,-6.73,9.97,0.0,32.62
13540,0.1902,-0.0221,0.9008,-6.66,8.46,-0.08,32.63
13550,0.2075,-0.0255,0.9038,-6.78,5.71,-0.08,32.63
13560,0.1478,-0.0294,0.937,-6.87,8.58,-0.06,32.64
13570,0.1665,-0.0306,0.9061,-6.95,11.59,-0.08,32.61
13580,0.202,-0.0352,0.8536,-6.89,7.33,-0.02,32.62
13590,0.1733,-0.0323,0.8678,-6.73,5.59,-0.02,32.65
13600,0.1439,-0.0304,0.9089,-6.66,8.55,-0.05,32.63
13610,0.1774,-0.0255,0.8849,-6.73,8.05,0.02,32.62
13620,0.1868,-0.0222,0.9083,-6.69,7.68,-0.09,32.63
13630,0.189,-0.0197,0.9071,-6.81,7.59,-0.06,32.64
13640,0.1902,-0.0251,0.9167,-6.79,7.15,-0.06,32.61
13650,0.1469,-0.0238,0.9261,-6.9,9.45,-0.12,32.62
13660,0.1711,-0.0276,0.887,-6.85,10.69,-0.02,32.64
13670,0.199,-0.0233,0.8424,-6.78,6.78,-0.02,32.62
13680,0.1669,-0.0297,0.8809,-6.82,5.91,0.08,32.63
13690,0.1384,-0.0272,0.9268,-6.72,9.42,-0.06,32.62
13700,0.1821,-0.0231,0.9023,-6.79,8.99,-0.02,32.63
13710,0.2102,-0.0238,0.8965,-6.7,6.38,-0.11,32.64
13720,0.1744,-0.0269,0.9126,-6.78,7.24,-0.05,32.61
13730,0.1588,-0.0299,0.9227,-6.79,9.1,-0.03,32.63
13740,0.1461,-0.0286,0.8994,-6.93,10.44,-0.11,32.64
13750,0.2,-0.0284,0.8596,-6.79,8.06,-0.02,32.62
13760,0.1919,-0.0271,0.8568,-6.72,5.13,-0.06,32.63
13770,0.162,-0.0316,0.9044,-6.58,7.07,-0.09,32.62
13780,0.1416,-0.0299,0.9259,-6.82,9.95,-0.08,32.62
13790,0.1836,-0.0256,0.8953,-6.72,9.24,0.0,32.63
13800,0.2087,-0.0239,0.8804,-6.75,5.89,-0.11,32.62
13810,0.161,-0.0271,0.9092,-6.79,6.61,-0.14,32.62
13820,0.1454,-0.0254,0.9309,-6.89,10.73,-0.05,32.63
13830,0.188,-0.0243,0.8781,-6.87,9.02,-0.03,32.63
13840,0.1935,-0.0269,0.8843,-6.81,5.76,-0.08,32.63
13850,0.1389,-0.0265,0.9181,-6.7,8.17,-0.08,32.61
13860,0.161,-0.0225,0.9062,-6.72,10.29,-0.08,32.63
13870,0.1852,-0.0194,0.8834,-6.75,8.12,0.0,32.63
13880,0.1947,-0.0189,0.8983,-6.75,7.05,0.02,32.62
13890,0.1882,-0.0227,0.913,-6.84,6.5,-0.12,32.62
13900,0.1523,-0.0247,0.9338,-6.9,9.19,-0.03,32.63
13910,0.173,-0.0293,0.902,-6.89,10.75,-0.06,32.62
13920,0.1934,-0.0265,0.8372,-6.81,7.95,-0.02,32.64
13930,0.1843,-0.0342,0.8514,-6.75,5.36,0.02,32.61
13940,0.1292,-0.0333,0.9038,-6.72,8.15,-0.02,32.64
13950,0.1708,-0.0283,0.9055,-6.67,9.51,0.08,32.62
13960,0.2083,-0.0201,0.884,-6.63,6.34,-0.06,32.61
13970,0.1781,-0.0248,0.9192,-6.7,6.89,-0.03,32.62
13980,0.1555,-0.0245,0.9312,-6.84,9.56,0.05,32.61
13990,0.1659,-0.0265,0.8918,-6.84,10.08,-0.03,32.61
14000,0.1997,-0.0251,0.8503,-6.78,6.79,-0.08,32.66
14010,0.177,-0.0286,0.8757,-6.79,5.68,-0.11,32.64
14020,0.1614,-0.0277,0.9281,-6.7,7.5,-0.05,32.64
14030,0.149,-0.0259,0.9347,-6.81,10.44,-0.03,32.62
14040,0.192,-0.0217,0.9058,-6.72,8.64,-0.08,32.62
14050,0.196,-0.0204,0.8882,-6.7,6.15,-0.05,32.64
14060,0.1626,-0.0226,0.917,-6.82,7.4,-0.03,32.65
14070,0.1512,-0.0254,0.9139,-6.89,10.43,0.05,32.65
14080,0.1816,-0.0223,0.8864,-6.96,9.5,0.0,32.62
14090,0.2067,-0.0193,0.8624,-6.79,6.84,-0.09,32.64
14100,0.1718,-0.025,0.8926,-6.75,5.74,-0.06,32.64
14110,0.1603,-0.0262,0.9279,-6.79,8.92,-0.03,32.62
14120,0.1686,-0.0245,0.9031,-6.72,10.23,0.02,32.64
14130,0.2031,-0.0284,0.877,-6.72,7.25,-0.06,32.62
14140,0.1697,-0.0356,0.8887,-6.76,5.92,-0.12,32.65
14150,0.1454,-0.0269,0.9242,-6.9,9.57,-0.03,32.63
14160,0.1786,-0.0265,0.8771,-6.81,9.76,0.02,32.62
14170,0.1963,-0.0273,0.8629,-6.87,6.89,-0.03,32.64
14180,0.2015,-0.025,0.8582,-6.79,6.58,-0.02,32.64
14190,0.1436,-0.0327,0.9258,-6.73,7.53,-0.06,32.61
14200,0.1632,-0.0204,0.9214,-6.89,9.88,-0.03,32.61
14210,0.1736,-0.021,0.9126,-6.85,10.26,0.0,32.63
14220,0.2056,-0.0295,0.8926,-6.67,7.24,-0.03,32.64
14230,0.1722,-0.0291,0.8971,-6.61,6.82,-0.05,32.63
14240,0.1599,-0.026,0.903,-6.78,7.94,0.02,32.64
14250,0.1493,-0.0295,0.9009,-6.79,9.34,-0.05,32.64
14260,0.1783,-0.0233,0.8865,-6.99,9.15,0.0,32.63
14270,0.205,-0.0266,0.8746,-6.78,5.98,-0.05,32.62
14281,0.2048,-0.026,0.8612,-6.84,6.23,-0.05,32.63
14291,0.1508,-0.026,0.9467,-6.76,8.73,-0.08,32.63
14301,0.1604,-0.0245,0.9124,-6.75,11.07,-0.09,32.62
14311,0.2097,-0.0277,0.8754,-6.73,7.33,0.02,32.65
14321,0.1772,-0.0283,0.8829,-6.66,5.73,-0.06,32.67
14331,0.1556,-0.0271,0.9182,-6.82,8.53,-0.06,32.64
14341,0.1638,-0.0269,0.8988,-6.79,9.86,-0.02,32.64
14351,0.1766,-0.0275,0.8895,-6.9,8.75,-0.03,32.63
14361,0.1981,-0.0225,0.8738,-6.82,7.05,-0.08,32.65
14371,0.1748,-0.0293,0.8964,-6.79,5.62,0.0,32.63
14381,0.1504,-0.0269,0.9287,-6.61,9.3,-0.02,32.63
14391,0.174,-0.0245,0.8871,-6.76,9.88,0.06,32.62
14401,0.2063,-0.0286,0.871,-6.75,6.09,-0.08,32.63
14411,0.1584,-0.0276,0.9028,-6.78,6.44,-0.05,32.65
14421,0.1589,-0.0253,0.9252,-6.81,9.02,0.03,32.66
14431,0.1831,-0.0223,0.8912,-6.87,9.16,-0.12,32.65
14441,0.2024,-0.0255,0.88,-6.89,6.85,-0.08,32.65
14451,0.166,-0.0266,0.8992,-6.81,6.69,-0.05,32.64
14461,0.1429,-0.0291,0.9175,-6.73,9.3,-0.03,32.62
14471,0.1674,-0.027,0.8973,-6.72,9.69,0.02,32.64
14481,0.2036,-0.0221,0.864,-6.76,7.4,-0.03,32.63
14491,0.1918,-0.0309,0.8923,-6.75,6.09,-0.03,32.64
14501,0.149,-0.0303,0.9235,-6.73,8.03,-0.08,32.65
14511,0.1608,-0.0262,0.9277,-6.85,10.37,0.02,32.66
14521,0.1934,-0.0234,0.8739,-6.92,8.5,-0.05,32.65
14531,0.2041,-0.0299,0.874,-6.81,5.82,-0.02,32.64
14541,0.1504,-0.0314,0.9006,-6.78,7.34,-0.17,32.64
14551,0.15,-0.0328,0.8993,-6.63,10.18,-0.06,32.63
14561,0.187,-0.0303,0.8723,-6.72,7.97,0.0,32.65
14571,0.1975,-0.0295,0.8745,-6.69,5.28,0.0,32.65
14581,0.166,-0.0255,0.9351,-6.75,7.13,-0.11,32.65
14591,0.1458,-0.0267,0.9371,-6.82,10.7,0.0,32.67
14601,0.1949,-0.0248,0.9056,-6.76,9.25,-0.06,32.65
14611,0.1948,-0.0255,0.8627,-6.76,6.73,-0.03,32.64
14621,0.173,-0.0315,0.8746,-6.69,5.77,-0.05,32.65
14631,0.1304,-0.0289,0.9065,-6.69,9.07,0.02,32.66
14641,0.1796,-0.028,0.8948,-6.66,9.59,-0.02,32.64
14651,0.2015,-0.0193,0.8921,-6.79,6.76,-0.05,32.64
14661,0.1772,-0.019,0.9213,-6.79,6.37,-0.03,32.65
14671,0.1613,-0.0188,0.947,-6.82,8.98,0.09,32.65
14681,0.1649,-0.0215,0.9189,-6.95,10.85,-0.08,32.62
14691,0.2046,-0.0254,0.8719,-6.82,8.27,-0.09,32.61
14701,0.1783,-0.0319,0.8646,-6.72,6.67,0.06,32.63
14711,0.1587,-0.0337,0.8953,-6.73,7.33,-0.03,32.65
14721,0.1486,-0.0262,0.9026,-6.69,9.39,-0.09,32.62
14731,0.2008,-0.0238,0.892,-6.76,8.46,-0.02,32.64
14741,0.2024,-0.0262,0.8927,-6.79,5.98,-0.08,32.65
14751,0.1504,-0.0334,0.9313,-6.84,8.49,0.02,32.65
14761,0.1583,-0.0309,0.902,-6.81,10.63,0.08,32.65
14771,0.1918,-0.0267,0.8492,-6.81,8.05,-0.06,32.66
14781,0.1963,-0.0316,0.8569,-6.84,7.83,-0.11,32.62
14791,0.1544,-0.0308,0.895,-6.79,6.34,-0.11,32.63
14801,0.1456,-0.0294,0.9341,-6.78,9.69,-0.02,32.63
14811,0.1836,-0.0208,0.9003,-6.79,9.28,-0.02,32.65
14821,0.2155,-0.0228,0.884,-6.7,5.82,-0.08,32.64
14831,0.1626,-0.028,0.91,-6.72,7.08,-0.11,32.65
14841,0.1467,-0.0304,0.912,-6.76,7.92,-0.12,32.63
14851,0.1748,-0.0236,0.8865,-6.73,9.44,-0.12,32.64
14861,0.1892,-0.0253,0.876,-6.92,6.43,-0.11,32.64
14871,0.1791,-0.0216,0.9038,-6.79,6.53,-0.03,32.62
14881,0.1521,-0.0277,0.9191,-6.76,8.49,-0.06,32.64
14891,0.1733,-0.0217,0.9226,-6.73,10.05,0.0,32.65
14901,0.1979,-0.0225,0.8783,-6.69,8.0,0.03,32.63
14911,0.1936,-0.0237,0.8953,-6.79,4.98,-0.06,32.64
14921,0.1411,-0.0256,0.9266,-6.89,9.65,0.05,32.64
14931,0.1819,-0.0225,0.8977,-6.95,10.64,-0.09,32.64
14941,0.2025,-0.0259,0.8632,-6.82,7.18,-0.06,32.62
14951,0.1976,-0.0271,0.8627,-6.69,6.0,-0.05,32.62
14961,0.1685,-0.0302,0.889,-6.64,6.96,0.06,32.61
14971,0.1643,-0.0308,0.8878,-6.81,8.63,0.05,32.62
14981,0.1898,-0.0215,0.9003,-6.76,8.34,-0.02,32.64
14991,0.1908,-0.0225,0.8947,-6.76,7.08,-0.08,32.63
15001,0.2096,-0.0201,0.8901,-6.72,6.08,0.0,32.63
15011,0.1678,-0.0227,0.9178,-6.76,6.79,-0.08,32.63
15021,0.1447,-0.0223,0.9236,-6.87,10.75,-0.08,32.67
15031,0.1963,-0.0298,0.859,-6.89,8.76,-0.02,32.62
15041,0.1835,-0.032,0.8629,-6.76,4.81,-0.05,32.66
15051,0.1415,-0.0237,0.9261,-6.66,8.76,0.02,32.66
15061,0.1841,-0.0212,0.8923,-6.79,8.55,-0.02,32.66
15071,0.1943,-0.0238,0.9155,-6.6,7.56,-0.02,32.66
15081,0.1826,-0.0244,0.9047,-6.79,7.76,0.0,32.63
15091,0.184,-0.0275,0.9084,-6.79,7.02,-0.06,32.65
15101,0.1486,-0.0271,0.9066,-6.79,8.17,-0.12,32.63
15111,0.1624,-0.0287,0.8989,-6.9,10.55,-0.12,32.64
15121,0.2109,-0.0291,0.85,-6.72,6.69,0.06,32.63
15131,0.1687,-0.0304,0.901,-6.78,6.24,-0.03,32.64
15141,0.1451,-0.0327,0.9259,-6.76,9.5,-0.06,32.64
15151,0.1727,-0.0259,0.8823,-6.79,9.33,-0.05,32.64
15161,0.2064,-0.0245,0.8755,-6.72,6.31,-0.08,32.63
15171,0.1678,-0.0266,0.9052,-6.75,6.27,0.0,32.64
15181,0.1486,-0.0244,0.9435,-6.84,10.2,-0.09,32.65
15191,0.1774,-0.0243,0.8995,-6.89,9.51,-0.05,32.63
15201,0.2072,-0.0214,0.869,-6.78,6.85,-0.08,32.65
15211,0.173,-0.0239,0.8783,-6.72,6.47,-0.08,32.63
15221,0.1488,-0.0258,0.9005,-6.76,8.2,-0.09,32.63
15231,0.1552,-0.0266,0.9088,-6.81,9.79,0.02,32.65
15241,0.1884,-0.0192,0.8983,-6.84,8.06,-0.09,32.64
15251,0.2043,-0.015,0.9012,-6.85,6.49,-0.11,32.63
15261,0.181,-0.0217,0.9155,-6.84,6.75,0.06,32.64
15271,0.1417,-0.0249,0.9387,-6.92,10.53,-0.08,32.65
15281,0.1805,-0.0251,0.8654,-6.93,10.2,-0.12,32.65
15291,0.2094,-0.0311,0.8517,-6.79,4.5,-0.09,32.61
15301,0.179,-0.0256,0.8883,-6.81,4.79,-0.08,32.65
15311,0.1747,-0.0248,0.9156,-6.76,10.43,-0.05,32.65
15321,0.2012,-0.0264,0.8799,-6.72,6.98,0.0,32.65
15331,0.1632,-0.0283,0.9088,-6.78,7.4,0.0,32.64
15341,0.1578,-0.032,0.901,-6.84,9.4,-0.03,32.65
15351,0.1797,-0.0298,0.8788,-6.9,7.6,-0.03,32.64
15361,0.1649,-0.0345,0.9055,-6.84,8.58,-0.03,32.65
15371,0.1797,-0.0328,0.876,-6.78,8.99,0.09,32.63
15381,0.1947,-0.035,0.8776,-6.64,5.37,-0.05,32.66
15391,0.1373,-0.0259,0.9175,-6.75,7.68,-0.05,32.67
15401,0.1682,-0.0204,0.9113,-6.7,9.91,-0.03,32.64
15411,0.21,-0.017,0.8766,-6.69,6.55,-0.03,32.64
15421,0.174,-0.0168,0.9214,-6.79,6.58,0.05,32.65
15431,0.1501,-0.0172,0.9376,-6.84,9.73,-0.05,32.63
15441,0.1753,-0.0195,0.9054,-6.84,9.22,-0.12,32.65
15451,0.1947,-0.0171,0.8765,-6.81,7.36,-0.03,32.66
15461,0.1703,-0.0242,0.8737,-6.7,7.07,-0.14,32.64
15471,0.1664,-0.0277,0.8981,-6.75,7.28,-0.05,32.64
15481,0.1353,-0.0305,0.9243,-6.85,9.45,-0.11,32.66
15491,0.193,-0.026,0.9087,-6.79,9.36,0.05,32.65
15501,0.2109,-0.027,0.884,-6.81,5.4,-0.06,32.66
15511,0.1549,-0.0311,0.926,-6.81,8.38,0.05,32.68
15521,0.1602,-0.0321,0.8964,-6.82,11.16,0.05,32.64
15531,0.1854,-0.0331,0.8589,-6.85,8.03,0.02,32.65
15541,0.186,-0.0338,0.8702,-6.66,6.15,-0.14,32.64
15551,0.1652,-0.0333,0.8905,-6.73,6.58,-0.03,32.64
15561,0.1715,-0.0319,0.9209,-6.67,7.73,0.03,32.64
15571,0.1509,-0.0271,0.9196,-6.82,10.27,-0.05,32.65
15581,0.2051,-0.0251,0.8801,-6.6,7.74,0.05,32.64
15591,0.1732,-0.0232,0.886,-6.64,5.25,-0.11,32.64
15601,0.1495,-0.0236,0.9264,-6.81,8.98,-0.12,32.64
15611,0.1759,-0.0203,0.8976,-6.9,9.82,0.0,32.65
15621,0.1978,-0.0197,0.8807,-6.76,7.47,-0.06,32.66
15631,0.176,-0.022,0.8942,-6.78,6.02,-0.11,32.65
15641,0.1433,-0.0233,0.9208,-6.66,8.56,-0.05,32.65
15651,0.1719,-0.0188,0.9121,-6.78,9.63,-0.05,32.64
15661,0.2047,-0.0194,0.8779,-6.78,6.9,0.0,32.66
15671,0.1821,-0.0253,0.9203,-6.85,6.93,-0.14,32.66
15681,0.1573,-0.027,0.927,-6.93,8.58,-0.12,32.66
15691,0.1649,-0.031,0.9218,-6.92,9.62,-0.09,32.65
15701,0.1814,-0.0283,0.8721,-6.98,9.42,-0.06,32.66
15711,0.1848,-0.0316,0.8657,-6.89,9.54,0.0,32.68
15721,0.1656,-0.0353,0.8807,-6.73,6.02,-0.11,32.67
15731,0.1418,-0.0358,0.9025,-6.69,7.15,-0.06,32.65
15741,0.1622,-0.0281,0.906,-6.67,9.94,-0.06,32.66
15751,0.2031,-0.0278,0.8746,-6.67,7.39,-0.09,32.64
15761,0.1901,-0.028,0.9194,-6.78,6.2,-0.02,32.67
15771,0.1422,-0.0264,0.9359,-6.81,9.68,-0.03,32.63
15781,0.1783,-0.0294,0.8855,-6.78,9.47,-0.03,32.63
15791,0.1833,-0.0232,0.8534,-6.82,6.99,-0.02,32.64
15801,0.1833,-0.0278,0.8717,-6.78,6.41,0.0,32.66
15811,0.162,-0.0248,0.9053,-6.82,6.69,0.02,32.66
15821,0.145,-0.0245,0.9374,-6.84,9.22,-0.02,32.65
15831,0.1777,-0.0187,0.9185,-6.76,9.21,-0.06,32.64
15841,0.2051,-0.0219,0.8821,-6.79,6.63,-0.09,32.66
15851,0.175,-0.0255,0.9089,-6.78,6.69,-0.02,32.64
15861,0.1395,-0.0264,0.9177,-6.79,10.24,-0.02,32.64
15871,0.1797,-0.0284,0.8888,-6.84,9.6,-0.06,32.65
15881,0.1902,-0.0247,0.8667,-6.87,6.5,-0.03,32.64
15891,0.1819,-0.0277,0.8965,-6.78,6.67,0.03,32.64
15901,0.1635,-0.0288,0.9136,-6.69,7.79,0.02,32.62
15911,0.1548,-0.0284,0.9221,-6.78,10.5,0.02,32.65
15921,0.1927,-0.0244,0.881,-6.73,8.5,0.0,32.65
15931,0.1919,-0.0295,0.8846,-6.78,5.27,-0.02,32.65
15941,0.155,-0.0267,0.9393,-6.82,8.49,-0.09,32.66
15951,0.1659,-0.0258,0.9103,-6.89,10.92,0.0,32.66
15961,0.2023,-0.0238,0.8734,-6.76,7.83,-0.09,32.66
15971,0.1776,-0.0302,0.8655,-6.75,5.95,-0.02,32.64
15981,0.1559,-0.0249,0.902,-6.67,7.39,-0.11,32.65
15991,0.1537,-0.0236,0.8986,-6.72,8.64,-0.05,32.65
16001,0.187,-0.0228,0.902,-6.69,8.72,0.03,32.66
16011,0.2056,-0.0199,0.8987,-6.7,6.73,-0.02,32.65
16021,0.1735,-0.0288,0.9216,-6.85,6.34,-0.11,32.65
16031,0.1437,-0.0286,0.9287,-6.81,10.24,-0.12,32.65
16041,0.1819,-0.0223,0.8669,-6.81,9.6,-0.03,32.65
16051,0.2034,-0.0311,0.8521,-6.81,6.18,-0.05,32.64
16061,0.1539,-0.0356,0.8895,-6.64,6.05,-0.09,32.64
16071,0.1407,-0.0284,0.9348,-6.73,10.34,-0.03,32.67
16081,0.1987,-0.0228,0.8889,-6.76,8.09,-0.03,32.65
16091,0.2032,-0.0242,0.9078,-6.78,5.89,-0.02,32.65
16101,0.1648,-0.026,0.9161,-6.79,8.17,-0.08,32.66
16111,0.1522,-0.0304,0.9108,-6.81,10.09,-0.11,32.65
16121,0.1682,-0.0325,0.8845,-6.87,9.44,-0.02,32.65
16131,0.1855,-0.0259,0.8717,-6.84,7.6,-0.08,32.64
16141,0.2021,-0.0266,0.8732,-6.69,5.69,-0.02,32.64
16151,0.1516,-0.0282,0.9041,-6.7,6.9,-0.11,32.66
16161,0.149,-0.024,0.9269,-6.85,10.82,0.0,32.67
16171,0.1998,-0.0234,0.8737,-6.69,7.76,-0.02,32.64
16181,0.1948,-0.0255,0.9061,-6.72,4.92,-0.02,32.66
16191,0.151,-0.0278,0.9341,-6.93,9.08,-0.06,32.65
16201,0.1781,-0.024,0.9102,-6.9,10.4,0.02,32.66
16211,0.1926,-0.0253,0.8782,-6.79,7.88,0.05,32.67
16221,0.1633,-0.0275,0.8839,-6.76,6.96,-0.11,32.66
16231,0.158,-0.0282,0.8994,-6.7,8.03,-0.06,32.66
16241,0.1648,-0.0286,0.8975,-6.79,8.17,-0.02,32.66
16251,0.1829,-0.0215,0.9139,-6.89,9.33,-0.06,32.67
16261,0.2111,-0.0271,0.8851,-6.76,7.13,0.03,32.65
16271,0.1752,-0.0298,0.9205,-6.78,5.97,-0.06,32.64
16281,0.134,-0.025,0.9224,-6.98,11.39,-0.02,32.65
16291,0.2072,-0.0233,0.8484,-6.73,8.5,-0.11,32.66
16301,0.1857,-0.0297,0.8545,-6.7,5.19,-0.12,32.65
16311,0.1415,-0.0334,0.9099,-6.73,7.83,0.0,32.66
16323,0.1908,-0.0303,0.8722,-6.78,7.02,-0.11,32.64
16333,0.1639,-0.0316,0.8925,-6.78,8.31,-0.09,32.64
16343,0.1705,-0.0341,0.9105,-6.61,8.41,-0.09,32.67
16353,0.1545,-0.0277,0.9135,-6.73,8.52,-0.06,32.63
16363,0.2119,-0.0247,0.8729,-6.64,7.11,0.06,32.64
16373,0.1709,-0.0275,0.894,-6.76,5.33,-0.06,32.65
16383,0.1373,-0.0237,0.9333,-6.85,11.37,-0.02,32.62
16393,0.2129,-0.0232,0.8622,-6.89,7.53,-0.12,32.63
16403,0.1755,-0.0302,0.8912,-6.73,4.95,-0.17,32.65
16413,0.1665,-0.0278,0.9012,-6.64,6.7,-0.09,32.65
16423,0.1721,-0.0247,0.8844,-6.79,8.84,0.0,32.66
16433,0.1884,-0.0232,0.8972,-6.69,7.01,-0.02,32.66
16443,0.1661,-0.0233,0.918,-6.82,8.17,-0.03,32.64
16453,0.1936,-0.0217,0.9133,-6.85,7.73,-0.03,32.65
16463,0.165,-0.0243,0.92,-6.96,7.21,-0.06,32.64
16473,0.1499,-0.0216,0.941,-6.87,9.27,-0.17,32.65
16483,0.1685,-0.0212,0.896,-6.93,11.18,0.02,32.67
16493,0.203,-0.026,0.8513,-6.84,6.56,0.05,32.67
16503,0.1613,-0.027,0.8884,-6.92,6.4,-0.08,32.63
16513,0.1462,-0.0305,0.9048,-6.84,8.99,-0.12,32.64
16523,0.1912,-0.0248,0.9043,-6.72,9.28,0.02,32.64
16533,0.1982,-0.0236,0.8954,-6.78,6.35,0.0,32.67
16543,0.1689,-0.0278,0.922,-6.81,7.36,-0.05,32.65
16553,0.1504,-0.0266,0.8978,-6.85,9.37,-0.12,32.69
16563,0.1786,-0.0266,0.876,-6.81,9.57,-0.08,32.64
16573,0.1917,-0.0275,0.8574,-6.7,7.18,-0.02,32.66
16583,0.1765,-0.0316,0.8787,-6.75,6.11,-0.03,32.64
16593,0.1488,-0.0302,0.9155,-6.76,7.86,-0.02,32.65
16603,0.1526,-0.0299,0.9092,-6.78,9.6,-0.06,32.64
16613,0.2069,-0.0234,0.8801,-6.69,7.92,0.02,32.66
16623,0.1848,-0.0297,0.8846,-6.7,5.42,-0.06,32.65
16633,0.1478,-0.0314,0.9429,-6.81,8.52,-0.11,32.65
16643,0.1674,-0.0267,0.916,-6.81,10.17,0.09,32.66
16653,0.2097,-0.0278,0.8837,-6.82,7.68,0.0,32.65
16663,0.1757,-0.028,0.8801,-6.81,6.44,-0.05,32.66
16673,0.149,-0.0319,0.9034,-6.73,8.29,-0.05,32.68
16683,0.1599,-0.0288,0.912,-6.73,9.37,-0.05,32.64
16693,0.1748,-0.0215,0.9076,-6.7,8.73,-0.08,32.64
16703,0.214,-0.0199,0.8872,-6.69,6.47,-0.02,32.66
16713,0.1659,-0.0233,0.9154,-6.78,6.56,-0.09,32.67
16723,0.1478,-0.0236,0.9309,-6.81,10.89,0.0,32.66
16733,0.1796,-0.0225,0.8735,-6.9,9.92,0.0,32.64
16743,0.2045,-0.0292,0.848,-6.73,5.47,-0.03,32.67
16753,0.1543,-0.0305,0.8994,-6.85,6.4,-0.03,32.66
16763,0.1595,-0.0256,0.9152,-6.66,9.59,-0.08,32.66
16773,0.1827,-0.0261,0.8964,-6.64,8.85,-0.03,32.64
16783,0.1871,-0.0255,0.8931,-6.67,7.57,-0.09,32.65
16793,0.179,-0.0275,0.8966,-6.73,7.04,-0.03,32.64
16803,0.1658,-0.0282,0.9033,-6.87,7.13,0.02,32.64
16813,0.1509,-0.0281,0.9327,-6.9,9.85,0.02,32.67
16823,0.1895,-0.0245,0.8727,-6.81,9.22,-0.08,32.64
16834,0.2207,-0.0273,0.8623,-6.78,6.47,-0.08,32.65
16844,0.1606,-0.0308,0.8989,-6.79,5.54,0.03,32.66
16854,0.1451,-0.0261,0.9264,-6.7,10.27,0.06,32.65
16864,0.1884,-0.0226,0.8849,-6.72,8.84,-0.03,32.67
16874,0.1943,-0.0282,0.8907,-6.73,6.06,0.03,32.68
16884,0.1644,-0.0227,0.9275,-6.72,7.59,-0.02,32.66
16894,0.1755,-0.0289,0.9056,-6.75,8.61,-0.05,32.65
16904,0.1682,-0.0291,0.9082,-6.85,8.9,-0.05,32.67
16914,0.1642,-0.0236,0.8792,-6.79,10.17,-0.03,32.67
16924,0.2091,-0.0283,0.8459,-6.64,5.98,-0.03,32.66
16934,0.1437,-0.0283,0.9019,-6.63,6.03,-0.08,32.68
16944,0.158,-0.0215,0.9198,-6.79,10.55,0.0,32.68
16954,0.2083,-0.0179,0.8842,-6.72,7.07,-0.11,32.65
16964,0.1843,-0.0228,0.8992,-6.73,6.26,0.03,32.64
16974,0.146,-0.0254,0.9266,-6.85,9.65,-0.05,32.65
16984,0.1736,-0.0236,0.8876,-6.89,9.19,-0.08,32.67
16994,0.1901,-0.0245,0.8776,-6.81,7.53,-0.06,32.66
17004,0.1854,-0.0272,0.8812,-6.82,6.72,0.02,32.69
17014,0.1803,-0.0253,0.9025,-6.7,6.93,-0.09,32.64
17024,0.14,-0.03,0.9264,-6.75,8.95,-0.08,32.67
17034,0.1812,-0.0247,0.901,-6.78,9.91,-0.11,32.66
17044,0.2094,-0.0243,0.8641,-6.73,5.85,0.02,32.66
17054,0.1688,-0.0287,0.9102,-6.81,6.76,0.03,32.66
17064,0.1487,-0.0275,0.9287,-6.87,10.47,-0.03,32.67
17074,0.1801,-0.0292,0.8959,-6.96,9.57,-0.06,32.68
17084,0.1984,-0.0238,0.8754,-6.95,6.95,0.05,32.69
17094,0.1746,-0.0292,0.8833,-6.78,6.87,-0.06,32.66
17104,0.1722,-0.0316,0.8927,-6.66,7.73,-0.12,32.67
17114,0.1625,-0.0295,0.9049,-6.72,8.27,0.05,32.67
17124,0.1803,-0.028,0.9205,-6.64,8.78,-0.06,32.66
17134,0.1973,-0.028,0.8887,-6.75,6.96,-0.06,32.67
17144,0.1711,-0.0281,0.9077,-6.69,6.95,-0.03,32.65
17154,0.1411,-0.0265,0.9047,-6.87,11.15,-0.03,32.64
17164,0.1964,-0.0272,0.8451,-6.84,8.12,-0.02,32.68
17174,0.1849,-0.028,0.8717,-6.69,4.96,0.08,32.68
17184,0.1429,-0.0308,0.9214,-6.79,7.74,-0.06,32.67
17194,0.174,-0.0193,0.9169,-6.76,9.69,-0.06,32.67
17204,0.1769,-0.0248,0.9,-6.6,8.84,-0.03,32.66
17214,0.1816,-0.0205,0.9235,-6.7,6.95,-0.03,32.66
17224,0.1659,-0.021,0.9169,-6.87,7.08,-0.03,32.63
17234,0.1721,-0.0198,0.9105,-6.98,8.61,0.05,32.67
17244,0.1606,-0.0302,0.9001,-6.92,9.1,0.0,32.65
17254,0.1676,-0.0247,0.8951,-6.85,9.4,-0.05,32.65
17264,0.1926,-0.0242,0.8839,-6.84,7.37,-0.09,32.66
17274,0.1666,-0.0293,0.903,-6.76,6.18,0.06,32.67
17284,0.1469,-0.0205,0.9309,-6.69,10.5,0.02,32.68
17294,0.205,-0.0226,0.8695,-6.76,7.85,-0.06,32.67
17304,0.1892,-0.0283,0.9083,-6.7,6.24,-0.08,32.68
17314,0.1554,-0.0244,0.9253,-6.87,9.1,-0.05,32.64
17324,0.1862,-0.0265,0.8966,-6.73,9.56,-0.11,32.66
17334,0.1807,-0.0325,0.8612,-6.81,7.57,-0.08,32.66
17344,0.1624,-0.0305,0.869,-6.81,9.16,-0.03,32.65
17354,0.1971,-0.0353,0.8425,-6.7,6.08,-0.12,32.65
17364,0.1389,-0.035,0.9199,-6.76,6.72,-0.02,32.67
17374,0.1667,-0.0225,0.9236,-6.76,10.69,-0.03,32.67
17384,0.2151,-0.0232,0.8746,-6.58,5.39,0.05,32.68
17394,0.1582,-0.0238,0.9399,-6.7,6.99,0.03,32.67
17404,0.1434,-0.0258,0.928,-6.81,11.45,-0.02,32.69
17414,0.2006,-0.0234,0.8715,-6.78,7.88,-0.02,32.67
17424,0.1787,-0.0269,0.8728,-6.76,5.97,-0.06,32.68
17434,0.1709,-0.0276,0.9015,-6.69,7.39,-0.03,32.65
17444,0.1681,-0.022,0.9065,-6.69,8.35,0.02,32.66
17454,0.1667,-0.0233,0.9154,-6.78,8.92,-0.15,32.66
17464,0.1847,-0.0188,0.9023,-6.76,9.04,0.0,32.65
17474,0.2036,-0.0259,0.8818,-6.82,5.45,-0.03,32.64
17484,0.1636,-0.0308,0.9315,-6.87,7.76,-0.12,32.68
17494,0.1514,-0.0277,0.9287,-6.99,11.45,-0.05,32.66
17504,0.2081,-0.0265,0.8702,-6.9,7.92,-0.05,32.67
17514,0.1696,-0.0297,0.8773,-6.78,6.29,-0.09,32.66
17524,0.1544,-0.0289,0.8962,-6.78,8.34,-0.06,32.65
17534,0.1688,-0.0282,0.8818,-6.78,8.38,-0.03,32.67
17544,0.1809,-0.0261,0.9021,-6.7,8.11,-0.08,32.66
17554,0.1891,-0.022,0.905,-6.72,8.14,-0.03,32.64
17564,0.1882,-0.0299,0.8972,-6.75,6.23,-0.12,32.67
17574,0.1482,-0.027,0.9196,-6.73,9.05,-0.08,32.65
17584,0.1782,-0.0259,0.8656,-6.76,10.0,-0.09,32.67
17594,0.204,-0.0295,0.8517,-6.76,4.85,-0.03,32.67
17604,0.1418,-0.0266,0.9117,-6.78,7.37,-0.06,32.64
17614,0.1697,-0.0292,0.9218,-6.67,9.19,0.02,32.66
17624,0.1847,-0.0204,0.896,-6.78,7.66,-0.09,32.66
17634,0.1855,-0.0208,0.9047,-6.73,7.86,-0.09,32.68
17644,0.1935,-0.0201,0.8882,-6.76,7.25,-0.06,32.67
17654,0.1533,-0.0267,0.9233,-6.93,7.44,-0.09,32.66
17664,0.1493,-0.0233,0.932,-6.9,11.15,-0.06,32.64
17674,0.2018,-0.0262,0.8662,-6.84,7.97,-0.05,32.66
17684,0.1857,-0.0265,0.8827,-6.66,5.65,0.02,32.65
17694,0.1406,-0.0295,0.9053,-6.81,8.99,-0.02,32.67
17704,0.1754,-0.0261,0.8976,-6.72,9.3,0.02,32.66
17714,0.1875,-0.0275,0.8912,-6.76,7.18,-0.05,32.63
17724,0.1873,-0.0273,0.9102,-6.7,7.01,-0.06,32.67
17734,0.1763,-0.0291,0.9053,-6.79,7.95,-0.03,32.68
17744,0.1489,-0.0284,0.9191,-6.84,10.55,-0.09,32.68
17754,0.1954,-0.0267,0.8634,-6.82,9.42,-0.06,32.66
17764,0.1991,-0.0316,0.8519,-6.84,4.85,-0.03,32.65
17774,0.1486,-0.0232,0.9175,-6.76,7.8,-0.08,32.65
17784,0.1655,-0.0287,0.8975,-6.81,9.53,-0.02,32.66
17794,0.199,-0.0233,0.8939,-6.75,7.37,-0.08,32.65
17804,0.1798,-0.0232,0.8955,-6.75,7.07,-0.09,32.66
17814,0.1801,-0.025,0.906,-6.78,6.92,-0.08,32.67
17824,0.15,-0.021,0.921,-6.95,8.4,-0.05,32.67
17834,0.1646,-0.0238,0.9077,-6.84,10.43,-0.09,32.66
17844,0.1899,-0.0275,0.871,-6.84,7.88,-0.02,32.68
17854,0.1747,-0.0315,0.8781,-6.72,6.23,-0.02,32.67
17864,0.1472,-0.0298,0.9137,-6.73,7.56,-0.05,32.65
17874,0.1479,-0.0262,0.9232,-6.63,10.05,0.05,32.66
17884,0.2162,-0.0214,0.8857,-6.73,7.73,-0.05,32.67
17894,0.186,-0.0304,0.9031,-6.75,5.68,-0.03,32.66
17904,0.1415,-0.0314,0.9478,-6.9,10.09,-0.11,32.67
17914,0.1744,-0.0277,0.8827,-6.87,10.47,-0.06,32.65
17924,0.2087,-0.0291,0.86,-6.84,6.06,-0.08,32.68
17934,0.1663,-0.0273,0.8872,-6.81,6.69,-0.03,32.67
17944,0.1539,-0.0283,0.9154,-6.69,8.85,-0.06,32.66
17954,0.1681,-0.0287,0.9064,-6.67,8.95,-0.11,32.69
17964,0.1748,-0.0244,0.8976,-6.73,8.31,-0.05,32.66
17974,0.1965,-0.02,0.8898,-6.75,8.46,0.05,32.67
17984,0.1937,-0.0248,0.8854,-6.72,5.83,-0.08,32.66
17994,0.1471,-0.0217,0.9344,-6.93,10.76,-0.14,32.66
18004,0.1603,-0.02,0.9033,-6.85,10.37,0.0,32.67
18014,0.2072,-0.0269,0.8696,-6.81,6.64,-0.09,32.67
18024,0.1652,-0.0227,0.8887,-6.78,6.55,-0.08,32.66
18034,0.1552,-0.0267,0.9089,-6.76,9.05,-0.02,32.67
18044,0.1611,-0.0259,0.9065,-6.75,8.84,-0.02,32.67
18054,0.1743,-0.0236,0.9117,-6.82,8.82,0.05,32.66
18064,0.2198,-0.0256,0.8856,-6.76,6.46,-0.03,32.67
18074,0.1599,-0.0259,0.9208,-6.92,7.21,-0.12,32.66
18084,0.1569,-0.0269,0.9199,-6.84,11.51,-0.08,32.65
18094,0.1973,-0.0305,0.8569,-6.87,7.71,0.0,32.67
18104,0.1815,-0.0283,0.8784,-6.78,6.02,-0.11,32.68
18114,0.1603,-0.0295,0.8907,-6.73,7.36,-0.11,32.68
18124,0.1637,-0.0337,0.9104,-6.7,8.6,-0.09,32.66
18134,0.1732,-0.0255,0.897,-6.75,9.18,-0.02,32.67
18144,0.2001,-0.026,0.8783,-6.66,7.01,0.03,32.67
18154,0.1704,-0.0247,0.912,-6.69,6.02,-0.06,32.68
18164,0.1456,-0.0266,0.9263,-6.85,10.34,0.0,32.68
18174,0.2096,-0.0254,0.8763,-6.9,8.44,-0.06,32.67
18184,0.177,-0.0312,0.873,-6.75,6.05,-0.03,32.67
18194,0.1512,-0.026,0.9099,-6.75,8.05,0.02,32.67
18204,0.1554,-0.0281,0.9027,-6.75,8.34,-0.03,32.68
18214,0.1736,-0.0219,0.9192,-6.79,8.26,-0.08,32.67
18224,0.1965,-0.0172,0.896,-6.78,8.18,-0.09,32.67
18234,0.1932,-0.0248,0.9062,-6.76,6.11,-0.08,32.68
18244,0.1398,-0.0228,0.9403,-6.85,9.77,-0.05,32.7
18254,0.1735,-0.0256,0.8971,-6.98,9.94,0.03,32.68
18264,0.1932,-0.0247,0.8835,-6.9,9.19,0.05,32.69
18274,0.1727,-0.0288,0.8922,-6.78,6.93,-0.09,32.69
18284,0.1642,-0.0309,0.9094,-6.82,8.78,-0.08,32.69
18294,0.1552,-0.0319,0.9015,-6.79,9.4,0.02,32.69
18304,0.1921,-0.0245,0.8831,-6.81,8.31,0.08,32.67
18314,0.1964,-0.0236,0.8806,-6.73,5.73,-0.08,32.67
18324,0.1608,-0.0221,0.9227,-6.9,7.82,-0.02,32.67
18334,0.1614,-0.0265,0.9073,-6.93,10.79,-0.05,32.68
18344,0.1886,-0.0277,0.8652,-6.81,8.14,-0.08,32.69
18354,0.1865,-0.0225,0.8654,-6.81,6.27,-0.09,32.67
18364,0.1646,-0.0292,0.8873,-6.72,6.17,-0.02,32.67
18374,0.1494,-0.024,0.933,-6.7,8.99,-0.05,32.7
18384,0.1833,-0.027,0.8967,-6.76,9.82,0.02,32.68
18394,0.2058,-0.0282,0.9003,-6.78,5.6,-0.02,32.67
18404,0.1533,-0.028,0.9203,-6.73,7.89,-0.11,32.66
18414,0.1719,-0.0287,0.9043,-6.85,8.37,0.0,32.67
18424,0.1595,-0.0245,0.906,-6.92,9.28,-0.03,32.67
18434,0.1917,-0.0265,0.8787,-6.82,8.93,-0.06,32.68
18444,0.194,-0.028,0.8701,-6.78,5.3,-0.06,32.67
18454,0.1266,-0.0305,0.9294,-6.79,8.84,-0.03,32.67
18464,0.1887,-0.0244,0.8892,-6.67,9.73,-0.05,32.65
18474,0.1986,-0.0272,0.8794,-6.67,5.27,-0.03,32.66
18484,0.1637,-0.0266,0.9343,-6.76,8.18,-0.12,32.66
18494,0.1608,-0.0286,0.911,-6.81,9.47,-0.06,32.68
18504,0.1681,-0.0281,0.9089,-6.87,8.85,0.03,32.66
18514,0.1769,-0.0244,0.8717,-6.76,9.16,-0.08,32.67
18524,0.2032,-0.0284,0.8618,-6.79,6.17,-0.06,32.68
18534,0.1617,-0.0278,0.8999,-6.69,6.78,-0.03,32.69
18544,0.1462,-0.0262,0.9222,-6.76,9.6,-0.02,32.67
18554,0.1882,-0.0236,0.8984,-6.6,8.6,-0.06,32.68
18564,0.2021,-0.0229,0.8817,-6.76,6.24,-0.09,32.67
18574,0.1801,-0.0266,0.9121,-6.85,6.78,-0.06,32.69
18584,0.1423,-0.025,0.9283,-6.89,9.82,-0.05,32.68
18594,0.1892,-0.0249,0.8927,-6.87,9.76,-0.03,32.69
18604,0.191,-0.0284,0.8644,-6.78,5.79,-0.03,32.68
18614,0.155,-0.0273,0.9022,-6.85,7.56,-0.05,32.69
18624,0.1608,-0.025,0.9014,-6.69,9.47,-0.03,32.68
18634,0.1829,-0.0245,0.8969,-6.73,8.73,-0.06,32.69
18644,0.1959,-0.0223,0.8955,-6.67,7.24,-0.02,32.67
18654,0.1814,-0.0305,0.9047,-6.76,6.05,-0.06,32.69
18664,0.1472,-0.0276,0.9323,-6.87,9.82,0.0,32.69
18674,0.1799,-0.0297,0.8701,-6.93,10.29,-0.08,32.67
18684,0.2025,-0.0339,0.858,-6.76,5.91,-0.09,32.66
18694,0.1553,-0.0342,0.8865,-6.78,6.43,-0.03,32.65
18704,0.1552,-0.0348,0.9114,-6.7,8.47,-0.08,32.68
18714,0.1605,-0.0272,0.9036,-6.69,9.25,-0.08,32.68
18724,0.2059,-0.0231,0.8833,-6.72,7.53,-0.02,32.65
18734,0.1836,-0.0245,0.9006,-6.73,6.21,-0.05,32.69
18744,0.1415,-0.0259,0.9385,-6.92,9.39,-0.08,32.68
18754,0.1807,-0.0243,0.8976,-6.78,9.76,0.03,32.69
18764,0.1984,-0.0262,0.8652,-6.78,6.2,-0.02,32.68
18774,0.1836,-0.0242,0.8849,-6.84,7.42,-0.05,32.7
18784,0.1748,-0.0276,0.8815,-6.75,7.18,-0.06,32.67
18794,0.1624,-0.0223,0.9113,-6.7,6.85,-0.03,32.67
18804,0.1429,-0.0168,0.9316,-6.81,10.21,-0.06,32.69
18814,0.2168,-0.022,0.8896,-6.63,8.03,-0.08,32.69
18824,0.1802,-0.0219,0.9132,-6.72,6.21,-0.05,32.69
18834,0.1489,-0.0262,0.9327,-6.9,9.4,0.0,32.66
18844,0.1675,-0.0249,0.9076,-6.79,9.42,0.0,32.68
18854,0.1818,-0.0229,0.8771,-6.84,8.6,-0.12,32.69
18864,0.2056,-0.0272,0.8706,-6.72,6.61,-0.08,32.68
18874,0.162,-0.0314,0.8829,-6.72,6.56,0.0,32.66
18884,0.1437,-0.03,0.9204,-6.82,10.03,0.05,32.68
18894,0.1906,-0.0264,0.8767,-6.67,8.09,-0.06,32.68
18904,0.1954,-0.0239,0.8939,-6.73,5.73,0.02,32.68
18914,0.1656,-0.0233,0.9146,-6.78,7.95,-0.02,32.69
18924,0.156,-0.0262,0.9196,-6.87,10.23,-0.06,32.69
18934,0.1775,-0.0269,0.8773,-6.81,9.56,-0.02,32.69
18944,0.2009,-0.0322,0.8506,-6.78,5.59,-0.03,32.67
18954,0.1573,-0.0272,0.9004,-6.75,6.24,0.0,32.67
18964,0.1547,-0.0299,0.911,-6.73,9.54,-0.09,32.7
18974,0.1857,-0.0276,0.907,-6.67,8.53,-0.06,32.67
18984,0.186,-0.0223,0.8972,-6.78,7.65,0.02,32.67
18994,0.1942,-0.0239,0.9053,-6.73,5.91,-0.03,32.69
19005,0.1741,-0.0237,0.9149,-6.82,6.52,-0.02,32.69
19015,0.1462,-0.0261,0.937,-6.82,9.97,0.02,32.68
19025,0.1816,-0.0215,0.897,-6.85,9.95,-0.06,32.67
19035,0.1943,-0.0253,0.8712,-6.84,6.9,-0.05,32.68
19045,0.1781,-0.0239,0.8871,-6.7,6.32,-0.09,32.68
19055,0.1511,-0.0259,0.903,-6.72,8.03,-0.06,32.67
19065,0.1686,-0.0209,0.9263,-6.79,10.26,-0.05,32.66
19075,0.2106,-0.021,0.881,-6.78,7.47,-0.02,32.67
19085,0.1832,-0.0255,0.9193,-6.75,5.36,-0.06,32.69
19095,0.1438,-0.0262,0.9178,-6.87,10.4,-0.03,32.69
19105,0.1882,-0.0306,0.8796,-6.81,9.27,-0.14,32.65
19115,0.1855,-0.0303,0.8644,-6.79,7.37,-0.05,32.67
19125,0.1783,-0.031,0.8651,-6.85,7.28,0.02,32.69
19135,0.1584,-0.0341,0.8983,-6.79,6.79,0.0,32.69
19145,0.1448,-0.0323,0.9196,-6.73,9.4,-0.08,32.68
19155,0.205,-0.0276,0.8873,-6.72,8.64,-0.05,32.69
19165,0.1876,-0.0297,0.8944,-6.73,6.21,0.0,32.68
19175,0.1523,-0.0253,0.9346,-6.81,8.46,-0.06,32.69
19186,0.156,-0.0211,0.9233,-6.79,8.93,-0.03,32.69
19196,0.1735,-0.0177,0.8988,-6.87,9.97,0.0,32.69
19206,0.1864,-0.0166,0.8641,-6.89,8.52,-0.05,32.69
19216,0.1951,-0.0282,0.8528,-6.73,5.21,-0.06,32.67
19226,0.1351,-0.0228,0.9292,-6.82,7.63,-0.08,32.67
19236,0.1675,-0.0216,0.908,-6.89,10.18,-0.05,32.67
19246,0.215,-0.0212,0.8854,-6.7,6.35,0.05,32.68
19256,0.1735,-0.0283,0.9088,-6.81,6.81,-0.03,32.69
19266,0.158,-0.03,0.9279,-6.85,8.87,0.02,32.68
19276,0.1556,-0.0311,0.9086,-6.95,9.82,-0.11,32.68
19286,0.1865,-0.0306,0.8795,-6.89,9.36,-0.09,32.69
19296,0.2024,-0.0349,0.8582,-6.7,5.53,0.02,32.67
19306,0.1494,-0.0353,0.9039,-6.66,7.1,-0.03,32.69
19316,0.1493,-0.0331,0.9067,-6.73,10.14,-0.08,32.68
19326,0.1665,-0.0311,0.8955,-6.64,8.66,-0.06,32.67
19336,0.1924,-0.0212,0.9,-6.72,6.64,-0.14,32.69
19346,0.1808,-0.0259,0.9058,-6.66,6.92,-0.11,32.69
19356,0.1472,-0.0238,0.9341,-6.82,9.6,-0.03,32.68
19366,0.1754,-0.0215,0.8799,-6.87,10.52,-0.08,32.67
19376,0.2062,-0.0234,0.854,-6.72,5.16,-0.05,32.68
19386,0.1814,-0.0227,0.8751,-6.67,5.27,-0.12,32.69
19396,0.1663,-0.0242,0.9218,-6.78,9.53,-0.11,32.68
19406,0.184,-0.0192,0.9042,-6.7,8.14,0.02,32.67
19416,0.175,-0.0199,0.9105,-6.75,8.27,0.0,32.68
19426,0.1995,-0.0232,0.8926,-6.85,6.4,-0.06,32.67
19436,0.1509,-0.0281,0.9292,-6.89,7.28,-0.11,32.67
19446,0.1443,-0.0271,0.9509,-6.99,10.17,-0.05,32.69
19456,0.2039,-0.0277,0.8593,-6.84,7.47,-0.08,32.68
19466,0.171,-0.0343,0.8871,-6.84,6.52,0.0,32.67
19476,0.1494,-0.0347,0.8926,-6.69,8.34,0.05,32.66
19486,0.1694,-0.0323,0.8934,-6.7,7.97,-0.02,32.67
19496,0.1616,-0.0264,0.9119,-6.7,9.02,-0.06,32.7
19506,0.1876,-0.0294,0.8995,-6.82,8.38,-0.05,32.68
19516,0.1548,-0.0308,0.9174,-6.79,7.54,0.05,32.69
19526,0.1469,-0.0316,0.9062,-6.89,10.56,-0.02,32.67
19536,0.1777,-0.0304,0.8943,-6.89,10.06,-0.03,32.66
19546,0.1849,-0.0304,0.8644,-6.84,7.56,-0.02,32.69
19556,0.1826,-0.0286,0.8899,-6.69,6.82,0.06,32.68
19566,0.1638,-0.0271,0.8978,-6.67,6.66,-0.05,32.67
19576,0.1494,-0.0242,0.9297,-6.73,9.08,-0.02,32.66
19586,0.1936,-0.0175,0.8916,-6.69,9.07,-0.05,32.67
19596,0.1968,-0.0204,0.8975,-6.69,5.24,-0.06,32.67
19606,0.1479,-0.0264,0.9441,-6.75,8.78,-0.06,32.68
19616,0.1648,-0.0245,0.915,-6.92,9.48,-0.05,32.69
19626,0.1841,-0.0232,0.8887,-6.87,8.53,0.0,32.69
19636,0.1895,-0.0242,0.859,-6.89,7.01,-0.08,32.68
19646,0.1743,-0.0333,0.8885,-6.73,6.38,-0.09,32.67
19656,0.1338,-0.0264,0.9258,-6.9,9.79,-0.03,32.69
19666,0.1907,-0.0242,0.9028,-6.73,9.4,-0.06,32.66
19676,0.2051,-0.0227,0.8848,-6.79,6.0,0.0,32.69
19686,0.176,-0.0244,0.9116,-6.85,7.57,-0.05,32.67
19696,0.151,-0.0302,0.9152,-6.84,9.54,0.02,32.68
19706,0.1598,-0.0288,0.8982,-6.87,10.14,0.02,32.68
19716,0.2008,-0.0259,0.8573,-6.75,7.76,-0.03,32.69
19726,0.1859,-0.0333,0.8693,-6.75,4.46,-0.14,32.68
19736,0.1427,-0.0283,0.9222,-6.72,9.4,-0.03,32.67
19746,0.182,-0.0283,0.884,-6.79,9.25,0.02,32.67
19756,0.1941,-0.0261,0.8925,-6.75,6.53,-0.08,32.69
19766,0.1705,-0.0281,0.9094,-6.72,7.04,-0.11,32.68
19776,0.1814,-0.0288,0.9127,-6.78,7.08,0.0,32.69
19786,0.1498,-0.0291,0.9164,-6.81,9.33,-0.03,32.67
19796,0.1829,-0.0287,0.875,-6.89,9.37,0.0,32.68
19806,0.1873,-0.0322,0.8669,-6.81,5.74,-0.02,32.69
19816,0.1407,-0.0266,0.9242,-6.81,7.54,0.02,32.69
19826,0.1713,-0.0244,0.9208,-6.78,9.39,-0.12,32.68
19836,0.191,-0.0266,0.8934,-6.66,7.79,0.02,32.68
19846,0.1896,-0.0286,0.9016,-6.7,7.39,-0.03,32.7
19856,0.1698,-0.0319,0.9116,-6.84,7.13,0.0,32.7
19866,0.1479,-0.0262,0.9329,-6.84,9.51,-0.02,32.69
19876,0.1748,-0.0222,0.8864,-6.82,10.27,-0.09,32.67
19886,0.2111,-0.0278,0.8555,-6.81,6.02,-0.14,32.69
19896,0.1543,-0.0254,0.8916,-6.78,7.07,-0.05,32.69
19906,0.1472,-0.0305,0.9071,-6.73,9.51,-0.05,32.68
19916,0.1724,-0.0227,0.9012,-6.64,8.67,-0.11,32.7
19926,0.2024,-0.0221,0.8873,-6.76,6.92,-0.06,32.69
19936,0.1893,-0.0219,0.911,-6.79,6.15,0.0,32.68
19946,0.1362,-0.0226,0.9264,-6.85,9.95,-0.05,32.68
19956,0.1857,-0.0231,0.8903,-6.93,9.76,-0.03,32.67
19966,0.1946,-0.0287,0.8625,-6.84,5.62,-0.06,32.71
19976,0.1689,-0.0321,0.9043,-6.81,6.78,-0.02,32.67
19986,0.1672,-0.0239,0.9048,-6.79,8.17,-0.08,32.69
19996,0.1542,-0.0221,0.9139,-6.7,9.34,-0.08,32.68
20006,0.1836,-0.0256,0.8922,-6.79,8.95,-0.06,32.68
20016,0.1971,-0.0275,0.8871,-6.73,6.05,-0.02,32.68
20026,0.1681,-0.0226,0.9214,-6.92,7.53,-0.09,32.67
20036,0.1626,-0.0311,0.9094,-6.84,9.76,0.02,32.68
20046,0.1754,-0.0302,0.8949,-6.95,9.92,0.0,32.67
20056,0.1973,-0.0309,0.849,-6.84,7.02,0.0,32.67
20067,0.2072,-0.0291,0.8531,-6.84,4.79,0.03,32.69
20077,0.1429,-0.0299,0.9114,-6.67,7.65,-0.12,32.69
20087,0.1594,-0.0259,0.9146,-6.76,10.37,0.0,32.67
20097,0.198,-0.0266,0.8911,-6.81,7.59,0.03,32.66
20107,0.1868,-0.0288,0.9025,-6.67,5.85,-0.06,32.67
20117,0.1687,-0.0293,0.911,-6.72,7.97,-0.08,32.69
20127,0.1589,-0.0339,0.9105,-6.76,7.98,-0.02,32.69
20137,0.1937,-0.0289,0.8761,-6.81,9.68,-0.08,32.7
20147,0.194,-0.031,0.8572,-6.78,5.15,-0.03,32.68
20157,0.1451,-0.0276,0.9164,-6.7,7.83,-0.03,32.69
20167,0.1666,-0.0201,0.8956,-6.72,9.36,0.06,32.71
20177,0.1962,-0.0178,0.8905,-6.81,7.39,0.08,32.68
20187,0.1744,-0.0192,0.9105,-6.69,8.21,0.0,32.7
20197,0.1832,-0.0215,0.9102,-6.79,7.02,-0.02,32.71
20207,0.1504,-0.0193,0.9299,-6.87,8.79,-0.09,32.7
20217,0.1581,-0.0203,0.8966,-6.93,10.29,-0.08,32.69
20227,0.2114,-0.0228,0.8488,-6.87,7.02,0.0,32.67
20237,0.1625,-0.026,0.8904,-6.79,6.26,-0.06,32.67
20247,0.1577,-0.0244,0.9188,-6.96,7.42,-0.06,32.67
20257,0.1802,-0.0262,0.8944,-6.79,8.92,0.0,32.68
20267,0.2064,-0.0269,0.8837,-6.73,6.35,-0.06,32.68
20277,0.1948,-0.0219,0.894,-6.84,6.87,-0.06,32.68
20287,0.1691,-0.0332,0.9126,-6.84,7.34,0.03,32.67
20298,0.1698,-0.0312,0.9274,-6.84,7.56,0.0,32.68
20308,0.1615,-0.0299,0.9158,-6.81,9.85,-0.12,32.7
20318,0.1815,-0.0294,0.8883,-6.87,9.69,0.05,32.68
20328,0.175,-0.0288,0.8593,-6.87,8.47,-0.05,32.67
20338,0.1969,-0.0306,0.8544,-6.75,5.42,0.02,32.67
20348,0.1481,-0.0336,0.9004,-6.75,6.76,-0.03,32.68
20358,0.1611,-0.0266,0.9191,-6.78,10.79,-0.11,32.68
20368,0.2249,-0.0228,0.8682,-6.67,6.08,-0.06,32.71
20378,0.1519,-0.0271,0.9235,-6.76,7.04,-0.03,32.69
20388,0.1586,-0.0259,0.9146,-6.82,10.27,-0.09,32.68
20398,0.1957,-0.028,0.8691,-6.84,7.44,-0.03,32.68
20408,0.1765,-0.0238,0.8943,-6.84,7.04,0.02,32.7
20418,0.173,-0.0234,0.8898,-6.66,7.94,0.0,32.69
20428,0.1715,-0.0327,0.907,-6.76,6.52,-0.08,32.7
20438,0.135,-0.0225,0.9324,-6.78,10.03,-0.06,32.67
20448,0.2101,-0.0199,0.8861,-6.76,8.37,-0.15,32.67
20458,0.1903,-0.02,0.9019,-6.84,5.25,-0.12,32.68
20468,0.1498,-0.0231,0.9385,-6.92,9.54,-0.06,32.67
20478,0.1702,-0.024,0.9023,-6.93,10.12,-0.03,32.67
20488,0.1748,-0.0256,0.8761,-6.85,8.44,-0.08,32.67
20498,0.2035,-0.0273,0.8617,-6.76,7.1,-0.12,32.69
20508,0.1777,-0.0338,0.8745,-6.84,5.65,-0.06,32.69
20518,0.1437,-0.0303,0.9375,-6.78,9.92,0.0,32.69
20528,0.1934,-0.0295,0.8848,-6.79,8.98,-0.02,32.68
20538,0.2,-0.027,0.8958,-6.75,5.59,-0.02,32.69
20548,0.1505,-0.0243,0.9156,-6.82,8.34,0.02,32.68
20558,0.1716,-0.0336,0.9034,-6.82,9.56,-0.02,32.68
20568,0.1729,-0.0272,0.8907,-6.87,9.19,-0.05,32.68
20578,0.1904,-0.0275,0.8678,-6.73,7.48,0.02,32.69
20588,0.1771,-0.03,0.8835,-6.69,4.92,-0.03,32.67
20598,0.1357,-0.0271,0.9252,-6.67,9.28,-0.08,32.67
20608,0.1923,-0.0201,0.8938,-6.67,8.72,0.0,32.7
20618,0.1868,-0.0231,0.8981,-6.63,6.29,-0.02,32.68
20628,0.171,-0.0237,0.9318,-6.67,7.74,-0.03,32.69
20638,0.1658,-0.0262,0.9086,-6.92,8.4,-0.06,32.68
20648,0.1626,-0.0273,0.9152,-6.87,9.19,-0.09,32.68
20658,0.181,-0.0222,0.8735,-6.85,9.83,-0.05,32.69
20668,0.1997,-0.0273,0.8597,-6.76,5.83,-0.06,32.71
20678,0.1439,-0.0265,0.9065,-6.78,7.3,0.05,32.68
20688,0.1571,-0.0256,0.9149,-6.76,9.68,0.0,32.67
20698,0.2051,-0.0187,0.8931,-6.75,7.44,0.0,32.68
20708,0.1879,-0.0282,0.895,-6.79,6.76,-0.06,32.67
20718,0.1759,-0.0319,0.9164,-6.73,6.99,-0.08,32.67
20728,0.1333,-0.0331,0.9263,-6.82,10.64,-0.09,32.67
20738,0.1924,-0.0264,0.8843,-6.81,9.15,-0.11,32.68
20748,0.1925,-0.0269,0.863,-6.78,5.73,-0.14,32.68
20758,0.16,-0.0269,0.8961,-6.81,7.4,-0.05,32.67
20768,0.1589,-0.0264,0.9028,-6.75,9.04,-0.12,32.68
20778,0.1644,-0.0248,0.9038,-6.7,8.63,-0.02,32.67
20788,0.1958,-0.0187,0.8971,-6.82,8.41,-0.08,32.64
20798,0.2034,-0.0214,0.8881,-6.81,5.07,-0.08,32.66
20808,0.1455,-0.0262,0.9451,-6.84,8.89,-0.03,32.69
20818,0.1652,-0.0248,0.8944,-6.93,11.6,-0.08,32.67
20828,0.2065,-0.0264,0.8644,-6.82,6.34,-0.03,32.69
20838,0.1597,-0.0278,0.8932,-6.79,6.64,-0.06,32.68
20848,0.1649,-0.0281,0.9135,-6.76,8.49,-0.05,32.67
20858,0.1727,-0.0266,0.8995,-6.67,9.01,-0.09,32.69
20868,0.1926,-0.0233,0.8877,-6.69,7.97,-0.12,32.67
20878,0.1931,-0.0309,0.8889,-6.63,5.73,-0.09,32.69
20888,0.139,-0.0299,0.9286,-6.87,8.61,-0.03,32.67
20898,0.1792,-0.0282,0.894,-6.9,10.35,0.0,32.69
20908,0.1936,-0.0325,0.8582,-6.81,6.93,-0.05,32.68
20918,0.1703,-0.0287,0.8828,-6.73,7.4,0.0,32.69
20928,0.1576,-0.0331,0.8878,-6.82,7.34,-0.08,32.68
20938,0.1519,-0.0312,0.9198,-6.76,8.4,-0.06,32.67
20948,0.1714,-0.0171,0.9121,-6.79,9.94,0.03,32.69
20958,0.2223,-0.0192,0.8835,-6.78,5.45,-0.03,32.7
20968,0.1523,-0.0245,0.9353,-6.81,7.54,-0.02,32.68
20978,0.1591,-0.0229,0.9213,-6.85,10.61,-0.08,32.67
20988,0.1901,-0.0198,0.8848,-6.81,8.12,-0.12,32.7
20998,0.1812,-0.0212,0.8789,-6.89,6.58,-0.08,32.7
21008,0.1915,-0.026,0.8866,-6.75,7.07,-0.05,32.69
21018,0.1427,-0.0262,0.9166,-6.84,9.18,-0.05,32.69
21028,0.1567,-0.0264,0.9209,-6.78,9.71,-0.06,32.67
21038,0.1893,-0.0166,0.8818,-6.75,8.64,-0.05,32.69
21048,0.2029,-0.019,0.8881,-6.79,6.34,-0.05,32.65
21058,0.167,-0.0254,0.9193,-6.78,7.53,-0.08,32.69
21068,0.1486,-0.0302,0.9226,-6.85,9.86,-0.02,32.68
21078,0.1667,-0.0273,0.8895,-6.92,10.06,-0.03,32.69
21088,0.2046,-0.0326,0.8428,-6.85,7.13,-0.02,32.65
21098,0.1752,-0.0322,0.8815,-6.78,5.18,-0.03,32.69
21108,0.1333,-0.0334,0.9169,-6.76,10.11,0.0,32.67
21118,0.1976,-0.0289,0.8855,-6.72,8.18,-0.02,32.69
21128,0.1782,-0.03,0.8969,-6.66,6.29,-0.08,32.67
21138,0.1799,-0.0237,0.91,-6.69,7.68,-0.02,32.69
21148,0.1749,-0.0244,0.8986,-6.78,7.25,-0.08,32.67
21158,0.1486,-0.0242,0.9208,-6.72,9.59,0.0,32.67
21168,0.1893,-0.0237,0.8732,-6.76,8.95,-0.03,32.68
21178,0.1886,-0.0321,0.861,-6.73,4.84,0.0,32.68
21188,0.1498,-0.0251,0.9186,-6.78,7.95,0.0,32.69
21198,0.161,-0.0209,0.907,-6.79,9.37,-0.05,32.67
21208,0.1926,-0.0206,0.9066,-6.64,8.11,-0.03,32.68
21218,0.1898,-0.0212,0.9039,-6.84,7.07,0.0,32.69
21228,0.1764,-0.0276,0.9254,-6.78,7.18,0.03,32.7
21238,0.1447,-0.024,0.9227,-6.81,10.32,-0.06,32.68
21248,0.1997,-0.0242,0.8668,-6.84,9.59,-0.03,32.69
21258,0.1892,-0.0275,0.8717,-6.85,5.82,-0.05,32.69
21268,0.1483,-0.0294,0.9122,-6.82,8.29,-0.05,32.7
21278,0.1711,-0.0323,0.8994,-6.7,8.84,-0.05,32.67
21288,0.1727,-0.0262,0.8945,-6.76,8.02,0.08,32.69
21298,0.1974,-0.0232,0.8949,-6.73,8.38,-0.08,32.66
21308,0.1942,-0.0304,0.8763,-6.66,5.77,-0.08,32.67
21318,0.1335,-0.0281,0.9407,-6.89,9.71,-0.09,32.69
21328,0.1851,-0.0258,0.874,-6.87,10.05,-0.02,32.66
21338,0.2051,-0.0243,0.8622,-6.95,5.01,0.05,32.69
21348,0.1532,-0.024,0.9006,-6.9,7.53,-0.03,32.66
21358,0.1587,-0.0299,0.9042,-6.66,8.95,-0.02,32.69
21368,0.1622,-0.0258,0.907,-6.7,8.5,-0.06,32.69
21378,0.1868,-0.0206,0.8998,-6.78,7.82,0.0,32.69
21388,0.2001,-0.0234,0.8989,-6.64,5.74,-0.08,32.69
21398,0.155,-0.0247,0.9193,-6.81,8.23,-0.09,32.69
21408,0.1636,-0.0253,0.9133,-6.87,10.44,-0.05,32.67
21418,0.1763,-0.0275,0.8762,-6.87,8.46,0.02,32.7
21428,0.1874,-0.0295,0.8933,-6.89,6.85,0.0,32.7
21438,0.1771,-0.0284,0.8829,-6.76,6.31,-0.11,32.68
21448,0.1479,-0.0239,0.9285,-6.66,8.79,0.0,32.69
21458,0.1783,-0.0236,0.8981,-6.75,10.26,-0.03,32.69
21468,0.2065,-0.0264,0.8759,-6.67,5.8,0.0,32.67
21478,0.1506,-0.0269,0.9293,-6.76,7.76,-0.03,32.67
21488,0.1643,-0.026,0.9103,-6.73,10.37,-0.09,32.72
21498,0.2017,-0.0245,0.8756,-6.78,8.17,-0.09,32.68
21508,0.176,-0.0282,0.8717,-6.76,7.13,0.03,32.7
21518,0.1748,-0.0312,0.8927,-6.73,6.38,-0.02,32.69
21528,0.1403,-0.0262,0.92,-6.75,8.5,-0.06,32.69
21538,0.179,-0.022,0.9082,-6.79,9.45,-0.02,32.69
21548,0.2063,-0.0222,0.885,-6.7,6.41,-0.08,32.69
21558,0.1741,-0.0223,0.9086,-6.81,6.82,-0.11,32.67
21568,0.1469,-0.0225,0.9208,-6.85,9.34,-0.03,32.68
21578,0.1625,-0.0277,0.8989,-6.9,9.18,-0.09,32.69
21588,0.1951,-0.0231,0.8796,-6.85,8.29,-0.03,32.7
21598,0.197,-0.0297,0.8705,-6.78,5.59,-0.02,32.69
21608,0.1453,-0.0309,0.9249,-6.7,8.32,0.08,32.7
21618,0.1665,-0.0276,0.9003,-6.75,10.43,-0.06,32.69
21628,0.2107,-0.0308,0.8756,-6.7,5.91,-0.03,32.69
21638,0.1544,-0.0254,0.9154,-6.84,7.1,-0.09,32.68
21648,0.177,-0.028,0.9133,-6.82,9.31,-0.03,32.69
21658,0.1755,-0.0303,0.8965,-6.85,8.31,-0.02,32.7
21668,0.1541,-0.0258,0.8938,-6.84,9.82,-0.05,32.69
21678,0.2042,-0.0291,0.8409,-6.76,7.07,-0.02,32.7
21688,0.162,-0.0322,0.8864,-6.6,5.08,-0.09,32.72
21698,0.1464,-0.0264,0.9331,-6.73,10.11,-0.09,32.67
21708,0.1975,-0.0255,0.8842,-6.67,8.2,-0.02,32.68
21718,0.1914,-0.022,0.9036,-6.85,6.43,0.05,32.67
21728,0.1621,-0.0222,0.9182,-6.81,7.79,-0.17,32.69
21738,0.1639,-0.0216,0.9253,-6.93,8.55,-0.12,32.69
21748,0.1704,-0.0238,0.8989,-6.89,9.95,-0.02,32.68
21758,0.203,-0.0245,0.8687,-6.89,6.95,0.02,32.7
21768,0.1567,-0.0266,0.9004,-6.87,6.6,-0.08,32.69
21778,0.1471,-0.0266,0.9186,-6.92,9.76,-0.06,32.69
21788,0.1691,-0.0239,0.9193,-6.76,9.3,-0.02,32.7
21798,0.175,-0.0225,0.9091,-6.73,9.25,-0.06,32.69
21808,0.204,-0.0237,0.9009,-6.72,7.77,0.02,32.7
21818,0.1792,-0.0292,0.8978,-6.78,6.32,0.02,32.72
21828,0.1444,-0.0265,0.9326,-6.87,10.06,-0.05,32.67
21838,0.1917,-0.0237,0.87,-6.82,9.92,-0.03,32.68
21848,0.1921,-0.0275,0.8628,-6.73,5.97,-0.05,32.69
21858,0.1516,-0.0298,0.8982,-6.67,7.73,-0.05,32.71
21868,0.1573,-0.0322,0.9019,-6.67,8.63,0.0,32.68
21878,0.1729,-0.0256,0.9003,-6.7,8.0,0.0,32.69
21888,0.1826,-0.0283,0.884,-6.75,8.21,-0.03,32.7
21898,0.2018,-0.0299,0.8881,-6.78,6.06,-0.09,32.68
21908,0.1382,-0.0302,0.9285,-6.82,8.31,-0.05,32.69
21918,0.1678,-0.0262,0.906,-6.93,10.37,-0.02,32.7
21928,0.1913,-0.0222,0.8773,-6.81,9.51,-0.06,32.71
21938,0.1746,-0.0264,0.884,-6.81,6.15,-0.11,32.67
21948,0.1484,-0.0309,0.9093,-6.67,8.53,-0.11,32.69
21958,0.1558,-0.0291,0.9186,-6.72,9.3,-0.03,32.68
21968,0.1877,-0.0203,0.913,-6.78,8.61,-0.08,32.72
21978,0.202,-0.0234,0.8959,-6.82,5.73,-0.03,32.7
21988,0.1606,-0.0225,0.9337,-6.85,8.14,-0.03,32.7
21998,0.1584,-0.0264,0.8978,-6.99,11.01,-0.03,32.72
22008,0.1918,-0.0272,0.8704,-6.79,8.02,-0.02,32.7
22018,0.1709,-0.0264,0.8781,-6.78,6.82,0.0,32.68
22029,0.1917,-0.0201,0.8875,-6.85,7.25,-0.02,32.68
22039,0.1748,-0.0262,0.8944,-6.73,6.78,-0.02,32.68
22049,0.1365,-0.0232,0.9298,-6.75,9.42,-0.06,32.69
22059,0.1895,-0.0209,0.8896,-6.76,9.08,0.0,32.67
22069,0.1987,-0.0255,0.8839,-6.84,5.07,-0.15,32.67
22079,0.1566,-0.0273,0.9382,-6.9,8.69,-0.06,32.69
22089,0.1665,-0.027,0.8977,-6.84,10.67,-0.09,32.69
22099,0.1934,-0.0323,0.8756,-6.81,7.54,-0.11,32.66
22109,0.1677,-0.0281,0.8717,-6.75,6.75,-0.14,32.68
22119,0.1837,-0.027,0.8776,-6.66,6.58,-0.06,32.69
22129,0.1497,-0.0305,0.9136,-6.64,7.62,-0.12,32.67
22139,0.163,-0.0261,0.9205,-6.76,10.63,0.0,32.68
22149,0.2186,-0.0265,0.8832,-6.66,6.4,0.03,32.69
22159,0.1671,-0.0297,0.9221,-6.78,6.03,-0.03,32.71
22169,0.16,-0.0204,0.9253,-6.92,10.27,-0.06,32.69
22179,0.1858,-0.0232,0.875,-6.85,8.76,-0.06,32.67
22189,0.1855,-0.0249,0.8824,-6.82,7.22,-0.02,32.69
22199,0.1613,-0.0248,0.8905,-6.84,7.28,0.02,32.67
22209,0.1595,-0.0277,0.9049,-6.72,8.23,0.08,32.67
22219,0.1553,-0.0223,0.9047,-6.82,9.1,-0.02,32.71
22229,0.2059,-0.0179,0.8789,-6.84,8.0,-0.09,32.7
22239,0.2072,-0.0223,0.8771,-6.76,6.29,0.02,32.69
22249,0.1407,-0.0302,0.9409,-6.84,9.8,-0.06,32.71
22259,0.1829,-0.0234,0.895,-6.92,9.83,0.0,32.67
22269,0.1952,-0.0332,0.8564,-6.9,6.49,-0.03,32.7
22279,0.1877,-0.0332,0.8691,-6.76,7.3,-0.03,32.72
22289,0.155,-0.0332,0.8937,-6.61,7.42,-0.03,32.7
22299,0.1572,-0.0342,0.9104,-6.66,6.96,-0.02,32.7
22309,0.1776,-0.0221,0.9069,-6.75,9.11,-0.06,32.7
22319,0.213,-0.0227,0.8839,-6.73,5.71,-0.05,32.72
22329,0.158,-0.0231,0.9192,-6.84,7.65,-0.11,32.7
22339,0.16,-0.0245,0.9121,-6.81,10.64,-0.03,32.71
22349,0.1965,-0.0248,0.8734,-6.78,7.82,-0.03,32.71
22359,0.1943,-0.0216,0.8688,-6.87,6.32,-0.09,32.71
22369,0.166,-0.0215,0.9136,-6.79,8.17,-0.03,32.68
22379,0.171,-0.0262,0.9037,-6.75,8.52,-0.06,32.7
22389,0.1775,-0.0188,0.9144,-6.73,9.22,-0.03,32.67
22399,0.1969,-0.0259,0.882,-6.84,7.68,-0.06,32.71
22409,0.1871,-0.0278,0.9044,-6.87,5.34,-0.06,32.7
22419,0.1433,-0.0264,0.9329,-6.81,9.88,0.0,32.69
22429,0.1863,-0.0289,0.8883,-6.82,9.98,-0.06,32.69
22439,0.1926,-0.0321,0.8638,-6.82,6.38,-0.05,32.69
22449,0.1573,-0.0331,0.8845,-6.78,7.04,-0.05,32.69
22459,0.1556,-0.0302,0.8954,-6.75,8.03,-0.05,32.7
22469,0.1639,-0.0302,0.8937,-6.67,8.35,-0.03,32.7
22479,0.1658,-0.0291,0.9106,-6.63,9.24,0.03,32.69
22489,0.1973,-0.0258,0.8917,-6.7,6.92,0.02,32.69
22499,0.1664,-0.0261,0.9241,-6.84,7.1,-0.06,32.72
22509,0.1431,-0.0215,0.9102,-6.92,10.75,-0.15,32.69
22519,0.1702,-0.0233,0.887,-6.82,10.63,-0.02,32.69
22529,0.1799,-0.0245,0.876,-6.75,5.47,0.05,32.7
22539,0.1637,-0.0254,0.9083,-6.73,6.21,0.0,32.68
22549,0.1558,-0.0203,0.9258,-6.72,8.73,-0.11,32.7
22559,0.1747,-0.0216,0.9105,-6.61,8.64,-0.02,32.68
22569,0.194,-0.0177,0.9055,-6.73,7.76,-0.06,32.69
22579,0.1893,-0.0221,0.8981,-6.81,7.37,0.05,32.7
22589,0.1693,-0.0266,0.915,-6.7,7.11,-0.09,32.71
22599,0.1405,-0.0266,0.9185,-6.98,10.38,-0.06,32.7
22609,0.1971,-0.0221,0.8738,-6.85,9.34,-0.14,32.69
22619,0.1982,-0.0275,0.8615,-6.78,5.59,-0.12,32.71
22629,0.149,-0.0297,0.9135,-6.78,7.85,-0.05,32.71
22640,0.1476,-0.0251,0.9098,-6.69,9.28,-0.02,32.7
22650,0.1801,-0.0282,0.8757,-6.7,8.84,0.08,32.68
22660,0.1971,-0.0253,0.8868,-6.75,6.81,0.03,32.7
22670,0.1759,-0.0288,0.913,-6.79,7.15,0.0,32.72
22680,0.1635,-0.0316,0.9325,-6.84,8.34,-0.14,32.7
22690,0.1556,-0.0251,0.9125,-6.85,9.92,-0.02,32.69
22700,0.1886,-0.0229,0.8723,-6.84,9.31,0.03,32.7
22710,0.1945,-0.0286,0.8499,-6.7,6.05,-0.05,32.71
22720,0.1627,-0.0287,0.8882,-6.69,6.05,-0.05,32.7
22730,0.1364,-0.0277,0.9315,-6.73,9.73,-0.06,32.7
22740,0.1941,-0.0192,0.8948,-6.81,8.67,-0.06,32.69
22750,0.2103,-0.0197,0.9016,-6.69,5.1,0.05,32.68
22760,0.1584,-0.0275,0.9232,-6.89,7.85,-0.12,32.69
22770,0.1583,-0.0281,0.9213,-6.79,10.43,-0.15,32.68
22780,0.17,-0.0276,0.8804,-6.79,9.15,0.03,32.71
22790,0.1935,-0.0298,0.8688,-6.79,7.05,0.0,32.7
22800,0.1761,-0.0303,0.8895,-6.73,6.14,0.0,32.7
22810,0.1531,-0.0288,0.9323,-6.76,8.85,-0.02,32.7
22820,0.1696,-0.0262,0.9144,-6.76,10.46,0.03,32.69
22830,0.2006,-0.0242,0.8795,-6.7,7.69,-0.05,32.69
22840,0.1899,-0.0275,0.8914,-6.78,5.74,-0.06,32.7
22850,0.1481,-0.0292,0.9182,-6.9,8.18,-0.02,32.7
22860,0.1674,-0.0245,0.9117,-6.92,10.96,-0.06,32.7
22870,0.1942,-0.0251,0.8622,-6.84,7.91,0.02,32.72
22880,0.1976,-0.0271,0.8765,-6.72,5.57,-0.08,32.68
22890,0.1392,-0.0297,0.9136,-6.84,7.91,-0.03,32.71
22900,0.1648,-0.024,0.9027,-6.84,9.66,0.0,32.69
22910,0.1913,-0.0228,0.8774,-6.6,7.88,-0.15,32.69
22920,0.1859,-0.0226,0.8971,-6.69,6.72,-0.02,32.68
22930,0.1661,-0.0249,0.9224,-6.82,7.54,-0.09,32.68
22940,0.1567,-0.0262,0.929,-6.85,9.01,0.03,32.71
22950,0.1818,-0.02,0.8976,-6.87,9.86,-0.12,32.69
22960,0.196,-0.0282,0.8574,-6.89,6.58,-0.09,32.71
22970,0.1664,-0.0305,0.8995,-6.72,6.4,0.02,32.66
22980,0.1384,-0.0316,0.9155,-6.84,9.63,0.05,32.71
22990,0.1884,-0.0231,0.8978,-6.67,8.76,-0.05,32.71
23000,0.2091,-0.0223,0.8923,-6.7,6.35,0.05,32.72
23010,0.1818,-0.0266,0.9209,-6.78,6.99,0.0,32.7
23020,0.1423,-0.0302,0.9287,-6.85,10.08,-0.14,32.7
23030,0.1669,-0.0309,0.8759,-6.85,10.49,-0.09,32.72
23040,0.2013,-0.0278,0.8447,-6.78,6.55,-0.06,32.7
23050,0.1721,-0.0317,0.8685,-6.69,5.36,-0.06,32.72
23060,0.1487,-0.0269,0.9247,-6.69,8.38,0.02,32.71
23070,0.1608,-0.0262,0.9152,-6.67,10.12,0.03,32.7
23080,0.1998,-0.026,0.8969,-6.67,7.62,-0.03,32.72
23090,0.1837,-0.0237,0.8934,-6.73,5.97,-0.08,32.69
23100,0.1572,-0.025,0.9211,-6.82,8.27,-0.11,32.7
23110,0.1562,-0.0225,0.9041,-6.89,10.29,-0.06,32.69
23120,0.1897,-0.0226,0.8761,-6.93,8.31,0.0,32.68
23130,0.1957,-0.0234,0.8757,-6.75,5.48,-0.11,32.69
23140,0.1501,-0.0244,0.9247,-6.7,7.31,-0.06,32.68
23150,0.1627,-0.0208,0.932,-6.66,10.41,-0.06,32.7
23160,0.1985,-0.0205,0.87,-6.73,8.17,0.02,32.71
23170,0.1952,-0.0265,0.8938,-6.78,5.56,-0.08,32.7
23180,0.149,-0.0256,0.9254,-6.78,8.34,0.0,32.71
23190,0.1736,-0.0236,0.9241,-6.82,9.85,-0.02,32.7
23200,0.1899,-0.0228,0.8903,-6.95,9.04,-0.09,32.71
23210,0.1924,-0.0262,0.8669,-6.81,7.77,-0.12,32.68
23220,0.1731,-0.0314,0.8751,-6.72,6.44,-0.05,32.71
23230,0.1371,-0.0339,0.9009,-6.72,8.9,-0.02,32.71
23240,0.1749,-0.0259,0.8954,-6.73,8.95,0.06,32.7
23250,0.2012,-0.0248,0.8748,-6.66,6.18,-0.11,32.72
23260,0.2018,-0.0311,0.8937,-6.76,5.88,-0.05,32.71
23270,0.145,-0.0281,0.9357,-6.81,10.11,0.03,32.68
23280,0.1744,-0.0278,0.9016,-6.81,9.69,-0.02,32.69
23290,0.1816,-0.0261,0.8732,-6.81,9.69,-0.08,32.71
23300,0.1788,-0.0334,0.869,-6.63,5.28,-0.05,32.69
23310,0.1417,-0.0312,0.9069,-6.66,8.02,-0.03,32.71
23320,0.1576,-0.0269,0.9237,-6.7,9.83,-0.03,32.71
23330,0.177,-0.0184,0.9224,-6.76,9.45,0.03,32.69
23340,0.2122,-0.0199,0.8953,-6.79,6.38,0.0,32.69
23350,0.1765,-0.0249,0.9332,-6.76,6.69,-0.02,32.7
23360,0.1417,-0.0245,0.9287,-6.79,11.02,-0.08,32.7
23370,0.1799,-0.0223,0.8824,-6.9,9.13,-0.06,32.69
23380,0.1899,-0.0229,0.8615,-6.84,7.13,-0.06,32.69
23390,0.1884,-0.0255,0.8829,-6.9,6.37,-0.05,32.7
23400,0.167,-0.0255,0.9208,-6.78,7.53,-0.08,32.7
23410,0.1632,-0.0236,0.9285,-6.82,10.05,0.02,32.71
23420,0.1923,-0.0233,0.8925,-6.67,8.73,-0.06,32.69
23430,0.1996,-0.0282,0.8673,-6.67,5.62,-0.05,32.69
23440,0.1586,-0.0302,0.9093,-6.76,7.83,-0.15,32.7
23450,0.1506,-0.03,0.9008,-6.82,10.24,-0.09,32.69
23460,0.1908,-0.0306,0.8838,-6.82,9.01,0.02,32.69
23470,0.1984,-0.0267,0.8625,-6.76,5.82,0.03,32.7
23480,0.1647,-0.0277,0.9067,-6.84,6.4,-0.06,32.71
23490,0.1439,-0.0277,0.9138,-6.75,9.71,0.0,32.72
23500,0.1838,-0.0251,0.8882,-6.72,9.18,-0.02,32.67
23510,0.1974,-0.0237,0.8853,-6.82,6.08,0.0,32.67
23520,0.1611,-0.0291,0.9192,-6.87,6.46,-0.02,32.71
23530,0.1541,-0.0231,0.9351,-6.89,9.89,-0.05,32.72
23540,0.1868,-0.0251,0.885,-6.96,9.36,-0.08,32.69
23550,0.1891,-0.0278,0.8733,-6.81,7.05,-0.03,32.7
23561,0.179,-0.0299,0.8673,-6.72,6.6,-0.06,32.67
23571,0.1666,-0.026,0.8917,-6.72,6.72,-0.06,32.69
23581,0.144,-0.0299,0.9135,-6.78,8.78,-0.11,32.7
23591,0.1736,-0.024,0.9167,-6.64,9.97,-0.09,32.71
23601,0.2098,-0.0197,0.8958,-6.7,6.56,-0.03,32.71
23611,0.1669,-0.0244,0.9249,-6.81,6.37,-0.03,32.72
23621,0.1505,-0.0259,0.9261,-6.89,10.85,-0.02,32.72
23631,0.1866,-0.0234,0.8638,-6.82,9.27,-0.03,32.69
23641,0.1938,-0.0304,0.8566,-6.7,6.15,-0.11,32.68
23651,0.1548,-0.0287,0.8875,-6.69,6.35,-0.05,32.7
23661,0.1528,-0.0272,0.9181,-6.85,8.87,-0.05,32.69
23671,0.1759,-0.0232,0.9084,-6.82,8.81,-0.02,32.69
23681,0.197,-0.0208,0.8936,-6.66,7.79,-0.03,32.69
23691,0.1927,-0.0211,0.8878,-6.78,6.79,-0.03,32.7
23701,0.1508,-0.024,0.9211,-6.89,7.94,-0.08,32.69
23711,0.1605,-0.0217,0.915,-6.76,10.4,-0.11,32.69
23721,0.2085,-0.0217,0.8558,-6.89,7.05,0.0,32.69
23731,0.1809,-0.0247,0.8927,-6.79,5.95,-0.06,32.69
23741,0.1383,-0.0312,0.9163,-6.72,9.19,-0.02,32.72
23751,0.1682,-0.0271,0.9064,-6.63,9.82,-0.02,32.7
23761,0.1949,-0.0271,0.8687,-6.75,6.98,-0.03,32.7
23771,0.1904,-0.0258,0.8999,-6.72,5.85,-0.18,32.7
23781,0.1555,-0.0228,0.9264,-6.87,8.55,0.05,32.68
23791,0.1604,-0.0262,0.9292,-6.9,10.69,0.0,32.72
23801,0.1908,-0.0243,0.8877,-6.95,8.95,0.0,32.69
23811,0.1973,-0.0238,0.8789,-6.84,8.21,0.0,32.71
23821,0.1658,-0.0298,0.8931,-6.76,6.81,-0.08,32.7
23831,0.1438,-0.0337,0.8889,-6.63,9.21,-0.02,32.69
23841,0.1807,-0.0289,0.8824,-6.69,8.64,-0.08,32.71
23851,0.1959,-0.024,0.8743,-6.73,6.17,-0.08,32.68
23861,0.1747,-0.0237,0.9323,-6.84,6.27,-0.06,32.67
23871,0.1521,-0.0233,0.9335,-6.9,9.69,-0.06,32.69
23881,0.1842,-0.0225,0.9009,-6.81,10.02,-0.05,32.69
23891,0.1942,-0.0244,0.866,-6.76,7.05,-0.06,32.67
23901,0.1652,-0.0277,0.8811,-6.72,6.35,-0.09,32.69
23911,0.1466,-0.0281,0.9093,-6.84,8.32,0.03,32.67
23921,0.1624,-0.0264,0.9004,-6.72,9.48,-0.03,32.7
23931,0.1731,-0.0249,0.9055,-6.89,9.71,0.02,32.71
23941,0.1895,-0.0233,0.9022,-6.82,5.8,-0.03,32.72
23951,0.1505,-0.0233,0.9508,-6.89,8.44,-0.03,32.69
23961,0.1594,-0.0206,0.9249,-6.95,10.67,-0.08,32.69
23971,0.2091,-0.0221,0.8804,-6.79,8.23,-0.08,32.7
23981,0.1827,-0.0258,0.8706,-6.75,6.17,-0.05,32.71
23991,0.1449,-0.0322,0.9025,-6.87,8.61,0.02,32.69
24001,0.1609,-0.0273,0.89,-6.69,9.11,-0.02,32.7
24011,0.184,-0.0275,0.8853,-6.72,7.25,-0.05,32.71
24021,0.1956,-0.0217,0.9026,-6.69,7.04,-0.09,32.69
24031,0.1759,-0.0271,0.9093,-6.76,7.25,-0.02,32.7
24041,0.1663,-0.0306,0.928,-6.79,7.54,-0.05,32.69
24051,0.1478,-0.0254,0.92,-6.92,10.26,-0.09,32.69
24061,0.1904,-0.022,0.8658,-6.79,9.71,-0.06,32.7
24071,0.1952,-0.0262,0.8478,-6.76,5.33,-0.15,32.7
24081,0.1454,-0.0319,0.8994,-6.75,7.15,0.03,32.69
24091,0.1523,-0.0281,0.9265,-6.76,9.73,-0.02,32.69
24101,0.1919,-0.0261,0.8971,-6.78,8.52,-0.08,32.7
24111,0.2048,-0.0256,0.8971,-6.78,6.09,-0.05,32.7
24121,0.1718,-0.0284,0.9043,-6.7,7.21,-0.03,32.71
24131,0.1541,-0.0255,0.9268,-6.82,9.33,-0.11,32.71
24141,0.1562,-0.0254,0.8895,-6.87,9.92,-0.09,32.69
24151,0.2104,-0.0266,0.8635,-6.75,6.85,-0.03,32.7
24161,0.1758,-0.0302,0.8995,-6.72,5.63,0.02,32.72
24171,0.1429,-0.028,0.944,-6.75,10.31,0.02,32.72
24181,0.1846,-0.024,0.8954,-6.73,9.83,-0.03,32.71
24191,0.1958,-0.0216,0.8706,-6.67,6.58,-0.08,32.71
24201,0.1737,-0.0237,0.9048,-6.81,6.44,-0.14,32.69
24211,0.1522,-0.0249,0.9106,-6.85,8.58,-0.12,32.69
24221,0.1753,-0.0258,0.9154,-6.89,10.12,-0.06,32.72
24231,0.1941,-0.0259,0.88,-6.87,8.11,0.0,32.71
24241,0.1951,-0.0247,0.886,-6.79,6.08,-0.05,32.71
24251,0.1489,-0.0289,0.9017,-6.73,7.92,-0.03,32.71
24261,0.157,-0.0291,0.897,-6.66,9.68,0.03,32.72
24271,0.1803,-0.025,0.8705,-6.73,8.76,0.08,32.72
24281,0.1909,-0.0264,0.8632,-6.7,7.37,-0.09,32.74
24291,0.1527,-0.0219,0.9308,-6.82,7.21,-0.05,32.71
24301,0.1537,-0.0233,0.9277,-6.89,9.73,-0.06,32.73
24311,0.1989,-0.0167,0.8947,-6.92,8.78,-0.03,32.7
24321,0.1895,-0.0261,0.8809,-6.96,6.17,-0.05,32.68
24331,0.1539,-0.027,0.9219,-6.67,7.62,-0.06,32.7
24341,0.1437,-0.032,0.9128,-6.82,10.66,0.03,32.69
24351,0.2043,-0.0291,0.8699,-6.75,7.69,0.05,32.71
24361,0.188,-0.0277,0.8813,-6.64,5.94,-0.06,32.71
24371,0.161,-0.033,0.9109,-6.76,7.6,-0.09,32.7
24381,0.1484,-0.0289,0.9131,-6.79,9.92,-0.03,32.71
24391,0.1678,-0.0266,0.8929,-6.87,9.19,-0.02,32.72
24401,0.1996,-0.024,0.8776,-6.81,7.89,-0.08,32.74
24411,0.1914,-0.0276,0.8807,-6.75,5.45,-0.05,32.71
24421,0.1544,-0.0231,0.9371,-6.82,7.97,-0.06,32.7
24431,0.156,-0.0242,0.9158,-6.89,11.08,-0.02,32.72
24441,0.2095,-0.0254,0.8707,-6.72,6.9,-0.06,32.72
24451,0.173,-0.0273,0.8842,-6.69,6.18,-0.05,32.69
24461,0.1467,-0.0271,0.912,-6.75,8.72,-0.08,32.71
24471,0.1671,-0.0262,0.8806,-6.81,9.92,-0.09,32.72
24481,0.1892,-0.0276,0.8748,-6.85,6.69,-0.06,32.72
24491,0.1718,-0.0217,0.9021,-6.69,6.09,-0.05,32.72
24501,0.1538,-0.0234,0.9293,-6.73,8.35,-0.05,32.72
24511,0.1754,-0.0162,0.9226,-6.85,9.37,-0.06,32.72
24521,0.186,-0.0291,0.8967,-6.67,8.84,-0.12,32.69
24531,0.1974,-0.0227,0.9022,-6.9,6.95,-0.14,32.72
24541,0.1708,-0.0239,0.9066,-6.78,7.65,-0.11,32.7
24551,0.1475,-0.0269,0.9164,-6.96,9.6,-0.03,32.69
24561,0.1866,-0.0247,0.8601,-6.82,10.27,-0.08,32.68
24571,0.1981,-0.0326,0.8597,-6.72,5.48,-0.05,32.71
24581,0.1526,-0.0295,0.9064,-6.69,7.16,-0.05,32.7
24591,0.1534,-0.0321,0.9188,-6.76,8.89,-0.09,32.71
24601,0.1908,-0.0197,0.905,-6.76,8.6,-0.08,32.71
24611,0.1968,-0.0273,0.8965,-6.75,6.6,-0.08,32.68
24621,0.1742,-0.026,0.9249,-6.81,7.47,-0.03,32.71
24631,0.1484,-0.0309,0.9204,-6.73,10.7,-0.02,32.7
24641,0.1819,-0.035,0.8655,-6.78,9.22,-0.03,32.72
24651,0.1821,-0.0275,0.8491,-6.75,9.16,0.0,32.73
24661,0.1738,-0.0298,0.869,-6.81,5.48,-0.06,32.72
24671,0.1403,-0.025,0.9159,-6.72,8.23,0.02,32.72
24681,0.1343,-0.0286,0.9213,-6.78,8.5,0.02,32.73
24691,0.202,-0.0128,0.9026,-6.67,7.63,-0.02,32.73
24701,0.1874,-0.016,0.9164,-6.76,5.83,0.0,32.72
24711,0.1838,-0.0195,0.9326,-6.75,6.66,-0.05,32.7
24721,0.1542,-0.0229,0.9182,-7.04,11.18,-0.09,32.73
24731,0.1929,-0.0228,0.8767,-6.85,8.64,-0.08,32.71
24741,0.1812,-0.0251,0.8561,-6.84,6.32,-0.12,32.71
24751,0.1594,-0.0244,0.8875,-6.81,6.72,-0.12,32.72
24761,0.1467,-0.0267,0.9089,-6.72,9.48,0.05,32.7
24771,0.1501,-0.027,0.9111,-6.73,9.85,-0.09,32.71
24781,0.2059,-0.0254,0.8953,-6.73,6.03,-0.08,32.71
24791,0.1552,-0.0294,0.9332,-6.78,7.76,-0.09,32.72
24801,0.1622,-0.0286,0.9149,-6.9,10.53,-0.08,32.74
24811,0.1903,-0.0337,0.8621,-6.84,9.08,-0.02,32.72
24821,0.1965,-0.0336,0.8658,-6.79,6.52,-0.08,32.71
24831,0.1831,-0.0347,0.86,-6.78,5.86,0.02,32.71
24841,0.1499,-0.0328,0.9111,-6.76,8.67,0.02,32.7
24851,0.1494,-0.0267,0.915,-6.66,9.79,0.06,32.7
24861,0.1882,-0.0194,0.8932,-6.7,8.55,0.03,32.73
24871,0.1997,-0.0214,0.8916,-6.64,6.63,-0.02,32.7
24881,0.1632,-0.0209,0.9103,-6.72,6.21,-0.08,32.71
24891,0.1505,-0.0215,0.9254,-6.82,9.98,-0.12,32.71
24901,0.179,-0.02,0.8821,-6.82,9.5,-0.12,32.7
24911,0.1989,-0.0265,0.8721,-6.79,6.53,-0.11,32.71
24921,0.1576,-0.0283,0.905,-6.76,6.37,-0.06,32.73
24931,0.1543,-0.0294,0.9298,-6.72,9.07,0.03,32.72
24941,0.1725,-0.0245,0.912,-6.78,9.89,-0.06,32.7
24951,0.2102,-0.0256,0.8817,-6.73,7.42,-0.02,32.71
24961,0.1772,-0.0308,0.9047,-6.75,6.96,0.02,32.73
24971,0.1486,-0.0341,0.9038,-6.82,8.96,-0.05,32.72
24981,0.1614,-0.0303,0.8851,-6.85,10.06,-0.02,32.72
24991,0.1973,-0.0326,0.8497,-6.81,7.04,0.0,32.73
25001,0.1886,-0.0266,0.8927,-6.61,6.02,-0.12,32.73
25011,0.158,-0.0284,0.92,-6.69,7.37,-0.06,32.71
25021,0.1633,-0.0254,0.9336,-6.64,9.4,0.11,32.72
25031,0.1724,-0.0189,0.9086,-6.69,9.57,0.0,32.72
25041,0.2155,-0.0212,0.8694,-6.63,6.78,-0.02,32.72
25051,0.1722,-0.0231,0.9054,-6.81,6.67,-0.11,32.72
25061,0.1375,-0.0222,0.9167,-6.73,10.24,0.03,32.72
25071,0.1798,-0.024,0.875,-6.82,9.51,0.05,32.74
25081,0.2053,-0.0258,0.8545,-6.67,4.96,-0.06,32.72
25091,0.1591,-0.0244,0.916,-6.58,6.99,-0.05,32.72
25101,0.1433,-0.0197,0.9247,-6.75,9.89,-0.08,32.71
25111,0.1921,-0.0194,0.9038,-6.78,9.1,-0.05,32.72
25121,0.193,-0.0236,0.886,-6.85,6.4,-0.08,32.71
25131,0.1755,-0.0299,0.9055,-6.81,6.78,-0.12,32.71
25141,0.1489,-0.0282,0.9146,-6.79,8.76,-0.02,32.74
25151,0.1639,-0.0282,0.9061,-6.87,10.64,0.0,32.7
25161,0.1931,-0.0231,0.8643,-6.82,7.57,-0.02,32.7
25171,0.1835,-0.0334,0.8785,-6.78,5.44,-0.08,32.72
25181,0.1582,-0.0345,0.9196,-6.73,7.34,-0.09,32.7
25191,0.1412,-0.0306,0.9231,-6.84,8.78,0.05,32.71
25201,0.2025,-0.0243,0.8776,-6.72,8.56,0.03,32.72
25211,0.1938,-0.0294,0.8641,-6.6,6.05,-0.05,32.73
25221,0.1475,-0.0309,0.9067,-6.76,7.31,-0.03,32.72
25231,0.1523,-0.027,0.8984,-6.87,10.14,-0.05,32.71
25241,0.2089,-0.0244,0.8762,-6.76,7.89,-0.09,32.73
25251,0.1964,-0.02,0.8911,-6.72,5.5,-0.09,32.7
25261,0.153,-0.0271,0.9254,-6.73,7.69,-0.02,32.7
25271,0.152,-0.0255,0.9171,-6.76,9.48,-0.03,32.72
25281,0.1877,-0.0228,0.8909,-6.75,8.56,0.05,32.69
25292,0.1956,-0.0208,0.9021,-6.6,8.46,0.02,32.69
25302,0.1927,-0.0199,0.892,-6.72,6.63,0.03,32.69
25312,0.161,-0.0225,0.9198,-6.79,6.98,-0.08,32.69
25322,0.1487,-0.0217,0.9022,-6.9,9.77,-0.05,32.72
25332,0.1846,-0.0216,0.8813,-6.96,9.34,-0.02,32.72
25342,0.1995,-0.0201,0.8745,-6.92,6.52,-0.17,32.68
25352,0.1559,-0.0293,0.9208,-6.81,6.58,-0.09,32.72
25362,0.1509,-0.0248,0.928,-6.78,10.38,-0.08,32.69
25372,0.2026,-0.026,0.8846,-6.76,8.6,0.0,32.71
25382,0.199,-0.024,0.8929,-6.7,6.2,0.0,32.71
25392,0.1644,-0.0331,0.9005,-6.75,7.97,-0.06,32.69
25402,0.1527,-0.0353,0.9053,-6.9,9.34,-0.02,32.71
25412,0.1731,-0.0264,0.8699,-6.84,9.04,-0.08,32.71
25422,0.204,-0.0294,0.8524,-6.72,6.5,-0.05,32.69
25432,0.184,-0.0272,0.8772,-6.69,5.53,-0.03,32.68
25442,0.1357,-0.0314,0.9358,-6.61,8.53,-0.09,32.69
25452,0.1658,-0.0204,0.913,-6.67,10.05,0.03,32.71
25462,0.2065,-0.0232,0.8789,-6.7,7.05,-0.06,32.72
25472,0.1857,-0.0231,0.8988,-6.75,5.62,-0.05,32.71
25482,0.147,-0.0259,0.9226,-6.84,8.89,-0.05,32.74
25492,0.1624,-0.0258,0.9113,-6.92,10.37,-0.05,32.71
25502,0.186,-0.0223,0.8655,-6.75,7.94,-0.03,32.7
25512,0.2031,-0.0238,0.8662,-6.78,6.44,-0.02,32.72
25522,0.153,-0.0264,0.9182,-6.76,7.77,-0.11,32.72
25532,0.1526,-0.0266,0.9324,-6.64,10.34,-0.11,32.72
25542,0.1936,-0.0223,0.8971,-6.69,9.39,-0.02,32.71
25552,0.2018,-0.0237,0.8774,-6.64,6.38,0.05,32.73
25562,0.1665,-0.0271,0.9041,-6.72,6.92,-0.09,32.69
25572,0.1593,-0.028,0.902,-6.64,7.31,-0.03,32.72
25582,0.1464,-0.0292,0.927,-6.87,10.37,0.03,32.71
25592,0.1823,-0.0255,0.8738,-6.81,9.27,-0.06,32.73
25602,0.2108,-0.0242,0.8629,-6.81,5.62,-0.06,32.69
25612,0.1599,-0.0286,0.9093,-6.92,6.73,-0.08,32.7
25622,0.156,-0.0284,0.9279,-6.79,10.23,-0.05,32.72
25632,0.1917,-0.0214,0.8933,-6.78,8.67,-0.03,32.69
25642,0.189,-0.0237,0.8888,-6.72,6.7,0.0,32.69
25652,0.1621,-0.0258,0.9117,-6.75,7.77,-0.03,32.7
25662,0.1598,-0.026,0.8938,-6.84,9.44,-0.06,32.7
25672,0.1835,-0.025,0.8722,-6.85,8.38,-0.11,32.72
25682,0.1813,-0.0258,0.8624,-6.85,7.21,0.0,32.71
25692,0.1896,-0.0273,0.8801,-6.75,5.11,-0.03,32.72
25702,0.1406,-0.024,0.9277,-6.85,7.73,-0.06,32.73
25712,0.1729,-0.0225,0.9276,-6.85,10.44,0.09,32.73
25722,0.2051,-0.0205,0.8981,-6.79,7.25,-0.02,32.72
25732,0.1887,-0.0269,0.9104,-6.75,6.67,-0.08,32.71
25742,0.1436,-0.031,0.933,-6.92,9.05,-0.08,32.71
25752,0.1626,-0.0306,0.8918,-6.93,10.24,-0.09,32.7
25762,0.1964,-0.0332,0.8533,-6.75,8.23,-0.05,32.71
25772,0.1849,-0.0306,0.8417,-6.76,5.66,-0.09,32.69
25782,0.1531,-0.0344,0.8992,-6.69,6.89,-0.08,32.69
25792,0.1443,-0.0264,0.9171,-6.84,9.07,-0.05,32.68
25802,0.1923,-0.0188,0.9127,-6.7,8.87,-0.02,32.69
25812,0.2117,-0.0193,0.9008,-6.82,5.69,-0.08,32.72
25822,0.1682,-0.0238,0.9329,-6.84,7.69,-0.08,32.71
25832,0.1445,-0.0271,0.9254,-6.84,10.89,-0.08,32.7
25842,0.1786,-0.0309,0.8588,-6.72,9.31,-0.09,32.71
25852,0.1936,-0.0253,0.85,-6.69,6.02,-0.03,32.72
25862,0.1718,-0.0267,0.8674,-6.76,5.82,-0.03,32.74
25872,0.1512,-0.0272,0.9246,-6.73,8.11,-0.08,32.74
25882,0.1626,-0.0214,0.9193,-6.87,9.6,0.05,32.7
25892,0.2036,-0.0205,0.8978,-6.7,7.44,0.02,32.71
25902,0.1887,-0.0187,0.9049,-6.79,5.63,-0.12,32.71
25912,0.1581,-0.024,0.944,-6.9,8.85,-0.05,32.71
25922,0.1598,-0.0231,0.9253,-6.96,10.84,-0.05,32.7
25932,0.1863,-0.0262,0.8773,-6.9,9.47,0.03,32.7
25942,0.2,-0.0262,0.8607,-6.76,5.86,-0.14,32.71
25952,0.1527,-0.0267,0.8889,-6.72,7.24,0.05,32.7
25962,0.1599,-0.0251,0.9037,-6.81,9.65,-0.05,32.7
25972,0.1907,-0.021,0.875,-6.78,8.05,0.0,32.72
25982,0.1991,-0.0206,0.896,-6.81,6.09,-0.03,32.71
25992,0.1653,-0.0273,0.9155,-6.82,7.15,-0.08,32.72
26002,0.1737,-0.0245,0.9147,-6.99,7.33,-0.14,32.71
26012,0.1781,-0.0248,0.882,-6.89,10.23,0.0,32.72
26022,0.207,-0.0304,0.8507,-6.79,6.64,-0.08,32.72
26032,0.1671,-0.0389,0.8796,-6.76,6.03,0.0,32.71
26042,0.139,-0.0406,0.9023,-6.58,8.69,0.0,32.69
26052,0.163,-0.036,0.8967,-6.76,9.53,0.05,32.72
26062,0.2062,-0.0325,0.8571,-6.67,6.6,-0.03,32.73
26072,0.1775,-0.0272,0.9005,-6.67,5.85,-0.06,32.72
26082,0.1484,-0.0297,0.926,-6.79,8.75,-0.09,32.71
26092,0.1664,-0.0234,0.9219,-6.79,9.4,0.02,32.72
26102,0.1934,-0.0178,0.8878,-6.85,8.05,-0.12,32.71
26112,0.1964,-0.0184,0.8879,-6.75,6.21,-0.11,32.72
26122,0.1562,-0.0145,0.9279,-6.76,7.33,-0.05,32.7
26132,0.1506,-0.0143,0.9323,-6.72,10.49,0.02,32.74
26142,0.1952,-0.0133,0.8927,-6.75,8.56,-0.11,32.71
26152,0.1948,-0.0232,0.8765,-6.7,5.57,-0.02,32.72
26162,0.1564,-0.0264,0.923,-6.9,8.08,-0.08,32.73
26172,0.1508,-0.0289,0.9041,-6.98,10.76,-0.02,32.72
26182,0.1903,-0.0323,0.8707,-6.96,8.85,-0.02,32.69
26192,0.1956,-0.0322,0.8501,-6.87,5.31,-0.02,32.71
26202,0.1654,-0.0336,0.9011,-6.7,6.6,0.02,32.71
26212,0.1483,-0.0325,0.9153,-6.76,9.08,0.0,32.72
26222,0.1782,-0.0297,0.901,-6.84,9.79,-0.12,32.71
26232,0.2031,-0.0287,0.8812,-6.66,6.58,0.0,32.71
26242,0.1766,-0.0304,0.9148,-6.81,6.09,-0.06,32.7
26252,0.1569,-0.0254,0.9396,-6.87,9.22,-0.05,32.72
26262,0.1743,-0.02,0.896,-6.82,10.41,-0.09,32.72
26272,0.197,-0.0238,0.8729,-6.73,7.91,-0.05,32.69
26282,0.1671,-0.0295,0.8656,-6.75,6.17,0.03,32.71
26292,0.1439,-0.0236,0.9023,-6.82,7.83,-0.02,32.72
26302,0.157,-0.0166,0.9027,-6.79,9.13,-0.02,32.71
26312,0.1956,-0.0153,0.9081,-6.79,8.38,-0.05,32.73
26322,0.208,-0.0181,0.9028,-6.73,6.09,-0.03,32.72
26332,0.1915,-0.0243,0.9147,-6.9,5.33,-0.02,32.73
26342,0.1553,-0.0244,0.9237,-6.9,11.4,-0.06,32.7
26352,0.1537,-0.0282,0.9069,-6.92,11.62,-0.09,32.73
26362,0.1992,-0.0308,0.8522,-6.84,8.21,-0.09,32.7
26372,0.1777,-0.0361,0.8523,-6.76,6.2,-0.18,32.69
26382,0.157,-0.0378,0.8878,-6.72,7.08,0.0,32.72
26392,0.1497,-0.0348,0.9004,-6.75,9.19,0.03,32.7
26402,0.1919,-0.0276,0.8888,-6.66,8.02,0.0,32.73
26412,0.1973,-0.0225,0.8986,-6.72,6.12,-0.03,32.72
26422,0.1621,-0.0265,0.9441,-6.87,7.42,-0.06,32.73
26432,0.158,-0.0231,0.9432,-6.82,10.21,-0.06,32.72
26442,0.1873,-0.0229,0.8906,-6.89,9.97,-0.11,32.7
26452,0.2057,-0.0221,0.8668,-6.79,6.58,-0.11,32.7
26462,0.1661,-0.0299,0.8718,-6.66,6.37,0.06,32.69
26472,0.1444,-0.03,0.9154,-6.73,8.4,0.05,32.71
26482,0.1602,-0.0223,0.8962,-6.75,9.45,0.06,32.72
26492,0.209,-0.0165,0.8831,-6.84,6.47,-0.09,32.73
26502,0.1824,-0.0192,0.9095,-6.78,6.26,-0.03,32.71
26512,0.1508,-0.0244,0.9581,-6.98,8.95,0.05,32.7
26522,0.1661,-0.0198,0.9268,-6.96,10.99,-0.09,32.73
26532,0.2015,-0.0262,0.8711,-7.02,8.29,-0.02,32.72
26542,0.1956,-0.0281,0.8649,-6.82,5.76,0.02,32.73
26552,0.1484,-0.0336,0.8936,-6.7,8.17,-0.05,32.72
26562,0.1548,-0.0317,0.9043,-6.7,9.92,0.02,32.71
26572,0.1929,-0.0304,0.875,-6.7,8.0,0.0,32.71
26582,0.2015,-0.0299,0.8899,-6.78,5.31,0.0,32.7
26592,0.1625,-0.0283,0.9053,-6.87,7.44,-0.11,32.71
26602,0.1483,-0.0311,0.9171,-6.93,10.5,-0.02,32.7
26612,0.1917,-0.0258,0.8698,-6.96,8.67,0.0,32.7
26622,0.1912,-0.028,0.8732,-6.85,5.88,0.03,32.72
26632,0.1689,-0.0262,0.9071,-6.64,6.58,-0.03,32.7
26642,0.1476,-0.0267,0.9258,-6.72,9.18,-0.02,32.7
26652,0.1825,-0.0219,0.9071,-6.7,9.5,-0.06,32.72
26662,0.1979,-0.0253,0.88,-6.72,7.53,-0.05,32.7
26672,0.1852,-0.0258,0.8962,-6.76,5.62,-0.08,32.69
26682,0.1416,-0.0248,0.9126,-6.87,8.58,0.03,32.72
26692,0.1586,-0.0255,0.8959,-6.92,10.27,0.12,32.69
26702,0.1971,-0.0208,0.8622,-6.85,6.99,0.03,32.72
26712,0.1683,-0.0243,0.9095,-6.84,6.15,-0.05,32.72
26722,0.1555,-0.0195,0.9407,-6.78,8.67,-0.05,32.72
26732,0.168,-0.0211,0.9318,-6.81,10.05,-0.12,32.7
26742,0.2107,-0.0189,0.8904,-6.81,7.83,-0.05,32.71
26752,0.192,-0.025,0.8853,-6.76,6.58,-0.11,32.71
26762,0.1545,-0.0325,0.9103,-6.82,8.09,0.03,32.71
26772,0.1536,-0.027,0.8972,-6.84,10.21,-0.06,32.7
26782,0.1969,-0.0233,0.865,-6.9,8.5,0.0,32.72
26792,0.1964,-0.0271,0.855,-6.79,5.37,-0.08,32.72
26802,0.1478,-0.0302,0.9043,-6.7,6.95,-0.08,32.71
26812,0.1461,-0.0214,0.9177,-6.72,10.02,-0.03,32.72
26822,0.1842,-0.0215,0.8959,-6.6,8.81,-0.11,32.71
26832,0.2145,-0.0209,0.884,-6.73,5.83,-0.08,32.72
26842,0.1691,-0.0247,0.918,-6.84,6.69,-0.03,32.69
26852,0.1508,-0.025,0.9396,-6.96,10.14,0.02,32.7
26862,0.179,-0.0234,0.8883,-6.89,9.88,-0.02,32.68
26872,0.2008,-0.0284,0.8679,-6.82,6.11,0.0,32.7
26882,0.1621,-0.0275,0.8967,-6.76,6.56,-0.05,32.7
26892,0.1466,-0.0275,0.9155,-6.79,9.68,0.05,32.71
26902,0.1685,-0.028,0.8947,-6.73,10.0,0.02,32.73
26912,0.2001,-0.0247,0.8701,-6.78,6.9,-0.09,32.72
26922,0.1819,-0.0283,0.8917,-6.84,5.5,0.06,32.71
26932,0.1453,-0.0253,0.931,-6.99,8.9,-0.08,32.7
26942,0.1736,-0.0242,0.9224,-6.95,10.96,-0.08,32.72
26952,0.2029,-0.0254,0.8732,-6.92,7.37,0.0,32.72
26962,0.1848,-0.0278,0.8922,-6.84,6.08,-0.02,32.72
26972,0.145,-0.0303,0.9104,-6.84,8.6,0.02,32.71
26982,0.1656,-0.0244,0.9031,-6.67,9.8,-0.06,32.71
26992,0.1975,-0.0278,0.8658,-6.75,8.27,-0.05,32.69
27002,0.1887,-0.0256,0.8716,-6.76,6.14,0.0,32.7
27012,0.1548,-0.0294,0.9204,-6.75,7.68,-0.03,32.7
27022,0.153,-0.0226,0.9304,-6.92,9.85,-0.05,32.71
27032,0.1953,-0.0195,0.8896,-6.87,9.21,-0.09,32.7
27042,0.1921,-0.0217,0.8772,-6.87,5.89,-0.03,32.72
27052,0.1619,-0.0239,0.9182,-6.79,7.39,0.02,32.72
27062,0.141,-0.028,0.9247,-6.72,10.14,-0.02,32.72
27072,0.1858,-0.0236,0.9064,-6.67,8.95,-0.06,32.69
27082,0.2028,-0.0237,0.8865,-6.81,7.11,-0.03,32.7
27092,0.184,-0.0256,0.9038,-6.79,6.61,-0.06,32.71
27102,0.1599,-0.0271,0.9156,-6.75,7.22,-0.08,32.7
27112,0.1404,-0.0338,0.8983,-6.85,10.0,0.0,32.7
27122,0.1743,-0.0291,0.8661,-6.85,9.34,-0.05,32.73
27132,0.1946,-0.0293,0.8464,-6.9,6.11,0.03,32.73
27142,0.1664,-0.0293,0.9095,-6.76,6.67,0.05,32.71
27152,0.1483,-0.0262,0.937,-6.84,9.04,-0.05,32.69
27162,0.1843,-0.0261,0.9241,-6.76,9.53,-0.02,32.71
27172,0.2073,-0.0247,0.8857,-6.69,6.81,-0.06,32.74
27182,0.1715,-0.0282,0.901,-6.75,7.1,0.02,32.73
27192,0.1392,-0.0339,0.9072,-6.81,9.71,-0.08,32.72
27202,0.1597,-0.03,0.875,-6.92,9.4,-0.02,32.71
27212,0.2015,-0.0236,0.8552,-6.78,7.08,-0.05,32.7
27222,0.1823,-0.0269,0.8785,-6.73,4.49,-0.05,32.71
27232,0.1492,-0.0228,0.9464,-6.78,8.31,-0.14,32.72
27242,0.1606,-0.0234,0.9381,-6.89,10.4,0.02,32.7
27252,0.212,-0.0226,0.9088,-6.76,8.06,-0.06,32.69
27262,0.1873,-0.0248,0.8977,-6.76,6.2,-0.09,32.68
27272,0.1586,-0.027,0.9108,-6.81,8.52,-0.05,32.7
27282,0.1522,-0.0271,0.8961,-6.92,9.95,-0.08,32.73
27292,0.171,-0.0261,0.8828,-6.87,9.22,-0.05,32.72
27302,0.2001,-0.0242,0.8654,-6.79,6.93,-0.03,32.74
27312,0.1715,-0.0262,0.9056,-6.78,5.98,-0.08,32.71
27322,0.1545,-0.0201,0.9435,-6.75,9.34,-0.08,32.74
27332,0.1792,-0.0259,0.9065,-6.75,9.98,-0.09,32.7
27342,0.2081,-0.0247,0.886,-6.73,7.16,-0.05,32.72
27352,0.1735,-0.0323,0.9004,-6.79,6.49,-0.09,32.72
27362,0.1455,-0.0315,0.9124,-6.9,9.44,-0.06,32.71
27372,0.1677,-0.0304,0.8584,-6.69,10.23,0.02,32.7
