t_ms,accel_x_g,accel_y_g,accel_z_g,gyro_x_dps,gyro_y_dps,gyro_z_dps,imu_temp_c
3289,0.1534,-0.2195,0.8668,-6.21,7.94,-0.03,21.23
3300,0.1508,-0.2178,0.8654,-6.11,7.79,-0.05,21.22
3310,0.1517,-0.2128,0.8633,-5.86,7.6,-0.08,21.24
3320,0.1512,-0.2114,0.8674,-5.83,7.56,-0.08,21.23
3330,0.1538,-0.2117,0.8662,-5.94,7.5,-0.11,21.24
3340,0.1562,-0.2103,0.869,-6.14,7.68,-0.11,21.23
3350,0.1584,-0.2124,0.8646,-6.2,7.94,-0.12,21.23
3360,0.1562,-0.2128,0.8665,-6.27,8.11,0.0,21.24
3370,0.1536,-0.2163,0.8715,-6.26,8.03,-0.02,21.21
3380,0.1508,-0.2194,0.8674,-6.32,7.79,-0.05,21.24
3390,0.1533,-0.2213,0.8669,-6.29,7.48,-0.03,21.24
3400,0.1591,-0.2228,0.8702,-6.26,7.59,-0.09,21.22
3410,0.1595,-0.2222,0.8674,-6.11,7.97,0.0,21.24
3420,0.1559,-0.2238,0.8707,-6.08,8.05,0.02,21.24
3430,0.1536,-0.2205,0.8676,-6.12,7.88,-0.06,21.25
3440,0.1519,-0.2192,0.8683,-6.14,7.5,-0.09,21.25
3450,0.1522,-0.2203,0.8641,-6.32,7.25,-0.15,21.23
3460,0.1549,-0.2189,0.8588,-6.23,7.59,-0.08,21.25
3470,0.1555,-0.219,0.8622,-6.2,7.95,0.02,21.25
3480,0.1519,-0.2173,0.8617,-6.06,8.12,0.02,21.23
3490,0.1536,-0.2137,0.8619,-6.05,7.82,-0.05,21.24
3500,0.1527,-0.2155,0.8673,-5.92,7.44,-0.11,21.22
3510,0.1545,-0.2169,0.8701,-5.89,7.31,-0.08,21.23
3520,0.1603,-0.2146,0.8663,-6.18,7.57,-0.09,21.21
3530,0.1572,-0.2166,0.868,-6.23,7.95,0.02,21.24
3540,0.158,-0.2195,0.8665,-6.27,8.21,-0.02,21.22
3550,0.153,-0.2177,0.8674,-6.14,8.12,-0.03,21.25
3560,0.1552,-0.22,0.8673,-6.18,7.73,-0.06,21.27
3570,0.1561,-0.2185,0.8643,-6.11,7.45,-0.11,21.22
3580,0.1578,-0.2205,0.8647,-6.17,7.54,-0.12,21.26
3590,0.158,-0.222,0.8647,-6.27,7.95,0.0,21.26
3600,0.1537,-0.2224,0.8647,-6.08,8.12,-0.03,21.25
3610,0.1547,-0.2188,0.8677,-6.02,8.02,0.0,21.25
3620,0.1501,-0.2206,0.8682,-5.92,7.71,-0.03,21.27
3630,0.1543,-0.2178,0.8707,-5.92,7.39,-0.02,21.28
3640,0.1569,-0.2179,0.8668,-6.08,7.47,-0.08,21.24
3650,0.1566,-0.2161,0.8673,-6.32,7.79,0.0,21.24
3660,0.1512,-0.2183,0.8705,-6.24,8.05,0.0,21.27
3670,0.1536,-0.2179,0.8645,-6.14,8.08,0.03,21.26
3680,0.1539,-0.2191,0.868,-6.05,7.77,-0.02,21.27
3690,0.1549,-0.2179,0.8645,-5.98,7.45,-0.06,21.27
3700,0.1567,-0.2184,0.8656,-5.94,7.45,-0.02,21.26
3710,0.1554,-0.2151,0.865,-6.11,7.76,-0.02,21.25
3720,0.1542,-0.2164,0.8677,-6.17,7.97,-0.05,21.27
3730,0.1517,-0.2157,0.8684,-6.18,7.95,0.02,21.27
3740,0.1532,-0.2156,0.8683,-6.06,7.76,-0.08,21.24
3750,0.1509,-0.2174,0.8624,-5.98,7.4,-0.17,21.24
3760,0.1556,-0.2142,0.8702,-5.98,7.37,-0.11,21.26
3770,0.1564,-0.2131,0.8691,-6.0,7.76,-0.12,21.27
3780,0.1576,-0.213,0.8679,-6.27,8.05,-0.03,21.28
3790,0.1547,-0.2174,0.8669,-6.26,7.97,0.03,21.25
3800,0.1528,-0.2179,0.8636,-6.18,7.66,-0.09,21.29
3810,0.1508,-0.2179,0.8663,-6.14,7.5,-0.11,21.26
3820,0.1548,-0.217,0.8654,-6.18,7.53,-0.14,21.27
3830,0.156,-0.2179,0.8649,-6.08,7.79,0.02,21.28
3840,0.1514,-0.2167,0.8696,-6.17,7.97,0.06,21.27
3850,0.153,-0.2152,0.8715,-6.17,8.05,0.09,21.26
3860,0.1527,-0.2163,0.8655,-6.08,7.79,0.11,21.24
3870,0.1523,-0.2183,0.8663,-6.21,7.63,-0.08,21.27
3880,0.1555,-0.2211,0.8646,-6.2,7.65,-0.06,21.28
3890,0.1571,-0.2162,0.8673,-6.09,7.65,0.02,21.27
3900,0.157,-0.2147,0.8649,-5.95,7.76,-0.11,21.27
3910,0.1533,-0.2152,0.8646,-6.02,7.8,-0.08,21.29
3920,0.1548,-0.2152,0.8672,-5.92,7.73,-0.05,21.28
3930,0.1556,-0.2136,0.8687,-6.03,7.59,-0.05,21.27
3940,0.1583,-0.2142,0.8676,-6.18,7.62,-0.02,21.24
3950,0.1571,-0.2133,0.8704,-6.34,7.66,-0.05,21.28
3960,0.1556,-0.2131,0.8713,-6.27,7.74,-0.08,21.28
3970,0.1569,-0.2148,0.8672,-6.14,7.83,-0.11,21.27
3980,0.1588,-0.2134,0.8687,-6.21,7.79,-0.14,21.29
3990,0.1552,-0.2184,0.8665,-6.2,7.71,-0.11,21.29
4000,0.1543,-0.2194,0.8727,-6.21,7.66,-0.11,21.27
4010,0.1565,-0.218,0.8699,-6.29,7.76,-0.14,21.27
4020,0.1569,-0.2212,0.8646,-6.26,7.86,-0.12,21.3
4030,0.1555,-0.2217,0.8638,-6.21,7.83,-0.05,21.3
4040,0.1501,-0.2245,0.8672,-6.18,7.86,-0.15,21.29
4050,0.1499,-0.2189,0.8656,-6.06,7.89,-0.09,21.29
4060,0.1525,-0.2205,0.8676,-6.14,7.73,-0.12,21.3
4070,0.1547,-0.2205,0.8667,-6.17,7.71,-0.09,21.29
4080,0.1543,-0.2216,0.8627,-6.21,7.74,-0.08,21.29
4090,0.1566,-0.2206,0.8654,-6.11,7.74,-0.08,21.29
4100,0.1569,-0.218,0.8641,-6.06,7.68,-0.06,21.29
4110,0.1549,-0.2219,0.866,-6.03,7.71,-0.09,21.27
4120,0.155,-0.2169,0.8673,-6.02,7.69,-0.08,21.26
4130,0.1569,-0.2178,0.8668,-6.02,7.77,0.02,21.28
4140,0.1548,-0.2198,0.8672,-6.14,7.74,-0.06,21.28
4150,0.155,-0.2189,0.8645,-6.17,7.82,-0.05,21.29
4160,0.1517,-0.2175,0.8634,-6.14,7.79,0.0,21.28
4170,0.1537,-0.2168,0.8643,-6.02,7.85,0.02,21.3
4180,0.1534,-0.2178,0.8674,-5.94,7.82,-0.02,21.29
4190,0.1521,-0.219,0.8687,-5.97,7.73,-0.02,21.28
4200,0.1549,-0.218,0.8663,-6.09,7.76,-0.03,21.27
4210,0.1542,-0.2168,0.8683,-6.08,7.77,-0.03,21.28
4220,0.1547,-0.2162,0.8678,-6.15,7.76,-0.11,21.27
4230,0.1543,-0.2175,0.8665,-6.23,7.79,-0.08,21.27
4240,0.1548,-0.2167,0.8633,-6.21,7.65,-0.09,21.29
4250,0.1555,-0.2189,0.8657,-5.95,7.66,-0.14,21.29
4260,0.1565,-0.2156,0.8619,-5.97,7.71,-0.14,21.26
4270,0.1578,-0.2157,0.8708,-6.08,7.82,-0.06,21.32
4280,0.1561,-0.2162,0.8687,-6.06,7.85,-0.08,21.32
4291,0.1556,-0.2168,0.8677,-6.23,7.73,-0.09,21.27
4301,0.1565,-0.2186,0.8696,-6.26,7.65,-0.06,21.27
4311,0.1531,-0.2172,0.8735,-6.15,7.66,-0.11,21.28
4321,0.1584,-0.2157,0.8615,-6.06,7.77,-0.08,21.31
4331,0.1538,-0.2186,0.8704,-6.08,7.89,-0.08,21.27
4341,0.1567,-0.2189,0.8654,-6.11,7.94,-0.03,21.27
4351,0.1556,-0.2183,0.8682,-6.24,7.77,-0.03,21.3
4361,0.1494,-0.2192,0.8698,-6.31,7.83,-0.14,21.31
4371,0.1555,-0.2201,0.866,-6.24,7.69,-0.08,21.32
4381,0.1538,-0.2222,0.8622,-6.17,7.63,-0.08,21.3
4391,0.1545,-0.2189,0.8649,-6.05,7.71,-0.05,21.3
4401,0.1542,-0.2203,0.8649,-6.09,7.73,-0.06,21.32
4411,0.1572,-0.2166,0.8651,-6.0,7.6,-0.02,21.31
4421,0.1545,-0.2151,0.8672,-5.98,7.63,0.0,21.31
4431,0.1559,-0.2167,0.8661,-6.09,7.68,-0.09,21.31
4441,0.1512,-0.2188,0.8663,-6.17,7.71,-0.12,21.3
4451,0.1516,-0.2156,0.8651,-6.18,7.73,-0.12,21.31
4461,0.1559,-0.2183,0.8704,-6.06,7.71,-0.08,21.32
4471,0.1543,-0.2164,0.8679,-6.17,7.77,-0.14,21.31
4481,0.1555,-0.2202,0.8678,-6.09,7.82,-0.06,21.31
4491,0.1561,-0.219,0.8679,-6.31,7.83,-0.05,21.3
4501,0.1565,-0.2241,0.8643,-6.17,7.85,-0.05,21.32
4511,0.151,-0.22,0.8671,-6.17,7.8,-0.03,21.31
4521,0.1497,-0.2166,0.8674,-6.06,7.71,-0.06,21.31
4531,0.1504,-0.2157,0.8662,-6.08,7.73,0.03,21.32
4541,0.1527,-0.2167,0.8685,-6.12,7.65,-0.03,21.31
4551,0.1534,-0.2173,0.8677,-6.2,7.76,-0.03,21.31
4561,0.1543,-0.22,0.8654,-6.26,7.83,-0.02,21.32
4571,0.1541,-0.2205,0.8678,-6.31,7.83,-0.05,21.33
4581,0.1559,-0.2191,0.8688,-6.14,7.89,-0.03,21.33
4591,0.1561,-0.2214,0.8728,-6.06,7.76,-0.08,21.32
4601,0.1555,-0.2168,0.8669,-6.05,7.65,-0.03,21.33
4611,0.1552,-0.2184,0.8676,-6.06,7.63,-0.03,21.32
4621,0.157,-0.2172,0.8669,-6.06,7.68,0.03,21.34
4631,0.1554,-0.2211,0.8646,-6.21,7.69,0.03,21.32
4641,0.1547,-0.2194,0.8649,-6.24,7.83,-0.08,21.32
4651,0.1543,-0.2202,0.8671,-6.15,7.77,-0.06,21.3
4661,0.1567,-0.2197,0.87,-6.02,7.66,-0.05,21.33
4671,0.1555,-0.218,0.8691,-5.98,7.74,-0.05,21.32
4681,0.1571,-0.2168,0.8657,-5.97,7.8,0.0,21.32
4691,0.1558,-0.2175,0.8651,-6.11,7.74,-0.09,21.31
4701,0.1542,-0.2133,0.8684,-6.12,7.79,-0.03,21.32
4711,0.1544,-0.2147,0.8698,-6.12,7.77,-0.08,21.33
4721,0.155,-0.2126,0.8638,-6.08,7.8,-0.08,21.33
4731,0.1528,-0.2178,0.8645,-6.06,7.73,0.03,21.33
4741,0.1531,-0.2137,0.8634,-6.06,7.76,-0.02,21.3
4751,0.1548,-0.2137,0.8662,-6.02,7.76,-0.12,21.34
4761,0.1543,-0.2137,0.8707,-6.15,7.74,-0.08,21.32
4771,0.1561,-0.2161,0.8727,-6.37,7.79,-0.02,21.32
4781,0.1573,-0.2198,0.8673,-6.26,7.85,-0.06,21.32
4791,0.1556,-0.2184,0.8674,-6.2,7.77,-0.02,21.32
4801,0.1533,-0.2195,0.8682,-6.15,7.77,-0.09,21.32
4811,0.153,-0.2202,0.8693,-6.09,7.76,-0.06,21.34
4821,0.156,-0.2197,0.8635,-6.02,7.66,-0.05,21.33
4831,0.1531,-0.2173,0.8672,-6.06,7.77,-0.08,21.37
4841,0.1549,-0.2167,0.8699,-6.15,7.77,-0.03,21.32
4851,0.1542,-0.218,0.8683,-6.03,7.68,-0.11,21.32
4861,0.1559,-0.2175,0.8708,-6.05,7.68,-0.03,21.32
4871,0.1548,-0.2164,0.8679,-6.12,7.71,-0.08,21.33
4881,0.1544,-0.2157,0.868,-6.18,7.69,-0.06,21.33
4891,0.155,-0.2163,0.8657,-6.24,7.77,-0.03,21.33
4901,0.1531,-0.2177,0.8638,-6.18,7.73,-0.05,21.35
4911,0.1539,-0.2184,0.8663,-6.14,7.68,0.03,21.31
4921,0.1553,-0.2178,0.8674,-6.09,7.57,-0.03,21.33
4931,0.1558,-0.2147,0.8674,-6.09,7.63,-0.05,21.32
4941,0.1547,-0.2175,0.87,-6.08,7.69,-0.11,21.34
4951,0.1554,-0.2186,0.8676,-6.09,7.76,-0.06,21.3
4961,0.1549,-0.2192,0.8679,-6.2,7.83,-0.05,21.33
4971,0.1525,-0.2178,0.8635,-6.15,7.79,-0.06,21.31
4981,0.1525,-0.2208,0.866,-6.23,7.82,-0.03,21.32
4991,0.1545,-0.2177,0.8657,-6.12,7.79,-0.08,21.32
5001,0.1554,-0.217,0.8646,-6.09,7.74,-0.11,21.33
5011,0.1552,-0.2151,0.8665,-5.98,7.68,0.02,21.33
5021,0.1553,-0.2134,0.8702,-6.06,7.69,-0.06,21.34
5031,0.1542,-0.2158,0.868,-6.18,7.68,-0.02,21.33
5041,0.1584,-0.2191,0.8677,-6.34,7.76,-0.08,21.34
5051,0.1554,-0.2169,0.8654,-6.34,7.89,-0.03,21.33
5061,0.1562,-0.2209,0.8644,-6.32,7.88,-0.09,21.33
5071,0.155,-0.2177,0.8622,-6.18,7.82,-0.03,21.33
5081,0.1538,-0.2162,0.8666,-6.03,7.69,-0.06,21.32
5091,0.1553,-0.2181,0.8662,-5.94,7.62,-0.09,21.36
5101,0.1566,-0.2172,0.8701,-6.02,7.71,-0.05,21.34
5111,0.153,-0.2201,0.871,-6.23,7.83,-0.09,21.31
5121,0.1555,-0.22,0.8669,-6.37,7.82,-0.11,21.34
5131,0.1547,-0.2208,0.8656,-6.29,7.8,-0.12,21.34
5141,0.1532,-0.2206,0.8588,-6.2,7.79,-0.09,21.33
5151,0.1547,-0.219,0.8647,-6.0,7.77,-0.08,21.32
5161,0.1506,-0.218,0.8641,-5.89,7.85,-0.05,21.35
5171,0.1539,-0.2159,0.8678,-5.97,7.74,-0.03,21.35
5181,0.1525,-0.2141,0.8701,-6.11,7.71,-0.08,21.34
5191,0.1544,-0.2159,0.8739,-6.24,7.66,-0.11,21.36
5201,0.1541,-0.2155,0.8625,-6.37,7.74,-0.09,21.38
5211,0.1559,-0.218,0.8652,-6.2,7.83,-0.05,21.37
5221,0.1555,-0.2191,0.8663,-6.09,7.83,-0.05,21.34
5231,0.1553,-0.2219,0.8668,-6.0,7.8,-0.05,21.32
5241,0.1543,-0.2183,0.8654,-6.08,7.74,-0.03,21.36
5251,0.1517,-0.2175,0.8694,-6.14,7.69,-0.14,21.33
5261,0.1536,-0.217,0.8683,-6.14,7.79,-0.05,21.35
5271,0.1526,-0.2168,0.8633,-6.18,7.85,-0.06,21.34
5281,0.1572,-0.2211,0.8669,-6.26,7.91,-0.09,21.34
5291,0.1558,-0.2208,0.8658,-6.15,7.79,-0.05,21.35
5301,0.1561,-0.222,0.8667,-6.0,7.79,-0.03,21.35
5311,0.1538,-0.2173,0.8672,-6.09,7.73,-0.05,21.35
5321,0.1533,-0.2192,0.8661,-6.03,7.69,-0.03,21.36
5331,0.1542,-0.2191,0.8702,-6.15,7.74,-0.03,21.35
5341,0.1543,-0.2169,0.8689,-6.05,7.79,-0.11,21.33
5351,0.1539,-0.2186,0.8666,-6.18,7.68,-0.06,21.37
5361,0.1566,-0.22,0.866,-6.12,7.65,-0.12,21.37
5371,0.1544,-0.2168,0.8649,-6.12,7.63,-0.06,21.36
5381,0.1559,-0.2158,0.8655,-6.06,7.79,-0.11,21.34
5391,0.158,-0.2168,0.8677,-6.06,7.91,-0.05,21.34
5401,0.1559,-0.2184,0.8683,-6.08,7.95,-0.08,21.37
5411,0.1548,-0.2156,0.8712,-6.18,7.76,-0.03,21.36
5421,0.1554,-0.2169,0.8711,-6.18,7.6,-0.08,21.35
5431,0.1526,-0.2163,0.866,-6.09,7.69,-0.06,21.36
5441,0.1536,-0.2159,0.8656,-6.14,7.8,-0.12,21.36
5451,0.1573,-0.219,0.864,-6.09,7.71,-0.03,21.35
5461,0.1526,-0.2172,0.8702,-6.05,7.85,0.0,21.33
5471,0.1533,-0.2173,0.8652,-6.12,7.86,-0.05,21.37
5481,0.1523,-0.2218,0.8687,-6.09,7.73,-0.09,21.33
5491,0.156,-0.2205,0.8662,-6.26,7.63,-0.05,21.37
5501,0.1552,-0.2185,0.8704,-6.26,7.69,-0.08,21.33
5511,0.155,-0.218,0.8699,-6.2,7.83,-0.06,21.36
5521,0.1552,-0.2201,0.8661,-6.09,7.91,-0.06,21.36
5531,0.1541,-0.2183,0.8683,-6.05,7.88,-0.09,21.37
5541,0.152,-0.2174,0.8707,-5.98,7.73,-0.06,21.34
5551,0.1511,-0.2172,0.8705,-6.14,7.63,-0.11,21.35
5561,0.1531,-0.2144,0.8685,-6.29,7.68,-0.08,21.36
5571,0.1548,-0.2155,0.8652,-6.21,7.8,-0.05,21.34
5581,0.1545,-0.2181,0.8615,-6.18,7.95,-0.06,21.37
5591,0.1553,-0.2179,0.8643,-6.11,7.94,-0.08,21.36
5601,0.1537,-0.2173,0.868,-6.06,7.76,-0.08,21.34
5611,0.1541,-0.2203,0.8701,-6.08,7.69,-0.08,21.35
5621,0.156,-0.2179,0.8687,-6.09,7.6,0.02,21.36
5631,0.157,-0.2185,0.8667,-6.2,7.73,-0.09,21.35
5641,0.1541,-0.22,0.8674,-6.24,7.86,0.03,21.37
5651,0.1547,-0.2201,0.8698,-6.23,7.89,-0.02,21.39
5661,0.1553,-0.2184,0.8654,-6.15,7.74,-0.08,21.37
5671,0.1525,-0.2196,0.8656,-6.06,7.6,-0.03,21.38
5681,0.1541,-0.2179,0.8671,-6.03,7.6,-0.06,21.38
5691,0.157,-0.2177,0.8676,-6.09,7.65,-0.06,21.38
5701,0.1549,-0.2157,0.8651,-6.14,7.74,-0.05,21.38
5711,0.1541,-0.215,0.8679,-6.14,7.74,-0.03,21.36
5721,0.1539,-0.2148,0.8663,-6.17,7.69,-0.05,21.35
5731,0.1534,-0.2137,0.8673,-6.18,7.6,-0.09,21.38
5741,0.1541,-0.2179,0.8618,-6.08,7.68,-0.08,21.36
5751,0.155,-0.2167,0.8678,-6.05,7.83,-0.03,21.36
5761,0.1542,-0.2183,0.8651,-6.2,7.97,0.02,21.37
5771,0.153,-0.2206,0.8656,-6.24,7.92,0.02,21.37
5781,0.1543,-0.2198,0.8668,-6.23,7.73,-0.08,21.37
5791,0.153,-0.2224,0.8629,-6.15,7.56,-0.12,21.35
5801,0.1566,-0.2185,0.8657,-6.02,7.63,0.0,21.38
5811,0.1542,-0.2202,0.8663,-6.03,7.76,-0.14,21.39
5821,0.1565,-0.2155,0.8655,-6.09,7.92,-0.06,21.37
5831,0.1545,-0.2203,0.8694,-6.15,7.91,-0.08,21.37
5841,0.1555,-0.2205,0.8644,-6.15,7.76,-0.06,21.37
5851,0.1572,-0.2202,0.8667,-6.14,7.62,-0.11,21.37
5861,0.1583,-0.217,0.8657,-6.12,7.63,-0.15,21.37
5871,0.1575,-0.219,0.8676,-6.11,7.85,-0.03,21.36
5881,0.1522,-0.2179,0.8668,-6.02,7.91,-0.06,21.37
5891,0.1548,-0.2181,0.8665,-6.05,7.82,-0.09,21.38
5901,0.155,-0.2167,0.8684,-6.14,7.65,-0.03,21.36
5911,0.152,-0.2179,0.8685,-6.15,7.66,-0.03,21.37
5921,0.1511,-0.2201,0.8647,-6.18,7.8,-0.05,21.37
5931,0.1541,-0.2177,0.8639,-6.23,7.86,-0.06,21.38
5941,0.1548,-0.2147,0.8661,-6.11,7.89,-0.06,21.37
5951,0.153,-0.219,0.8694,-6.14,7.8,-0.03,21.4
5961,0.1576,-0.2189,0.8682,-6.14,7.6,0.03,21.38
5971,0.1553,-0.22,0.8683,-6.12,7.51,-0.08,21.41
5981,0.1565,-0.218,0.8656,-6.2,7.63,-0.06,21.39
5991,0.1573,-0.2169,0.8647,-6.12,7.83,-0.03,21.38
6001,0.1545,-0.2184,0.8688,-6.15,7.91,-0.05,21.38
6011,0.1545,-0.2162,0.8676,-6.11,7.85,-0.08,21.4
6021,0.1533,-0.2162,0.8668,-6.06,7.68,-0.02,21.38
6031,0.1555,-0.2155,0.8698,-6.17,7.63,-0.06,21.4
6041,0.1539,-0.2175,0.8707,-6.23,7.66,-0.12,21.4
6051,0.1539,-0.2179,0.8713,-6.21,7.73,-0.17,21.39
6061,0.1562,-0.2169,0.8687,-6.2,7.8,-0.02,21.39
6071,0.1547,-0.2185,0.864,-6.06,7.83,-0.06,21.4
6081,0.1541,-0.2164,0.864,-6.03,7.83,-0.02,21.41
6091,0.1556,-0.2178,0.866,-6.11,7.74,-0.06,21.4
6101,0.1533,-0.2184,0.8623,-6.18,7.73,-0.14,21.4
6111,0.155,-0.2174,0.869,-6.32,7.82,-0.09,21.39
6121,0.1532,-0.2203,0.868,-6.2,7.83,-0.09,21.4
6131,0.156,-0.2222,0.8667,-6.12,7.86,-0.09,21.39
6141,0.1532,-0.2207,0.8651,-6.02,7.85,-0.03,21.38
6151,0.1541,-0.2173,0.8719,-6.14,7.71,-0.06,21.41
6161,0.1545,-0.2168,0.8662,-6.2,7.62,-0.05,21.39
6171,0.156,-0.2164,0.868,-6.2,7.73,-0.06,21.39
6181,0.153,-0.2183,0.8623,-6.21,7.89,-0.11,21.39
6191,0.1564,-0.2184,0.8629,-6.05,7.94,0.03,21.39
6201,0.153,-0.2234,0.8641,-6.17,7.91,-0.03,21.4
6211,0.1484,-0.2126,0.8661,-6.14,7.8,-0.03,21.4
6221,0.1544,-0.2162,0.8678,-5.97,7.45,-0.08,21.38
6231,0.1536,-0.2095,0.8645,-5.98,7.39,-0.15,21.39
6241,0.1552,-0.2164,0.8678,-6.12,7.68,-0.02,21.38
6251,0.1577,-0.2172,0.8687,-6.44,8.11,-0.08,21.39
6261,0.1553,-0.2195,0.8617,-6.47,8.17,0.02,21.39
6271,0.1566,-0.2214,0.8624,-6.27,7.91,-0.06,21.39
6281,0.1566,-0.2189,0.8657,-5.98,7.51,-0.05,21.37
6291,0.1564,-0.2137,0.868,-5.85,7.4,-0.09,21.39
6301,0.1548,-0.2147,0.8698,-5.97,7.68,0.05,21.39
6311,0.1541,-0.2189,0.8649,-6.24,7.92,-0.05,21.39
6321,0.151,-0.2141,0.8622,-6.34,7.98,0.0,21.4
6331,0.1531,-0.2172,0.8654,-6.32,7.82,-0.11,21.38
6341,0.1519,-0.22,0.8667,-6.14,7.57,-0.09,21.39
6351,0.157,-0.2181,0.8657,-6.05,7.59,-0.12,21.4
6361,0.1591,-0.2185,0.8705,-6.09,7.74,-0.05,21.4
6371,0.1586,-0.2203,0.8721,-6.14,7.92,-0.06,21.39
6381,0.1571,-0.2188,0.8723,-6.35,7.97,-0.06,21.39
6391,0.1523,-0.2192,0.8666,-6.24,7.8,0.0,21.41
6401,0.1533,-0.2208,0.8695,-6.17,7.73,-0.02,21.38
6411,0.1556,-0.2188,0.869,-5.95,7.62,-0.06,21.4
6421,0.153,-0.2184,0.8665,-5.97,7.74,-0.02,21.38
6431,0.1547,-0.2189,0.8661,-6.09,7.82,-0.03,21.4
6445,0.1519,-0.219,0.866,-5.94,7.79,-0.99,21.4
6455,0.1531,-0.2196,0.8667,-6.18,7.89,-0.15,21.39
6465,0.157,-0.2174,0.8652,-6.21,7.68,-0.06,21.39
6475,0.1562,-0.219,0.8634,-6.03,7.59,0.0,21.4
6485,0.1552,-0.2174,0.8676,-6.03,7.6,-0.08,21.4
6495,0.1575,-0.2152,0.8641,-6.03,7.68,-0.03,21.4
6505,0.156,-0.2181,0.8711,-6.06,7.85,-0.03,21.41
6515,0.1552,-0.2157,0.8671,-6.24,7.8,0.02,21.43
6525,0.1544,-0.2159,0.8657,-6.24,7.83,0.0,21.41
6535,0.1541,-0.2189,0.8662,-6.24,7.68,-0.11,21.39
6545,0.1552,-0.2173,0.8645,-6.2,7.68,-0.12,21.4
6555,0.1548,-0.2163,0.8682,-6.08,7.69,-0.08,21.4
6565,0.158,-0.2166,0.8658,-6.11,7.76,-0.09,21.39
6575,0.1531,-0.2177,0.8679,-6.08,7.79,0.05,21.4
6585,0.1525,-0.2174,0.8679,-6.12,7.73,-0.08,21.38
6595,0.1542,-0.2158,0.8673,-6.26,7.73,-0.12,21.42
6605,0.1543,-0.2189,0.8688,-6.35,7.68,-0.09,21.41
6615,0.1564,-0.2181,0.8601,-6.15,7.86,-0.05,21.41
6625,0.1542,-0.2181,0.8663,-6.17,7.85,-0.05,21.39
6635,0.1541,-0.2195,0.8694,-6.06,7.85,-0.09,21.41
6645,0.1531,-0.2207,0.8688,-6.05,7.76,0.05,21.4
6655,0.1553,-0.2186,0.8685,-6.17,7.69,-0.06,21.41
6665,0.1572,-0.2191,0.8663,-6.23,7.69,-0.12,21.4
6675,0.1571,-0.2206,0.8657,-6.23,7.82,-0.05,21.4
6685,0.1581,-0.2234,0.8698,-6.06,7.88,-0.09,21.38
6695,0.1527,-0.219,0.8661,-6.11,7.85,-0.03,21.4
6705,0.1552,-0.2195,0.8683,-6.2,7.88,0.02,21.41
6715,0.1544,-0.2192,0.8657,-6.17,7.76,0.02,21.4
6725,0.151,-0.2179,0.8638,-6.15,7.69,-0.06,21.41
6735,0.1547,-0.2195,0.8662,-6.17,7.69,-0.05,21.41
6745,0.1553,-0.2192,0.8644,-6.03,7.71,-0.12,21.43
6755,0.1554,-0.2174,0.8674,-6.0,7.8,-0.09,21.44
6765,0.1543,-0.2162,0.8665,-6.03,7.79,-0.02,21.41
6775,0.1569,-0.2164,0.8691,-6.12,7.73,-0.03,21.4
6785,0.1542,-0.2184,0.8702,-6.2,7.79,0.03,21.41
6795,0.1549,-0.2192,0.865,-6.31,7.85,-0.05,21.39
6805,0.1564,-0.219,0.8655,-6.32,7.85,-0.03,21.42
6815,0.1537,-0.2175,0.8658,-6.2,7.82,-0.03,21.42
6825,0.1526,-0.2185,0.864,-6.09,7.68,-0.02,21.44
6835,0.156,-0.2169,0.8649,-6.06,7.71,-0.08,21.4
6845,0.1559,-0.2152,0.8651,-6.06,7.68,-0.03,21.4
6855,0.1512,-0.2156,0.8683,-6.14,7.85,-0.03,21.41
6865,0.1558,-0.2164,0.8662,-6.21,7.89,-0.08,21.42
6875,0.1567,-0.219,0.8663,-6.35,7.83,-0.12,21.41
6885,0.1583,-0.2202,0.8655,-6.24,7.8,-0.09,21.43
6895,0.1604,-0.2203,0.8641,-6.17,7.79,-0.05,21.4
6905,0.157,-0.219,0.8672,-6.02,7.77,0.0,21.41
6915,0.1571,-0.2219,0.8735,-5.98,7.8,-0.02,21.44
6925,0.1581,-0.2202,0.8694,-5.97,7.71,-0.02,21.42
6935,0.1549,-0.2156,0.8712,-6.09,7.65,-0.18,21.42
6945,0.1533,-0.2172,0.8657,-6.15,7.66,-0.14,21.41
6955,0.1528,-0.2184,0.8679,-6.18,7.69,-0.12,21.42
6965,0.1578,-0.2196,0.8643,-6.15,7.83,-0.09,21.42
6975,0.1539,-0.2179,0.8729,-6.05,7.8,-0.11,21.42
6985,0.1539,-0.2169,0.8679,-6.06,7.74,-0.09,21.42
6995,0.1531,-0.2183,0.8718,-6.08,7.63,-0.08,21.42
7005,0.1525,-0.217,0.865,-5.97,7.56,-0.02,21.39
7015,0.152,-0.2148,0.868,-6.05,7.59,-0.09,21.42
7025,0.1554,-0.2162,0.8677,-6.09,7.77,-0.08,21.4
7035,0.1525,-0.2158,0.8656,-6.18,7.77,-0.09,21.45
7045,0.1527,-0.217,0.8695,-6.05,7.97,0.02,21.41
7055,0.152,-0.2152,0.8733,-6.14,7.91,-0.06,21.43
7065,0.1521,-0.2183,0.8687,-6.26,7.74,-0.08,21.43
7075,0.1543,-0.2192,0.864,-6.26,7.73,-0.14,21.41
7085,0.1512,-0.2192,0.8671,-6.23,7.73,0.0,21.44
7095,0.1554,-0.219,0.8646,-6.18,7.73,0.03,21.4
7105,0.1559,-0.2179,0.8649,-6.15,7.88,0.0,21.43
7115,0.1533,-0.2155,0.8668,-6.08,7.82,0.0,21.42
7125,0.1545,-0.215,0.8615,-6.15,7.71,0.0,21.44
7135,0.1561,-0.2175,0.8661,-6.27,7.74,0.0,21.42
7145,0.1566,-0.2161,0.8658,-6.31,7.77,-0.03,21.44
7155,0.1592,-0.2174,0.8657,-6.26,7.83,-0.05,21.42
7165,0.1555,-0.2169,0.8597,-6.2,7.83,-0.06,21.43
7175,0.1564,-0.2195,0.8655,-6.05,7.74,-0.09,21.42
7185,0.1549,-0.2216,0.868,-6.0,7.63,-0.03,21.44
7195,0.1548,-0.2188,0.8683,-6.0,7.59,-0.05,21.42
7205,0.1554,-0.2188,0.8705,-6.11,7.59,-0.02,21.44
7215,0.1567,-0.2159,0.8682,-6.18,7.77,-0.08,21.43
7225,0.1548,-0.2189,0.8693,-6.26,7.82,-0.05,21.43
7235,0.1547,-0.2162,0.8676,-6.09,7.86,-0.05,21.43
7245,0.1541,-0.2202,0.87,-6.06,7.76,0.0,21.43
7255,0.1581,-0.22,0.8726,-6.15,7.74,-0.06,21.42
7265,0.1572,-0.2183,0.8724,-6.18,7.63,-0.03,21.42
7275,0.1581,-0.2202,0.871,-6.18,7.77,-0.11,21.42
7285,0.1559,-0.2162,0.8656,-6.2,7.85,-0.02,21.43
7295,0.1566,-0.2185,0.8705,-6.12,7.92,-0.06,21.44
7305,0.1528,-0.2185,0.8669,-6.17,7.85,-0.08,21.44
7315,0.1541,-0.2168,0.8712,-6.17,7.77,-0.09,21.41
7325,0.153,-0.2185,0.8677,-6.14,7.65,-0.06,21.42
7335,0.1539,-0.2217,0.8671,-6.15,7.65,-0.05,21.42
7345,0.1531,-0.2162,0.8671,-6.2,7.76,-0.11,21.41
7355,0.1564,-0.2168,0.8661,-6.2,7.82,-0.05,21.43
7365,0.1511,-0.2186,0.8596,-6.21,7.83,-0.08,21.43
7375,0.1543,-0.2197,0.8639,-6.26,7.74,-0.11,21.42
7385,0.1534,-0.2212,0.8646,-6.27,7.66,-0.03,21.42
7395,0.1553,-0.2219,0.861,-6.17,7.68,-0.08,21.4
7405,0.1547,-0.219,0.8685,-6.14,7.66,-0.08,21.42
7415,0.1571,-0.2164,0.8623,-6.05,7.76,-0.05,21.42
7425,0.1556,-0.2146,0.8674,-6.06,7.74,-0.11,21.43
7435,0.1519,-0.2162,0.8661,-6.2,7.69,-0.03,21.43
7445,0.1548,-0.2167,0.8621,-6.29,7.63,-0.12,21.44
7455,0.1514,-0.2166,0.8607,-6.26,7.77,-0.08,21.43
7465,0.1533,-0.2205,0.8661,-6.09,7.86,0.02,21.44
7475,0.155,-0.2173,0.8678,-6.18,7.91,-0.03,21.44
7485,0.1542,-0.2172,0.8662,-6.15,7.73,-0.06,21.44
7495,0.1541,-0.2144,0.8654,-6.08,7.69,-0.03,21.43
7505,0.1572,-0.2169,0.8671,-6.14,7.53,-0.02,21.43
7515,0.1562,-0.2179,0.868,-6.35,7.71,-0.08,21.46
7525,0.157,-0.2201,0.866,-6.27,7.83,-0.06,21.43
7535,0.1573,-0.2229,0.8687,-6.05,7.91,-0.05,21.42
7545,0.1588,-0.2238,0.8668,-6.09,7.82,-0.11,21.43
7555,0.1562,-0.2207,0.8727,-6.05,7.77,-0.12,21.42
7565,0.1575,-0.222,0.8724,-5.97,7.69,-0.06,21.43
7575,0.1537,-0.2194,0.8698,-5.92,7.65,-0.08,21.43
7585,0.1561,-0.2188,0.8723,-6.17,7.77,-0.05,21.43
7595,0.1534,-0.2166,0.87,-6.17,7.77,-0.02,21.44
7605,0.1519,-0.2157,0.8693,-6.0,7.73,-0.06,21.43
7615,0.152,-0.2174,0.8687,-6.03,7.65,-0.15,21.44
7625,0.1541,-0.2128,0.8649,-6.09,7.65,-0.14,21.44
7635,0.1572,-0.214,0.8662,-6.02,7.65,-0.03,21.42
7645,0.1565,-0.2144,0.8693,-6.24,7.76,-0.14,21.43
7655,0.1519,-0.2135,0.8656,-6.31,7.76,-0.06,21.41
7665,0.1539,-0.2124,0.8588,-6.26,7.66,-0.05,21.43
7675,0.1515,-0.2126,0.865,-6.06,7.79,-0.05,21.45
7685,0.1497,-0.2142,0.8589,-6.15,7.85,-0.06,21.43
7695,0.1497,-0.2147,0.8645,-6.06,7.91,-0.11,21.44
7705,0.1525,-0.218,0.8638,-6.17,7.91,-0.11,21.43
7715,0.1527,-0.2183,0.8661,-6.32,7.85,-0.06,21.43
7725,0.1562,-0.2195,0.866,-6.35,7.76,-0.05,21.43
7735,0.1565,-0.2209,0.8604,-6.27,7.73,0.02,21.43
7745,0.1564,-0.2179,0.8613,-6.21,7.8,0.0,21.43
7755,0.1541,-0.2161,0.8625,-6.08,7.79,-0.05,21.44
7765,0.1522,-0.2197,0.8647,-6.11,7.74,0.03,21.43
7775,0.1528,-0.2181,0.8665,-6.2,7.66,-0.08,21.44
7785,0.155,-0.2163,0.864,-6.24,7.76,-0.08,21.44
7795,0.1561,-0.2163,0.8698,-6.2,7.91,0.0,21.44
7805,0.1572,-0.2192,0.8693,-6.08,7.94,-0.05,21.45
7815,0.1554,-0.2169,0.8705,-6.2,7.8,-0.02,21.44
7825,0.1559,-0.2189,0.8713,-6.17,7.6,-0.03,21.44
7835,0.155,-0.2181,0.8717,-6.12,7.51,-0.12,21.44
7845,0.156,-0.219,0.8683,-6.11,7.6,-0.11,21.44
7855,0.1553,-0.2174,0.8713,-6.12,7.68,-0.06,21.44
7865,0.1542,-0.2179,0.8694,-6.14,7.95,-0.05,21.43
7875,0.1558,-0.2175,0.8706,-6.06,7.82,-0.02,21.46
7885,0.1528,-0.2188,0.8721,-6.14,7.82,-0.03,21.43
7895,0.1537,-0.2211,0.8741,-6.29,7.8,-0.05,21.44
7905,0.1548,-0.2222,0.8666,-6.44,7.89,-0.09,21.44
7915,0.155,-0.2224,0.8678,-6.32,7.82,-0.05,21.44
7925,0.1554,-0.2223,0.8646,-6.15,7.74,-0.05,21.43
7935,0.1562,-0.2184,0.8655,-6.0,7.65,-0.14,21.44
7945,0.1554,-0.2178,0.8662,-5.83,7.69,-0.03,21.45
7955,0.1578,-0.2159,0.8699,-5.91,7.74,0.0,21.44
7965,0.1594,-0.2137,0.8665,-6.23,7.8,0.02,21.46
7975,0.1573,-0.2202,0.8601,-6.46,7.79,-0.11,21.45
7985,0.1593,-0.2214,0.866,-6.52,7.88,-0.2,21.45
7995,0.1569,-0.2203,0.8568,-6.24,7.74,-0.06,21.45
8005,0.1567,-0.2181,0.8542,-6.03,7.74,-0.02,21.46
8015,0.155,-0.2206,0.8591,-5.83,7.73,0.02,21.47
8025,0.1528,-0.2141,0.8643,-5.85,7.71,0.03,21.42
8035,0.152,-0.2139,0.8698,-5.98,7.73,-0.05,21.42
8045,0.1532,-0.2131,0.8677,-6.17,7.69,-0.14,21.47
8055,0.1547,-0.219,0.8718,-6.34,7.73,-0.14,21.46
8065,0.1539,-0.2206,0.8636,-6.5,7.82,-0.06,21.45
8075,0.1541,-0.2216,0.8589,-6.32,7.98,-0.05,21.45
8085,0.153,-0.2211,0.8663,-6.08,7.8,-0.05,21.46
8095,0.151,-0.2203,0.8661,-5.83,7.71,0.0,21.44
8105,0.152,-0.2184,0.8723,-5.94,7.56,0.02,21.45
8115,0.1526,-0.214,0.87,-5.91,7.6,-0.03,21.46
8125,0.1575,-0.2141,0.8718,-6.12,7.82,-0.03,21.46
8135,0.1543,-0.2157,0.8667,-6.32,7.97,0.0,21.46
8145,0.155,-0.2177,0.8676,-6.38,8.03,-0.05,21.48
8155,0.1569,-0.2198,0.8685,-6.18,7.91,-0.03,21.45
8165,0.1465,-0.2284,0.8734,-6.03,8.11,-0.09,21.47
8175,0.1079,-0.2178,0.9064,-6.14,10.03,-0.27,21.45
8185,0.1765,-0.2214,0.8496,-6.12,7.83,-0.38,21.45
8195,0.1746,-0.2168,0.8547,-6.02,7.34,-0.03,21.48
8205,0.1553,-0.214,0.8738,-6.11,7.79,0.0,21.47
8215,0.1467,-0.219,0.8806,-6.12,7.83,0.06,21.46
8225,0.1498,-0.2197,0.8761,-6.15,7.6,-0.08,21.44
8235,0.1588,-0.2219,0.8683,-6.21,7.57,-0.2,21.46
8245,0.1616,-0.2172,0.8618,-6.2,7.36,-0.09,21.45
8255,0.1715,-0.2203,0.8542,-6.2,7.45,-0.09,21.45
8265,0.1549,-0.2185,0.863,-6.12,7.8,-0.06,21.47
8276,0.1562,-0.2142,0.869,-5.95,7.85,-0.05,21.46
8286,0.1541,-0.2166,0.8673,-5.98,7.76,-0.02,21.48
8296,0.1512,-0.2202,0.8693,-6.08,7.73,-0.05,21.47
8306,0.1541,-0.2205,0.868,-6.15,7.63,-0.09,21.44
8316,0.1567,-0.2214,0.8618,-6.24,7.69,-0.15,21.47
8326,0.1575,-0.219,0.8613,-6.14,7.74,-0.06,21.46
8336,0.1562,-0.2145,0.8657,-5.92,7.8,-0.05,21.46
8346,0.1542,-0.215,0.8655,-5.83,7.76,-0.03,21.46
8356,0.1516,-0.2141,0.8687,-5.94,7.69,-0.06,21.49
8366,0.1542,-0.2144,0.8721,-6.0,7.76,-0.12,21.47
8376,0.1528,-0.2137,0.866,-6.18,7.57,-0.08,21.47
8386,0.1519,-0.2124,0.8666,-6.32,7.71,-0.09,21.47
8396,0.1521,-0.2119,0.8663,-6.38,7.71,-0.12,21.46
8406,0.1558,-0.2169,0.864,-6.24,7.94,-0.09,21.46
8416,0.1544,-0.2161,0.8621,-6.08,7.89,-0.02,21.46
8426,0.1473,-0.2189,0.8662,-6.03,7.89,-0.03,21.46
8436,0.1493,-0.2169,0.8704,-6.08,7.82,-0.03,21.47
8446,0.1499,-0.2179,0.8712,-6.38,7.69,-0.08,21.45
8456,0.1492,-0.2184,0.8639,-6.34,7.66,0.0,21.46
8466,0.1517,-0.225,0.8661,-6.21,7.82,-0.08,21.48
8476,0.1531,-0.2185,0.8607,-6.17,7.92,-0.05,21.46
8486,0.1542,-0.2211,0.8669,-6.08,7.88,-0.03,21.48
8496,0.1544,-0.2188,0.8693,-6.06,7.73,0.02,21.49
8506,0.1554,-0.2207,0.8678,-6.24,7.76,-0.06,21.48
8516,0.1558,-0.2218,0.869,-6.34,7.69,-0.06,21.46
8526,0.1599,-0.2196,0.8665,-6.38,7.77,0.03,21.46
8536,0.1544,-0.2207,0.8633,-6.32,7.88,-0.11,21.47
8546,0.1561,-0.2194,0.8657,-6.11,7.82,0.0,21.48
8556,0.1561,-0.2179,0.8673,-6.03,7.68,0.02,21.47
8566,0.1573,-0.2179,0.8689,-6.02,7.69,-0.03,21.46
8576,0.1556,-0.2152,0.8671,-6.05,7.71,0.03,21.45
8586,0.1514,-0.2168,0.8679,-6.18,7.82,-0.02,21.46
8596,0.1532,-0.213,0.8701,-6.31,7.91,0.02,21.48
8606,0.1517,-0.2159,0.8693,-6.29,7.94,-0.02,21.47
8616,0.1526,-0.2168,0.8691,-6.29,7.83,0.05,21.46
8626,0.1493,-0.2191,0.8666,-6.27,7.76,-0.06,21.45
8636,0.1519,-0.2223,0.8652,-6.4,7.76,0.0,21.47
8646,0.155,-0.2225,0.864,-6.37,7.86,-0.02,21.47
8656,0.157,-0.2264,0.8591,-6.2,7.92,-0.08,21.49
8666,0.1558,-0.2274,0.8643,-6.24,7.8,0.03,21.47
8676,0.1587,-0.2181,0.8644,-5.91,7.42,0.08,21.45
8686,0.1567,-0.2185,0.8711,-5.53,7.3,0.02,21.45
8696,0.1591,-0.2219,0.8751,-5.76,8.03,0.0,21.47
8706,0.1537,-0.2167,0.8752,-6.21,8.53,0.11,21.49
8716,0.1481,-0.2202,0.8745,-6.35,8.24,0.02,21.47
8726,0.1455,-0.2233,0.8748,-6.26,7.77,0.02,21.48
8736,0.1458,-0.2112,0.8657,-6.26,7.59,0.03,21.45
8746,0.1522,-0.2059,0.8628,-5.69,7.53,0.0,21.47
8756,0.1547,-0.2065,0.8636,-5.65,7.73,0.0,21.46
8766,0.1512,-0.2054,0.8698,-6.24,8.09,-0.08,21.47
8776,0.1493,-0.207,0.861,-6.67,7.91,-0.12,21.47
8786,0.1548,-0.2122,0.8562,-6.67,7.45,-0.17,21.46
8796,0.161,-0.2177,0.8533,-6.53,7.36,-0.27,21.44
8806,0.1632,-0.2186,0.8505,-6.37,7.6,-0.15,21.47
8816,0.1637,-0.2212,0.8613,-5.86,7.86,-0.08,21.51
8826,0.1641,-0.2231,0.8683,-5.98,8.08,-0.05,21.46
8836,0.1602,-0.2251,0.875,-6.17,7.91,-0.12,21.49
8846,0.162,-0.2228,0.8715,-6.17,7.48,-0.2,21.45
8856,0.1638,-0.2208,0.8733,-6.2,7.3,-0.2,21.47
8866,0.1609,-0.2206,0.8706,-6.15,7.65,0.0,21.48
8876,0.1573,-0.2131,0.8685,-5.89,8.05,0.06,21.49
8886,0.1494,-0.2094,0.8757,-5.76,8.11,0.06,21.48
8896,0.1475,-0.2081,0.8755,-5.95,7.89,-0.03,21.47
8906,0.1459,-0.2069,0.8724,-6.27,7.6,-0.12,21.49
8916,0.1492,-0.2131,0.8693,-6.43,7.44,-0.18,21.46
8926,0.1506,-0.2141,0.8623,-6.64,7.69,-0.21,21.49
8936,0.1504,-0.2159,0.858,-6.5,7.94,-0.12,21.47
8946,0.1511,-0.222,0.8552,-6.14,7.89,-0.09,21.48
8956,0.1525,-0.2197,0.8612,-5.95,7.65,-0.14,21.47
8966,0.1565,-0.22,0.8634,-5.98,7.36,-0.2,21.47
8976,0.158,-0.2207,0.8669,-6.08,7.39,-0.2,21.45
8986,0.1582,-0.2164,0.8691,-6.23,7.54,-0.15,21.45
8996,0.1575,-0.2196,0.8716,-6.32,7.79,-0.14,21.47
9006,0.1548,-0.2205,0.8687,-6.37,7.85,-0.06,21.48
9016,0.1544,-0.2189,0.871,-6.18,7.82,-0.06,21.5
9026,0.1567,-0.2192,0.8728,-6.11,7.74,-0.05,21.5
9036,0.1515,-0.2186,0.8693,-6.18,7.83,0.0,21.48
9046,0.1533,-0.2184,0.8676,-6.37,7.92,-0.02,21.47
9056,0.1506,-0.22,0.863,-6.49,8.05,-0.02,21.45
9066,0.1508,-0.2195,0.8645,-6.41,7.95,0.0,21.48
9076,0.1481,-0.2211,0.8572,-6.17,7.83,-0.05,21.49
9086,0.1497,-0.22,0.8602,-6.02,7.68,-0.06,21.45
9096,0.1521,-0.2203,0.8657,-6.02,7.69,-0.03,21.49
9106,0.1545,-0.2213,0.8623,-6.03,7.83,-0.05,21.47
9116,0.1541,-0.2185,0.8689,-6.08,7.82,0.05,21.49
9126,0.1516,-0.2219,0.8654,-6.17,7.79,0.02,21.46
9136,0.1539,-0.2209,0.866,-6.17,7.66,0.0,21.49
9146,0.1581,-0.2217,0.8655,-6.08,7.63,-0.09,21.48
9156,0.1575,-0.2216,0.866,-5.97,7.63,0.03,21.45
9166,0.1571,-0.2197,0.8657,-6.05,7.77,0.02,21.44
9176,0.1567,-0.218,0.8687,-6.03,7.85,0.05,21.48
9186,0.1567,-0.214,0.8696,-6.03,7.76,0.08,21.52
9196,0.1558,-0.2102,0.8687,-6.11,7.65,0.03,21.47
9206,0.1553,-0.2108,0.8712,-6.17,7.63,-0.14,21.47
9216,0.1541,-0.214,0.8696,-6.15,7.59,-0.05,21.51
9226,0.1593,-0.2123,0.8673,-6.15,7.66,-0.05,21.49
9236,0.1573,-0.2172,0.8735,-6.15,7.86,-0.09,21.48
9246,0.1577,-0.2191,0.8706,-6.05,8.05,-0.12,21.51
9256,0.1555,-0.2214,0.8694,-6.21,7.94,-0.05,21.48
9266,0.1584,-0.2198,0.8678,-6.38,7.76,-0.06,21.49
9276,0.1571,-0.2216,0.8619,-6.35,7.63,-0.18,21.51
9286,0.1562,-0.2236,0.8612,-6.26,7.65,-0.02,21.49
9296,0.1556,-0.2207,0.8608,-5.94,7.79,-0.05,21.48
9306,0.1519,-0.2169,0.8625,-5.79,7.95,0.08,21.47
9316,0.1505,-0.2156,0.8688,-5.85,7.97,0.02,21.49
9326,0.1467,-0.2146,0.8727,-6.12,7.77,-0.09,21.49
9336,0.1492,-0.2136,0.871,-6.26,7.59,-0.08,21.48
9346,0.1525,-0.2144,0.8668,-6.43,7.63,-0.12,21.49
9356,0.1526,-0.2186,0.8599,-6.4,7.74,-0.14,21.5
9366,0.155,-0.219,0.8599,-6.21,7.89,-0.05,21.47
9376,0.1531,-0.2186,0.8621,-6.05,7.89,0.02,21.49
9386,0.153,-0.2191,0.8683,-5.97,7.57,-0.06,21.49
9396,0.1561,-0.2216,0.8643,-5.98,7.48,-0.12,21.47
9406,0.1569,-0.2168,0.8646,-6.17,7.47,-0.18,21.49
9416,0.1545,-0.2151,0.8623,-6.15,7.62,-0.05,21.49
9426,0.1567,-0.2129,0.864,-6.08,7.94,-0.05,21.49
9436,0.1516,-0.2109,0.8658,-6.08,7.91,-0.05,21.47
9446,0.1538,-0.2109,0.8685,-5.92,7.88,-0.05,21.49
9456,0.1523,-0.2175,0.8674,-6.18,7.74,-0.06,21.48
9466,0.1555,-0.2186,0.8673,-6.55,7.63,-0.14,21.49
9476,0.1559,-0.2233,0.8676,-6.47,7.73,-0.11,21.49
9486,0.1558,-0.2222,0.8622,-6.32,7.95,0.02,21.48
9496,0.155,-0.2195,0.8676,-6.02,8.02,0.0,21.48
9506,0.1556,-0.2175,0.8647,-5.83,7.88,-0.03,21.47
9516,0.1527,-0.2179,0.8733,-5.94,7.6,-0.06,21.51
9526,0.1548,-0.2161,0.8696,-6.23,7.47,-0.09,21.47
9536,0.1553,-0.2163,0.8722,-6.38,7.59,-0.11,21.5
9546,0.1547,-0.2184,0.8693,-6.49,7.89,-0.12,21.47
9556,0.157,-0.2186,0.87,-6.4,7.97,-0.09,21.49
9566,0.1549,-0.2166,0.8656,-6.08,7.77,0.0,21.49
9576,0.1547,-0.2172,0.8654,-5.95,7.6,-0.06,21.5
9586,0.1571,-0.215,0.8621,-5.98,7.48,-0.06,21.48
9596,0.1592,-0.2168,0.8606,-6.24,7.69,-0.02,21.47
9606,0.158,-0.2164,0.8679,-6.41,7.97,-0.11,21.49
9616,0.1555,-0.2184,0.8618,-6.34,8.03,-0.05,21.49
9626,0.1512,-0.2212,0.8646,-6.32,7.97,-0.08,21.48
9636,0.1519,-0.2214,0.8619,-6.12,7.69,-0.09,21.48
9646,0.1543,-0.2217,0.8669,-6.14,7.69,0.0,21.47
9656,0.156,-0.2224,0.8691,-6.09,7.79,-0.08,21.49
9666,0.1543,-0.2225,0.8652,-6.12,8.02,0.03,21.49
9676,0.1533,-0.2183,0.8658,-6.15,8.0,0.06,21.47
9686,0.1522,-0.2216,0.8698,-6.15,7.82,0.03,21.49
9696,0.1528,-0.2163,0.8649,-6.03,7.65,-0.06,21.48
9706,0.1522,-0.2163,0.8662,-6.02,7.5,-0.09,21.49
9716,0.155,-0.2148,0.8713,-6.05,7.63,-0.08,21.49
9726,0.1554,-0.2133,0.8691,-6.23,7.74,-0.06,21.48
9736,0.1554,-0.2168,0.8708,-6.15,7.85,-0.08,21.5
9746,0.1534,-0.2151,0.8668,-6.21,7.86,-0.09,21.48
9756,0.1562,-0.2179,0.8645,-6.26,7.65,-0.06,21.49
9766,0.1572,-0.2194,0.8677,-6.24,7.65,-0.12,21.47
9776,0.1577,-0.2188,0.8673,-6.18,7.69,-0.08,21.5
9786,0.1598,-0.2201,0.8683,-6.06,7.82,0.0,21.49
9796,0.1562,-0.2222,0.8673,-6.06,7.8,-0.03,21.5
9806,0.155,-0.2161,0.8677,-6.06,7.83,-0.08,21.5
9816,0.1559,-0.2179,0.8713,-6.12,7.68,-0.05,21.49
9826,0.1562,-0.2202,0.8677,-6.24,7.66,-0.09,21.49
9836,0.157,-0.2172,0.8679,-6.27,7.71,-0.03,21.49
9846,0.1553,-0.2188,0.868,-6.23,7.89,-0.05,21.48
9856,0.1569,-0.2184,0.8656,-6.23,8.0,0.08,21.51
9866,0.1498,-0.2212,0.8679,-6.2,7.91,0.03,21.51
9876,0.1527,-0.2208,0.8634,-6.17,7.73,-0.06,21.49
9886,0.1514,-0.2175,0.8645,-6.11,7.71,-0.06,21.52
9896,0.1494,-0.2196,0.8655,-6.14,7.71,-0.11,21.51
9906,0.1532,-0.218,0.8647,-6.09,7.83,0.02,21.52
9916,0.1516,-0.2158,0.8663,-6.06,7.83,-0.05,21.51
9926,0.152,-0.2173,0.8705,-6.11,7.74,-0.06,21.49
9936,0.1511,-0.2211,0.8674,-6.11,7.62,0.02,21.52
9946,0.1531,-0.2186,0.8673,-6.09,7.63,0.02,21.49
9956,0.1572,-0.2159,0.8672,-6.17,7.76,-0.02,21.51
9966,0.1554,-0.215,0.8669,-6.14,7.86,0.0,21.5
9976,0.1526,-0.2181,0.8704,-6.15,7.91,-0.06,21.5
9986,0.1521,-0.2178,0.8677,-6.11,7.86,0.06,21.53
9996,0.1527,-0.2103,0.8669,-6.23,7.74,-0.03,21.52
10006,0.1505,-0.2142,0.8632,-6.21,7.57,-0.03,21.55
10016,0.1521,-0.2108,0.8661,-6.11,7.66,-0.02,21.5
10026,0.1512,-0.2114,0.866,-6.03,7.73,-0.05,21.5
10036,0.153,-0.2112,0.8678,-6.15,7.76,-0.06,21.48
10046,0.1591,-0.2139,0.8658,-6.23,7.76,-0.09,21.47
10056,0.1569,-0.2181,0.8694,-6.4,7.66,-0.09,21.53
10066,0.1589,-0.2227,0.8688,-6.38,7.76,-0.12,21.49
10076,0.1614,-0.2228,0.8641,-6.32,7.89,-0.17,21.48
10086,0.1566,-0.2249,0.869,-6.26,7.94,-0.09,21.51
10096,0.1581,-0.2238,0.8701,-6.08,7.94,-0.06,21.49
10106,0.1573,-0.2249,0.8716,-6.09,7.79,0.0,21.51
10116,0.1559,-0.2233,0.8715,-6.09,7.65,-0.09,21.5
10126,0.1569,-0.2212,0.866,-6.15,7.65,-0.09,21.51
10136,0.1545,-0.2191,0.8683,-6.18,7.68,-0.09,21.5
10146,0.1554,-0.2177,0.8613,-6.32,7.73,-0.03,21.51
10156,0.15,-0.2153,0.8593,-6.29,7.71,-0.05,21.49
10166,0.15,-0.2137,0.8633,-6.12,7.65,-0.08,21.51
10176,0.1519,-0.2151,0.8611,-6.21,7.71,-0.06,21.49
10186,0.1526,-0.2162,0.869,-6.2,7.82,-0.05,21.49
10196,0.1517,-0.2177,0.8663,-6.08,7.88,-0.08,21.5
10206,0.1532,-0.2214,0.8699,-6.11,7.85,-0.11,21.51
10216,0.1514,-0.2235,0.871,-6.18,7.66,-0.09,21.51
10226,0.1555,-0.2211,0.8693,-6.09,7.51,-0.03,21.54
10236,0.1553,-0.2246,0.8683,-5.98,7.63,-0.08,21.51
10246,0.1578,-0.2188,0.8713,-5.97,7.86,-0.02,21.52
10256,0.1527,-0.2198,0.8724,-6.09,7.94,-0.03,21.51
10266,0.1538,-0.2168,0.8713,-6.15,7.86,-0.03,21.52
10276,0.1537,-0.218,0.8678,-6.21,7.66,-0.06,21.51
10286,0.1549,-0.2161,0.8586,-6.18,7.5,-0.12,21.51
10301,0.1548,-0.2174,0.8639,-6.09,7.76,-0.06,21.52
10311,0.1571,-0.2157,0.8634,-6.09,7.89,-0.02,21.52
10321,0.1527,-0.2195,0.8639,-6.02,7.94,0.05,21.51
10331,0.1553,-0.2142,0.8677,-6.0,7.88,-0.02,21.5
10341,0.152,-0.2178,0.8707,-6.09,7.59,-0.02,21.54
10351,0.1542,-0.2185,0.8665,-6.15,7.6,-0.12,21.51
10361,0.1562,-0.2185,0.8673,-6.14,7.91,-0.09,21.5
10371,0.1572,-0.2227,0.8674,-6.23,8.05,-0.05,21.51
10381,0.1582,-0.222,0.866,-6.32,7.91,-0.11,21.52
10391,0.1565,-0.2251,0.866,-6.14,7.8,-0.03,21.52
10401,0.1561,-0.2225,0.8695,-6.08,7.76,-0.06,21.54
10411,0.1559,-0.2225,0.8689,-5.95,7.73,-0.03,21.53
10421,0.1555,-0.2191,0.8712,-5.94,7.76,0.03,21.52
10431,0.1538,-0.2135,0.8685,-6.08,7.74,-0.03,21.49
10441,0.1515,-0.215,0.8678,-6.02,7.6,-0.08,21.52
10451,0.1562,-0.2123,0.8657,-6.03,7.6,-0.11,21.53
10461,0.1522,-0.2124,0.8656,-6.14,7.63,-0.06,21.52
10471,0.1565,-0.2133,0.8635,-6.12,7.89,-0.05,21.53
10481,0.1548,-0.2141,0.8651,-6.15,8.11,-0.11,21.51
10491,0.1556,-0.2158,0.8704,-6.03,7.95,0.02,21.54
10501,0.1537,-0.2203,0.8683,-6.12,7.76,-0.09,21.52
10511,0.1547,-0.2184,0.8628,-6.17,7.5,-0.11,21.53
10521,0.1566,-0.2175,0.8643,-6.11,7.39,-0.12,21.49
10531,0.1577,-0.2173,0.8619,-6.17,7.74,-0.12,21.51
10541,0.153,-0.2158,0.8673,-6.14,8.11,0.0,21.51
10551,0.1532,-0.2169,0.8672,-6.09,8.06,-0.08,21.54
10561,0.1544,-0.2162,0.87,-6.14,7.83,-0.05,21.52
10571,0.152,-0.2167,0.8668,-6.31,7.57,-0.14,21.51
10581,0.1499,-0.2175,0.8689,-6.23,7.57,-0.06,21.51
10591,0.1517,-0.2133,0.8668,-6.23,7.66,0.02,21.49
10601,0.1526,-0.2178,0.8604,-6.14,7.85,-0.03,21.52
10611,0.1503,-0.2145,0.8635,-6.0,7.79,-0.03,21.52
10621,0.1528,-0.2146,0.8654,-6.03,7.6,-0.12,21.54
10631,0.1556,-0.2092,0.8669,-6.2,7.45,-0.11,21.51
10641,0.1598,-0.2146,0.8674,-6.38,7.6,-0.18,21.55
10651,0.162,-0.2167,0.8638,-6.47,7.85,-0.08,21.54
10661,0.1602,-0.22,0.8652,-6.4,8.05,-0.12,21.51
10671,0.1605,-0.228,0.8656,-6.29,8.03,-0.09,21.52
10681,0.1603,-0.2305,0.869,-6.17,7.77,-0.12,21.51
10691,0.1602,-0.2286,0.8676,-5.89,7.6,-0.09,21.52
10701,0.1613,-0.2264,0.8727,-5.77,7.51,-0.12,21.54
10711,0.1572,-0.2222,0.8732,-5.97,7.77,-0.03,21.53
10721,0.1547,-0.2184,0.8722,-6.03,7.95,0.08,21.49
10731,0.1512,-0.2175,0.8734,-6.02,8.0,-0.03,21.52
10741,0.1481,-0.2146,0.8727,-6.06,7.91,-0.03,21.53
10751,0.1497,-0.2134,0.8717,-5.95,7.68,-0.08,21.51
10761,0.1487,-0.2114,0.8685,-6.08,7.56,-0.12,21.54
10771,0.1503,-0.2141,0.868,-6.15,7.69,-0.09,21.53
10781,0.1522,-0.2146,0.8625,-6.29,7.79,-0.11,21.52
10791,0.1504,-0.2175,0.866,-6.15,7.97,-0.11,21.53
10801,0.146,-0.2192,0.8624,-6.27,7.82,-0.02,21.52
10811,0.151,-0.2195,0.858,-6.26,7.66,-0.02,21.52
10821,0.1504,-0.2195,0.8625,-6.08,7.57,0.0,21.52
10831,0.1525,-0.2185,0.8621,-5.97,7.77,0.0,21.52
10841,0.1493,-0.2177,0.8666,-6.17,7.98,-0.03,21.55
10851,0.1504,-0.2146,0.8694,-6.09,7.86,-0.03,21.54
10861,0.1488,-0.2145,0.868,-6.18,7.66,-0.05,21.53
10871,0.1505,-0.2144,0.8669,-6.27,7.44,-0.09,21.52
10881,0.1573,-0.2157,0.8676,-6.17,7.62,-0.06,21.53
10891,0.1575,-0.2172,0.8649,-6.23,7.74,-0.12,21.53
10901,0.1567,-0.2218,0.8667,-6.27,7.95,-0.03,21.51
10911,0.1562,-0.2185,0.8668,-6.34,7.91,-0.03,21.53
10921,0.157,-0.2183,0.8635,-6.23,7.77,-0.05,21.53
10931,0.157,-0.2186,0.8651,-6.14,7.59,-0.12,21.55
10941,0.1569,-0.2201,0.8634,-6.12,7.71,-0.09,21.53
10951,0.1595,-0.2196,0.8622,-5.97,7.8,-0.02,21.52
10961,0.1536,-0.2166,0.871,-5.86,7.79,-0.03,21.51
10971,0.1533,-0.2201,0.8723,-6.05,7.86,-0.03,21.52
10981,0.1519,-0.2166,0.8733,-6.18,7.74,-0.06,21.51
10991,0.1533,-0.218,0.8774,-6.2,7.73,-0.02,21.52
11001,0.1552,-0.2181,0.8662,-6.34,7.69,-0.11,21.54
11011,0.1548,-0.2194,0.868,-6.21,7.88,-0.05,21.55
11021,0.155,-0.2229,0.8663,-6.06,7.95,0.02,21.54
11031,0.1543,-0.2244,0.8724,-5.95,7.82,-0.03,21.53
11041,0.1539,-0.2192,0.8674,-6.09,7.74,-0.11,21.53
11051,0.1538,-0.2161,0.871,-6.17,7.65,-0.06,21.53
11061,0.1556,-0.2169,0.8641,-6.23,7.65,-0.02,21.53
11071,0.1531,-0.2163,0.869,-6.18,7.92,-0.02,21.52
11081,0.1558,-0.2136,0.8597,-6.12,7.95,-0.03,21.52
11091,0.1537,-0.2158,0.8689,-5.98,7.98,0.03,21.53
11101,0.1508,-0.2177,0.8674,-6.03,7.77,-0.03,21.52
11111,0.1505,-0.2174,0.8651,-6.02,7.65,-0.09,21.5
11121,0.1522,-0.2145,0.8682,-6.26,7.62,-0.06,21.53
11131,0.1553,-0.2141,0.8628,-6.29,7.73,-0.08,21.55
11141,0.1543,-0.2158,0.8615,-6.32,7.92,-0.08,21.52
11151,0.1543,-0.218,0.8606,-6.17,7.95,0.03,21.54
11161,0.1555,-0.2173,0.8583,-6.14,7.88,-0.05,21.52
11171,0.1537,-0.217,0.8684,-6.14,7.71,-0.08,21.53
11181,0.1527,-0.2173,0.866,-6.18,7.65,-0.08,21.52
11191,0.1558,-0.2174,0.8625,-6.18,7.69,-0.11,21.54
11201,0.1571,-0.217,0.8644,-6.29,7.82,-0.08,21.54
11211,0.1584,-0.2217,0.8644,-6.17,7.92,0.0,21.54
11221,0.1581,-0.2208,0.8641,-6.14,7.83,-0.06,21.53
11231,0.1528,-0.2206,0.8654,-6.11,7.68,-0.02,21.52
11241,0.1536,-0.2197,0.866,-6.09,7.56,-0.08,21.53
11251,0.1577,-0.2174,0.8624,-6.06,7.63,-0.08,21.54
11261,0.1562,-0.2178,0.8656,-6.09,7.85,0.0,21.54
11271,0.1517,-0.2192,0.8723,-6.05,7.94,-0.06,21.52
11281,0.1516,-0.2159,0.8751,-6.06,7.88,-0.09,21.52
11291,0.1522,-0.217,0.8708,-6.12,7.68,-0.05,21.53
11301,0.153,-0.2159,0.8673,-6.31,7.5,-0.12,21.52
11311,0.1561,-0.217,0.8656,-6.31,7.63,-0.06,21.52
11321,0.1575,-0.2186,0.8674,-6.31,7.91,0.02,21.53
11331,0.1572,-0.2178,0.8665,-6.18,8.08,-0.03,21.53
11341,0.1525,-0.2212,0.8704,-6.08,7.94,0.05,21.51
11351,0.1539,-0.2179,0.8726,-5.97,7.68,-0.02,21.57
11361,0.1533,-0.22,0.8766,-6.06,7.57,-0.15,21.56
11371,0.1565,-0.2178,0.8718,-6.15,7.62,-0.08,21.53
11381,0.1558,-0.2191,0.8712,-6.24,7.83,-0.08,21.52
11391,0.1558,-0.217,0.8652,-6.34,7.92,-0.09,21.52
11401,0.1522,-0.2198,0.8645,-6.21,7.88,-0.03,21.54
11411,0.1493,-0.219,0.8638,-6.08,7.66,-0.11,21.54
11421,0.1505,-0.2173,0.8673,-6.0,7.57,-0.11,21.55
11431,0.1539,-0.218,0.8643,-5.98,7.63,-0.15,21.54
11441,0.1538,-0.2162,0.8677,-6.11,7.82,-0.03,21.54
11451,0.1544,-0.2169,0.8663,-6.23,7.88,-0.02,21.55
11461,0.1521,-0.2155,0.865,-6.34,7.92,-0.14,21.54
11471,0.1549,-0.214,0.8644,-6.27,7.77,-0.05,21.54
11481,0.1558,-0.2178,0.8689,-6.18,7.71,0.03,21.53
11491,0.1534,-0.2178,0.865,-6.03,7.77,-0.03,21.53
11501,0.1521,-0.2178,0.8722,-6.12,7.86,0.0,21.54
11511,0.1549,-0.2133,0.8663,-6.11,7.88,0.0,21.52
11521,0.1528,-0.2173,0.8644,-6.24,7.82,-0.06,21.52
11531,0.1533,-0.2164,0.8665,-6.29,7.69,-0.05,21.52
11541,0.1547,-0.2178,0.8657,-6.2,7.74,-0.05,21.52
11551,0.1556,-0.2167,0.8635,-6.18,7.88,-0.08,21.52
11561,0.1562,-0.2189,0.8706,-6.02,7.85,0.02,21.54
11571,0.1565,-0.218,0.8713,-6.12,7.86,-0.02,21.53
11581,0.1521,-0.2192,0.8682,-6.15,7.73,0.0,21.53
11591,0.1532,-0.2189,0.8715,-6.26,7.71,-0.02,21.53
11601,0.1544,-0.2186,0.8707,-6.26,7.69,-0.06,21.54
11611,0.1567,-0.218,0.8645,-6.27,7.74,-0.05,21.54
11621,0.1572,-0.2167,0.8679,-6.18,7.73,-0.06,21.57
11631,0.1556,-0.2188,0.8668,-6.23,7.71,-0.08,21.52
11641,0.1544,-0.2191,0.8678,-6.09,7.79,-0.11,21.53
11651,0.1548,-0.218,0.8661,-6.05,7.77,-0.08,21.53
11661,0.1549,-0.2177,0.8727,-6.05,7.68,-0.03,21.54
11671,0.1567,-0.2181,0.8766,-6.15,7.66,-0.08,21.56
11681,0.1572,-0.2157,0.8695,-6.23,7.69,-0.08,21.55
11691,0.1562,-0.2169,0.8669,-6.2,7.77,-0.09,21.53
11701,0.1552,-0.2179,0.8643,-6.23,7.92,-0.02,21.55
11711,0.1566,-0.2179,0.8632,-6.23,7.95,-0.03,21.53
11721,0.1537,-0.2146,0.8652,-6.15,7.76,-0.06,21.55
11731,0.1523,-0.2202,0.8654,-6.17,7.73,-0.02,21.54
11741,0.1528,-0.2172,0.8663,-6.08,7.71,-0.12,21.54
11751,0.1528,-0.215,0.8668,-6.21,7.74,-0.14,21.55
11761,0.1541,-0.217,0.864,-6.2,7.8,-0.12,21.56
11771,0.1552,-0.2205,0.866,-6.2,7.79,-0.05,21.56
11781,0.1547,-0.2156,0.8676,-6.15,7.82,-0.02,21.53
11791,0.1539,-0.2206,0.8658,-6.18,7.73,0.0,21.55
11801,0.1561,-0.217,0.8678,-6.23,7.65,-0.08,21.54
11811,0.1566,-0.2161,0.8615,-6.14,7.65,-0.09,21.54
11821,0.1569,-0.2178,0.8645,-6.11,7.79,-0.09,21.55
11831,0.1578,-0.2167,0.8679,-6.08,7.82,-0.05,21.54
11841,0.1565,-0.2147,0.8674,-6.05,7.82,0.03,21.55
11851,0.1532,-0.2163,0.8669,-6.05,7.74,-0.03,21.53
11861,0.1562,-0.2162,0.8673,-6.02,7.77,-0.06,21.53
11871,0.1554,-0.2152,0.87,-6.18,7.74,-0.09,21.57
11881,0.1517,-0.2179,0.8682,-6.17,7.82,-0.08,21.54
11891,0.1558,-0.2163,0.8674,-6.27,7.82,-0.02,21.54
11901,0.1497,-0.2144,0.8689,-6.23,7.92,-0.03,21.54
11911,0.1495,-0.2158,0.8696,-6.23,7.97,-0.06,21.55
11921,0.1476,-0.2164,0.8728,-6.21,7.86,0.02,21.52
11931,0.1508,-0.219,0.8733,-6.18,7.79,-0.12,21.54
11941,0.1501,-0.2208,0.8693,-6.27,7.68,-0.08,21.54
11951,0.1528,-0.2191,0.8654,-6.29,7.65,-0.17,21.55
11961,0.1517,-0.2209,0.8671,-6.2,7.68,-0.17,21.56
11971,0.1544,-0.2217,0.8636,-6.09,7.68,-0.05,21.55
11981,0.1555,-0.2233,0.8611,-6.05,7.68,-0.09,21.55
11991,0.1562,-0.2228,0.8622,-5.89,7.57,-0.05,21.58
12001,0.1636,-0.2211,0.8734,-5.83,7.59,-0.06,21.55
12011,0.165,-0.2211,0.8746,-5.77,7.6,-0.08,21.52
12021,0.1626,-0.2201,0.8828,-5.94,7.73,-0.02,21.52
12031,0.1632,-0.2158,0.881,-6.34,7.86,0.02,21.56
12041,0.156,-0.214,0.8699,-6.75,8.08,0.03,21.54
12051,0.1489,-0.2161,0.8618,-6.85,8.09,-0.02,21.56
12061,0.1456,-0.2136,0.8503,-6.6,8.03,-0.08,21.56
12071,0.1455,-0.2125,0.8523,-6.05,7.82,-0.03,21.57
12081,0.1477,-0.2168,0.8533,-5.74,7.62,-0.08,21.57
12091,0.153,-0.2183,0.8635,-5.68,7.39,-0.08,21.55
12101,0.1558,-0.2136,0.8699,-5.94,7.4,-0.12,21.53
12111,0.1556,-0.2155,0.8655,-6.31,7.62,-0.12,21.54
12121,0.1572,-0.215,0.8655,-6.5,7.97,-0.05,21.54
12131,0.1571,-0.2183,0.8616,-6.4,8.14,0.05,21.56
12141,0.1512,-0.2214,0.8705,-6.09,8.11,0.02,21.55
12151,0.152,-0.2231,0.8735,-5.97,7.77,0.02,21.55
12161,0.1538,-0.2194,0.8728,-5.88,7.6,-0.11,21.55
12171,0.1576,-0.2207,0.8773,-6.17,7.51,-0.15,21.56
12181,0.1571,-0.223,0.8757,-6.46,7.69,-0.12,21.55
12191,0.1558,-0.2229,0.8667,-6.61,7.95,0.02,21.57
12201,0.1539,-0.2177,0.8617,-6.43,7.98,-0.06,21.57
12211,0.1555,-0.2173,0.8586,-6.23,7.88,-0.06,21.55
12221,0.1528,-0.2197,0.8572,-5.92,7.66,-0.02,21.55
12231,0.1514,-0.2175,0.8612,-5.79,7.56,-0.03,21.55
12241,0.1527,-0.2173,0.863,-5.91,7.59,-0.06,21.55
12251,0.1539,-0.2128,0.8706,-6.11,7.69,-0.05,21.56
12261,0.1543,-0.2134,0.8693,-6.2,7.74,-0.02,21.56
12271,0.1561,-0.2146,0.8719,-6.21,7.8,-0.05,21.57
12281,0.1572,-0.217,0.8744,-6.09,7.74,-0.03,21.56
12291,0.1533,-0.2159,0.8751,-6.15,7.76,0.0,21.54
12301,0.156,-0.2164,0.8718,-6.26,7.86,-0.03,21.54
12311,0.1553,-0.2144,0.874,-6.21,7.86,-0.05,21.55
12321,0.1562,-0.2177,0.8691,-6.4,7.89,-0.05,21.55
12331,0.1549,-0.2178,0.8651,-6.46,7.79,-0.08,21.55
12341,0.1565,-0.2206,0.8607,-6.29,7.69,-0.09,21.53
12351,0.1553,-0.2168,0.8616,-6.17,7.77,-0.05,21.54
12361,0.1569,-0.2183,0.8595,-6.06,7.71,-0.08,21.55
12371,0.1539,-0.2177,0.8597,-6.09,7.8,-0.06,21.57
12381,0.1553,-0.2169,0.8684,-6.12,7.74,-0.05,21.56
12391,0.1544,-0.2178,0.8678,-6.14,7.68,-0.06,21.56
12401,0.156,-0.2177,0.8682,-6.14,7.63,-0.06,21.53
12411,0.1558,-0.2195,0.8668,-6.15,7.77,-0.08,21.54
12421,0.1541,-0.2162,0.8677,-6.12,7.73,-0.08,21.56
12431,0.1542,-0.2184,0.8683,-6.06,7.77,0.02,21.57
12441,0.1532,-0.2189,0.8663,-6.21,7.8,0.05,21.56
12451,0.1541,-0.2173,0.8691,-6.11,7.83,-0.03,21.57
12461,0.1538,-0.2157,0.8688,-6.37,7.73,-0.08,21.55
12471,0.1548,-0.2168,0.8647,-6.27,7.73,-0.08,21.54
12481,0.1539,-0.2173,0.8641,-6.27,7.69,-0.06,21.54
12491,0.1519,-0.2172,0.8621,-6.18,7.76,-0.02,21.57
12501,0.1537,-0.2196,0.8625,-6.14,7.88,-0.06,21.56
12511,0.1541,-0.2189,0.8646,-6.03,7.77,-0.05,21.59
12521,0.155,-0.217,0.8682,-6.05,7.74,-0.08,21.55
12531,0.1542,-0.2195,0.8677,-6.14,7.66,-0.09,21.54
12541,0.1544,-0.2181,0.8671,-6.26,7.66,-0.08,21.55
12551,0.1558,-0.2188,0.8679,-6.18,7.71,-0.11,21.57
12561,0.1572,-0.2185,0.8694,-6.15,7.83,-0.12,21.56
12571,0.1561,-0.2186,0.8723,-6.12,7.76,-0.02,21.55
12581,0.1541,-0.2189,0.8707,-6.17,7.76,-0.09,21.56
12591,0.157,-0.2174,0.8683,-6.23,7.73,-0.03,21.55
12601,0.1572,-0.2185,0.8691,-6.23,7.74,-0.06,21.54
12611,0.1592,-0.2197,0.865,-6.15,7.83,-0.05,21.57
12621,0.1528,-0.2178,0.869,-6.2,7.97,-0.11,21.55
12631,0.155,-0.2173,0.866,-6.14,7.94,-0.03,21.56
12641,0.1519,-0.2206,0.8689,-6.12,7.88,-0.06,21.55
12651,0.153,-0.2151,0.8693,-6.17,7.76,-0.06,21.56
12661,0.1523,-0.2185,0.8673,-6.14,7.66,-0.05,21.54
12671,0.1523,-0.2179,0.8688,-6.29,7.73,-0.11,21.54
12681,0.1572,-0.2163,0.8687,-6.23,7.8,-0.08,21.54
12691,0.1548,-0.2211,0.8619,-6.18,7.8,-0.11,21.58
12701,0.1544,-0.2191,0.8654,-6.15,7.79,-0.06,21.55
12711,0.1531,-0.2205,0.8665,-6.17,7.69,-0.12,21.56
12721,0.1536,-0.2153,0.8688,-6.09,7.66,-0.14,21.54
12731,0.1562,-0.2178,0.8665,-6.09,7.71,-0.08,21.56
12741,0.1533,-0.2179,0.8683,-6.12,7.8,-0.06,21.58
12751,0.153,-0.2168,0.8622,-6.06,7.83,0.05,21.57
12761,0.1509,-0.2158,0.8662,-6.17,7.8,0.05,21.55
12771,0.1514,-0.217,0.8684,-6.09,7.71,-0.11,21.56
12781,0.1532,-0.2191,0.8705,-6.09,7.74,-0.09,21.57
12791,0.1525,-0.2173,0.8682,-6.12,7.74,-0.08,21.54
12801,0.1553,-0.2175,0.8663,-6.18,7.74,-0.05,21.54
12811,0.1554,-0.2173,0.8721,-6.12,7.83,-0.05,21.55
12821,0.1547,-0.2178,0.8666,-6.26,7.77,-0.05,21.59
12831,0.1554,-0.2194,0.8673,-6.08,7.77,-0.02,21.56
12841,0.1532,-0.219,0.8654,-6.18,7.79,0.02,21.57
12851,0.1547,-0.2202,0.8655,-6.08,7.8,-0.09,21.56
12861,0.156,-0.2166,0.865,-6.11,7.76,-0.05,21.54
12871,0.1562,-0.2185,0.8695,-6.14,7.76,-0.08,21.55
12881,0.1547,-0.2164,0.8661,-6.14,7.74,-0.08,21.59
12891,0.1575,-0.2174,0.8711,-6.2,7.77,0.03,21.6
12901,0.1554,-0.2175,0.8695,-6.24,7.79,-0.11,21.57
12911,0.1554,-0.2191,0.868,-6.2,7.85,-0.08,21.57
12921,0.1545,-0.2185,0.8666,-6.14,7.79,-0.05,21.57
12931,0.1508,-0.2169,0.8683,-6.12,7.8,-0.08,21.59
12941,0.156,-0.2208,0.8701,-6.14,7.74,-0.02,21.56
12951,0.1521,-0.2174,0.8696,-6.17,7.74,-0.06,21.6
12961,0.1534,-0.2164,0.8685,-6.15,7.63,-0.03,21.58
12971,0.1547,-0.2161,0.865,-6.2,7.74,-0.08,21.57
12981,0.1536,-0.2197,0.8644,-6.09,7.76,-0.09,21.57
12991,0.1537,-0.218,0.8672,-6.21,7.76,-0.11,21.55
13001,0.1542,-0.2183,0.8658,-6.15,7.76,-0.11,21.57
13011,0.1534,-0.217,0.8671,-6.21,7.8,0.0,21.58
13021,0.1542,-0.2183,0.8667,-6.2,7.77,-0.05,21.54
13031,0.1534,-0.2192,0.8689,-6.15,7.76,-0.11,21.56
13041,0.1558,-0.2152,0.8657,-6.21,7.74,0.0,21.57
13051,0.1545,-0.2201,0.8715,-6.17,7.65,-0.06,21.61
13061,0.1539,-0.2191,0.8669,-6.12,7.77,-0.03,21.57
13071,0.1539,-0.2181,0.8712,-6.12,7.76,-0.11,21.59
13081,0.1562,-0.2184,0.8621,-6.17,7.71,-0.06,21.58
13091,0.1514,-0.2196,0.8633,-6.24,7.77,-0.09,21.57
13101,0.1537,-0.2186,0.8713,-6.14,7.74,0.02,21.55
13111,0.1536,-0.217,0.8646,-6.23,7.71,-0.05,21.55
13121,0.1567,-0.2167,0.863,-6.08,7.68,-0.02,21.57
13131,0.157,-0.2177,0.8666,-6.23,7.74,-0.02,21.55
13141,0.1536,-0.2186,0.8679,-6.27,7.77,-0.08,21.56
13151,0.1541,-0.2201,0.8654,-6.08,7.76,-0.06,21.59
13161,0.1536,-0.2188,0.8705,-6.14,7.74,-0.06,21.57
13171,0.153,-0.2185,0.8678,-6.17,7.74,-0.08,21.55
13181,0.1528,-0.2178,0.8682,-6.2,7.68,-0.08,21.56
13191,0.1545,-0.22,0.8695,-6.2,7.79,-0.03,21.53
13201,0.1547,-0.2185,0.8706,-6.21,7.82,-0.08,21.56
13211,0.1514,-0.218,0.863,-6.12,7.82,-0.06,21.57
13221,0.1553,-0.2168,0.8644,-6.23,7.8,-0.11,21.57
13231,0.1534,-0.218,0.8656,-6.15,7.69,-0.09,21.55
13241,0.1561,-0.2162,0.8624,-6.18,7.68,-0.02,21.56
13251,0.1522,-0.2222,0.864,-6.15,7.73,0.03,21.57
13261,0.1555,-0.2174,0.8663,-6.23,7.77,-0.05,21.58
13271,0.1549,-0.2159,0.8695,-6.2,7.76,-0.05,21.57
13281,0.1547,-0.2201,0.8662,-6.17,7.76,-0.03,21.54
13291,0.1539,-0.2175,0.8687,-6.15,7.74,-0.08,21.58
13301,0.1527,-0.2194,0.864,-6.12,7.68,-0.05,21.59
13311,0.1549,-0.2168,0.8689,-6.17,7.77,-0.08,21.58
13321,0.1558,-0.2163,0.8696,-6.08,7.73,-0.11,21.58
13331,0.1561,-0.2183,0.8661,-6.2,7.73,-0.02,21.57
13341,0.1558,-0.2173,0.8657,-6.15,7.73,-0.05,21.56
13351,0.1531,-0.2167,0.8699,-6.12,7.71,-0.03,21.57
13361,0.1508,-0.2183,0.8669,-6.14,7.73,-0.05,21.56
13371,0.153,-0.2183,0.8691,-6.12,7.83,0.05,21.57
13381,0.1545,-0.2148,0.8673,-6.18,7.74,-0.03,21.56
13391,0.1575,-0.2151,0.8657,-6.17,7.82,-0.06,21.57
13401,0.1553,-0.2177,0.8683,-6.23,7.83,-0.09,21.57
13411,0.1521,-0.217,0.8641,-6.14,7.77,-0.03,21.55
13421,0.155,-0.2158,0.8646,-6.18,7.73,-0.06,21.56
13431,0.1538,-0.2178,0.8672,-6.17,7.8,-0.12,21.57
13441,0.1544,-0.2142,0.8694,-6.12,7.79,-0.05,21.57
13451,0.1572,-0.2164,0.8663,-6.12,7.79,0.05,21.57
13461,0.1548,-0.2145,0.8677,-6.17,7.77,0.0,21.56
13471,0.1532,-0.2167,0.8671,-6.2,7.74,-0.09,21.55
13481,0.1554,-0.2169,0.8639,-6.18,7.71,-0.09,21.58
13491,0.1552,-0.2201,0.8654,-6.23,7.68,-0.05,21.56
13501,0.1515,-0.2179,0.865,-6.15,7.74,0.0,21.57
13511,0.1549,-0.2158,0.8677,-6.08,7.66,-0.09,21.56
13521,0.1565,-0.2169,0.8689,-6.08,7.65,-0.03,21.56
13531,0.1543,-0.2156,0.8677,-6.24,7.66,-0.05,21.59
13541,0.1528,-0.2157,0.8699,-6.18,7.79,-0.06,21.57
13551,0.1549,-0.2206,0.866,-6.24,7.83,-0.02,21.57
13561,0.1545,-0.2189,0.8655,-6.17,7.83,0.0,21.57
13571,0.1519,-0.2163,0.8621,-6.15,7.74,-0.03,21.57
13581,0.1547,-0.2179,0.8655,-6.12,7.73,0.0,21.58
13591,0.1526,-0.2188,0.8677,-6.08,7.79,-0.11,21.56
13601,0.1559,-0.2181,0.8689,-6.15,7.79,-0.05,21.56
13611,0.1542,-0.2162,0.8684,-6.17,7.8,-0.11,21.57
13621,0.1542,-0.2168,0.8716,-6.2,7.85,-0.05,21.57
13631,0.1527,-0.2202,0.866,-6.2,7.77,-0.02,21.55
13641,0.1531,-0.2192,0.8663,-6.17,7.63,-0.06,21.57
13651,0.1566,-0.2161,0.8668,-6.12,7.68,-0.06,21.56
13661,0.1536,-0.2169,0.8665,-5.98,7.76,-0.05,21.57
13671,0.1562,-0.2164,0.8678,-6.12,7.79,-0.06,21.61
13681,0.1576,-0.2174,0.8668,-6.11,7.76,-0.03,21.59
13691,0.1538,-0.2189,0.8696,-6.11,7.77,-0.12,21.56
13701,0.1526,-0.2172,0.8699,-6.06,7.77,-0.08,21.57
13711,0.1539,-0.2177,0.8676,-6.18,7.77,-0.08,21.57
13721,0.1542,-0.2173,0.8683,-6.15,7.85,-0.06,21.58
13731,0.1544,-0.2161,0.8724,-6.15,7.83,-0.02,21.58
13741,0.1536,-0.2186,0.8663,-6.15,7.8,-0.05,21.57
13751,0.1532,-0.2189,0.863,-6.23,7.76,-0.03,21.59
13761,0.1544,-0.2179,0.8649,-6.15,7.63,-0.14,21.59
13771,0.1555,-0.2189,0.8671,-6.18,7.66,-0.09,21.59
13781,0.1531,-0.2191,0.871,-6.17,7.79,-0.03,21.57
13791,0.1544,-0.2175,0.8691,-6.21,7.74,-0.06,21.59
13801,0.1548,-0.2174,0.8647,-6.23,7.77,-0.14,21.57
13811,0.1555,-0.2135,0.8672,-6.14,7.79,-0.05,21.55
13821,0.1548,-0.2163,0.8682,-6.26,7.76,-0.08,21.59
13831,0.1533,-0.2167,0.8665,-6.24,7.76,-0.06,21.58
13841,0.1543,-0.2156,0.866,-6.15,7.86,-0.11,21.58
13851,0.1542,-0.2152,0.8649,-6.17,7.74,-0.12,21.58
13861,0.1558,-0.219,0.8652,-6.15,7.77,-0.09,21.57
13871,0.1537,-0.2173,0.8708,-6.12,7.77,-0.02,21.58
13881,0.1554,-0.2191,0.8711,-6.2,7.74,-0.06,21.59
13891,0.1553,-0.2202,0.8666,-6.2,7.77,-0.03,21.59
13901,0.1554,-0.2195,0.8656,-6.2,7.8,-0.03,21.58
13911,0.1581,-0.2181,0.8629,-6.18,7.8,-0.03,21.59
13921,0.1533,-0.2205,0.8676,-6.14,7.8,-0.05,21.58
13931,0.155,-0.2157,0.8715,-6.12,7.68,-0.15,21.6
13941,0.1578,-0.2184,0.8647,-6.08,7.69,-0.05,21.6
13951,0.1561,-0.2163,0.8641,-6.21,7.71,-0.09,21.59
13961,0.1553,-0.217,0.8672,-6.14,7.76,-0.08,21.55
13971,0.1567,-0.2172,0.87,-6.09,7.82,-0.11,21.57
13981,0.1548,-0.2228,0.8713,-6.2,7.76,-0.05,21.56
13991,0.1543,-0.2159,0.8687,-6.23,7.76,-0.06,21.6
14001,0.1512,-0.2174,0.8671,-6.17,7.82,-0.05,21.59
14011,0.1549,-0.2169,0.8657,-6.24,7.77,-0.05,21.59
14021,0.1575,-0.2188,0.8685,-6.11,7.76,-0.05,21.59
14031,0.1539,-0.2181,0.8695,-6.11,7.74,-0.03,21.59
14041,0.1558,-0.2208,0.8707,-6.12,7.73,-0.03,21.59
14051,0.1525,-0.2188,0.8689,-6.18,7.73,-0.06,21.55
14061,0.1537,-0.2188,0.865,-6.2,7.74,-0.05,21.58
14071,0.1558,-0.2169,0.8665,-6.24,7.8,-0.09,21.59
14081,0.1526,-0.2177,0.868,-6.18,7.83,0.0,21.57
14091,0.1553,-0.2166,0.8677,-6.2,7.82,-0.09,21.59
14101,0.1555,-0.2177,0.8672,-6.15,7.77,-0.06,21.59
14111,0.1536,-0.2144,0.8679,-6.09,7.69,-0.05,21.57
14121,0.1552,-0.2178,0.8677,-6.12,7.73,-0.12,21.57
14131,0.1537,-0.2175,0.8645,-6.17,7.69,-0.05,21.62
14141,0.155,-0.219,0.8701,-6.14,7.76,0.0,21.59
14151,0.1538,-0.2168,0.8689,-6.24,7.69,0.02,21.58
14161,0.1559,-0.2207,0.8683,-6.26,7.79,-0.05,21.61
14171,0.1561,-0.2169,0.8667,-6.18,7.73,-0.09,21.58
14181,0.1541,-0.2147,0.8651,-6.12,7.66,0.0,21.58
14191,0.1528,-0.2185,0.8667,-6.15,7.74,-0.03,21.59
14201,0.1547,-0.218,0.8674,-6.18,7.8,-0.02,21.57
14211,0.153,-0.2183,0.8673,-6.23,7.79,-0.05,21.58
14221,0.1543,-0.2184,0.8698,-6.11,7.8,-0.05,21.58
14231,0.1528,-0.2151,0.8678,-6.12,7.69,-0.08,21.6
14241,0.1547,-0.2177,0.8658,-6.15,7.73,-0.05,21.59
14251,0.1548,-0.2194,0.8663,-6.09,7.71,-0.11,21.6
14261,0.1525,-0.2168,0.8693,-6.21,7.8,-0.14,21.58
14271,0.1523,-0.2155,0.8673,-6.2,7.82,-0.11,21.6
14281,0.1541,-0.2161,0.8677,-6.12,7.83,-0.03,21.58
14292,0.1545,-0.2152,0.873,-6.17,7.73,-0.14,21.59
14302,0.1554,-0.2169,0.8672,-6.15,7.69,-0.12,21.6
14312,0.1548,-0.2161,0.8641,-6.12,7.68,-0.03,21.6
14322,0.1559,-0.2168,0.8647,-6.17,7.71,-0.06,21.58
14332,0.1555,-0.218,0.8672,-6.15,7.85,0.02,21.6
14342,0.1538,-0.2197,0.8677,-6.2,7.82,-0.03,21.59
14352,0.1559,-0.2164,0.8667,-6.17,7.76,-0.08,21.57
14362,0.1522,-0.2155,0.8687,-6.18,7.77,-0.05,21.58
14372,0.1544,-0.2168,0.8693,-6.12,7.77,0.0,21.61
14382,0.157,-0.2201,0.8687,-6.03,7.71,0.0,21.59
14392,0.1558,-0.219,0.8666,-6.14,7.83,-0.05,21.6
14402,0.1517,-0.2185,0.8677,-6.17,7.8,-0.03,21.61
14412,0.1541,-0.2168,0.8701,-6.29,7.66,-0.09,21.58
14422,0.1543,-0.2196,0.863,-6.17,7.65,-0.09,21.58
14432,0.155,-0.2205,0.8625,-6.24,7.63,-0.06,21.6
14442,0.156,-0.2179,0.8683,-6.18,7.74,0.0,21.56
14452,0.1536,-0.2161,0.8652,-6.09,7.77,-0.03,21.59
14462,0.1541,-0.2174,0.8698,-6.12,7.8,-0.08,21.59
14472,0.1552,-0.2159,0.8636,-6.12,7.8,-0.06,21.57
14482,0.1541,-0.2184,0.8687,-6.15,7.8,0.0,21.59
14492,0.156,-0.213,0.8645,-6.17,7.73,-0.14,21.56
14502,0.1554,-0.217,0.8624,-6.12,7.68,-0.02,21.62
14512,0.1522,-0.2166,0.8656,-6.2,7.74,-0.02,21.58
14522,0.1542,-0.2175,0.8671,-6.17,7.82,-0.05,21.58
14532,0.1536,-0.2161,0.8654,-6.17,7.77,-0.06,21.57
14542,0.1544,-0.2213,0.8708,-6.09,7.73,-0.06,21.6
14552,0.1543,-0.2158,0.8702,-6.21,7.76,-0.05,21.6
14562,0.1549,-0.2173,0.8655,-6.26,7.8,-0.02,21.58
14572,0.1548,-0.2166,0.8649,-6.17,7.82,-0.05,21.59
14582,0.1523,-0.2173,0.8667,-6.17,7.79,-0.08,21.61
14593,0.1523,-0.2175,0.8718,-6.11,7.71,-0.05,21.59
14603,0.1528,-0.2179,0.864,-6.05,7.74,-0.05,21.6
14613,0.1549,-0.2192,0.8676,-6.08,7.74,-0.09,21.58
14623,0.1553,-0.2188,0.869,-6.17,7.77,-0.02,21.59
14633,0.1548,-0.2167,0.869,-6.23,7.77,-0.11,21.58
14643,0.1565,-0.2181,0.8668,-6.2,7.85,-0.08,21.57
14653,0.1547,-0.2169,0.8621,-6.18,7.85,-0.03,21.59
14663,0.1548,-0.2166,0.8639,-6.11,7.79,-0.09,21.6
14673,0.1566,-0.2166,0.8683,-6.11,7.66,-0.08,21.58
14683,0.1555,-0.2188,0.8668,-6.18,7.76,-0.06,21.6
14693,0.1539,-0.2137,0.8674,-6.26,7.76,-0.08,21.59
14703,0.1534,-0.2203,0.8641,-6.2,7.8,-0.03,21.59
14713,0.1549,-0.2172,0.868,-6.2,7.8,-0.03,21.58
14723,0.1544,-0.2188,0.8689,-6.14,7.8,-0.09,21.59
14733,0.1549,-0.2178,0.865,-6.11,7.71,-0.08,21.58
14743,0.1548,-0.2178,0.8649,-6.06,7.69,-0.09,21.59
14753,0.1577,-0.2164,0.8694,-6.17,7.73,-0.11,21.59
14763,0.1536,-0.2201,0.8649,-6.21,7.74,0.0,21.59
14773,0.1552,-0.2164,0.8662,-6.2,7.82,-0.06,21.59
14783,0.1533,-0.2139,0.8672,-6.17,7.85,0.0,21.59
14793,0.1536,-0.2178,0.8649,-6.18,7.77,-0.09,21.59
14803,0.1554,-0.2196,0.868,-6.09,7.71,-0.06,21.6
14813,0.1564,-0.2212,0.8708,-6.11,7.73,0.03,21.59
14823,0.157,-0.2174,0.8696,-6.15,7.68,-0.05,21.57
14833,0.1547,-0.2205,0.8695,-6.18,7.85,-0.06,21.57
14843,0.1549,-0.2181,0.8696,-6.27,7.82,-0.12,21.59
14853,0.1554,-0.2192,0.8685,-6.17,7.79,-0.06,21.6
14863,0.1566,-0.2148,0.8634,-6.14,7.68,-0.06,21.57
14873,0.1536,-0.2151,0.8657,-6.08,7.71,-0.06,21.6
14883,0.1555,-0.2183,0.8649,-6.09,7.8,-0.08,21.57
14893,0.156,-0.2189,0.8711,-6.14,7.74,0.0,21.59
14903,0.1562,-0.2146,0.8691,-6.15,7.82,-0.03,21.56
14913,0.1558,-0.218,0.8629,-6.23,7.76,-0.05,21.57
14923,0.153,-0.2192,0.869,-6.17,7.77,-0.05,21.56
14933,0.1547,-0.2185,0.8698,-6.15,7.74,-0.06,21.59
14943,0.1553,-0.2155,0.869,-6.17,7.77,-0.08,21.57
14953,0.1558,-0.2174,0.8651,-6.21,7.79,-0.05,21.59
14963,0.1542,-0.2175,0.8646,-6.23,7.8,0.0,21.6
14973,0.1561,-0.2184,0.8722,-6.34,7.74,-0.06,21.58
14983,0.1526,-0.2181,0.8683,-6.12,7.73,-0.09,21.58
14993,0.1552,-0.219,0.8682,-6.12,7.76,-0.05,21.59
15003,0.1517,-0.2166,0.8682,-6.14,7.77,0.0,21.59
15013,0.1561,-0.2181,0.8641,-6.23,7.76,-0.03,21.59
15023,0.1495,-0.2181,0.8677,-6.15,7.85,-0.05,21.59
15033,0.155,-0.2178,0.8693,-6.24,7.71,0.03,21.57
15043,0.1545,-0.2188,0.8705,-6.27,7.77,-0.02,21.6
15053,0.1539,-0.2201,0.8685,-6.15,7.73,-0.08,21.59
15063,0.1564,-0.2216,0.8701,-6.11,7.76,-0.08,21.59
15073,0.1532,-0.2153,0.871,-6.06,7.79,-0.11,21.58
15083,0.1552,-0.2172,0.8685,-6.09,7.79,-0.05,21.58
15093,0.1543,-0.2166,0.8694,-6.18,7.76,0.0,21.59
15103,0.1548,-0.2194,0.8712,-6.2,7.77,-0.03,21.59
15113,0.1552,-0.219,0.866,-6.21,7.69,-0.06,21.59
15123,0.1537,-0.2192,0.8649,-6.14,7.79,-0.06,21.57
15133,0.1562,-0.2196,0.8669,-6.11,7.77,-0.06,21.61
15143,0.1562,-0.2191,0.8647,-6.12,7.77,-0.06,21.59
15153,0.1556,-0.2202,0.8639,-5.95,7.77,-0.06,21.59
15163,0.1537,-0.2174,0.8694,-6.14,7.79,-0.03,21.6
15173,0.1539,-0.2172,0.8673,-6.12,7.76,0.02,21.59
15183,0.1543,-0.2175,0.8643,-6.18,7.79,0.0,21.58
15193,0.1517,-0.2175,0.864,-6.27,7.8,-0.06,21.58
15203,0.1552,-0.2167,0.87,-6.14,7.86,-0.08,21.6
15213,0.1542,-0.2152,0.8694,-6.14,7.76,-0.09,21.59
15223,0.1562,-0.217,0.8689,-6.12,7.8,-0.02,21.59
15233,0.1549,-0.2162,0.8706,-6.17,7.77,0.02,21.61
15243,0.1578,-0.2178,0.8688,-6.2,7.8,0.0,21.6
15253,0.1549,-0.2205,0.8634,-6.27,7.73,-0.08,21.6
15263,0.1531,-0.217,0.8645,-6.32,7.74,0.0,21.58
15273,0.1526,-0.2177,0.8619,-6.2,7.77,-0.12,21.59
15283,0.1527,-0.2206,0.8647,-6.18,7.79,-0.02,21.58
15293,0.1537,-0.2188,0.8698,-6.06,7.89,-0.02,21.6
15303,0.1538,-0.2208,0.8661,-6.05,7.83,0.05,21.59
15313,0.155,-0.2196,0.8698,-6.17,7.74,-0.05,21.58
15323,0.1544,-0.2153,0.8705,-6.15,7.71,-0.03,21.59
15333,0.1561,-0.2183,0.8643,-6.24,7.6,-0.09,21.62
15343,0.1549,-0.2173,0.8667,-6.2,7.71,-0.08,21.62
15353,0.1539,-0.2162,0.8658,-6.14,7.74,-0.08,21.6
15363,0.1561,-0.2177,0.8691,-6.12,7.76,-0.05,21.6
15373,0.1527,-0.2183,0.8718,-6.18,7.71,-0.11,21.6
15383,0.1544,-0.2155,0.8657,-6.2,7.73,-0.06,21.59
15393,0.1548,-0.2124,0.8634,-6.14,7.73,0.02,21.6
15403,0.1504,-0.2156,0.8673,-6.21,7.82,-0.02,21.59
15413,0.1548,-0.2155,0.8696,-6.2,7.86,-0.05,21.6
15423,0.1556,-0.2135,0.8665,-6.26,7.88,0.0,21.62
15433,0.1544,-0.2167,0.8674,-6.18,7.74,-0.05,21.58
15443,0.1534,-0.2169,0.8718,-6.17,7.79,-0.03,21.61
15453,0.1554,-0.218,0.8702,-6.18,7.79,-0.12,21.61
15463,0.1547,-0.2208,0.8668,-6.2,7.76,-0.09,21.61
15473,0.1592,-0.2173,0.8658,-6.24,7.76,-0.06,21.63
15483,0.1543,-0.2169,0.8632,-6.27,7.76,-0.03,21.57
15493,0.1538,-0.2173,0.8645,-6.17,7.74,-0.12,21.59
15503,0.1539,-0.2188,0.8649,-6.15,7.69,-0.08,21.61
15513,0.1548,-0.2208,0.8677,-6.14,7.74,-0.08,21.59
15523,0.1549,-0.217,0.869,-6.09,7.88,-0.06,21.61
15533,0.1578,-0.2173,0.868,-6.15,7.79,-0.06,21.59
15543,0.1545,-0.217,0.8656,-6.11,7.79,-0.11,21.59
15553,0.1522,-0.218,0.8661,-6.11,7.71,-0.14,21.6
15563,0.1531,-0.2177,0.8678,-6.17,7.71,-0.11,21.59
15573,0.1543,-0.2164,0.8638,-6.09,7.77,-0.03,21.61
15583,0.1562,-0.2173,0.8673,-6.12,7.85,-0.06,21.61
15593,0.155,-0.2198,0.8656,-6.18,7.82,-0.05,21.57
15603,0.1564,-0.2192,0.865,-6.15,7.8,-0.06,21.59
15613,0.1547,-0.2172,0.8666,-6.11,7.76,0.0,21.59
15623,0.1531,-0.22,0.8655,-6.15,7.73,-0.06,21.61
15633,0.1555,-0.2164,0.8668,-6.09,7.79,-0.09,21.59
15643,0.1573,-0.2191,0.8695,-6.08,7.77,0.0,21.6
15653,0.1561,-0.2175,0.8673,-6.21,7.74,-0.09,21.57
15663,0.1547,-0.2147,0.8685,-6.17,7.77,-0.05,21.61
15673,0.1514,-0.2179,0.8683,-6.15,7.82,-0.08,21.6
15683,0.155,-0.219,0.8665,-6.17,7.76,0.02,21.62
15693,0.1567,-0.2198,0.8676,-6.15,7.82,-0.08,21.61
15703,0.1571,-0.2159,0.8634,-6.14,7.74,0.09,21.6
15713,0.153,-0.2189,0.8662,-6.12,7.77,-0.05,21.59
15723,0.1534,-0.2188,0.8676,-6.06,7.76,-0.12,21.59
15733,0.1562,-0.2181,0.865,-6.14,7.77,-0.08,21.6
15743,0.1541,-0.22,0.8632,-6.23,7.82,-0.02,21.59
15753,0.1553,-0.2217,0.8639,-6.2,7.92,0.0,21.63
15763,0.1541,-0.2174,0.8691,-6.15,7.8,-0.11,21.61
15773,0.1556,-0.2166,0.8621,-6.21,7.77,-0.11,21.63
15783,0.1542,-0.2191,0.8663,-6.17,7.71,-0.05,21.62
15793,0.1548,-0.2173,0.8673,-6.12,7.71,-0.14,21.59
15803,0.1525,-0.2148,0.8679,-6.14,7.73,-0.12,21.62
15813,0.152,-0.2166,0.8685,-6.09,7.8,-0.08,21.6
15823,0.1541,-0.2152,0.8677,-6.14,7.77,-0.03,21.61
15833,0.1534,-0.215,0.8685,-6.14,7.77,-0.06,21.59
15843,0.1544,-0.2174,0.8668,-6.12,7.68,-0.03,21.57
15853,0.1569,-0.2164,0.8678,-6.12,7.76,-0.02,21.57
15863,0.1559,-0.2168,0.8674,-6.14,7.82,0.03,21.62
15873,0.1593,-0.2191,0.8705,-6.18,7.83,-0.02,21.59
15883,0.1555,-0.218,0.8662,-6.27,7.79,-0.03,21.62
15893,0.155,-0.219,0.8682,-6.17,7.76,0.02,21.62
15903,0.1571,-0.2184,0.8646,-6.12,7.68,0.0,21.59
15913,0.1516,-0.2159,0.8682,-6.12,7.82,-0.09,21.59
15923,0.1538,-0.2157,0.8674,-6.11,7.77,-0.08,21.61
15933,0.1545,-0.2183,0.8689,-6.2,7.83,-0.03,21.58
15943,0.1525,-0.2192,0.8657,-6.17,7.86,-0.06,21.62
15953,0.15,-0.22,0.8665,-6.21,7.77,-0.05,21.6
15963,0.1538,-0.2191,0.8665,-6.17,7.68,-0.12,21.57
15973,0.1582,-0.2192,0.8669,-6.23,7.73,-0.05,21.58
15983,0.1553,-0.2185,0.869,-6.14,7.82,-0.08,21.59
15993,0.1533,-0.2166,0.8671,-6.21,7.79,-0.06,21.59
16003,0.1561,-0.2201,0.8658,-6.15,7.83,-0.09,21.62
16013,0.1526,-0.2162,0.8689,-6.2,7.83,-0.06,21.61
16023,0.1542,-0.2194,0.8663,-6.21,7.68,-0.09,21.62
16033,0.1544,-0.2196,0.8687,-6.17,7.74,-0.05,21.59
16043,0.1541,-0.2169,0.8695,-6.17,7.77,0.05,21.59
16053,0.1534,-0.2168,0.8636,-6.2,7.83,-0.08,21.62
16063,0.1531,-0.2153,0.866,-6.26,7.76,-0.06,21.6
16073,0.1527,-0.2177,0.8657,-6.17,7.66,-0.14,21.59
16083,0.1534,-0.2198,0.8718,-6.12,7.82,-0.11,21.61
16093,0.155,-0.2207,0.8685,-6.14,7.77,-0.12,21.6
16103,0.155,-0.2218,0.8701,-6.11,7.8,-0.02,21.61
16113,0.155,-0.2196,0.8682,-6.17,7.83,0.0,21.59
16123,0.1545,-0.2194,0.8673,-6.14,7.82,-0.05,21.6
16133,0.1565,-0.2208,0.8667,-6.14,7.69,-0.08,21.61
16143,0.1549,-0.2191,0.8718,-6.15,7.74,-0.05,21.62
16153,0.1565,-0.2168,0.8715,-6.24,7.76,-0.08,21.62
16163,0.1545,-0.2181,0.8682,-6.11,7.77,-0.03,21.62
16173,0.1531,-0.2164,0.8694,-6.21,7.79,-0.05,21.6
16183,0.1525,-0.2156,0.8673,-6.15,7.79,-0.08,21.6
16193,0.1556,-0.2201,0.8649,-6.26,7.74,-0.09,21.59
16203,0.1567,-0.2183,0.8666,-6.21,7.74,-0.03,21.61
16213,0.1561,-0.2169,0.8656,-6.18,7.79,0.03,21.6
16223,0.1509,-0.2167,0.8673,-6.2,7.88,-0.05,21.6
16233,0.157,-0.2208,0.8654,-6.15,7.79,-0.14,21.59
16243,0.1549,-0.2189,0.8672,-6.17,7.74,0.0,21.59
16253,0.1556,-0.2194,0.8683,-6.14,7.68,-0.08,21.59
16263,0.1547,-0.2172,0.8662,-6.09,7.74,-0.12,21.59
16273,0.1542,-0.2158,0.865,-6.24,7.74,-0.12,21.6
16283,0.1545,-0.2179,0.8665,-6.12,7.76,-0.09,21.62
16293,0.1523,-0.2152,0.8689,-6.09,7.76,-0.06,21.6
16303,0.1561,-0.2156,0.8661,-6.2,7.69,-0.02,21.59
16313,0.1553,-0.215,0.869,-6.18,7.77,0.02,21.61
16323,0.1548,-0.2167,0.8684,-6.15,7.83,-0.05,21.6
16333,0.1516,-0.2186,0.8683,-6.24,7.8,0.02,21.59
16343,0.1522,-0.2188,0.8671,-6.27,7.77,-0.08,21.63
16353,0.1569,-0.2158,0.8647,-6.14,7.73,-0.12,21.62
16363,0.155,-0.2177,0.8647,-6.09,7.79,0.0,21.62
16373,0.1554,-0.2188,0.8668,-6.15,7.76,-0.06,21.61
16383,0.1536,-0.2183,0.8663,-6.24,7.77,-0.11,21.61
16393,0.1583,-0.217,0.8682,-6.17,7.82,-0.11,21.62
16403,0.1561,-0.219,0.8638,-6.18,7.74,0.03,21.61
16413,0.1528,-0.2158,0.8663,-6.2,7.73,-0.05,21.6
16423,0.1539,-0.2173,0.8688,-6.18,7.71,-0.03,21.6
16433,0.1558,-0.2152,0.8695,-6.11,7.68,-0.03,21.62
16443,0.1554,-0.2166,0.8661,-6.15,7.79,-0.05,21.62
16453,0.1554,-0.2177,0.866,-6.15,7.77,-0.08,21.61
16463,0.1547,-0.2198,0.8672,-6.23,7.82,-0.08,21.6
16473,0.1526,-0.2185,0.8662,-6.23,7.82,-0.11,21.62
16483,0.1541,-0.2172,0.8682,-6.18,7.83,-0.02,21.61
16493,0.1555,-0.2195,0.8657,-6.05,7.83,-0.06,21.61
16503,0.1538,-0.2195,0.8683,-6.08,7.77,-0.05,21.59
16513,0.1548,-0.2177,0.8701,-6.14,7.63,-0.06,21.62
16523,0.1517,-0.2146,0.8656,-6.05,7.6,-0.09,21.59
16533,0.1554,-0.2157,0.8623,-6.17,7.66,-0.06,21.65
16543,0.1515,-0.2183,0.8661,-6.14,7.8,-0.08,21.62
16553,0.1542,-0.2175,0.8649,-6.14,7.88,0.03,21.62
16563,0.1534,-0.2136,0.8663,-6.15,7.73,-0.05,21.64
16573,0.1532,-0.2134,0.8656,-6.24,7.6,-0.05,21.64
16583,0.1522,-0.2142,0.8652,-6.18,7.65,-0.08,21.65
16593,0.1526,-0.2194,0.8634,-6.26,7.73,-0.09,21.65
16603,0.1521,-0.2163,0.8685,-6.26,7.8,-0.03,21.63
16613,0.1537,-0.2156,0.8644,-6.29,7.88,-0.08,21.61
16623,0.1538,-0.2175,0.8669,-6.31,7.76,-0.08,21.6
16633,0.1527,-0.2192,0.8656,-6.27,7.66,-0.05,21.62
16643,0.156,-0.2194,0.8695,-6.14,7.57,-0.03,21.62
16653,0.1562,-0.2164,0.8663,-6.09,7.65,-0.05,21.62
16663,0.1598,-0.2183,0.8684,-6.03,7.83,-0.02,21.64
16673,0.1595,-0.2211,0.8724,-6.14,7.88,-0.06,21.62
16683,0.1573,-0.2203,0.8708,-6.2,7.77,-0.05,21.63
16693,0.1562,-0.2202,0.8684,-6.2,7.71,-0.02,21.62
16703,0.1545,-0.217,0.8613,-6.08,7.71,-0.09,21.62
16713,0.1561,-0.2216,0.8663,-6.03,7.74,-0.05,21.63
16723,0.1537,-0.2157,0.8665,-5.98,7.89,-0.12,21.64
16733,0.1512,-0.2162,0.8668,-6.03,7.95,0.02,21.64
16743,0.1522,-0.2153,0.864,-6.18,7.86,0.02,21.62
16753,0.1516,-0.2167,0.8687,-6.21,7.69,-0.08,21.62
16763,0.1499,-0.2185,0.8656,-6.32,7.66,-0.08,21.63
16773,0.1532,-0.2177,0.8636,-6.38,7.73,-0.06,21.61
16783,0.152,-0.2175,0.8644,-6.34,7.76,0.0,21.64
16793,0.1534,-0.2166,0.8613,-6.08,7.79,0.03,21.62
16803,0.1476,-0.2169,0.8635,-6.02,8.05,0.0,21.65
16813,0.1501,-0.2151,0.8667,-6.02,7.92,-0.06,21.64
16823,0.1503,-0.2188,0.8698,-6.21,7.56,-0.12,21.63
16833,0.1543,-0.2174,0.8665,-6.35,7.34,-0.2,21.63
16843,0.1608,-0.2217,0.8617,-6.38,7.45,-0.11,21.64
16853,0.1571,-0.2242,0.8605,-6.31,7.86,0.0,21.62
16863,0.157,-0.2208,0.8638,-6.2,8.31,0.05,21.62
16873,0.1542,-0.2245,0.8695,-6.17,8.2,0.09,21.64
16883,0.152,-0.2189,0.8671,-6.12,7.71,0.02,21.62
16893,0.1528,-0.22,0.8673,-6.02,7.44,-0.08,21.62
16903,0.1532,-0.2145,0.8651,-5.94,7.4,-0.08,21.62
16913,0.1584,-0.212,0.8627,-6.09,7.69,0.0,21.62
16923,0.1553,-0.2095,0.8689,-6.11,7.91,-0.02,21.64
16933,0.1533,-0.2081,0.8671,-6.18,7.86,0.0,21.63
16943,0.1537,-0.2057,0.8666,-6.21,7.65,-0.21,21.63
16953,0.158,-0.2103,0.8702,-6.2,7.54,-0.18,21.61
16963,0.1593,-0.2129,0.8682,-6.37,7.69,-0.11,21.64
16973,0.1567,-0.2164,0.8639,-6.47,7.92,-0.12,21.65
16983,0.1572,-0.2209,0.8688,-6.29,7.98,-0.06,21.65
16993,0.1547,-0.2202,0.8688,-6.23,7.89,-0.12,21.62
17003,0.1567,-0.2224,0.8667,-6.08,7.63,-0.05,21.64
17013,0.1569,-0.2189,0.8684,-6.11,7.47,-0.05,21.64
17023,0.1576,-0.2195,0.8684,-6.24,7.63,0.0,21.65
17033,0.156,-0.2157,0.8718,-6.29,7.89,0.02,21.62
17043,0.1542,-0.2161,0.8687,-6.4,8.06,-0.02,21.64
17053,0.1532,-0.2174,0.8716,-6.35,7.98,-0.09,21.64
17063,0.1531,-0.2191,0.8691,-6.32,7.77,-0.08,21.59
17073,0.1516,-0.2201,0.8669,-6.31,7.59,-0.11,21.63
17083,0.1541,-0.2184,0.8655,-6.31,7.66,-0.08,21.6
17093,0.1556,-0.2241,0.8654,-6.4,7.82,0.02,21.62
17103,0.1525,-0.2255,0.8612,-6.32,8.03,-0.02,21.61
17113,0.1545,-0.2247,0.8632,-6.08,8.02,0.06,21.61
17123,0.1526,-0.2196,0.8669,-5.94,7.83,0.0,21.63
17133,0.1539,-0.2186,0.8682,-5.94,7.53,0.03,21.63
17143,0.1549,-0.2136,0.8667,-6.14,7.5,-0.05,21.62
17153,0.1561,-0.2157,0.8651,-6.24,7.51,-0.05,21.61
17163,0.153,-0.2151,0.8607,-6.34,7.8,-0.05,21.6
17173,0.1562,-0.2144,0.863,-6.26,7.91,-0.03,21.63
17183,0.1571,-0.2186,0.8662,-6.18,7.92,-0.02,21.64
17193,0.1556,-0.2202,0.8654,-6.11,7.85,0.0,21.62
17203,0.1553,-0.2209,0.8695,-6.14,7.65,-0.08,21.61
17213,0.1609,-0.2201,0.8632,-6.17,7.57,-0.06,21.62
17223,0.1586,-0.2205,0.8656,-6.32,7.63,-0.08,21.63
17233,0.156,-0.2203,0.8652,-6.2,7.85,-0.06,21.63
17243,0.1565,-0.2196,0.8658,-6.05,7.76,-0.06,21.62
17253,0.1562,-0.2186,0.8676,-5.97,7.65,-0.08,21.61
17263,0.1583,-0.2156,0.8673,-5.98,7.54,-0.11,21.62
17273,0.1573,-0.2174,0.8689,-6.11,7.62,-0.15,21.63
17283,0.1595,-0.2163,0.8682,-6.27,7.77,-0.06,21.62
17293,0.1584,-0.2196,0.8667,-6.23,7.86,-0.14,21.61
17303,0.1543,-0.2211,0.8644,-6.23,7.92,-0.11,21.62
17313,0.1572,-0.2183,0.8668,-6.09,7.71,-0.11,21.65
17323,0.1553,-0.218,0.873,-6.03,7.44,-0.18,21.62
17333,0.1564,-0.2141,0.8651,-6.0,7.47,-0.03,21.62
17343,0.1548,-0.2159,0.8688,-6.05,7.76,-0.08,21.62
17353,0.1536,-0.2124,0.8699,-6.14,8.09,-0.02,21.63
17363,0.153,-0.2152,0.8711,-6.34,8.09,-0.02,21.62
17373,0.1477,-0.2185,0.8713,-6.37,7.92,0.03,21.61
17383,0.1531,-0.2175,0.8685,-6.2,7.59,-0.11,21.61
17393,0.152,-0.2227,0.8676,-6.23,7.54,-0.09,21.62
17403,0.1541,-0.2234,0.8643,-6.17,7.73,-0.11,21.63
17413,0.1503,-0.2185,0.8612,-6.12,7.97,-0.09,21.62
17423,0.1506,-0.2189,0.866,-6.03,7.82,-0.03,21.62
17433,0.1521,-0.2178,0.8683,-6.02,7.69,-0.06,21.62
17443,0.1538,-0.2136,0.8669,-6.06,7.51,-0.03,21.65
17453,0.153,-0.2173,0.8655,-6.09,7.51,-0.05,21.62
17463,0.1553,-0.215,0.8611,-6.18,7.71,-0.09,21.61
17473,0.1558,-0.2153,0.8625,-6.37,7.98,0.02,21.61
17483,0.1536,-0.2157,0.8662,-6.24,8.02,0.06,21.62
17493,0.1539,-0.2158,0.864,-6.21,7.79,-0.02,21.63
17503,0.1522,-0.2151,0.8663,-6.08,7.63,-0.05,21.64
17513,0.1565,-0.2131,0.8706,-6.11,7.66,0.0,21.64
17523,0.1567,-0.2141,0.8704,-6.27,7.85,0.02,21.64
17533,0.1527,-0.2163,0.8683,-6.35,8.06,0.02,21.62
17543,0.1542,-0.2184,0.8652,-6.27,8.02,-0.05,21.65
17553,0.1534,-0.2227,0.869,-6.24,7.83,0.0,21.64
17563,0.1525,-0.2181,0.8656,-6.18,7.59,-0.06,21.64
17573,0.1548,-0.2242,0.8634,-6.11,7.65,-0.11,21.63
17583,0.1541,-0.2192,0.8689,-6.09,7.82,-0.08,21.63
17593,0.1566,-0.2185,0.8708,-6.12,7.88,-0.05,21.65
17603,0.1552,-0.2139,0.8691,-6.08,7.88,-0.03,21.63
17613,0.1555,-0.2168,0.8682,-6.11,7.73,-0.08,21.61
17623,0.1549,-0.2191,0.8665,-6.18,7.6,-0.08,21.63
17633,0.1564,-0.2156,0.8649,-6.24,7.63,-0.17,21.64
17643,0.1567,-0.2148,0.8682,-6.31,7.74,-0.11,21.65
17653,0.1567,-0.2177,0.8625,-6.17,7.79,-0.02,21.62
17663,0.1569,-0.2216,0.8655,-6.08,7.97,0.02,21.64
17673,0.1554,-0.2166,0.8689,-5.98,7.91,-0.03,21.62
17683,0.155,-0.2189,0.8717,-6.08,7.83,-0.12,21.65
17693,0.1526,-0.2175,0.8715,-6.24,7.76,-0.09,21.62
17703,0.152,-0.2178,0.869,-6.34,7.63,-0.08,21.65
17713,0.152,-0.2156,0.8616,-6.32,7.76,-0.06,21.62
17723,0.15,-0.2191,0.8599,-6.24,7.83,-0.05,21.61
17733,0.1505,-0.2188,0.861,-6.12,7.86,0.0,21.63
17743,0.1453,-0.2207,0.8617,-6.09,7.76,0.02,21.66
17753,0.1522,-0.22,0.8618,-6.12,7.62,-0.05,21.62
17763,0.1537,-0.2186,0.8665,-6.15,7.54,-0.12,21.63
17773,0.1587,-0.2185,0.8666,-6.27,7.56,-0.08,21.61
17783,0.1559,-0.2175,0.8673,-6.2,7.73,-0.06,21.62
17793,0.1573,-0.2172,0.8663,-6.14,7.77,-0.05,21.63
17803,0.1564,-0.2188,0.8663,-6.02,7.74,-0.09,21.63
17813,0.1531,-0.2147,0.8698,-6.05,7.66,-0.02,21.65
17823,0.1553,-0.215,0.8698,-6.09,7.54,-0.08,21.64
17833,0.157,-0.2179,0.869,-6.34,7.66,0.02,21.64
17843,0.1573,-0.2163,0.8647,-6.21,7.94,-0.08,21.64
17853,0.1554,-0.2186,0.8621,-6.2,7.98,-0.03,21.63
17863,0.1522,-0.2202,0.8613,-6.11,7.88,-0.05,21.63
17873,0.1527,-0.2178,0.8677,-6.09,7.69,-0.03,21.63
17883,0.151,-0.2153,0.8702,-6.15,7.56,-0.09,21.66
17893,0.1544,-0.2178,0.8666,-6.24,7.68,-0.14,21.64
17903,0.1562,-0.2197,0.8663,-6.37,7.89,-0.06,21.64
17913,0.1509,-0.2191,0.8662,-6.29,8.05,-0.03,21.64
17923,0.1523,-0.2208,0.8633,-6.15,8.02,0.0,21.64
17933,0.1532,-0.2198,0.8647,-6.03,7.8,-0.06,21.65
17943,0.1542,-0.2162,0.8711,-5.94,7.6,-0.03,21.65
17953,0.1569,-0.2185,0.8718,-6.06,7.56,-0.06,21.64
17963,0.1582,-0.2183,0.8698,-6.17,7.71,-0.12,21.64
17973,0.157,-0.2172,0.8694,-6.34,7.94,-0.06,21.63
17983,0.153,-0.2166,0.8669,-6.23,7.95,-0.02,21.65
17993,0.1523,-0.217,0.8662,-6.18,7.85,0.02,21.61
18003,0.1527,-0.2181,0.8662,-6.08,7.68,0.02,21.66
18013,0.1552,-0.2166,0.8643,-6.05,7.57,0.0,21.64
18023,0.1558,-0.2184,0.8608,-6.14,7.65,0.0,21.64
18033,0.1536,-0.2177,0.8644,-6.24,7.79,-0.06,21.65
18043,0.1517,-0.2157,0.8665,-6.17,7.86,-0.02,21.64
18053,0.1533,-0.2166,0.8666,-6.2,7.79,-0.09,21.64
18063,0.1545,-0.2161,0.8672,-6.11,7.62,-0.14,21.66
18073,0.1578,-0.2173,0.8657,-6.17,7.57,-0.09,21.63
18083,0.1561,-0.2151,0.8654,-6.29,7.68,-0.05,21.6
18093,0.1534,-0.2175,0.8636,-6.24,7.91,0.03,21.64
18103,0.1534,-0.2163,0.8616,-6.23,8.05,0.06,21.64
18113,0.1519,-0.2164,0.8628,-6.12,7.95,-0.03,21.65
18123,0.1531,-0.2144,0.8676,-6.14,7.69,-0.05,21.66
18133,0.1589,-0.2133,0.8722,-6.11,7.57,-0.09,21.67
18143,0.1561,-0.2151,0.8698,-6.26,7.71,-0.08,21.64
18153,0.155,-0.2161,0.8655,-6.29,7.92,-0.08,21.66
18163,0.1556,-0.2186,0.8666,-6.31,8.0,-0.06,21.65
18173,0.1539,-0.2213,0.8674,-6.35,7.89,-0.06,21.66
18183,0.1539,-0.2229,0.8683,-6.24,7.65,-0.09,21.63
18193,0.1572,-0.2194,0.8649,-6.09,7.56,-0.15,21.66
18203,0.1549,-0.2224,0.8669,-6.02,7.66,-0.08,21.65
18213,0.1581,-0.2184,0.8717,-6.09,7.82,-0.09,21.67
18223,0.1577,-0.2203,0.8704,-6.02,7.97,-0.09,21.65
18233,0.1509,-0.2153,0.8687,-6.12,7.77,-0.02,21.65
18243,0.1554,-0.2181,0.8674,-6.09,7.65,-0.02,21.64
18253,0.1536,-0.2178,0.8647,-6.06,7.5,-0.06,21.67
18263,0.1531,-0.2124,0.8665,-6.14,7.63,-0.11,21.67
18273,0.1569,-0.2164,0.866,-6.15,7.88,-0.09,21.65
18283,0.1541,-0.2178,0.8695,-6.14,7.88,-0.03,21.65
18293,0.1562,-0.2179,0.8673,-6.14,7.79,0.0,21.68
18303,0.1552,-0.2202,0.8679,-6.18,7.65,0.02,21.64
18313,0.1575,-0.2177,0.8694,-6.27,7.63,-0.06,21.64
18323,0.1581,-0.2179,0.8621,-6.15,7.8,-0.08,21.67
18333,0.1556,-0.2183,0.8676,-6.05,7.91,0.0,21.64
18343,0.1505,-0.2205,0.865,-6.03,7.89,0.03,21.66
18353,0.1537,-0.2191,0.8665,-6.12,7.8,0.02,21.64
18363,0.1515,-0.2201,0.8641,-6.12,7.63,-0.15,21.65
18373,0.1519,-0.2169,0.8656,-6.38,7.6,-0.05,21.66
18383,0.1549,-0.2188,0.8655,-6.27,7.77,0.03,21.65
18393,0.1534,-0.2166,0.8674,-6.12,7.92,-0.08,21.67
18403,0.1539,-0.2169,0.8737,-6.12,7.86,-0.05,21.64
18413,0.1527,-0.2164,0.8673,-6.09,7.8,-0.03,21.63
18423,0.1539,-0.2159,0.8674,-6.15,7.65,-0.06,21.64
18433,0.1531,-0.2174,0.8691,-6.23,7.6,-0.05,21.62
18443,0.1538,-0.2177,0.8682,-6.24,7.63,-0.08,21.63
18453,0.1547,-0.2163,0.8661,-6.17,7.79,-0.06,21.64
18463,0.1534,-0.2172,0.868,-6.11,7.86,-0.06,21.65
18473,0.155,-0.2167,0.8696,-6.12,7.77,-0.05,21.65
18483,0.1522,-0.2177,0.869,-6.14,7.68,-0.08,21.64
18493,0.1565,-0.2177,0.8694,-6.23,7.62,-0.12,21.66
18503,0.1561,-0.2177,0.8735,-6.2,7.66,-0.14,21.68
18513,0.1545,-0.2188,0.868,-6.26,7.86,-0.09,21.68
18523,0.1547,-0.2181,0.8621,-6.26,7.86,0.0,21.66
18533,0.155,-0.2177,0.8663,-6.14,7.8,-0.02,21.67
18543,0.155,-0.2227,0.8634,-6.09,7.74,-0.08,21.64
18553,0.1521,-0.2178,0.8671,-6.15,7.79,-0.11,21.66
18563,0.1553,-0.2175,0.8706,-6.21,7.74,-0.11,21.65
18573,0.1541,-0.2196,0.8673,-6.24,7.86,-0.05,21.65
18583,0.1517,-0.2197,0.8679,-6.21,7.88,-0.02,21.69
18593,0.1541,-0.2208,0.8695,-6.2,7.8,-0.09,21.64
18603,0.1541,-0.2194,0.8655,-6.15,7.63,-0.09,21.67
18613,0.1545,-0.2208,0.8689,-6.0,7.71,-0.05,21.65
18623,0.1562,-0.2191,0.8669,-6.08,7.79,-0.02,21.66
18633,0.1537,-0.2185,0.8655,-6.08,7.8,-0.02,21.63
18643,0.1526,-0.2163,0.8657,-6.2,7.89,0.06,21.64
18653,0.1514,-0.2178,0.8698,-6.32,7.73,0.0,21.65
18663,0.1538,-0.2159,0.8658,-6.29,7.6,-0.05,21.67
18673,0.1567,-0.2174,0.8683,-6.15,7.68,-0.09,21.65
18683,0.1572,-0.2168,0.8658,-6.09,7.89,-0.05,21.67
18693,0.157,-0.2168,0.8663,-6.12,7.91,0.02,21.66
18703,0.1564,-0.2189,0.8696,-6.14,7.8,-0.03,21.67
18713,0.1522,-0.2189,0.8696,-6.27,7.74,0.03,21.67
18723,0.1526,-0.2205,0.8651,-6.24,7.63,-0.03,21.64
18733,0.1538,-0.2191,0.8671,-6.29,7.76,-0.11,21.65
18743,0.1531,-0.222,0.8632,-6.34,7.83,-0.05,21.67
18753,0.1542,-0.2188,0.8636,-6.14,7.89,-0.05,21.67
18763,0.155,-0.2178,0.8688,-6.06,7.76,-0.09,21.66
18774,0.1523,-0.2177,0.8694,-6.0,7.68,0.03,21.66
18784,0.1547,-0.2181,0.8737,-6.15,7.66,-0.05,21.67
18794,0.1544,-0.2167,0.8691,-6.23,7.66,-0.06,21.64
18804,0.1565,-0.2168,0.8617,-6.2,7.79,-0.02,21.64
18814,0.1554,-0.2153,0.8657,-6.12,7.83,-0.05,21.65
18824,0.1583,-0.2188,0.8641,-6.17,7.86,-0.05,21.66
18834,0.155,-0.2201,0.8687,-6.02,7.76,-0.09,21.66
18844,0.1545,-0.2214,0.8657,-6.17,7.73,-0.08,21.64
18854,0.1531,-0.2178,0.8644,-6.12,7.62,-0.08,21.66
18864,0.1515,-0.2178,0.8634,-6.18,7.68,-0.02,21.66
18874,0.1544,-0.2194,0.8624,-6.09,7.82,-0.08,21.68
18884,0.1553,-0.2179,0.8674,-6.14,7.82,0.0,21.65
18894,0.1544,-0.2201,0.8693,-6.08,7.74,-0.03,21.68
18904,0.155,-0.219,0.868,-6.17,7.68,-0.18,21.67
18914,0.1561,-0.2159,0.8668,-6.21,7.62,-0.12,21.67
18924,0.1569,-0.2175,0.8669,-6.24,7.73,-0.03,21.66
18934,0.1562,-0.2177,0.8594,-6.17,7.86,-0.12,21.66
18944,0.1545,-0.22,0.8649,-6.14,7.85,-0.03,21.68
18954,0.1558,-0.2188,0.8688,-6.14,7.77,-0.09,21.66
18964,0.1547,-0.2191,0.8694,-6.11,7.74,-0.12,21.65
18974,0.1552,-0.2157,0.8639,-6.12,7.77,-0.06,21.65
18984,0.156,-0.2198,0.8682,-6.12,7.76,-0.05,21.63
18994,0.1549,-0.2178,0.8666,-6.24,7.92,-0.06,21.68
19004,0.1548,-0.2161,0.8632,-6.23,7.92,-0.02,21.67
19014,0.1509,-0.2162,0.8669,-6.18,7.85,-0.02,21.64
19024,0.1541,-0.2184,0.8676,-6.17,7.68,-0.08,21.64
19034,0.1556,-0.2189,0.8656,-6.17,7.59,-0.11,21.64
19044,0.1566,-0.2195,0.8665,-6.12,7.63,-0.03,21.65
19054,0.156,-0.22,0.8688,-6.17,7.83,-0.06,21.67
19064,0.1527,-0.2192,0.8682,-6.11,7.86,-0.02,21.68
19074,0.1545,-0.2172,0.8674,-6.09,7.85,0.02,21.67
19084,0.1578,-0.2202,0.8645,-6.09,7.77,-0.05,21.66
19094,0.1534,-0.2161,0.8683,-6.17,7.74,-0.02,21.64
19104,0.1572,-0.2172,0.8654,-6.23,7.76,-0.05,21.64
19114,0.1552,-0.2191,0.8647,-6.17,7.76,-0.02,21.65
19124,0.1562,-0.2178,0.8607,-6.09,7.85,-0.02,21.66
19134,0.1527,-0.2172,0.8638,-6.02,7.8,-0.11,21.69
19144,0.1525,-0.2202,0.8691,-6.09,7.77,-0.02,21.66
19154,0.157,-0.2159,0.8704,-6.14,7.69,-0.09,21.68
19164,0.152,-0.2189,0.8666,-6.14,7.65,-0.12,21.64
19174,0.1523,-0.2166,0.868,-6.15,7.63,-0.12,21.65
19184,0.1537,-0.2203,0.865,-6.2,7.77,-0.09,21.64
19194,0.1538,-0.217,0.8643,-6.12,7.77,0.02,21.65
19204,0.1534,-0.2157,0.8689,-6.11,7.82,0.03,21.65
19214,0.1559,-0.2175,0.8712,-6.21,7.82,-0.03,21.64
19224,0.1541,-0.2157,0.8656,-6.18,7.73,-0.11,21.64
19234,0.1526,-0.2179,0.8605,-6.24,7.82,-0.05,21.67
19244,0.155,-0.2175,0.8644,-6.21,7.82,-0.06,21.67
19254,0.1586,-0.2163,0.8676,-6.18,7.88,-0.02,21.68
19264,0.1522,-0.2148,0.8629,-6.09,7.86,-0.03,21.64
19274,0.1539,-0.2161,0.8656,-6.17,7.8,0.0,21.65
19284,0.1516,-0.219,0.8671,-6.23,7.74,-0.05,21.63
19300,0.1564,-0.2175,0.8663,-6.23,7.73,-0.03,21.65
19310,0.1553,-0.2185,0.8701,-6.14,7.76,-0.02,21.67
19320,0.1555,-0.2174,0.871,-6.05,7.82,-0.05,21.68
19330,0.1534,-0.2178,0.8679,-6.15,7.63,-0.08,21.64
19340,0.155,-0.2183,0.87,-6.08,7.62,-0.09,21.67
19350,0.1547,-0.2137,0.8667,-6.02,7.59,-0.12,21.65
19360,0.1576,-0.2139,0.8683,-6.24,7.73,-0.08,21.64
19370,0.157,-0.2155,0.8661,-6.24,7.76,-0.12,21.66
19380,0.1571,-0.2144,0.8699,-6.18,7.83,-0.11,21.63
19390,0.1525,-0.2144,0.868,-6.2,7.74,-0.06,21.64
19400,0.1541,-0.2126,0.8684,-6.23,7.62,-0.17,21.66
19410,0.1558,-0.2158,0.8651,-6.14,7.53,-0.09,21.64
19420,0.1586,-0.215,0.8615,-6.29,7.76,-0.17,21.66
19430,0.1566,-0.2186,0.8663,-6.24,7.94,-0.09,21.67
19440,0.1583,-0.2179,0.8706,-6.37,7.98,-0.05,21.65
19450,0.1526,-0.2235,0.8676,-6.27,7.86,-0.08,21.67
19460,0.1525,-0.2242,0.8645,-6.32,7.6,-0.14,21.67
19470,0.1555,-0.2217,0.8616,-6.24,7.59,-0.12,21.68
19480,0.1565,-0.2234,0.8628,-6.06,7.74,-0.11,21.68
19490,0.1532,-0.2217,0.8665,-6.03,7.95,0.03,21.67
19500,0.1517,-0.2209,0.8698,-5.92,7.98,0.02,21.67
19510,0.1516,-0.217,0.8704,-6.08,7.83,-0.05,21.65
19520,0.149,-0.2158,0.8684,-6.15,7.54,-0.12,21.67
19530,0.1573,-0.2188,0.8658,-6.2,7.36,-0.17,21.64
19540,0.1566,-0.2196,0.8613,-6.23,7.65,-0.14,21.68
19550,0.1553,-0.2168,0.861,-6.17,7.97,0.05,21.67
19560,0.1526,-0.2178,0.8643,-6.18,8.31,0.05,21.65
19570,0.15,-0.2175,0.8632,-6.15,8.05,-0.05,21.63
19580,0.1525,-0.2172,0.8685,-6.18,7.57,-0.11,21.65
19590,0.1533,-0.2169,0.8641,-6.0,7.3,-0.11,21.65
19600,0.1552,-0.215,0.8645,-6.02,7.36,-0.06,21.68
19610,0.1538,-0.2112,0.8701,-6.09,7.76,0.0,21.65
19620,0.1566,-0.2133,0.8682,-6.15,8.02,-0.05,21.67
19630,0.1523,-0.2169,0.8729,-6.2,7.91,-0.05,21.69
19640,0.1539,-0.2164,0.8707,-6.26,7.63,-0.12,21.68
19650,0.1567,-0.2183,0.8707,-6.4,7.39,-0.24,21.69
19660,0.1541,-0.2166,0.8674,-6.44,7.6,-0.08,21.67
19670,0.1581,-0.217,0.8628,-6.37,7.88,-0.06,21.66
19680,0.1581,-0.2169,0.8651,-6.21,7.98,-0.05,21.67
19690,0.1565,-0.2183,0.8658,-6.15,7.92,0.0,21.66
19700,0.1565,-0.2162,0.8667,-6.08,7.63,-0.17,21.66
19710,0.1565,-0.2195,0.8701,-6.18,7.47,-0.12,21.67
19720,0.1558,-0.2185,0.8652,-6.35,7.69,-0.09,21.67
19730,0.1534,-0.2208,0.8636,-6.43,7.94,-0.05,21.66
19740,0.1548,-0.2224,0.8668,-6.34,7.95,-0.02,21.66
19750,0.1533,-0.2246,0.8669,-6.05,7.86,0.0,21.67
19760,0.1543,-0.2231,0.8685,-5.98,7.73,-0.02,21.68
19770,0.1515,-0.2207,0.8691,-5.94,7.56,-0.05,21.67
19780,0.1548,-0.2181,0.8694,-6.03,7.59,-0.09,21.66
19790,0.1538,-0.2207,0.8677,-6.24,7.68,-0.11,21.68
19800,0.1562,-0.218,0.8649,-6.26,7.91,-0.06,21.68
19810,0.155,-0.2175,0.8646,-6.32,7.97,-0.08,21.67
19820,0.157,-0.2183,0.8658,-6.11,7.89,-0.08,21.67
19830,0.1543,-0.2172,0.8662,-6.0,7.71,-0.12,21.67
19840,0.1547,-0.2167,0.8663,-6.12,7.6,-0.11,21.66
19850,0.1542,-0.2198,0.8651,-6.08,7.69,-0.08,21.66
19860,0.1565,-0.2178,0.8673,-6.23,7.79,-0.08,21.68
19870,0.155,-0.2195,0.8646,-6.2,7.89,-0.02,21.66
19880,0.1545,-0.2181,0.8693,-6.21,7.82,-0.02,21.67
19890,0.1521,-0.2179,0.8699,-6.11,7.69,0.0,21.64
19900,0.1544,-0.219,0.8674,-6.18,7.6,-0.03,21.66
19910,0.153,-0.2157,0.8666,-6.24,7.6,-0.03,21.67
19920,0.1559,-0.2164,0.8683,-6.29,7.82,-0.03,21.69
19930,0.1533,-0.2157,0.8623,-6.2,7.91,0.03,21.67
19940,0.1548,-0.2172,0.8655,-6.15,7.8,-0.08,21.68
19950,0.1554,-0.2157,0.8682,-6.11,7.73,-0.08,21.66
19960,0.1569,-0.2194,0.8638,-6.06,7.71,-0.17,21.67
19970,0.1554,-0.2158,0.8667,-6.03,7.66,-0.12,21.68
19980,0.1567,-0.2164,0.8673,-6.23,7.89,-0.12,21.69
19990,0.155,-0.2169,0.8678,-6.21,8.0,-0.03,21.66
20000,0.1539,-0.2178,0.8726,-6.29,8.0,-0.06,21.67
20010,0.1556,-0.2197,0.8685,-6.23,7.83,0.0,21.67
20020,0.151,-0.2206,0.8723,-6.15,7.68,-0.12,21.68
20030,0.156,-0.2189,0.8679,-6.11,7.65,-0.11,21.68
20040,0.1556,-0.2174,0.8674,-6.15,7.77,-0.06,21.66
20050,0.1553,-0.2181,0.8694,-6.24,7.83,-0.08,21.68
20060,0.153,-0.2162,0.8663,-6.34,7.94,-0.14,21.67
20070,0.1542,-0.2185,0.8625,-6.29,7.76,-0.12,21.68
20080,0.1528,-0.2192,0.8657,-6.23,7.63,-0.05,21.68
20090,0.1549,-0.2185,0.8633,-6.12,7.57,-0.09,21.7
20100,0.1552,-0.2168,0.8682,-5.91,7.57,-0.05,21.67
20110,0.1565,-0.2183,0.8674,-5.97,7.77,0.02,21.69
20120,0.1558,-0.2164,0.8722,-6.06,7.85,0.0,21.67
20130,0.1534,-0.2147,0.8679,-6.21,7.82,0.02,21.67
20140,0.1549,-0.2124,0.868,-6.29,7.74,-0.05,21.65
20150,0.1538,-0.2198,0.8632,-6.41,7.76,-0.02,21.64
20160,0.1538,-0.2188,0.8635,-6.32,7.85,0.03,21.67
20170,0.1578,-0.2207,0.8641,-6.18,7.92,-0.08,21.67
20180,0.1539,-0.2214,0.8678,-6.17,7.91,-0.05,21.68
20190,0.152,-0.2203,0.8658,-6.09,7.79,-0.06,21.69
20200,0.1536,-0.2169,0.8689,-6.03,7.62,0.03,21.67
20210,0.1564,-0.2184,0.8702,-6.14,7.71,-0.12,21.69
20220,0.158,-0.2164,0.8667,-6.24,7.73,-0.06,21.7
20230,0.1541,-0.2203,0.8677,-6.23,7.82,-0.09,21.68
20240,0.1528,-0.2188,0.8632,-6.24,7.83,-0.09,21.69
20250,0.1537,-0.2186,0.8624,-6.27,7.76,-0.08,21.66
20260,0.1538,-0.218,0.8667,-6.06,7.71,-0.11,21.69
20270,0.1582,-0.2197,0.8724,-6.0,7.85,-0.02,21.67
20280,0.1533,-0.2183,0.8733,-6.06,7.82,0.02,21.68
20290,0.1538,-0.218,0.8738,-6.09,7.8,-0.08,21.67
20300,0.1516,-0.2173,0.8636,-6.29,7.66,-0.09,21.67
20310,0.1525,-0.2166,0.866,-6.26,7.73,-0.06,21.68
20320,0.1532,-0.2166,0.8643,-6.15,7.77,-0.02,21.68
20330,0.1562,-0.2175,0.8677,-6.06,7.92,-0.02,21.68
20340,0.1511,-0.2174,0.8717,-6.08,8.02,-0.05,21.69
20350,0.1525,-0.2169,0.875,-6.11,7.92,0.0,21.69
20360,0.1533,-0.2185,0.8729,-6.18,7.76,-0.15,21.68
20370,0.1544,-0.218,0.868,-6.31,7.63,-0.05,21.67
20380,0.1521,-0.2203,0.8617,-6.32,7.59,-0.12,21.69
20390,0.1545,-0.2188,0.8629,-6.11,7.71,-0.05,21.66
20400,0.1543,-0.2152,0.8658,-6.0,7.76,-0.03,21.67
20410,0.1536,-0.2152,0.8641,-6.0,7.83,-0.11,21.67
20420,0.1533,-0.2148,0.8693,-6.09,7.76,-0.02,21.66
20430,0.1508,-0.2151,0.8707,-6.24,7.59,-0.03,21.68
20440,0.1547,-0.2139,0.8684,-6.29,7.69,-0.15,21.67
20450,0.1575,-0.2166,0.866,-6.43,7.73,-0.05,21.66
20460,0.1545,-0.2186,0.8623,-6.27,7.85,-0.06,21.67
20470,0.1545,-0.2179,0.8625,-6.15,7.85,-0.02,21.67
20480,0.1516,-0.2173,0.8646,-6.11,7.73,-0.09,21.68
20490,0.1545,-0.2163,0.8638,-6.09,7.57,-0.08,21.69
20500,0.1547,-0.2162,0.8633,-6.17,7.71,-0.09,21.68
20510,0.1519,-0.2146,0.8677,-6.38,7.85,0.0,21.68
20520,0.1525,-0.2189,0.8644,-6.4,7.97,-0.02,21.69
20530,0.1508,-0.2219,0.8691,-6.38,8.08,-0.02,21.67
20540,0.1552,-0.222,0.8671,-6.24,7.86,0.05,21.69
20550,0.1552,-0.2227,0.8628,-6.26,7.71,-0.03,21.67
20560,0.1562,-0.2214,0.8639,-6.09,7.6,-0.08,21.67
20570,0.1541,-0.2223,0.8666,-6.05,7.77,0.03,21.69
20580,0.1558,-0.2195,0.8678,-6.08,8.0,0.06,21.67
20590,0.1541,-0.2212,0.8724,-6.17,7.91,0.08,21.67
20600,0.1553,-0.2244,0.8708,-6.14,7.76,0.02,21.67
20610,0.1548,-0.2207,0.8721,-6.21,7.62,-0.12,21.68
20620,0.1567,-0.2172,0.87,-6.2,7.68,-0.05,21.68
20630,0.1528,-0.2174,0.8661,-6.14,7.77,-0.03,21.69
20640,0.1543,-0.2178,0.8621,-6.03,7.85,-0.06,21.68
20650,0.1531,-0.2174,0.8702,-6.0,7.94,0.0,21.69
20660,0.151,-0.2155,0.8735,-6.03,7.88,-0.08,21.68
20670,0.1544,-0.2186,0.8712,-6.17,7.68,-0.14,21.69
20680,0.1567,-0.2162,0.8667,-6.14,7.5,-0.15,21.7
20690,0.1566,-0.2183,0.8654,-6.34,7.6,-0.09,21.67
20700,0.1541,-0.2195,0.8617,-6.17,7.86,-0.08,21.68
20710,0.1566,-0.2198,0.8667,-6.09,7.92,-0.06,21.68
20720,0.151,-0.2159,0.8717,-5.91,7.89,-0.11,21.69
20730,0.1525,-0.2173,0.8684,-6.11,7.68,-0.05,21.7
20740,0.1528,-0.217,0.8679,-6.17,7.56,-0.17,21.69
20750,0.157,-0.2157,0.8652,-6.27,7.51,-0.09,21.68
20760,0.1565,-0.2177,0.8623,-6.23,7.68,-0.05,21.65
20770,0.1567,-0.2186,0.8649,-6.2,7.88,-0.08,21.68
20780,0.1565,-0.2185,0.8658,-6.08,7.83,-0.06,21.7
20790,0.1552,-0.2173,0.8701,-6.02,7.74,-0.03,21.68
20800,0.1532,-0.2198,0.8702,-6.06,7.56,-0.12,21.68
20810,0.1581,-0.2175,0.8698,-6.23,7.68,-0.08,21.67
20820,0.1569,-0.2184,0.8657,-6.35,7.85,-0.09,21.68
20830,0.1544,-0.2188,0.8635,-6.24,7.89,-0.05,21.71
20840,0.153,-0.219,0.8628,-6.12,7.92,-0.11,21.68
20850,0.1542,-0.2161,0.8668,-6.0,7.79,-0.05,21.69
20860,0.153,-0.2163,0.8717,-6.02,7.66,-0.09,21.67
20870,0.1567,-0.2177,0.8706,-6.15,7.66,-0.14,21.7
20880,0.1581,-0.2191,0.8729,-6.24,7.71,-0.11,21.68
20890,0.1564,-0.2175,0.8689,-6.4,7.74,-0.06,21.66
20900,0.1516,-0.2228,0.8635,-6.2,7.86,-0.11,21.69
20911,0.1544,-0.2191,0.8651,-6.06,7.73,-0.08,21.67
20921,0.1522,-0.2158,0.8676,-5.91,7.71,-0.06,21.69
20931,0.1547,-0.2136,0.8708,-6.02,7.71,-0.02,21.68
20941,0.1543,-0.2135,0.8717,-6.09,7.69,-0.05,21.68
20951,0.1564,-0.2147,0.8701,-6.27,7.86,-0.08,21.69
20961,0.1577,-0.2168,0.8695,-6.38,7.91,-0.05,21.68
20971,0.1583,-0.2153,0.8688,-6.35,7.76,-0.12,21.68
20981,0.1564,-0.2217,0.8644,-6.23,7.74,-0.08,21.68
20991,0.1555,-0.2209,0.8643,-6.05,7.71,-0.02,21.65
21001,0.1552,-0.2216,0.8652,-5.92,7.71,0.05,21.67
21011,0.155,-0.2179,0.8683,-5.91,7.79,0.03,21.67
21021,0.1536,-0.214,0.8687,-6.12,7.8,-0.03,21.66
21031,0.1528,-0.2142,0.8655,-6.23,7.79,0.02,21.69
21041,0.1545,-0.2151,0.8625,-6.31,7.77,-0.08,21.67
21051,0.1523,-0.2183,0.8643,-6.29,7.76,-0.05,21.7
21061,0.1519,-0.2194,0.866,-6.12,7.77,0.0,21.65
21071,0.1532,-0.2179,0.8655,-6.05,7.82,0.03,21.69
21081,0.1544,-0.2197,0.8665,-5.98,7.79,0.02,21.68
21091,0.1562,-0.2151,0.8676,-6.15,7.77,-0.02,21.67
21101,0.1532,-0.2173,0.8662,-6.24,7.74,-0.05,21.68
21111,0.1571,-0.2206,0.8645,-6.35,7.73,-0.06,21.69
21121,0.156,-0.2177,0.8662,-6.31,7.8,-0.11,21.69
21131,0.1541,-0.2181,0.8678,-6.32,7.92,-0.03,21.67
21141,0.1549,-0.219,0.8682,-6.18,7.89,-0.15,21.68
21151,0.1571,-0.2212,0.8698,-6.23,7.74,-0.08,21.69
21161,0.1545,-0.2203,0.8713,-6.18,7.69,-0.08,21.69
21171,0.1576,-0.218,0.8689,-6.15,7.63,-0.11,21.69
21181,0.1573,-0.2205,0.8689,-6.24,7.82,-0.09,21.71
21191,0.156,-0.2178,0.865,-6.2,7.86,-0.08,21.71
21201,0.1549,-0.2169,0.8679,-6.12,7.86,0.03,21.69
21211,0.1525,-0.2162,0.8693,-6.18,7.73,-0.08,21.68
21221,0.1542,-0.2161,0.8699,-6.15,7.6,-0.05,21.68
21231,0.155,-0.2151,0.8721,-6.18,7.66,-0.12,21.69
21241,0.1575,-0.217,0.8695,-6.26,7.69,-0.12,21.69
21251,0.157,-0.2201,0.8656,-6.09,7.85,-0.05,21.7
21261,0.1571,-0.2166,0.8656,-6.08,7.89,-0.08,21.67
21271,0.1565,-0.2175,0.8695,-6.12,7.73,-0.03,21.66
21281,0.1542,-0.2198,0.8673,-6.08,7.68,-0.12,21.68
21292,0.1549,-0.2177,0.8694,-6.09,7.66,-0.09,21.69
21302,0.1558,-0.2172,0.8695,-6.24,7.76,-0.06,21.7
21312,0.1565,-0.2169,0.8667,-6.2,7.83,-0.05,21.69
21322,0.1511,-0.2185,0.8685,-6.09,7.79,-0.09,21.72
21332,0.1514,-0.2191,0.8651,-6.09,7.76,-0.09,21.71
21342,0.1536,-0.22,0.8651,-6.26,7.66,-0.11,21.71
21352,0.1559,-0.2185,0.8683,-6.11,7.69,-0.12,21.71
21362,0.1552,-0.2159,0.8689,-6.09,7.79,-0.08,21.69
21372,0.1544,-0.2162,0.8696,-6.12,7.88,-0.02,21.7
21382,0.1541,-0.2178,0.8672,-6.18,7.85,-0.08,21.7
21392,0.1526,-0.2206,0.8693,-6.15,7.65,-0.05,21.69
21402,0.1527,-0.217,0.8666,-6.06,7.57,0.02,21.71
21412,0.1516,-0.218,0.8647,-6.09,7.57,-0.03,21.69
21422,0.1552,-0.2159,0.8696,-6.12,7.73,-0.05,21.69
21432,0.1526,-0.2198,0.8699,-6.26,7.85,-0.02,21.69
21442,0.1556,-0.2174,0.8657,-6.27,7.86,-0.08,21.71
21452,0.153,-0.2195,0.8638,-6.24,7.8,-0.09,21.69
21462,0.1534,-0.2145,0.8651,-6.21,7.71,-0.06,21.71
21472,0.1541,-0.2166,0.8666,-6.12,7.69,-0.11,21.71
21482,0.157,-0.2175,0.8715,-6.15,7.74,-0.08,21.7
21492,0.1567,-0.214,0.8646,-6.11,7.82,-0.09,21.67
21502,0.1515,-0.2164,0.8663,-6.21,7.8,-0.05,21.72
21512,0.1528,-0.2152,0.8687,-6.15,7.8,-0.09,21.7
21522,0.1562,-0.2194,0.8711,-6.27,7.79,-0.06,21.69
21532,0.1553,-0.2175,0.8722,-6.17,7.76,0.0,21.68
21542,0.1537,-0.2161,0.8676,-6.29,7.79,-0.08,21.68
21552,0.155,-0.2159,0.8698,-6.2,7.69,-0.06,21.7
21562,0.1544,-0.2181,0.8616,-6.26,7.69,-0.12,21.71
21572,0.1528,-0.2186,0.8682,-6.18,7.77,-0.11,21.7
21582,0.1581,-0.2183,0.8671,-6.14,7.86,-0.08,21.68
21592,0.1558,-0.2167,0.8615,-6.12,7.79,-0.03,21.69
21602,0.1542,-0.2141,0.8673,-6.05,7.82,-0.05,21.7
21612,0.1527,-0.2163,0.8657,-6.09,7.63,-0.11,21.72
21623,0.1539,-0.213,0.8665,-6.26,7.6,0.02,21.71
21633,0.1545,-0.2169,0.8665,-6.35,7.76,-0.08,21.72
21643,0.1552,-0.2192,0.8655,-6.34,7.82,-0.06,21.71
21653,0.1565,-0.223,0.8644,-6.31,7.89,-0.08,21.69
21663,0.155,-0.2197,0.8645,-6.11,7.83,-0.03,21.69
21673,0.1533,-0.2191,0.8672,-5.98,7.65,-0.05,21.69
21683,0.153,-0.2147,0.8674,-6.11,7.62,-0.11,21.69
21693,0.1527,-0.2147,0.8671,-6.14,7.66,-0.03,21.69
21703,0.1541,-0.2174,0.8654,-6.27,7.86,-0.06,21.71
21713,0.1555,-0.2162,0.868,-6.34,7.89,-0.12,21.68
21723,0.1542,-0.2197,0.8622,-6.24,7.85,-0.06,21.67
21733,0.1506,-0.223,0.865,-6.27,7.76,-0.06,21.69
21743,0.153,-0.2227,0.8654,-6.2,7.69,-0.11,21.68
21753,0.1536,-0.2181,0.8628,-6.09,7.66,-0.12,21.7
21763,0.1558,-0.223,0.8674,-6.17,7.71,-0.18,21.71
21773,0.1531,-0.2177,0.8683,-6.12,7.79,0.02,21.69
21783,0.1538,-0.2191,0.8712,-6.12,7.85,-0.02,21.7
21793,0.1537,-0.2159,0.8719,-6.09,7.73,-0.09,21.71
21803,0.1554,-0.2186,0.8671,-6.12,7.71,-0.06,21.69
21813,0.155,-0.2175,0.8671,-6.31,7.65,-0.02,21.69
21823,0.1549,-0.2192,0.8666,-6.31,7.82,-0.06,21.7
21833,0.1531,-0.2197,0.8672,-6.31,7.86,-0.05,21.68
21843,0.1544,-0.2192,0.8633,-6.15,7.86,-0.05,21.7
21853,0.1564,-0.2236,0.8651,-6.12,7.88,-0.05,21.7
21863,0.1559,-0.2209,0.8629,-6.03,7.86,0.0,21.7
21873,0.1547,-0.2186,0.8656,-6.0,7.76,0.03,21.72
21883,0.1537,-0.2183,0.8694,-6.15,7.74,0.02,21.69
21893,0.1565,-0.2205,0.87,-6.17,7.73,0.02,21.7
21903,0.1573,-0.2197,0.8643,-6.29,7.77,-0.02,21.69
21913,0.1555,-0.2156,0.8669,-6.21,7.82,0.02,21.69
21923,0.1545,-0.2201,0.8638,-6.17,7.79,-0.09,21.72
21933,0.1522,-0.2175,0.8624,-5.94,7.71,0.02,21.7
21943,0.1534,-0.2169,0.8695,-5.92,7.79,0.0,21.7
21953,0.1572,-0.217,0.8705,-6.09,7.79,-0.02,21.68
21963,0.1576,-0.2153,0.8716,-6.29,7.86,-0.03,21.68
21973,0.1484,-0.2174,0.8672,-6.44,7.89,-0.03,21.72
21983,0.1525,-0.2166,0.8688,-6.35,7.91,0.0,21.71
21993,0.1525,-0.2177,0.8656,-6.11,7.88,0.02,21.7
22003,0.1569,-0.2188,0.8679,-6.0,7.8,-0.03,21.69
22013,0.1532,-0.2158,0.8704,-6.12,7.83,-0.06,21.72
22023,0.1531,-0.2196,0.8694,-6.27,7.77,-0.06,21.71
22033,0.1512,-0.2159,0.8683,-6.43,7.77,-0.08,21.7
22043,0.1538,-0.2188,0.8635,-6.37,7.77,-0.05,21.7
22053,0.1572,-0.2222,0.8641,-6.26,7.76,-0.11,21.71
22063,0.1589,-0.2234,0.8634,-6.09,7.82,-0.03,21.71
22073,0.1582,-0.22,0.8678,-5.95,7.83,0.03,21.74
22083,0.1566,-0.2179,0.8702,-5.86,7.66,-0.05,21.69
22093,0.1562,-0.2156,0.8708,-6.08,7.54,-0.03,21.67
22103,0.158,-0.2158,0.8729,-6.29,7.6,-0.18,21.69
22113,0.1566,-0.2147,0.8715,-6.35,7.54,-0.18,21.7
22123,0.1539,-0.2158,0.8705,-6.14,7.66,-0.14,21.68
22133,0.1545,-0.2158,0.8673,-6.06,7.73,-0.12,21.7
22143,0.1539,-0.2181,0.8696,-6.02,7.71,-0.08,21.72
22153,0.1536,-0.2189,0.8781,-6.18,7.88,-0.03,21.7
22163,0.1503,-0.2195,0.8679,-6.37,7.88,-0.12,21.69
22173,0.1508,-0.2172,0.8619,-6.46,7.71,-0.17,21.71
22183,0.1517,-0.2184,0.8617,-6.37,7.53,-0.15,21.7
22193,0.1538,-0.2156,0.8647,-6.27,7.51,-0.14,21.71
22203,0.1522,-0.2178,0.859,-6.08,7.68,-0.06,21.7
22213,0.1514,-0.2179,0.8611,-6.08,7.77,-0.11,21.69
22223,0.1499,-0.2156,0.8668,-6.23,7.73,-0.09,21.71
22233,0.1542,-0.2177,0.8676,-6.52,7.71,-0.03,21.71
22243,0.1559,-0.2236,0.8679,-6.52,7.68,-0.03,21.69
22253,0.1573,-0.2255,0.8632,-6.43,7.85,-0.02,21.7
22263,0.1573,-0.2227,0.8635,-6.21,7.85,0.05,21.73
22273,0.1531,-0.2228,0.8639,-5.98,7.8,0.05,21.72
22283,0.1539,-0.2206,0.869,-5.94,7.62,-0.05,21.7
22293,0.156,-0.2201,0.8708,-5.92,7.56,-0.05,21.7
22303,0.1541,-0.218,0.8713,-6.09,7.63,-0.03,21.72
22313,0.1543,-0.2175,0.8672,-6.32,7.82,-0.02,21.72
22323,0.1552,-0.2188,0.8663,-6.35,8.03,-0.08,21.73
22333,0.1556,-0.2202,0.8668,-6.31,7.89,-0.05,21.7
22343,0.1554,-0.2201,0.8634,-6.17,7.73,-0.09,21.72
22353,0.1586,-0.2225,0.8666,-6.05,7.57,-0.05,21.73
22363,0.1581,-0.2186,0.8661,-6.02,7.66,-0.08,21.7
22373,0.1565,-0.2177,0.8712,-6.06,7.69,-0.03,21.71
22383,0.1537,-0.2157,0.8708,-6.05,7.83,0.03,21.71
22393,0.1561,-0.2178,0.8724,-6.09,7.85,-0.02,21.69
22403,0.1558,-0.2178,0.8716,-6.09,7.73,0.02,21.72
22413,0.1543,-0.2174,0.8701,-6.15,7.71,0.02,21.72
22423,0.1539,-0.2159,0.8699,-6.23,7.77,-0.05,21.69
22433,0.1528,-0.2167,0.8669,-6.2,7.68,0.0,21.71
22443,0.1542,-0.2166,0.8654,-6.21,7.69,-0.03,21.72
22453,0.1532,-0.2179,0.866,-6.06,7.85,-0.11,21.71
22463,0.1543,-0.2141,0.8733,-6.02,7.69,-0.06,21.72
22473,0.1522,-0.214,0.8701,-6.11,7.71,-0.05,21.7
22483,0.1527,-0.2125,0.8673,-6.15,7.76,-0.14,21.72
22493,0.1516,-0.2157,0.8666,-6.26,7.77,-0.05,21.68
22503,0.1492,-0.2145,0.8634,-6.34,7.83,0.0,21.69
22513,0.151,-0.2139,0.8605,-6.37,7.91,0.02,21.72
22523,0.1503,-0.213,0.86,-6.27,7.92,-0.05,21.7
22533,0.1461,-0.213,0.8612,-6.31,7.86,-0.06,21.7
22543,0.1503,-0.2098,0.861,-6.43,7.79,-0.02,21.72
22553,0.1517,-0.2163,0.8669,-6.38,7.86,0.03,21.71
22563,0.1532,-0.2174,0.8632,-6.4,7.98,0.05,21.71
22573,0.1575,-0.2225,0.8663,-6.46,8.08,0.05,21.69
22583,0.1554,-0.2261,0.8622,-6.27,7.98,0.03,21.69
22593,0.1583,-0.2273,0.8663,-6.26,7.85,-0.02,21.7
22603,0.153,-0.2239,0.865,-6.2,7.63,-0.03,21.7
22613,0.1556,-0.2224,0.869,-6.14,7.65,-0.03,21.71
22623,0.1583,-0.2222,0.8663,-6.06,7.76,0.02,21.71
22633,0.1587,-0.2201,0.8722,-5.97,7.83,0.08,21.72
22643,0.1567,-0.2211,0.87,-6.03,7.88,-0.03,21.72
22653,0.1589,-0.2172,0.8745,-6.08,7.85,-0.05,21.72
22663,0.1588,-0.2159,0.8695,-6.18,7.76,-0.06,21.72
22673,0.1608,-0.2153,0.8722,-6.2,7.68,-0.06,21.74
22683,0.1594,-0.2139,0.8685,-6.18,7.73,-0.06,21.74
22693,0.1578,-0.2195,0.8705,-6.2,7.82,0.03,21.74
22703,0.1555,-0.2194,0.8696,-6.06,7.92,0.0,21.72
22713,0.1552,-0.2189,0.8717,-5.92,7.98,0.02,21.69
22723,0.1541,-0.2189,0.8744,-5.95,7.97,-0.09,21.69
22733,0.1584,-0.2218,0.877,-6.44,7.73,-0.12,21.72
22743,0.1562,-0.22,0.8693,-5.91,7.71,0.12,21.72
22753,0.151,-0.2211,0.8746,-6.12,8.67,0.15,21.73
22763,0.1421,-0.2133,0.8657,-6.58,8.37,-0.03,21.74
22773,0.1476,-0.2225,0.8673,-6.4,7.27,-0.17,21.73
22783,0.155,-0.2227,0.8649,-5.85,7.11,-0.09,21.7
22793,0.1539,-0.2178,0.8621,-5.71,7.54,-0.06,21.71
22803,0.157,-0.2184,0.8678,-5.74,7.98,0.0,21.73
22813,0.152,-0.2117,0.8674,-5.92,8.21,0.08,21.71
22823,0.1472,-0.2122,0.8655,-6.44,7.71,-0.11,21.7
22833,0.1526,-0.2092,0.8586,-6.52,6.93,-0.38,21.74
22843,0.1576,-0.207,0.8489,-6.43,6.41,-0.4,21.73
22853,0.1689,-0.2139,0.8501,-6.06,7.11,-0.17,21.71
22863,0.1652,-0.212,0.8518,-6.05,8.49,-0.06,21.71
22873,0.1562,-0.2161,0.866,-6.03,9.1,0.17,21.71
22883,0.1506,-0.2185,0.8723,-6.17,8.5,0.12,21.7
22893,0.1472,-0.2201,0.8732,-6.46,7.69,-0.06,21.69
22903,0.1494,-0.2191,0.8712,-6.55,7.24,-0.12,21.7
22913,0.1537,-0.2251,0.8633,-6.4,7.44,-0.03,21.7
22923,0.1547,-0.2202,0.8669,-6.18,8.23,0.11,21.7
22933,0.1492,-0.2197,0.8733,-5.83,8.64,0.12,21.71
22943,0.1436,-0.215,0.8766,-5.65,8.12,0.05,21.7
22953,0.1479,-0.2148,0.8777,-6.0,7.31,-0.15,21.69
22963,0.1536,-0.2136,0.8748,-6.49,6.87,-0.26,21.72
22973,0.1622,-0.2157,0.8647,-6.67,7.13,-0.26,21.7
22983,0.1655,-0.2216,0.8608,-6.53,7.86,-0.17,21.7
22993,0.16,-0.2239,0.8608,-6.31,8.26,-0.08,21.7
23003,0.1566,-0.223,0.8683,-5.79,7.95,-0.12,21.7
23013,0.1593,-0.2218,0.8756,-5.62,7.21,-0.14,21.69
23023,0.162,-0.2136,0.8765,-5.71,6.9,-0.24,21.7
23033,0.1627,-0.2153,0.8784,-6.21,7.36,-0.06,21.7
23043,0.1633,-0.2145,0.8751,-6.46,8.2,0.03,21.69
23053,0.1567,-0.2131,0.8716,-6.44,8.6,0.12,21.7
23063,0.1505,-0.2152,0.8707,-6.18,8.24,0.0,21.71
23073,0.1487,-0.2141,0.8743,-6.14,7.66,-0.02,21.7
23083,0.1477,-0.2146,0.8711,-6.15,7.3,-0.12,21.7
23093,0.1515,-0.2145,0.8676,-6.38,7.53,-0.17,21.69
23103,0.1514,-0.2195,0.8583,-6.49,8.12,-0.06,21.7
23113,0.1494,-0.2205,0.8618,-6.43,8.31,-0.06,21.73
23123,0.1473,-0.2235,0.8594,-6.46,7.88,-0.08,21.72
23133,0.1505,-0.2223,0.8555,-6.12,7.47,-0.14,21.7
23143,0.1584,-0.2212,0.8544,-6.0,7.22,-0.17,21.7
23153,0.1552,-0.2217,0.8597,-5.82,7.53,-0.14,21.72
23163,0.1558,-0.2197,0.8611,-5.8,8.0,0.05,21.72
23173,0.1538,-0.2159,0.8691,-5.97,8.11,0.05,21.71
23183,0.1495,-0.2151,0.8722,-5.97,7.94,0.03,21.7
23193,0.1506,-0.2161,0.8707,-6.0,7.47,-0.03,21.71
23203,0.1543,-0.208,0.8661,-6.17,7.39,-0.05,21.72
23213,0.1536,-0.2112,0.8691,-6.23,7.68,-0.03,21.73
23223,0.1545,-0.2113,0.8702,-6.35,8.09,-0.02,21.71
23233,0.153,-0.2162,0.8666,-6.46,8.29,0.02,21.7
23243,0.1537,-0.2205,0.869,-6.55,8.06,0.0,21.72
23253,0.1571,-0.2211,0.8657,-6.38,7.68,-0.09,21.72
23263,0.1576,-0.2224,0.8616,-6.23,7.51,-0.09,21.72
23273,0.1598,-0.2231,0.8695,-6.11,7.62,-0.09,21.74
23283,0.1599,-0.2238,0.8684,-6.06,7.86,0.05,21.74
23293,0.1548,-0.2251,0.8755,-6.0,8.05,0.02,21.72
23303,0.1534,-0.22,0.8711,-6.11,7.8,0.02,21.74
23313,0.1549,-0.2197,0.877,-6.11,7.56,-0.12,21.72
23323,0.1564,-0.2216,0.8761,-6.18,7.47,-0.18,21.73
23333,0.1588,-0.2201,0.8734,-6.23,7.65,-0.12,21.71
23343,0.1598,-0.2217,0.8727,-6.31,7.85,-0.09,21.72
23353,0.1572,-0.2205,0.868,-6.17,7.97,-0.05,21.72
23363,0.1499,-0.2194,0.8704,-6.15,7.74,-0.05,21.72
23373,0.1539,-0.2161,0.8673,-6.23,7.56,-0.14,21.73
23383,0.1542,-0.2169,0.8632,-6.14,7.45,-0.12,21.73
23393,0.1528,-0.2152,0.8612,-6.08,7.57,-0.15,21.71
23403,0.1541,-0.2195,0.8644,-6.02,7.88,-0.11,21.72
23413,0.1547,-0.2184,0.8575,-6.11,7.95,0.0,21.75
23423,0.1538,-0.2188,0.8638,-6.14,7.91,-0.03,21.75
23433,0.1539,-0.2216,0.8672,-6.18,7.73,-0.11,21.74
23443,0.1542,-0.2224,0.8641,-6.12,7.57,-0.14,21.7
23453,0.1541,-0.2202,0.8651,-6.15,7.77,-0.06,21.7
23463,0.153,-0.2175,0.8628,-6.05,7.92,-0.03,21.71
23473,0.1514,-0.2195,0.8685,-5.85,7.88,-0.02,21.7
23483,0.1504,-0.2148,0.8646,-5.95,7.69,0.02,21.72
23493,0.151,-0.2118,0.8711,-6.05,7.73,-0.08,21.72
23503,0.152,-0.2129,0.8679,-6.26,7.77,0.0,21.71
23513,0.1522,-0.2175,0.8658,-6.31,7.97,0.03,21.73
23523,0.1503,-0.2201,0.8663,-6.41,8.08,0.06,21.71
23533,0.1499,-0.2233,0.8644,-6.23,8.02,0.08,21.72
23543,0.1495,-0.2195,0.866,-5.95,7.83,0.08,21.71
23553,0.1519,-0.2152,0.8666,-5.86,7.71,-0.02,21.72
23563,0.1498,-0.215,0.8689,-6.03,7.6,-0.02,21.68
23573,0.1511,-0.2136,0.869,-6.14,7.57,0.0,21.72
23583,0.1512,-0.2141,0.8699,-6.23,7.73,0.02,21.72
23593,0.1556,-0.2129,0.8721,-6.34,7.82,-0.12,21.74
23603,0.1558,-0.2162,0.8711,-6.29,7.77,-0.12,21.72
23613,0.1538,-0.2177,0.8674,-6.37,7.79,-0.18,21.69
23623,0.1556,-0.2225,0.8676,-6.32,7.77,-0.11,21.71
23633,0.1591,-0.2235,0.8689,-6.21,7.79,-0.06,21.73
23643,0.1597,-0.2249,0.8708,-6.11,7.68,-0.14,21.72
23653,0.1599,-0.2245,0.8683,-6.11,7.65,-0.05,21.74
23663,0.1586,-0.2216,0.8668,-5.98,7.71,0.05,21.73
23673,0.1587,-0.2178,0.8634,-5.82,7.82,0.0,21.73
23683,0.1512,-0.2145,0.8658,-6.0,7.94,0.0,21.74
23693,0.1497,-0.2092,0.8652,-6.11,7.83,-0.03,21.72
23703,0.1522,-0.2084,0.866,-6.11,7.69,-0.09,21.72
23713,0.1541,-0.2113,0.866,-6.23,7.68,-0.15,21.71
23723,0.1517,-0.2046,0.8634,-6.17,7.83,-0.06,21.72
23733,0.1544,-0.2091,0.8679,-6.05,7.83,-0.15,21.73
23743,0.1548,-0.2104,0.8691,-6.17,7.71,-0.23,21.71
23753,0.1586,-0.2146,0.8613,-6.43,7.54,-0.29,21.74
23763,0.1626,-0.2188,0.8611,-6.46,7.42,-0.23,21.73
23773,0.167,-0.223,0.8584,-6.52,7.62,-0.24,21.72
23783,0.1663,-0.2279,0.859,-6.23,8.03,-0.06,21.71
23793,0.1626,-0.2284,0.8612,-6.12,8.4,0.14,21.7
23803,0.1543,-0.2306,0.8668,-5.97,8.27,0.06,21.69
23813,0.1486,-0.2255,0.8741,-5.79,7.94,0.06,21.7
23823,0.1466,-0.2191,0.8728,-5.79,7.54,0.05,21.7
23833,0.1481,-0.2131,0.8733,-5.79,7.5,0.05,21.72
23843,0.1454,-0.2061,0.8784,-5.89,7.79,0.03,21.73
23853,0.144,-0.2023,0.8733,-6.02,8.0,0.02,21.72
23863,0.1442,-0.2081,0.8752,-6.24,7.94,-0.06,21.73
23873,0.1479,-0.2108,0.8713,-6.56,7.71,-0.15,21.72
23883,0.1543,-0.2159,0.8649,-6.72,7.59,-0.2,21.69
23893,0.1564,-0.223,0.8623,-6.78,7.62,-0.17,21.73
23903,0.1602,-0.228,0.8553,-6.47,7.88,-0.18,21.74
23913,0.166,-0.2316,0.8572,-6.2,7.98,-0.08,21.72
23923,0.1616,-0.2307,0.861,-5.71,7.82,-0.02,21.71
23933,0.1597,-0.2246,0.8712,-5.53,7.59,-0.02,21.74
23943,0.1594,-0.2183,0.8752,-5.51,7.48,0.03,21.69
23953,0.1578,-0.2158,0.8755,-5.86,7.57,0.03,21.71
23963,0.1552,-0.2151,0.8727,-6.32,7.89,0.05,21.74
23973,0.1523,-0.2133,0.869,-6.5,8.12,0.02,21.72
23983,0.149,-0.2152,0.8682,-6.35,8.06,0.0,21.73
23993,0.1484,-0.2158,0.8666,-5.98,7.92,-0.05,21.7
24003,0.1487,-0.2134,0.8688,-5.95,7.62,0.03,21.72
24013,0.1484,-0.2107,0.8644,-6.03,7.53,-0.08,21.73
24023,0.15,-0.2103,0.866,-6.17,7.54,-0.14,21.73
24033,0.1497,-0.2136,0.8612,-6.4,7.65,-0.12,21.68
24043,0.1525,-0.2146,0.8588,-6.35,7.79,-0.09,21.74
24053,0.1558,-0.2178,0.8593,-6.14,7.88,-0.09,21.74
24063,0.1576,-0.2186,0.8645,-6.11,7.89,-0.12,21.73
24073,0.1555,-0.2181,0.8663,-6.06,7.89,-0.03,21.72
24083,0.1536,-0.2202,0.8707,-6.17,7.76,-0.06,21.74
24093,0.1547,-0.2212,0.8676,-6.21,7.74,-0.05,21.72
24103,0.1564,-0.2201,0.87,-6.26,7.73,-0.06,21.72
24113,0.1567,-0.2168,0.8706,-6.21,7.83,0.03,21.71
24123,0.1555,-0.2158,0.8651,-6.03,7.88,0.0,21.73
24133,0.1547,-0.219,0.8724,-6.06,7.86,0.0,21.73
24143,0.1541,-0.2186,0.8722,-6.24,7.83,0.02,21.73
24153,0.1569,-0.2167,0.8665,-6.37,7.83,-0.06,21.74
24163,0.1575,-0.2172,0.8652,-6.4,7.83,-0.05,21.77
24173,0.1561,-0.2152,0.8649,-6.37,7.88,-0.06,21.74
24183,0.1541,-0.2183,0.8646,-6.17,7.86,0.03,21.74
24193,0.1516,-0.2192,0.865,-6.02,7.73,0.02,21.74
24203,0.1545,-0.2152,0.87,-5.91,7.44,-0.14,21.73
24213,0.1545,-0.2156,0.8694,-6.02,7.44,-0.14,21.72
24223,0.1565,-0.2137,0.8684,-6.23,7.66,-0.15,21.74
24233,0.1562,-0.2157,0.8688,-6.27,7.89,-0.09,21.74
24243,0.1531,-0.2162,0.8688,-6.34,7.92,-0.02,21.77
24253,0.1547,-0.2153,0.8717,-6.18,7.88,-0.11,21.72
24263,0.1571,-0.2169,0.8683,-6.34,7.68,-0.09,21.73
24273,0.1547,-0.2172,0.8639,-6.23,7.63,-0.14,21.73
24283,0.1561,-0.2203,0.8672,-6.31,7.62,-0.11,21.75
24293,0.1548,-0.2206,0.8628,-6.34,7.88,-0.09,21.73
24303,0.1531,-0.2174,0.8622,-6.2,7.88,-0.06,21.75
24313,0.1517,-0.217,0.864,-6.09,7.85,-0.05,21.73
24323,0.1537,-0.2167,0.8667,-6.09,7.74,-0.08,21.72
24333,0.1525,-0.2144,0.8654,-6.18,7.71,-0.12,21.75
24343,0.1544,-0.2156,0.8632,-6.23,7.73,-0.08,21.74
24353,0.1537,-0.2156,0.8622,-6.34,7.8,-0.09,21.73
24363,0.1531,-0.2194,0.8634,-6.44,7.89,-0.08,21.74
24373,0.1541,-0.2201,0.8619,-6.15,7.8,-0.02,21.77
24383,0.155,-0.2213,0.8635,-6.05,7.68,-0.09,21.72
24393,0.1532,-0.2222,0.8671,-6.17,7.54,-0.12,21.72
24403,0.1552,-0.2219,0.8651,-6.14,7.66,-0.08,21.73
24413,0.1564,-0.2196,0.8712,-6.17,7.77,-0.03,21.72
24423,0.1565,-0.2166,0.8683,-6.27,7.83,-0.08,21.74
24433,0.1559,-0.2194,0.8691,-6.21,7.79,0.0,21.74
24443,0.1532,-0.2201,0.8701,-6.09,7.68,-0.02,21.72
24453,0.1565,-0.2155,0.8652,-6.11,7.63,-0.06,21.7
24463,0.1555,-0.2177,0.8672,-6.12,7.76,0.0,21.74
24473,0.1565,-0.2203,0.8704,-6.17,7.83,-0.02,21.75
24483,0.1554,-0.2177,0.8668,-6.15,7.86,0.0,21.76
24493,0.1533,-0.2179,0.8683,-6.14,7.82,0.0,21.72
24503,0.1542,-0.2191,0.8657,-6.14,7.73,-0.06,21.73
24513,0.1539,-0.2186,0.8699,-6.14,7.69,-0.06,21.73
24523,0.1536,-0.2186,0.8643,-6.18,7.74,-0.05,21.74
24533,0.1555,-0.2181,0.8678,-6.11,7.8,-0.08,21.74
24543,0.155,-0.2185,0.8658,-6.14,7.79,-0.05,21.74
24553,0.1543,-0.2157,0.8625,-6.26,7.85,0.0,21.73
24563,0.1544,-0.219,0.865,-6.21,7.79,-0.06,21.73
24573,0.1549,-0.2174,0.8636,-6.11,7.71,-0.14,21.74
24583,0.1549,-0.2181,0.8622,-6.11,7.74,-0.05,21.74
24593,0.1532,-0.2167,0.8652,-6.03,7.73,-0.02,21.76
24603,0.155,-0.2184,0.8661,-6.08,7.73,0.0,21.74
24613,0.1541,-0.2145,0.866,-6.09,7.83,-0.02,21.74
24623,0.1528,-0.2145,0.8623,-6.14,7.79,-0.12,21.75
24633,0.1536,-0.2152,0.8672,-6.11,7.76,-0.05,21.75
24643,0.1533,-0.2131,0.8658,-6.32,7.77,-0.08,21.74
24653,0.1549,-0.2139,0.8635,-6.17,7.85,-0.03,21.75
24663,0.152,-0.2146,0.8657,-6.18,7.86,-0.06,21.75
24673,0.1528,-0.2177,0.8632,-6.08,7.85,-0.06,21.73
24683,0.1549,-0.2181,0.8658,-6.23,7.76,-0.09,21.73
24693,0.1531,-0.2181,0.8641,-6.18,7.73,-0.09,21.73
24703,0.1561,-0.2166,0.8698,-6.11,7.71,-0.14,21.77
24713,0.1553,-0.2183,0.8638,-6.26,7.77,-0.06,21.74
24723,0.153,-0.2145,0.8671,-6.24,7.79,-0.06,21.74
24733,0.1569,-0.2197,0.8689,-6.11,7.65,0.05,21.73
24743,0.1569,-0.2208,0.864,-6.09,7.76,-0.14,21.73
24753,0.1534,-0.2168,0.8695,-6.12,7.73,-0.05,21.74
24763,0.1553,-0.2174,0.8679,-6.15,7.73,-0.05,21.72
24773,0.1548,-0.2181,0.8683,-6.14,7.77,-0.11,21.74
24783,0.158,-0.2175,0.8687,-6.26,7.74,-0.11,21.76
24793,0.1566,-0.2194,0.873,-6.2,7.71,0.0,21.73
24803,0.1554,-0.2163,0.8691,-6.2,7.76,-0.15,21.74
24813,0.153,-0.2183,0.8678,-6.11,7.76,-0.06,21.74
24823,0.1553,-0.2188,0.8657,-6.15,7.77,0.02,21.76
24833,0.155,-0.2194,0.8674,-6.17,7.8,-0.08,21.75
24843,0.155,-0.2164,0.8666,-6.14,7.77,-0.06,21.76
24853,0.1567,-0.2167,0.8656,-6.15,7.76,-0.06,21.74
24863,0.1547,-0.2159,0.8657,-6.11,7.65,-0.08,21.73
24873,0.1553,-0.2157,0.865,-6.11,7.73,-0.09,21.73
24883,0.1559,-0.2163,0.8685,-6.06,7.77,-0.03,21.73
24893,0.1538,-0.2157,0.8689,-6.08,7.83,-0.08,21.75
24903,0.153,-0.2185,0.8652,-6.15,7.77,-0.17,21.74
24913,0.152,-0.2159,0.8645,-6.18,7.79,-0.11,21.75
24923,0.1489,-0.2175,0.8634,-6.21,7.82,-0.18,21.75
24933,0.1526,-0.2158,0.8658,-6.24,7.8,-0.09,21.73
24943,0.1545,-0.2179,0.8644,-6.32,7.8,-0.08,21.75
24953,0.153,-0.2159,0.864,-6.24,7.83,0.03,21.74
24963,0.1526,-0.2184,0.8671,-6.15,7.88,-0.02,21.74
24973,0.1558,-0.2175,0.8687,-6.17,7.79,-0.03,21.74
24983,0.155,-0.2172,0.8682,-6.12,7.73,-0.12,21.75
24993,0.1537,-0.2194,0.8671,-6.27,7.77,0.0,21.76
25003,0.1561,-0.2173,0.864,-6.31,7.76,0.0,21.74
25013,0.1533,-0.217,0.8673,-6.2,7.79,0.0,21.74
25023,0.155,-0.2169,0.8688,-6.18,7.76,-0.02,21.74
25033,0.1558,-0.2203,0.8658,-6.27,7.76,-0.05,21.76
25043,0.1544,-0.2166,0.8691,-6.23,7.74,-0.11,21.72
25053,0.1541,-0.2166,0.8712,-6.17,7.69,-0.12,21.74
25063,0.1558,-0.2178,0.8674,-6.17,7.8,-0.08,21.73
25073,0.1567,-0.2181,0.865,-6.15,7.83,-0.08,21.74
25083,0.1548,-0.2163,0.8712,-6.11,7.85,-0.08,21.75
25093,0.1552,-0.2185,0.8711,-6.14,7.8,-0.06,21.75
25103,0.1566,-0.2189,0.87,-6.06,7.74,-0.06,21.74
25113,0.1561,-0.215,0.8695,-6.23,7.71,-0.12,21.74
25123,0.1552,-0.2166,0.865,-6.18,7.71,-0.09,21.73
25133,0.1554,-0.2183,0.8688,-6.23,7.82,-0.06,21.74
25143,0.1559,-0.2164,0.865,-6.18,7.8,-0.03,21.75
25153,0.1545,-0.2173,0.8677,-6.09,7.74,-0.06,21.74
25163,0.1528,-0.217,0.8668,-6.09,7.69,-0.06,21.72
25173,0.1528,-0.2181,0.8668,-6.06,7.76,-0.12,21.72
25183,0.156,-0.2172,0.8682,-6.17,7.77,-0.12,21.75
25193,0.1549,-0.2172,0.8636,-6.21,7.85,-0.11,21.74
25203,0.1545,-0.2206,0.8691,-6.24,7.77,-0.14,21.7
25213,0.1521,-0.2157,0.8645,-6.23,7.8,-0.03,21.74
25223,0.153,-0.2163,0.8673,-6.08,7.76,0.0,21.75
25233,0.1537,-0.2166,0.8635,-6.12,7.71,-0.05,21.76
25243,0.1528,-0.214,0.864,-6.2,7.76,-0.06,21.75
25253,0.1536,-0.2145,0.8672,-6.18,7.76,-0.05,21.74
25263,0.152,-0.218,0.8633,-6.23,7.74,0.0,21.77
25273,0.153,-0.2168,0.8665,-6.18,7.77,0.03,21.74
25283,0.1523,-0.2164,0.8683,-6.15,7.77,-0.05,21.73
25293,0.1564,-0.2185,0.8705,-6.18,7.73,-0.14,21.77
25303,0.1583,-0.2195,0.8672,-6.24,7.71,-0.03,21.77
25313,0.1578,-0.2163,0.8668,-6.26,7.77,0.08,21.76
25323,0.1573,-0.218,0.8665,-6.2,7.8,-0.03,21.74
25333,0.1548,-0.219,0.8647,-6.18,7.85,-0.03,21.75
25343,0.1538,-0.2163,0.8687,-6.14,7.76,-0.03,21.73
25353,0.1573,-0.2186,0.8691,-6.14,7.76,-0.06,21.76
25363,0.1536,-0.2159,0.8669,-6.15,7.82,-0.15,21.74
25373,0.1545,-0.2163,0.87,-6.26,7.8,-0.05,21.74
25383,0.1533,-0.2192,0.87,-6.26,7.86,-0.08,21.74
25393,0.1541,-0.2169,0.8661,-6.24,7.88,0.02,21.76
25403,0.1543,-0.2173,0.8696,-6.11,7.74,-0.02,21.76
25413,0.1552,-0.218,0.868,-6.12,7.73,-0.03,21.76
25423,0.1562,-0.2186,0.8687,-6.05,7.68,-0.06,21.76
25433,0.1554,-0.2197,0.8699,-6.18,7.74,-0.11,21.72
25443,0.1564,-0.2188,0.8684,-6.24,7.83,0.0,21.75
25453,0.1572,-0.2191,0.8698,-6.23,7.85,0.03,21.75
25463,0.1539,-0.2188,0.8715,-6.18,7.8,-0.06,21.74
25473,0.1567,-0.218,0.868,-6.17,7.76,-0.11,21.74
25483,0.1522,-0.2175,0.8674,-6.12,7.79,-0.08,21.76
25493,0.155,-0.2185,0.8652,-6.03,7.79,-0.08,21.77
25503,0.1577,-0.2162,0.8656,-6.06,7.85,0.0,21.75
25513,0.1505,-0.2173,0.8669,-6.12,7.74,-0.05,21.75
25523,0.1527,-0.2137,0.8672,-6.17,7.68,-0.05,21.75
25533,0.153,-0.2166,0.8652,-6.24,7.66,-0.09,21.74
25543,0.152,-0.2167,0.8679,-6.18,7.76,-0.09,21.78
25553,0.1522,-0.2179,0.8656,-6.18,7.82,-0.03,21.76
25563,0.1555,-0.2177,0.8667,-6.09,7.86,-0.02,21.77
25573,0.1576,-0.219,0.866,-6.06,7.79,-0.02,21.75
25583,0.1552,-0.2188,0.8645,-6.11,7.73,-0.08,21.72
25593,0.1545,-0.2184,0.8717,-6.15,7.69,-0.03,21.74
25603,0.1565,-0.2164,0.8671,-6.17,7.76,-0.11,21.75
25613,0.155,-0.2185,0.8658,-6.14,7.8,-0.09,21.76
25623,0.1543,-0.2186,0.8685,-6.23,7.91,-0.05,21.77
25633,0.1564,-0.2173,0.8678,-6.18,7.77,-0.05,21.77
25643,0.1552,-0.2188,0.8634,-6.21,7.73,-0.05,21.75
25653,0.1532,-0.2183,0.8663,-6.11,7.68,-0.12,21.72
25663,0.1575,-0.2163,0.8706,-6.14,7.76,-0.09,21.73
25673,0.1542,-0.2185,0.8687,-6.26,7.8,-0.03,21.78
25683,0.1567,-0.2178,0.8724,-6.21,7.86,0.02,21.77
25693,0.1561,-0.2186,0.8687,-6.12,7.86,-0.05,21.77
25703,0.1538,-0.2194,0.8738,-6.26,7.79,-0.08,21.77
25713,0.1549,-0.2197,0.8662,-6.21,7.71,-0.15,21.75
25723,0.1548,-0.2184,0.8687,-6.26,7.73,-0.09,21.75
25733,0.1567,-0.2198,0.8744,-6.23,7.82,-0.11,21.76
25743,0.1523,-0.2169,0.8693,-6.17,7.83,-0.03,21.74
25753,0.1549,-0.2194,0.869,-6.15,7.83,-0.11,21.73
25763,0.1537,-0.2166,0.8706,-6.17,7.71,-0.03,21.76
25773,0.1545,-0.217,0.8625,-6.17,7.63,-0.06,21.74
25783,0.1555,-0.2186,0.8636,-6.18,7.68,-0.06,21.74
25793,0.1548,-0.2192,0.8656,-6.17,7.8,-0.02,21.74
25803,0.1519,-0.2172,0.8685,-6.09,7.86,0.02,21.74
25813,0.1544,-0.2167,0.8669,-6.11,7.77,0.05,21.74
25823,0.1521,-0.2172,0.8663,-6.26,7.77,-0.12,21.74
25833,0.1569,-0.2191,0.8666,-6.15,7.68,-0.09,21.74
25843,0.1554,-0.2169,0.8668,-6.12,7.77,-0.11,21.76
25853,0.1558,-0.2184,0.8622,-6.14,7.83,-0.02,21.75
25863,0.1561,-0.218,0.8651,-6.06,7.79,-0.03,21.73
25873,0.1555,-0.2178,0.8644,-6.15,7.86,-0.06,21.76
25883,0.1567,-0.2189,0.8672,-6.11,7.71,-0.06,21.76
25893,0.1559,-0.2161,0.8684,-6.15,7.69,-0.05,21.74
25903,0.156,-0.2168,0.8685,-6.2,7.76,-0.02,21.75
25913,0.1571,-0.2163,0.8608,-6.23,7.71,-0.02,21.73
25923,0.1562,-0.2167,0.8672,-6.21,7.82,-0.05,21.74
25933,0.1561,-0.2183,0.8695,-6.2,7.74,-0.03,21.74
25943,0.1532,-0.2152,0.8685,-6.24,7.79,-0.03,21.77
25953,0.1538,-0.2189,0.8685,-6.11,7.73,-0.09,21.79
25963,0.155,-0.2189,0.8695,-6.26,7.73,-0.05,21.76
25973,0.1541,-0.2148,0.8702,-6.21,7.79,-0.11,21.76
25983,0.1543,-0.2191,0.8674,-6.18,7.74,-0.02,21.77
25993,0.1548,-0.2203,0.8669,-6.17,7.73,-0.03,21.75
26003,0.1539,-0.2174,0.8693,-6.26,7.71,-0.09,21.75
26013,0.1534,-0.2172,0.865,-6.17,7.77,-0.17,21.73
26023,0.1558,-0.219,0.8705,-6.18,7.74,0.0,21.74
26033,0.1537,-0.2174,0.8672,-6.21,7.83,0.02,21.77
26043,0.156,-0.2177,0.8676,-6.2,7.77,-0.06,21.77
26053,0.1554,-0.2174,0.8693,-6.14,7.8,-0.06,21.76
26063,0.1552,-0.2197,0.8684,-6.17,7.77,-0.02,21.76
26073,0.1534,-0.2178,0.8717,-6.14,7.8,-0.06,21.76
26083,0.1534,-0.2173,0.8668,-6.2,7.73,-0.11,21.72
26093,0.1538,-0.2162,0.8665,-6.18,7.73,-0.05,21.74
26103,0.1556,-0.217,0.8641,-6.2,7.8,-0.05,21.75
26113,0.1527,-0.2172,0.87,-6.11,7.76,0.02,21.74
26123,0.1543,-0.215,0.8672,-6.17,7.82,-0.08,21.78
26133,0.1537,-0.2177,0.8644,-6.26,7.74,-0.05,21.77
26143,0.1542,-0.2172,0.8638,-6.23,7.69,-0.11,21.77
26153,0.1539,-0.2159,0.8655,-6.23,7.82,-0.05,21.78
26163,0.1552,-0.22,0.8683,-6.12,7.77,-0.05,21.75
26173,0.1542,-0.2162,0.8661,-6.06,7.79,-0.03,21.77
26183,0.1512,-0.2155,0.8641,-6.17,7.73,-0.05,21.76
26193,0.1541,-0.2135,0.8666,-6.14,7.76,-0.05,21.75
26203,0.1528,-0.2145,0.8658,-6.12,7.76,-0.08,21.77
26213,0.153,-0.2174,0.8677,-6.24,7.83,-0.09,21.78
26223,0.1532,-0.2192,0.8685,-6.23,7.82,-0.03,21.76
26233,0.1509,-0.2183,0.8721,-6.23,7.77,-0.05,21.76
26243,0.156,-0.2168,0.8672,-6.15,7.82,-0.05,21.76
26253,0.1545,-0.2192,0.8654,-6.2,7.68,-0.09,21.75
26263,0.1548,-0.2175,0.8656,-6.03,7.88,-0.06,21.76
26273,0.156,-0.2168,0.8687,-6.23,7.8,-0.09,21.75
26283,0.1523,-0.2179,0.8676,-6.18,7.76,-0.12,21.76
26293,0.152,-0.2188,0.8701,-6.15,7.8,-0.09,21.77
26303,0.1555,-0.2177,0.8678,-6.18,7.69,-0.08,21.75
26313,0.1537,-0.2194,0.8685,-6.12,7.66,-0.17,21.77
26323,0.155,-0.2168,0.8673,-6.29,7.76,-0.03,21.76
26333,0.1577,-0.2189,0.8683,-6.23,7.76,-0.14,21.76
26343,0.1548,-0.2189,0.8677,-6.26,7.89,-0.12,21.76
26353,0.1548,-0.2168,0.8699,-6.21,7.85,-0.09,21.77
26363,0.155,-0.2192,0.866,-6.12,7.76,-0.11,21.77
26373,0.1528,-0.2207,0.8678,-6.05,7.66,-0.06,21.76
26383,0.1536,-0.218,0.8658,-6.18,7.73,-0.05,21.77
26393,0.1544,-0.2196,0.8669,-6.17,7.77,-0.02,21.78
26403,0.1542,-0.2142,0.8676,-6.26,7.88,-0.08,21.75
26413,0.1531,-0.2196,0.8665,-6.26,7.8,-0.02,21.74
26423,0.1533,-0.2195,0.8693,-6.23,7.68,-0.12,21.75
26433,0.1542,-0.2179,0.8645,-6.24,7.74,-0.11,21.75
26443,0.1556,-0.2191,0.8633,-6.15,7.77,-0.12,21.77
26453,0.1556,-0.2195,0.8678,-6.11,7.86,0.03,21.76
26463,0.1538,-0.217,0.864,-6.17,7.82,0.05,21.77
26473,0.153,-0.2188,0.8665,-6.2,7.74,-0.09,21.76
26483,0.1539,-0.2194,0.8658,-6.24,7.79,-0.12,21.76
26493,0.1503,-0.2189,0.865,-6.23,7.76,-0.06,21.77
26503,0.1538,-0.218,0.8683,-6.17,7.76,0.0,21.75
26513,0.1548,-0.2201,0.8676,-6.09,7.8,-0.11,21.78
26523,0.1543,-0.2186,0.8647,-6.08,7.86,-0.08,21.78
26533,0.1526,-0.218,0.8702,-6.17,7.82,-0.08,21.79
26543,0.1553,-0.2178,0.8698,-6.15,7.74,-0.17,21.77
26553,0.157,-0.2203,0.8669,-6.17,7.71,-0.12,21.77
26563,0.1538,-0.2191,0.8663,-6.23,7.71,-0.05,21.78
26573,0.1542,-0.2174,0.8688,-6.23,7.82,0.0,21.75
26583,0.1552,-0.2181,0.8661,-6.15,7.8,-0.05,21.76
26593,0.1567,-0.2173,0.8673,-6.17,7.77,-0.09,21.76
26603,0.1558,-0.2183,0.8682,-6.17,7.79,-0.11,21.77
26613,0.1554,-0.2158,0.8676,-6.2,7.76,-0.06,21.77
26623,0.1519,-0.2151,0.869,-6.18,7.82,-0.14,21.77
26633,0.1545,-0.2172,0.866,-6.11,7.74,-0.05,21.76
26643,0.1571,-0.2205,0.8672,-6.2,7.71,-0.08,21.74
26653,0.1532,-0.2209,0.8716,-6.14,7.8,-0.12,21.78
26663,0.1552,-0.2173,0.8702,-6.12,7.79,-0.02,21.77
26673,0.1564,-0.2172,0.866,-6.09,7.8,-0.09,21.77
26683,0.1549,-0.2174,0.8667,-6.32,7.82,-0.02,21.76
26693,0.1571,-0.2177,0.8667,-6.24,7.76,-0.11,21.75
26703,0.1544,-0.2177,0.8633,-6.17,7.76,-0.06,21.76
26713,0.1536,-0.2181,0.8643,-6.17,7.79,-0.06,21.76
26723,0.1536,-0.2179,0.8655,-6.24,7.77,-0.09,21.77
26733,0.1528,-0.2174,0.8666,-6.14,7.76,0.02,21.75
26743,0.155,-0.2191,0.8693,-6.18,7.77,-0.06,21.75
26753,0.1525,-0.2177,0.8651,-6.17,7.79,-0.08,21.76
26763,0.1553,-0.2186,0.8616,-6.09,7.77,-0.06,21.78
26773,0.156,-0.2177,0.8673,-6.24,7.8,-0.08,21.76
26783,0.1526,-0.2189,0.8682,-6.31,7.76,-0.05,21.77
26793,0.1517,-0.2152,0.8646,-6.18,7.79,-0.02,21.78
26803,0.1537,-0.2188,0.869,-6.17,7.77,0.02,21.76
26813,0.1564,-0.2169,0.8689,-6.15,7.8,-0.02,21.79
26823,0.1561,-0.2169,0.8644,-6.11,7.76,-0.11,21.77
26833,0.1547,-0.219,0.8677,-6.18,7.76,-0.03,21.8
26843,0.1552,-0.2174,0.8722,-6.11,7.74,-0.08,21.77
26853,0.1543,-0.2173,0.8683,-6.21,7.79,-0.05,21.75
26863,0.1538,-0.2212,0.8666,-6.21,7.77,-0.03,21.77
26873,0.1572,-0.218,0.8704,-6.23,7.77,-0.08,21.77
26883,0.153,-0.2142,0.8672,-6.2,7.71,-0.05,21.76
26893,0.1553,-0.2181,0.8657,-6.18,7.71,-0.05,21.79
26903,0.1542,-0.2184,0.8733,-6.15,7.76,-0.05,21.77
26913,0.1548,-0.2192,0.8665,-6.17,7.77,-0.08,21.78
26923,0.1545,-0.218,0.8646,-6.09,7.8,0.02,21.78
26933,0.156,-0.2213,0.8723,-6.14,7.79,-0.09,21.77
26943,0.1553,-0.2175,0.8661,-6.18,7.85,-0.05,21.78
26953,0.1539,-0.2172,0.8667,-6.2,7.8,-0.06,21.79
26963,0.1526,-0.2194,0.8663,-6.11,7.77,-0.11,21.77
26973,0.1514,-0.2157,0.8636,-6.11,7.69,-0.03,21.78
26983,0.1556,-0.214,0.863,-6.09,7.82,0.0,21.78
26993,0.1541,-0.2183,0.8665,-6.12,7.88,0.0,21.77
27003,0.1559,-0.2189,0.8674,-6.17,7.82,-0.15,21.76
27013,0.151,-0.2142,0.8699,-6.2,7.76,-0.14,21.79
27023,0.1558,-0.2177,0.865,-6.27,7.66,-0.14,21.78
27033,0.1567,-0.2195,0.8647,-6.26,7.74,-0.2,21.77
27043,0.1553,-0.2159,0.8608,-6.18,7.82,-0.11,21.77
27053,0.153,-0.2173,0.8635,-6.08,7.85,-0.14,21.76
27063,0.1519,-0.2164,0.8683,-6.12,7.69,-0.03,21.78
27073,0.1538,-0.2179,0.8676,-6.12,7.71,-0.06,21.74
27083,0.155,-0.2122,0.866,-6.24,7.77,-0.11,21.76
27093,0.1559,-0.2174,0.8661,-6.24,7.76,-0.09,21.76
27103,0.1531,-0.218,0.8635,-6.27,7.91,-0.08,21.76
27113,0.1545,-0.2178,0.8668,-6.12,7.91,-0.06,21.77
27123,0.1547,-0.2173,0.8671,-6.11,7.82,-0.08,21.77
27133,0.1544,-0.2167,0.8679,-6.11,7.69,-0.08,21.78
27143,0.1553,-0.219,0.8665,-6.15,7.71,-0.02,21.77
27153,0.1562,-0.2166,0.8685,-6.21,7.69,-0.09,21.8
27163,0.1522,-0.2166,0.873,-6.14,7.79,-0.06,21.79
27173,0.1552,-0.2188,0.87,-6.11,7.82,-0.02,21.78
27183,0.1555,-0.2207,0.8666,-6.18,7.79,-0.14,21.75
27193,0.1573,-0.2192,0.8645,-6.23,7.66,-0.05,21.78
27203,0.1581,-0.2208,0.8658,-6.11,7.73,-0.09,21.78
27213,0.1537,-0.2141,0.8672,-6.17,7.73,-0.11,21.77
27223,0.1556,-0.2174,0.8656,-6.18,7.82,0.0,21.77
27233,0.1548,-0.217,0.8698,-6.17,7.8,-0.02,21.76
27243,0.1552,-0.2185,0.8678,-6.26,7.76,-0.05,21.78
27253,0.1571,-0.2179,0.8665,-6.21,7.73,-0.05,21.82
27263,0.1542,-0.2192,0.8658,-6.23,7.74,-0.05,21.8
27273,0.157,-0.2167,0.8662,-6.14,7.77,-0.11,21.77
27283,0.1547,-0.2144,0.8666,-6.17,7.82,0.02,21.79
27301,0.1514,-0.22,0.8665,-6.14,7.74,-0.08,21.78
27311,0.1472,-0.2194,0.8657,-6.15,7.74,-0.03,21.8
27321,0.1541,-0.2195,0.8668,-6.29,7.73,-0.06,21.81
