t_ms,accel_x_g,accel_y_g,accel_z_g,gyro_x_dps,gyro_y_dps,gyro_z_dps,imu_temp_c
3232,0.1354,-0.2091,0.8765,-6.26,8.0,-0.09,25.2
3283,0.1315,-0.212,0.8745,-6.49,7.92,-0.17,25.19
3294,0.1235,-0.2106,0.8688,-6.41,7.86,-0.11,25.21
3304,0.1262,-0.2098,0.8685,-6.37,7.8,-0.11,25.22
3314,0.1266,-0.2144,0.8691,-6.26,7.83,-0.17,25.22
3325,0.1265,-0.2157,0.8746,-6.14,7.89,-0.08,25.24
3335,0.1243,-0.2163,0.8804,-6.18,7.76,-0.14,25.23
3345,0.1283,-0.2142,0.8788,-6.27,7.62,-0.09,25.22
3355,0.1321,-0.2119,0.8822,-6.12,7.4,-0.11,25.2
3365,0.1362,-0.2084,0.8859,-6.11,7.63,-0.08,25.22
3375,0.1389,-0.2096,0.8892,-6.06,7.69,-0.02,25.22
3385,0.1426,-0.2079,0.8865,-6.29,7.94,-0.09,25.2
3395,0.1447,-0.2091,0.8821,-6.55,7.89,-0.03,25.22
3405,0.1456,-0.2075,0.8801,-6.47,7.79,-0.05,25.21
3415,0.1451,-0.2107,0.8798,-6.46,7.97,0.02,25.22
3425,0.1422,-0.2096,0.8801,-6.55,8.31,-0.02,25.23
3435,0.1371,-0.2059,0.8784,-6.49,8.27,0.12,25.22
3445,0.1364,-0.2078,0.8784,-6.4,8.09,0.14,25.23
3455,0.1356,-0.21,0.8789,-6.58,7.88,0.0,25.2
3465,0.1382,-0.2031,0.8704,-6.41,7.85,-0.06,25.19
3475,0.1411,-0.2131,0.8733,-6.53,7.94,-0.08,25.23
3485,0.1371,-0.2117,0.8662,-6.56,8.24,0.0,25.22
3495,0.1356,-0.2125,0.8638,-6.4,8.26,-0.06,25.21
3505,0.1289,-0.214,0.8663,-6.18,8.29,-0.03,25.21
3515,0.1292,-0.2123,0.8678,-6.14,8.18,-0.02,25.19
3525,0.1257,-0.2111,0.8695,-6.18,7.86,-0.08,25.21
3535,0.1244,-0.2114,0.8733,-6.31,7.79,-0.03,25.2
3545,0.1218,-0.2029,0.8701,-6.21,7.89,-0.05,25.21
3555,0.126,-0.2067,0.874,-6.15,7.83,-0.03,25.23
3565,0.1282,-0.2104,0.868,-6.14,7.62,0.02,25.22
3575,0.1364,-0.2097,0.8728,-6.15,7.71,0.03,25.22
3585,0.1372,-0.2078,0.8717,-6.32,7.69,0.06,25.22
3595,0.1389,-0.2141,0.8711,-6.52,8.05,-0.06,25.21
3605,0.1339,-0.2134,0.877,-6.44,8.08,0.05,25.22
3615,0.1329,-0.2111,0.8777,-6.14,8.11,0.02,25.21
3625,0.1292,-0.2086,0.881,-6.05,8.0,-0.06,25.2
3635,0.1285,-0.2074,0.8853,-6.17,7.8,-0.06,25.21
3645,0.1317,-0.2067,0.8804,-6.29,7.66,-0.08,25.24
3655,0.1322,-0.2107,0.8744,-6.41,7.73,-0.08,25.22
3665,0.1278,-0.2037,0.8782,-6.29,7.65,-0.06,25.22
3675,0.1305,-0.202,0.8801,-6.21,7.79,-0.12,25.22
3685,0.1255,-0.2041,0.8779,-6.11,7.51,-0.11,25.2
3695,0.1342,-0.2021,0.8761,-6.23,7.27,-0.14,25.21
3705,0.136,-0.2062,0.8806,-6.56,7.28,-0.21,25.23
3715,0.1395,-0.2101,0.879,-6.72,7.5,-0.09,25.21
3725,0.1412,-0.212,0.873,-6.61,7.68,-0.09,25.22
3735,0.1417,-0.2126,0.874,-6.46,7.74,-0.02,25.24
3745,0.1431,-0.213,0.8734,-6.46,7.86,0.02,25.21
3755,0.1383,-0.2104,0.8794,-6.44,8.05,-0.05,25.2
3765,0.1379,-0.2134,0.879,-6.53,8.12,-0.03,25.22
3775,0.1404,-0.2122,0.876,-6.52,8.05,0.0,25.22
3785,0.1359,-0.2089,0.8756,-6.4,8.03,-0.05,25.21
3795,0.1324,-0.2062,0.8759,-6.21,7.94,0.0,25.22
3805,0.1351,-0.205,0.8746,-6.12,7.95,0.05,25.23
3815,0.1315,-0.207,0.8763,-6.21,8.02,0.11,25.22
3825,0.1337,-0.2081,0.8774,-6.43,8.17,0.03,25.23
3835,0.1307,-0.2074,0.8741,-6.43,8.14,0.02,25.19
3845,0.1266,-0.2063,0.8737,-6.31,8.02,0.0,25.22
3855,0.1284,-0.2079,0.8765,-6.34,8.05,0.05,25.22
3865,0.126,-0.2086,0.8699,-6.32,8.03,0.02,25.22
3875,0.1245,-0.2061,0.8743,-6.31,7.98,0.05,25.23
3885,0.1292,-0.2061,0.8701,-6.32,7.91,-0.06,25.24
3895,0.1287,-0.2096,0.8668,-6.41,7.88,-0.05,25.21
3905,0.1302,-0.2101,0.8667,-6.38,7.91,-0.05,25.23
3915,0.1307,-0.2124,0.8702,-6.29,7.98,-0.09,25.23
3925,0.1294,-0.2144,0.8765,-6.29,8.08,-0.02,25.22
3935,0.1305,-0.213,0.8783,-6.29,7.94,0.0,25.23
3945,0.1339,-0.2152,0.874,-6.23,7.77,-0.05,25.24
3955,0.1361,-0.2125,0.8756,-6.14,7.71,0.03,25.22
3965,0.1362,-0.2128,0.8801,-6.14,7.8,0.0,25.22
3975,0.1372,-0.2102,0.8789,-6.14,8.03,0.05,25.24
3985,0.1348,-0.2101,0.8829,-6.17,7.91,0.05,25.24
3995,0.1373,-0.208,0.8824,-6.15,7.76,-0.02,25.22
4005,0.1394,-0.2039,0.8824,-6.14,7.63,0.0,25.24
4015,0.141,-0.2032,0.8796,-6.21,7.69,-0.02,25.2
4025,0.1427,-0.2062,0.8835,-6.34,7.88,-0.05,25.22
4035,0.144,-0.2092,0.882,-6.64,8.0,0.02,25.23
4045,0.1412,-0.212,0.8739,-6.79,8.17,0.03,25.23
4055,0.1406,-0.209,0.8743,-6.53,7.98,0.06,25.24
4065,0.1364,-0.2058,0.8729,-6.24,7.76,0.12,25.24
4075,0.134,-0.2052,0.8773,-6.29,7.89,0.08,25.24
4085,0.1316,-0.2087,0.8802,-6.44,7.98,0.11,25.24
4095,0.1326,-0.2031,0.8712,-6.7,7.98,0.05,25.25
4105,0.1323,-0.2045,0.8702,-6.4,7.63,-0.05,25.24
4115,0.1342,-0.2041,0.8688,-6.18,7.5,-0.06,25.25
4125,0.1364,-0.2045,0.8701,-6.4,7.85,-0.14,25.24
4135,0.1335,-0.2081,0.8711,-6.38,8.05,-0.05,25.21
4145,0.1339,-0.207,0.8694,-6.49,8.0,-0.09,25.21
4155,0.13,-0.2135,0.8693,-6.5,7.97,-0.06,25.22
4165,0.1294,-0.2111,0.8687,-6.46,7.86,-0.09,25.21
4175,0.1298,-0.2126,0.8721,-6.29,7.94,0.02,25.19
4185,0.1271,-0.2113,0.8741,-6.27,7.97,0.0,25.22
4195,0.1227,-0.2107,0.8789,-6.32,8.06,-0.05,25.23
4205,0.1243,-0.21,0.8778,-6.26,7.77,-0.08,25.22
4215,0.1285,-0.2113,0.8806,-6.38,7.4,-0.03,25.25
4225,0.1315,-0.2097,0.877,-6.35,7.48,-0.09,25.21
4235,0.1301,-0.2075,0.8801,-6.31,7.6,-0.2,25.22
4245,0.1317,-0.2086,0.8782,-6.35,7.83,-0.14,25.19
4255,0.1323,-0.2123,0.8817,-6.37,7.94,-0.17,25.24
4265,0.1332,-0.2111,0.8833,-6.41,7.82,-0.08,25.23
4275,0.1349,-0.2097,0.8817,-6.4,7.73,-0.05,25.24
4285,0.1362,-0.2078,0.8806,-6.32,7.62,-0.05,25.23
4295,0.1378,-0.2089,0.8757,-6.4,7.77,-0.03,25.23
4305,0.1393,-0.2075,0.8774,-6.35,7.91,-0.08,25.21
4315,0.141,-0.2045,0.8761,-6.44,7.88,-0.08,25.25
4325,0.1388,-0.2046,0.8773,-6.58,7.8,-0.02,25.22
4335,0.141,-0.2072,0.8777,-6.55,7.79,-0.08,25.23
4345,0.1392,-0.208,0.8761,-6.52,7.83,-0.08,25.23
4355,0.1399,-0.2062,0.8713,-6.53,7.97,-0.05,25.24
4365,0.1376,-0.212,0.8695,-6.47,8.08,-0.09,25.23
4375,0.1356,-0.209,0.8719,-6.46,7.95,-0.02,25.22
4385,0.1306,-0.2081,0.8718,-6.44,7.86,-0.09,25.22
4395,0.1309,-0.2091,0.868,-6.37,7.79,-0.06,25.22
4405,0.1331,-0.2074,0.87,-6.23,7.79,-0.06,25.22
4415,0.1307,-0.2067,0.873,-6.27,7.92,0.02,25.22
4425,0.1295,-0.2136,0.874,-6.24,7.97,-0.02,25.24
4435,0.1274,-0.2098,0.876,-6.29,7.91,-0.03,25.22
4445,0.1309,-0.2098,0.8776,-6.24,7.68,-0.12,25.26
4455,0.1317,-0.2074,0.8795,-6.29,7.63,-0.02,25.23
4465,0.1292,-0.2062,0.8855,-6.31,7.89,-0.03,25.26
4475,0.1307,-0.214,0.8783,-6.29,7.8,-0.08,25.22
4485,0.1288,-0.2068,0.8811,-6.43,7.88,-0.03,25.24
4495,0.1279,-0.2131,0.8784,-6.53,7.69,-0.05,25.23
4505,0.1272,-0.2133,0.8746,-6.38,7.88,-0.05,25.2
4515,0.1292,-0.21,0.8813,-6.35,7.85,-0.08,25.21
4525,0.1281,-0.2108,0.8787,-6.31,7.98,0.03,25.23
4535,0.1292,-0.2109,0.8793,-6.23,7.92,-0.03,25.24
4545,0.1228,-0.2094,0.877,-6.47,7.71,-0.09,25.24
4555,0.126,-0.208,0.8724,-6.49,7.59,-0.05,25.24
4565,0.1277,-0.2091,0.8699,-6.37,7.56,-0.09,25.24
4575,0.131,-0.2042,0.8663,-6.27,7.66,-0.08,25.24
4585,0.1329,-0.2056,0.8691,-6.15,7.85,0.03,25.24
4595,0.1327,-0.2107,0.8748,-6.34,7.83,-0.05,25.25
4605,0.1323,-0.2128,0.8754,-6.49,7.82,-0.03,25.24
4615,0.1344,-0.2098,0.8735,-6.53,7.71,0.02,25.21
4625,0.1343,-0.2079,0.8706,-6.29,7.6,-0.05,25.23
4635,0.1345,-0.2065,0.8704,-6.24,7.76,-0.06,25.22
4645,0.1322,-0.2076,0.8746,-6.26,7.83,-0.08,25.22
4655,0.1322,-0.2056,0.8777,-6.47,7.82,-0.09,25.21
4665,0.1353,-0.2081,0.8785,-6.53,7.77,-0.12,25.22
4675,0.1359,-0.2128,0.8765,-6.55,7.63,-0.12,25.22
4685,0.1398,-0.2148,0.875,-6.43,7.65,-0.12,25.23
4695,0.1365,-0.2114,0.8727,-6.31,7.77,-0.06,25.22
4705,0.1367,-0.2073,0.8718,-6.29,7.91,-0.02,25.22
4715,0.1346,-0.2097,0.8757,-6.35,7.91,0.02,25.25
4725,0.1323,-0.2085,0.8752,-6.38,7.71,-0.11,25.23
4735,0.1349,-0.2107,0.8767,-6.46,7.63,-0.03,25.23
4745,0.1342,-0.2086,0.8772,-6.4,7.6,-0.05,25.23
4755,0.1348,-0.2117,0.8765,-6.34,7.79,-0.08,25.23
4765,0.1356,-0.2089,0.873,-6.32,7.83,-0.03,25.24
4775,0.1315,-0.2073,0.8724,-6.29,7.88,-0.11,25.24
4785,0.132,-0.208,0.8787,-6.26,7.79,-0.02,25.24
4795,0.1323,-0.207,0.8807,-6.38,7.68,-0.08,25.24
4805,0.1329,-0.2067,0.8766,-6.4,7.76,0.0,25.25
4815,0.1351,-0.208,0.8752,-6.38,7.85,-0.05,25.25
4825,0.1342,-0.2042,0.8776,-6.47,7.94,-0.03,25.26
4835,0.1312,-0.2081,0.8795,-6.52,7.91,-0.03,25.26
4845,0.1299,-0.2106,0.8762,-6.43,7.77,-0.08,25.23
4855,0.1331,-0.2141,0.8749,-6.38,7.57,-0.11,25.24
4865,0.1348,-0.2128,0.8771,-6.4,7.65,-0.06,25.23
4875,0.1328,-0.2109,0.8729,-6.34,7.8,-0.03,25.23
4885,0.1304,-0.2092,0.8716,-6.4,7.86,-0.03,25.24
4895,0.1302,-0.2075,0.8728,-6.34,7.79,-0.05,25.24
4905,0.1312,-0.2063,0.8751,-6.41,7.66,-0.05,25.24
4915,0.1309,-0.2101,0.8743,-6.27,7.68,-0.03,25.23
4925,0.1349,-0.2034,0.8752,-6.35,7.63,-0.09,25.24
4935,0.1328,-0.2063,0.8733,-6.37,7.63,-0.06,25.24
4945,0.1364,-0.2097,0.8691,-6.5,7.54,0.03,25.26
4955,0.1401,-0.2106,0.8705,-6.44,7.71,-0.05,25.26
4965,0.1344,-0.2091,0.8778,-6.37,7.71,-0.05,25.26
4975,0.1323,-0.2134,0.8776,-6.35,7.91,-0.03,25.24
4985,0.1321,-0.2114,0.8746,-6.38,7.8,-0.05,25.2
4995,0.1338,-0.2112,0.8792,-6.43,7.73,-0.03,25.26
5005,0.1306,-0.2092,0.8726,-6.44,7.65,-0.09,25.24
5015,0.1326,-0.2111,0.8766,-6.38,7.79,-0.14,25.22
5025,0.1304,-0.2126,0.8755,-6.4,7.77,0.0,25.24
5035,0.134,-0.2103,0.8782,-6.4,7.77,-0.05,25.22
5045,0.1343,-0.2059,0.8827,-6.2,7.74,-0.06,25.22
5055,0.1332,-0.2061,0.879,-6.2,7.51,-0.08,25.24
5065,0.1365,-0.2043,0.8822,-6.21,7.5,-0.05,25.24
5075,0.135,-0.2062,0.8823,-6.41,7.63,-0.06,25.23
5085,0.1364,-0.21,0.8785,-6.53,7.86,-0.02,25.23
5095,0.1327,-0.2063,0.8759,-6.46,7.8,-0.11,25.26
5105,0.1323,-0.2089,0.8715,-6.44,7.59,-0.05,25.23
5115,0.1346,-0.2091,0.8755,-6.32,7.54,-0.06,25.24
5125,0.1373,-0.2104,0.8761,-6.35,7.73,-0.05,25.22
5135,0.1376,-0.2073,0.879,-6.38,7.91,-0.02,25.24
5145,0.1385,-0.2102,0.8762,-6.43,8.09,-0.02,25.21
5155,0.1384,-0.2087,0.875,-6.38,8.0,-0.06,25.24
5165,0.1348,-0.2141,0.8745,-6.47,7.77,-0.11,25.24
5175,0.1338,-0.207,0.8741,-6.43,7.69,-0.09,25.24
5185,0.1377,-0.2112,0.8749,-6.37,7.71,0.0,25.24
5195,0.1316,-0.2065,0.8699,-6.32,7.92,0.06,25.22
5205,0.1323,-0.2037,0.8776,-6.5,7.85,-0.06,25.24
5215,0.1311,-0.2072,0.8724,-6.44,7.86,-0.06,25.22
5225,0.1327,-0.2073,0.8728,-6.44,7.77,-0.12,25.25
5235,0.1307,-0.2113,0.8748,-6.58,7.76,-0.06,25.23
5245,0.1294,-0.2078,0.8756,-6.47,7.89,-0.03,25.23
5255,0.1278,-0.2081,0.8706,-6.46,7.89,-0.03,25.23
5265,0.129,-0.2096,0.875,-6.46,7.79,-0.06,25.24
5275,0.1328,-0.2097,0.8761,-6.43,7.74,-0.11,25.22
5285,0.1346,-0.2089,0.879,-6.58,7.68,0.0,25.23
5295,0.1346,-0.2079,0.8806,-6.52,7.57,-0.08,25.23
5305,0.1371,-0.2112,0.8751,-6.61,7.6,-0.12,25.2
5315,0.137,-0.2097,0.8762,-6.47,7.76,-0.06,25.21
5325,0.1375,-0.2096,0.8778,-6.4,7.92,-0.02,25.25
5335,0.1378,-0.212,0.8844,-6.49,7.98,0.0,25.27
5345,0.1388,-0.2112,0.8794,-6.56,7.89,-0.05,25.25
5355,0.1349,-0.2087,0.8834,-6.55,7.69,-0.05,25.24
5365,0.1362,-0.2125,0.8781,-6.49,7.59,-0.06,25.24
5375,0.1366,-0.2097,0.8717,-6.34,7.59,-0.05,25.24
5385,0.1378,-0.2087,0.8752,-6.15,7.71,0.0,25.26
5395,0.1359,-0.2064,0.8712,-6.27,7.94,0.02,25.27
5405,0.1309,-0.2065,0.8768,-6.27,8.11,0.03,25.23
5415,0.1322,-0.2076,0.8749,-6.31,8.08,-0.03,25.23
5425,0.1323,-0.2072,0.873,-6.32,7.92,-0.08,25.25
5435,0.1334,-0.2079,0.8749,-6.27,7.73,-0.09,25.25
5445,0.1338,-0.2062,0.8751,-6.31,7.76,-0.05,25.26
5455,0.1332,-0.2062,0.8802,-6.29,8.02,-0.09,25.24
5465,0.1339,-0.2091,0.8821,-6.29,8.11,0.02,25.25
5476,0.1328,-0.2086,0.8798,-6.53,8.09,-0.06,25.27
5486,0.1324,-0.2119,0.8812,-6.66,7.85,-0.09,25.24
5496,0.1357,-0.2131,0.88,-6.49,7.82,-0.11,25.24
5506,0.1378,-0.2091,0.881,-6.46,8.0,-0.09,25.25
5516,0.1337,-0.2101,0.8766,-6.29,8.08,-0.03,25.22
5526,0.1342,-0.2085,0.88,-6.34,7.91,0.0,25.23
5537,0.1334,-0.2091,0.8738,-6.37,7.88,-0.03,25.24
5547,0.1327,-0.2086,0.8713,-6.44,7.94,-0.06,25.27
5557,0.134,-0.2106,0.8729,-6.46,8.02,-0.03,25.25
5567,0.1339,-0.2096,0.8773,-6.35,8.0,-0.02,25.26
5577,0.1339,-0.2085,0.8763,-6.29,7.91,-0.05,25.26
5587,0.1323,-0.2068,0.8777,-6.35,7.94,-0.03,25.24
5597,0.1361,-0.2074,0.8784,-6.35,7.8,0.0,25.25
5607,0.1388,-0.2094,0.8799,-6.38,7.86,-0.02,25.25
5617,0.1364,-0.2061,0.8759,-6.43,7.97,-0.05,25.23
5627,0.1349,-0.2097,0.8733,-6.5,7.94,-0.03,25.25
5637,0.134,-0.2067,0.869,-6.47,7.92,-0.05,25.24
5647,0.1337,-0.2062,0.8726,-6.43,7.85,-0.03,25.25
5657,0.1311,-0.2047,0.8744,-6.4,7.88,0.02,25.25
5667,0.1348,-0.2098,0.8711,-6.38,7.85,-0.09,25.25
5677,0.1353,-0.2074,0.8723,-6.55,7.8,-0.05,25.23
5687,0.1317,-0.2096,0.8766,-6.55,7.68,-0.05,25.25
5697,0.1333,-0.2103,0.8682,-6.6,7.73,-0.02,25.25
5707,0.1348,-0.2091,0.871,-6.44,7.73,0.0,25.25
5717,0.1357,-0.2092,0.8707,-6.34,7.69,-0.11,25.23
5727,0.1345,-0.2094,0.8773,-6.35,7.74,-0.03,25.25
5737,0.1318,-0.2074,0.8745,-6.29,7.73,0.0,25.26
5747,0.1321,-0.209,0.8815,-6.32,7.57,-0.03,25.23
5757,0.1315,-0.2076,0.8748,-6.44,7.47,-0.08,25.24
5767,0.1356,-0.2078,0.8669,-6.37,7.36,-0.09,25.26
5777,0.1428,-0.2103,0.8743,-6.26,7.47,-0.05,25.27
5787,0.1428,-0.2091,0.8776,-6.17,7.94,0.08,25.23
5797,0.1379,-0.2094,0.8828,-6.17,8.05,-0.02,25.25
5807,0.1382,-0.2039,0.8837,-6.32,7.74,-0.06,25.25
5817,0.1389,-0.2075,0.8804,-6.44,7.44,-0.14,25.28
5827,0.1388,-0.2098,0.8743,-6.63,7.4,-0.15,25.27
5837,0.136,-0.2085,0.87,-6.4,7.76,-0.14,25.24
5847,0.1338,-0.2086,0.8727,-6.37,8.26,0.03,25.27
5857,0.1287,-0.2109,0.8751,-6.47,8.41,-0.02,25.24
5867,0.1249,-0.209,0.8726,-6.44,8.09,-0.02,25.27
5877,0.1267,-0.21,0.8745,-6.41,7.66,-0.09,25.24
5887,0.1307,-0.2073,0.8729,-6.29,7.39,-0.09,25.25
5897,0.1328,-0.2085,0.869,-6.32,7.59,-0.05,25.28
5907,0.1329,-0.2126,0.8756,-6.24,8.0,0.05,25.27
5917,0.1313,-0.209,0.8759,-6.34,8.24,0.09,25.27
5927,0.1278,-0.2062,0.8789,-6.37,8.0,-0.02,25.25
5937,0.1273,-0.2102,0.8761,-6.4,7.5,-0.14,25.24
5947,0.1305,-0.208,0.8735,-6.4,7.25,-0.12,25.28
5957,0.1353,-0.2106,0.8704,-6.4,7.5,-0.08,25.28
5967,0.1375,-0.2109,0.8699,-6.43,8.09,-0.02,25.29
5977,0.1351,-0.2136,0.8744,-6.37,8.38,0.09,25.26
5987,0.132,-0.2103,0.8778,-6.27,8.12,0.06,25.24
5997,0.1338,-0.2086,0.8801,-6.41,7.63,-0.03,25.24
6007,0.1344,-0.2108,0.8793,-6.44,7.4,-0.11,25.26
6017,0.1357,-0.2067,0.8738,-6.56,7.66,-0.05,25.25
6027,0.1335,-0.2109,0.8713,-6.43,7.97,-0.02,25.27
6037,0.1294,-0.2043,0.8755,-6.29,8.15,-0.03,25.24
6047,0.1298,-0.2086,0.8768,-6.08,7.83,0.0,25.27
6057,0.1355,-0.2076,0.8768,-6.29,7.44,-0.08,25.25
6067,0.1371,-0.2064,0.8763,-6.31,7.31,-0.02,25.27
6077,0.136,-0.2076,0.8763,-6.27,7.73,0.0,25.27
6087,0.1353,-0.2067,0.8783,-6.15,8.05,-0.03,25.26
6097,0.1366,-0.2059,0.8815,-6.05,8.02,-0.03,25.26
6107,0.1342,-0.2092,0.8807,-6.11,7.74,-0.09,25.25
6117,0.1344,-0.2072,0.8768,-6.38,7.4,-0.14,25.22
6127,0.1359,-0.2111,0.8708,-6.49,7.36,-0.15,25.27
6137,0.1394,-0.2104,0.8739,-6.34,7.83,-0.09,25.27
6147,0.1355,-0.2086,0.8773,-6.11,7.98,-0.03,25.24
6157,0.1342,-0.2074,0.8795,-5.97,7.95,-0.02,25.26
6167,0.1344,-0.2089,0.8776,-5.85,7.59,-0.09,25.28
6177,0.1359,-0.2059,0.8792,-6.03,7.31,-0.2,25.27
6187,0.1364,-0.2084,0.8776,-6.08,7.4,-0.15,25.28
6197,0.1353,-0.2103,0.8729,-6.05,7.71,-0.05,25.27
6207,0.136,-0.2124,0.8772,-5.91,7.83,-0.02,25.27
6217,0.135,-0.2142,0.8738,-5.83,7.8,0.0,25.27
6227,0.1322,-0.2103,0.874,-5.77,7.83,0.09,25.26
6237,0.131,-0.2064,0.8741,-5.79,7.76,-0.03,25.25
6247,0.1283,-0.2087,0.8716,-5.94,7.79,0.03,25.25
6257,0.1274,-0.205,0.8801,-5.94,7.85,0.03,25.28
6267,0.13,-0.2074,0.8751,-6.02,7.65,-0.05,25.27
6277,0.1298,-0.2089,0.8728,-6.15,7.4,-0.08,25.27
6287,0.131,-0.2047,0.8746,-5.95,7.28,-0.11,25.26
6297,0.1346,-0.2109,0.8739,-5.92,7.36,-0.06,25.25
6307,0.1356,-0.2098,0.8732,-6.09,7.65,0.0,25.28
6317,0.1338,-0.2095,0.869,-6.08,7.91,-0.06,25.27
6327,0.131,-0.2083,0.8795,-5.88,7.95,0.0,25.25
6337,0.1267,-0.2107,0.8696,-5.71,7.8,-0.02,25.27
6347,0.1293,-0.2114,0.8765,-5.65,7.34,0.0,25.27
6357,0.134,-0.2051,0.8744,-5.62,7.15,-0.18,25.27
6367,0.1394,-0.2063,0.8806,-5.71,7.36,-0.17,25.27
6377,0.1396,-0.2036,0.8796,-5.85,7.71,-0.08,25.27
6387,0.1354,-0.2018,0.8774,-6.02,7.86,-0.06,25.25
6397,0.1375,-0.205,0.8765,-6.2,7.76,-0.09,25.27
6407,0.1412,-0.2094,0.875,-6.27,7.47,-0.09,25.27
6417,0.1403,-0.2075,0.8751,-6.47,7.45,-0.08,25.29
6427,0.1405,-0.2086,0.8751,-6.41,7.62,-0.03,25.26
6437,0.1411,-0.2068,0.8776,-6.23,7.83,0.08,25.28
6447,0.1354,-0.2064,0.8799,-6.17,8.02,0.05,25.26
6457,0.1342,-0.2036,0.8816,-6.31,7.86,0.05,25.28
6467,0.1273,-0.2041,0.8832,-6.31,7.74,0.03,25.26
6477,0.1302,-0.2054,0.8821,-6.49,7.59,-0.03,25.26
6488,0.1295,-0.2039,0.8784,-6.46,7.5,-0.11,25.23
6498,0.1394,-0.2053,0.8815,-6.41,7.59,-0.06,25.25
6508,0.139,-0.2097,0.8773,-6.55,7.82,-0.14,25.26
6518,0.1416,-0.2026,0.882,-6.47,8.0,-0.06,25.27
6528,0.1388,-0.2068,0.8798,-6.49,8.03,-0.02,25.24
6538,0.136,-0.2031,0.8842,-6.47,7.97,0.02,25.27
6548,0.1377,-0.2065,0.8813,-6.53,7.69,0.0,25.26
6558,0.1381,-0.2083,0.8779,-6.49,7.76,0.0,25.26
6568,0.1367,-0.2084,0.8759,-6.44,7.83,0.0,25.26
6578,0.1365,-0.2057,0.8763,-6.38,8.08,0.0,25.26
6588,0.1382,-0.2048,0.8785,-6.35,8.14,0.06,25.27
6598,0.1322,-0.2078,0.8768,-6.5,8.02,-0.05,25.27
6608,0.134,-0.2073,0.8751,-6.46,7.97,-0.05,25.26
6618,0.1331,-0.2061,0.8671,-6.58,7.74,-0.11,25.28
6628,0.1343,-0.2079,0.8617,-6.69,7.71,-0.05,25.26
6638,0.1355,-0.2101,0.8641,-6.47,7.94,-0.03,25.25
6648,0.1361,-0.2114,0.8688,-6.2,8.18,0.11,25.26
6658,0.1307,-0.2084,0.8716,-6.09,8.14,0.11,25.27
6668,0.1306,-0.2034,0.8783,-6.03,7.77,0.09,25.27
6678,0.1335,-0.2014,0.8802,-6.26,7.4,0.02,25.27
6688,0.1343,-0.2032,0.8778,-6.41,7.47,-0.09,25.28
6698,0.1359,-0.207,0.8745,-6.49,7.69,-0.18,25.25
6708,0.1354,-0.2111,0.873,-6.44,7.73,0.02,25.28
6718,0.1331,-0.2135,0.869,-6.31,7.74,0.03,25.27
6728,0.135,-0.2173,0.8757,-6.2,7.73,0.06,25.29
6738,0.1344,-0.2167,0.8743,-6.21,7.68,-0.03,25.29
6749,0.132,-0.2061,0.8849,-6.14,7.62,0.09,25.24
6759,0.1321,-0.1987,0.8877,-6.09,7.5,0.08,25.27
6769,0.1329,-0.1942,0.8934,-6.09,7.42,0.05,25.28
6779,0.1313,-0.1973,0.8879,-6.34,7.44,-0.02,25.27
6789,0.137,-0.2031,0.8826,-6.55,7.47,-0.06,25.26
6799,0.1362,-0.2052,0.8728,-6.47,7.44,-0.12,25.27
6809,0.1387,-0.2117,0.8719,-6.52,7.6,-0.14,25.27
6819,0.1398,-0.2136,0.875,-6.47,8.08,-0.05,25.28
6829,0.1376,-0.2108,0.8793,-6.43,8.14,-0.05,25.29
6839,0.1323,-0.2073,0.8773,-6.44,8.02,-0.03,25.26
6849,0.134,-0.2079,0.8862,-6.53,7.86,-0.05,25.26
6859,0.1349,-0.2065,0.8705,-6.38,7.63,0.03,25.26
6869,0.1359,-0.2061,0.8669,-6.29,7.34,-0.03,25.29
6879,0.1361,-0.2073,0.8651,-6.27,7.5,-0.06,25.25
6889,0.1333,-0.2102,0.8735,-6.26,7.97,0.02,25.29
6899,0.1299,-0.2054,0.8782,-6.18,8.03,-0.05,25.25
6909,0.1276,-0.2062,0.8768,-6.2,7.86,0.03,25.26
6919,0.1326,-0.2109,0.886,-6.18,7.47,-0.08,25.27
6929,0.1354,-0.2076,0.8784,-6.12,7.22,-0.11,25.25
6939,0.1396,-0.2039,0.8776,-6.09,7.45,-0.14,25.29
6949,0.1399,-0.2057,0.8729,-6.2,7.6,-0.02,25.24
6959,0.1334,-0.2086,0.8734,-6.26,8.0,0.0,25.28
6969,0.1299,-0.2101,0.8724,-6.26,7.97,0.02,25.28
6979,0.1306,-0.2069,0.8735,-6.03,7.76,-0.05,25.27
6989,0.1313,-0.2083,0.87,-5.94,7.44,-0.09,25.26
6999,0.1351,-0.2074,0.8773,-5.71,7.24,-0.06,25.24
7009,0.1399,-0.2042,0.876,-5.63,7.21,-0.06,25.27
7019,0.1399,-0.204,0.8868,-5.65,7.56,-0.11,25.27
7029,0.1409,-0.2089,0.8822,-5.95,7.86,-0.06,25.28
7039,0.137,-0.2024,0.8768,-6.09,8.0,-0.03,25.28
7049,0.1409,-0.2063,0.8763,-6.38,7.95,-0.11,25.28
7059,0.1301,-0.2098,0.8735,-6.41,7.8,-0.08,25.27
7069,0.1271,-0.2104,0.8691,-6.12,7.88,0.03,25.28
7079,0.1361,-0.2042,0.8693,-6.18,7.59,0.03,25.28
7089,0.1381,-0.2072,0.8805,-6.18,7.62,-0.05,25.28
7099,0.1362,-0.2048,0.8776,-6.0,7.62,-0.06,25.26
7109,0.1409,-0.2036,0.8821,-6.06,7.42,-0.05,25.26
7119,0.1427,-0.1986,0.8779,-6.43,7.24,-0.08,25.28
7129,0.1348,-0.2059,0.8821,-6.61,7.31,-0.11,25.28
7139,0.136,-0.2092,0.8727,-6.82,7.51,-0.09,25.28
7149,0.1448,-0.213,0.8733,-6.7,7.83,0.0,25.27
7159,0.142,-0.2079,0.8719,-6.58,8.05,0.03,25.27
7169,0.1407,-0.2076,0.8718,-6.26,7.89,0.03,25.27
7179,0.1398,-0.2125,0.8781,-6.14,7.76,0.02,25.26
7189,0.132,-0.2096,0.8811,-6.2,7.69,-0.03,25.27
7199,0.1327,-0.1995,0.8834,-6.23,7.6,-0.11,25.29
7209,0.137,-0.1995,0.8706,-6.31,7.62,-0.02,25.25
7219,0.1425,-0.2037,0.8693,-6.26,7.77,-0.09,25.26
7229,0.1384,-0.2035,0.8678,-6.21,7.91,0.03,25.27
7246,0.1354,-0.202,0.8815,-5.92,7.82,-0.06,25.29
7256,0.1356,-0.2031,0.8844,-6.14,7.79,-0.03,25.26
7266,0.1342,-0.2054,0.8765,-6.35,7.8,-0.08,25.27
7276,0.1343,-0.2067,0.8743,-6.43,7.73,-0.14,25.27
7286,0.1388,-0.2065,0.8737,-6.35,7.91,-0.03,25.28
7296,0.1355,-0.2036,0.8767,-6.08,8.09,-0.02,25.28
7306,0.1318,-0.209,0.8878,-6.18,8.15,-0.03,25.26
7316,0.1355,-0.2097,0.8794,-6.15,7.82,-0.05,25.26
7326,0.1349,-0.2065,0.8752,-6.56,7.47,-0.06,25.28
7336,0.135,-0.2067,0.8751,-6.63,7.37,-0.12,25.29
7346,0.1327,-0.2064,0.875,-6.41,7.65,-0.15,25.29
7356,0.1344,-0.205,0.8757,-6.24,7.94,-0.06,25.29
7366,0.1356,-0.201,0.8726,-6.23,7.95,-0.06,25.28
7376,0.1301,-0.2013,0.8738,-6.44,7.66,-0.17,25.26
7386,0.1315,-0.204,0.8761,-6.67,7.45,-0.18,25.28
7396,0.1359,-0.2065,0.8712,-6.58,7.66,-0.08,25.26
7406,0.1383,-0.2108,0.8712,-6.24,7.95,-0.03,25.27
7416,0.1344,-0.2104,0.8795,-6.17,8.11,0.03,25.26
7426,0.1367,-0.2109,0.8823,-6.23,7.88,-0.03,25.28
7436,0.1367,-0.205,0.8829,-6.26,7.45,-0.05,25.27
7446,0.1407,-0.2019,0.8789,-6.27,7.31,-0.09,25.29
7456,0.1416,-0.2037,0.8738,-6.35,7.59,-0.09,25.27
7466,0.1398,-0.2069,0.8737,-6.32,7.92,0.0,25.28
7476,0.1375,-0.2043,0.8722,-6.32,8.18,0.05,25.3
7486,0.1361,-0.2041,0.876,-6.34,8.06,0.02,25.28
7496,0.1333,-0.2059,0.8772,-6.32,7.91,-0.05,25.26
7506,0.1328,-0.2079,0.8816,-6.34,7.79,-0.08,25.29
7516,0.1376,-0.2068,0.8779,-6.35,7.65,-0.08,25.3
7526,0.1354,-0.2059,0.8728,-6.37,7.79,-0.06,25.29
7536,0.1339,-0.2052,0.8765,-6.26,7.86,0.02,25.3
7546,0.1377,-0.2046,0.8823,-6.14,7.89,-0.03,25.29
7556,0.1354,-0.2051,0.88,-6.18,7.8,0.05,25.29
7566,0.1323,-0.1992,0.8805,-6.35,7.63,-0.11,25.27
7576,0.1349,-0.2009,0.8801,-6.53,7.51,-0.11,25.28
7586,0.1351,-0.2021,0.8745,-6.44,7.6,-0.06,25.29
7596,0.1317,-0.2018,0.8744,-6.38,7.76,-0.05,25.29
7606,0.1357,-0.2058,0.8711,-6.38,7.76,-0.06,25.28
7616,0.1351,-0.2057,0.8722,-6.29,7.79,-0.05,25.29
7626,0.1371,-0.2097,0.8713,-6.4,7.6,-0.08,25.29
7636,0.1401,-0.2047,0.877,-6.37,7.57,-0.08,25.27
7646,0.1415,-0.2089,0.8745,-6.29,7.62,-0.09,25.29
7656,0.1401,-0.2091,0.8732,-6.23,7.86,0.03,25.26
7666,0.1371,-0.2087,0.8781,-6.31,7.98,-0.08,25.28
7676,0.1395,-0.2086,0.8763,-6.44,7.91,-0.03,25.29
7686,0.1407,-0.2076,0.8783,-6.34,7.89,-0.02,25.27
7696,0.1414,-0.2081,0.8751,-6.27,7.85,-0.03,25.27
7706,0.1434,-0.2051,0.8756,-6.23,7.86,0.0,25.29
7716,0.1434,-0.2029,0.8799,-6.2,8.05,0.05,25.27
7726,0.1432,-0.2028,0.8782,-6.32,8.14,-0.05,25.27
7736,0.1412,-0.1924,0.8774,-6.18,7.97,-0.03,25.3
7746,0.1361,-0.194,0.8812,-6.38,7.77,-0.03,25.29
7756,0.1383,-0.1971,0.8816,-6.55,7.76,-0.05,25.28
7766,0.1353,-0.1866,0.8813,-6.31,7.73,-0.09,25.26
7776,0.1338,-0.1943,0.8815,-6.38,7.73,-0.02,25.26
7786,0.1346,-0.2046,0.8826,-6.72,7.85,-0.09,25.29
7796,0.1304,-0.2057,0.8693,-6.92,7.89,-0.12,25.28
7806,0.1381,-0.209,0.8665,-6.78,7.71,-0.03,25.25
7816,0.1357,-0.2056,0.8619,-6.38,7.71,-0.2,25.27
7826,0.1379,-0.2134,0.8706,-6.27,7.8,-0.12,25.29
7836,0.1328,-0.2097,0.8733,-6.23,7.79,-0.05,25.29
7846,0.1332,-0.2142,0.8781,-6.38,8.03,-0.09,25.29
7856,0.1323,-0.2128,0.8773,-6.53,7.94,0.03,25.27
7866,0.1382,-0.2157,0.8729,-6.49,7.76,-0.09,25.26
7876,0.1356,-0.2115,0.8735,-6.15,7.62,0.0,25.29
7886,0.1388,-0.212,0.8774,-6.05,7.69,0.05,25.27
7896,0.1355,-0.2057,0.8851,-6.14,7.89,0.11,25.27
7906,0.1279,-0.2069,0.8861,-6.26,7.88,0.09,25.29
7916,0.1304,-0.2031,0.8824,-6.35,7.6,-0.11,25.26
7926,0.1333,-0.2009,0.874,-6.37,7.57,-0.06,25.28
7936,0.1372,-0.1989,0.8761,-6.41,7.82,-0.03,25.27
7946,0.1388,-0.2061,0.8788,-6.34,8.09,0.03,25.29
7956,0.1359,-0.2064,0.8867,-6.44,8.12,0.03,25.27
7966,0.137,-0.2069,0.886,-6.47,7.95,-0.06,25.27
7976,0.1382,-0.2064,0.8784,-6.49,7.59,-0.08,25.27
7986,0.1364,-0.2067,0.8759,-6.41,7.47,-0.08,25.27
7996,0.1418,-0.2026,0.8715,-6.34,7.74,-0.09,25.29
8006,0.1422,-0.2031,0.8792,-6.26,8.11,-0.03,25.3
8016,0.1339,-0.2057,0.8777,-6.37,8.24,0.08,25.31
8026,0.1445,-0.2058,0.8831,-6.34,7.76,-0.11,25.27
8036,0.1365,-0.1936,0.8688,-6.26,7.18,-0.06,25.28
8046,0.1409,-0.2118,0.8671,-6.69,7.77,-0.06,25.28
8056,0.1263,-0.2302,0.8611,-7.63,8.32,0.08,25.28
8066,0.1177,-0.2108,0.8612,-6.63,8.89,0.2,25.3
8076,0.1274,-0.2108,0.8785,-5.45,7.36,0.08,25.25
8086,0.1389,-0.2017,0.8779,-5.04,6.93,-0.06,25.28
8096,0.1418,-0.1957,0.8997,-5.5,7.13,-0.09,25.29
8106,0.1433,-0.2035,0.8887,-6.75,7.82,-0.06,25.3
8118,0.141,-0.2042,0.8807,-7.5,8.24,-0.02,25.27
8128,0.1425,-0.2085,0.864,-6.75,7.54,-0.11,25.28
8138,0.1444,-0.2069,0.8647,-5.88,7.18,-0.03,25.28
8148,0.1385,-0.2021,0.8723,-5.77,7.53,-0.03,25.3
8158,0.1406,-0.2004,0.8807,-6.31,8.2,0.09,25.3
8168,0.1313,-0.2046,0.8837,-6.85,8.6,0.15,25.28
8178,0.13,-0.2075,0.8739,-6.89,8.17,-0.02,25.28
8188,0.1337,-0.2083,0.8719,-6.38,7.66,-0.11,25.27
8198,0.1355,-0.2065,0.8749,-5.82,7.27,-0.08,25.3
8208,0.1398,-0.2043,0.8818,-5.88,7.56,-0.03,25.28
8219,0.1429,-0.2039,0.8842,-6.43,8.02,-0.12,25.29
8229,0.1414,-0.2047,0.8779,-6.87,8.26,-0.06,25.29
8239,0.1367,-0.2037,0.8728,-6.76,8.03,-0.03,25.28
8477,0.1396,-0.1963,0.8678,-6.84,8.27,0.0,25.29
8487,0.1321,-0.2042,0.8751,-6.9,8.9,0.06,25.27
8497,0.1257,-0.2073,0.8781,-6.49,8.43,-0.05,25.3
8507,0.1337,-0.2061,0.8759,-6.27,7.65,-0.02,25.32
8517,0.1542,-0.1934,0.8552,-6.72,6.44,-0.11,25.3
8527,0.1688,-0.2148,0.8478,-6.73,6.95,-0.21,25.29
8537,0.1492,-0.2076,0.8623,-6.32,8.11,0.0,25.27
8547,0.1328,-0.2009,0.8822,-5.97,8.35,-0.05,25.31
8557,0.1282,-0.2085,0.879,-5.97,8.31,0.06,25.29
8567,0.1309,-0.2091,0.8851,-6.46,7.22,-0.06,25.29
8577,0.1331,-0.2098,0.8661,-6.73,7.07,-0.12,25.29
8587,0.1324,-0.2075,0.8706,-6.47,7.73,-0.05,25.31
8597,0.1361,-0.2111,0.8749,-6.0,8.17,0.02,25.3
8607,0.131,-0.2054,0.8828,-5.74,8.46,0.05,25.28
8617,0.1333,-0.2053,0.8911,-6.5,8.2,0.0,25.31
8627,0.1345,-0.2079,0.8806,-6.87,7.76,-0.05,25.3
8637,0.1362,-0.2095,0.8701,-6.79,7.51,-0.12,25.3
8647,0.1366,-0.2083,0.8705,-6.34,7.59,-0.09,25.29
8657,0.1372,-0.2042,0.8728,-5.83,7.83,0.0,25.3
8667,0.1355,-0.2036,0.8776,-5.88,8.05,0.09,25.29
8677,0.1337,-0.2031,0.8851,-6.29,7.8,0.0,25.3
8687,0.1334,-0.2057,0.8778,-6.78,7.5,-0.15,25.3
8697,0.1344,-0.2094,0.8704,-6.76,7.45,-0.2,25.3
8707,0.1373,-0.2086,0.8663,-6.47,7.6,-0.06,25.28
8717,0.1395,-0.2123,0.8694,-6.18,8.02,0.0,25.3
8727,0.1289,-0.2083,0.879,-6.05,8.35,0.06,25.29
8737,0.1296,-0.2084,0.8789,-6.44,8.14,0.0,25.3
8747,0.1293,-0.2064,0.876,-6.6,7.69,-0.06,25.3
8757,0.1335,-0.2053,0.8824,-6.4,7.53,-0.15,25.31
8767,0.1321,-0.2064,0.8737,-6.44,7.63,-0.03,25.28
8777,0.1368,-0.2037,0.8727,-6.4,7.98,0.05,25.3
8787,0.1354,-0.2043,0.8823,-6.37,8.02,0.12,25.32
8797,0.136,-0.2072,0.8844,-6.26,8.11,0.05,25.32
8807,0.1351,-0.2041,0.8845,-6.4,7.76,0.0,25.29
8817,0.1404,-0.2087,0.8778,-6.67,7.59,-0.06,25.29
8827,0.137,-0.2086,0.8744,-6.67,7.76,-0.05,25.3
8837,0.1349,-0.2041,0.873,-6.49,8.08,-0.06,25.32
8847,0.1356,-0.2042,0.873,-6.31,8.31,-0.05,25.3
8857,0.1267,-0.2072,0.8761,-6.34,8.32,-0.11,25.27
8867,0.1284,-0.2091,0.8759,-6.55,8.02,-0.08,25.3
8877,0.131,-0.209,0.8765,-6.63,7.62,-0.17,25.32
8887,0.1323,-0.2074,0.8683,-6.63,7.68,-0.15,25.3
8897,0.1377,-0.2068,0.8663,-6.55,7.91,-0.14,25.32
8907,0.1372,-0.2064,0.8711,-6.41,8.17,-0.05,25.32
8917,0.1378,-0.208,0.875,-6.46,8.2,-0.02,25.31
8927,0.1353,-0.2136,0.8743,-6.63,8.09,-0.03,25.32
8937,0.1354,-0.2098,0.879,-6.53,7.8,-0.05,25.29
8947,0.1368,-0.2059,0.8767,-6.43,7.6,-0.12,25.31
8957,0.1401,-0.2062,0.8793,-6.37,7.71,0.0,25.3
8967,0.1357,-0.2064,0.873,-6.34,7.79,0.06,25.33
8977,0.1359,-0.2086,0.8796,-6.37,8.05,0.05,25.31
8987,0.1289,-0.2074,0.8763,-6.44,7.94,0.05,25.31
8997,0.1333,-0.2074,0.8789,-6.46,7.76,-0.03,25.3
9007,0.1295,-0.2045,0.8749,-6.38,7.36,-0.09,25.31
9017,0.1531,-0.2184,0.8762,-6.35,7.3,-0.09,25.3
9027,0.1305,-0.1804,0.8658,-5.79,7.68,0.05,25.32
9037,0.1395,-0.2112,0.8934,-6.32,7.51,-0.11,25.3
9047,0.1417,-0.217,0.8798,-7.42,8.6,-0.17,25.31
9057,0.1415,-0.2086,0.8712,-6.84,8.69,0.02,25.29
9067,0.1434,-0.2141,0.8702,-6.6,7.86,-0.05,25.3
9077,0.134,-0.2076,0.8805,-6.75,7.95,-0.2,25.29
9087,0.1327,-0.2145,0.8744,-6.24,7.66,-0.05,25.31
9097,0.1271,-0.21,0.8756,-6.35,7.97,0.0,25.3
9107,0.1331,-0.2078,0.8761,-6.67,7.89,-0.05,25.32
9117,0.1316,-0.2079,0.8754,-6.6,7.77,-0.08,25.32
9127,0.1302,-0.2141,0.8715,-6.4,7.45,-0.06,25.3
9137,0.1361,-0.2056,0.8744,-6.35,7.42,-0.12,25.3
9147,0.1377,-0.2047,0.8711,-6.43,7.62,-0.11,25.3
9157,0.1389,-0.2081,0.8678,-6.64,8.11,0.02,25.32
9167,0.1321,-0.2115,0.8741,-6.67,8.38,0.02,25.31
9177,0.1354,-0.209,0.876,-6.35,8.27,0.03,25.3
9187,0.1342,-0.2048,0.8762,-6.2,7.71,0.03,25.3
9197,0.1346,-0.2057,0.8794,-6.08,7.47,-0.09,25.32
9207,0.1364,-0.2052,0.8796,-6.38,7.5,-0.11,25.33
9217,0.1376,-0.2094,0.8762,-6.84,7.89,0.0,25.29
9227,0.1376,-0.2086,0.8705,-6.69,8.31,-0.02,25.3
9237,0.137,-0.2134,0.8738,-6.46,8.32,0.03,25.29
9247,0.1331,-0.2098,0.8754,-6.27,8.05,0.0,25.31
9257,0.1315,-0.2073,0.8789,-6.38,7.71,-0.08,25.31
9267,0.1372,-0.2117,0.8723,-6.29,7.56,-0.03,25.32
9277,0.1389,-0.2115,0.8834,-6.37,7.76,-0.06,25.32
9287,0.1337,-0.2018,0.8821,-6.46,8.18,-0.08,25.32
9297,0.136,-0.2053,0.8818,-6.4,8.15,-0.09,25.3
9307,0.1296,-0.203,0.8793,-6.37,7.86,-0.09,25.32
9317,0.1285,-0.2078,0.8762,-6.41,7.56,-0.12,25.31
9327,0.1331,-0.2046,0.868,-6.6,7.36,-0.14,25.31
9337,0.1361,-0.2106,0.8644,-6.6,7.51,-0.03,25.3
9347,0.1373,-0.2094,0.8678,-6.49,8.03,0.0,25.32
9357,0.1327,-0.2046,0.8738,-6.21,8.09,0.0,25.32
9367,0.136,-0.2074,0.8766,-6.26,7.85,-0.02,25.31
9377,0.1368,-0.2051,0.8824,-6.29,7.54,-0.12,25.32
9387,0.1394,-0.204,0.8778,-6.5,7.54,-0.17,25.31
9397,0.1415,-0.2057,0.8779,-6.66,7.69,-0.12,25.29
9407,0.1365,-0.2119,0.8721,-6.73,7.95,-0.06,25.29
9417,0.1373,-0.2168,0.8826,-6.73,8.53,0.02,25.29
9427,0.1263,-0.2078,0.8835,-6.34,8.58,0.09,25.31
9437,0.1285,-0.2122,0.8843,-5.94,7.69,0.0,25.31
9447,0.1292,-0.2069,0.8859,-6.26,7.65,-0.05,25.31
9457,0.1396,-0.2021,0.8721,-6.49,7.24,-0.06,25.31
9467,0.1442,-0.2085,0.8732,-6.61,7.42,0.0,25.3
9477,0.136,-0.2037,0.8665,-6.44,8.0,0.06,25.32
9487,0.1326,-0.2052,0.8679,-6.15,7.98,0.0,25.32
9497,0.1039,-0.1787,0.8754,-6.12,8.24,0.02,25.31
9507,0.1239,-0.2106,0.8959,-7.33,6.87,-0.43,25.29
9517,0.1145,-0.1968,0.8781,-6.56,9.45,-0.23,25.3
9527,0.1276,-0.1625,0.8744,-5.95,8.31,0.15,25.28
9537,0.1149,-0.1837,0.908,-6.2,8.26,-0.23,25.32
9547,0.1184,-0.2247,0.8953,-6.55,7.83,-0.21,25.3
9557,0.1152,-0.2064,0.8599,-6.34,6.9,0.4,25.32
9567,0.1504,-0.2118,0.8864,-6.67,7.5,-0.17,25.32
9577,0.151,-0.2227,0.8673,-7.05,7.92,-0.32,25.3
9587,0.1405,-0.2205,0.8582,-6.0,8.24,0.05,25.31
9597,0.1301,-0.2172,0.8885,-6.03,8.17,0.14,25.3
9607,0.1232,-0.2039,0.8862,-6.49,8.34,-0.21,25.32
9617,0.1232,-0.2128,0.8818,-6.34,7.8,-0.06,25.3
9627,0.1403,-0.2122,0.8674,-6.72,7.53,-0.03,25.29
9637,0.1395,-0.2059,0.8678,-6.55,7.74,0.03,25.32
9647,0.127,-0.212,0.8695,-6.43,7.98,0.06,25.31
9657,0.1237,-0.2096,0.8749,-6.43,8.34,0.09,25.29
9667,0.1456,-0.2058,0.8732,-6.29,7.85,0.21,25.34
9677,0.1353,-0.2052,0.8799,-6.17,7.89,0.08,25.32
9687,0.1331,-0.2087,0.8809,-6.34,7.8,0.02,25.29
9697,0.1267,-0.2064,0.8806,-6.56,7.85,-0.02,25.33
9707,0.1284,-0.2085,0.8842,-6.67,7.56,-0.11,25.33
9717,0.1294,-0.2139,0.8702,-6.38,7.57,-0.02,25.31
9727,0.1296,-0.2069,0.8748,-6.35,7.77,-0.06,25.31
9737,0.1321,-0.2032,0.8778,-6.05,7.73,-0.03,25.32
9747,0.134,-0.2094,0.8776,-6.18,7.69,-0.08,25.32
9757,0.1326,-0.2057,0.8734,-6.66,7.6,-0.09,25.32
9767,0.1371,-0.2065,0.8696,-6.78,7.62,-0.08,25.3
9777,0.1348,-0.2142,0.8662,-6.41,7.8,-0.08,25.3
9787,0.1357,-0.2069,0.8721,-6.11,8.09,-0.03,25.32
9797,0.1328,-0.2061,0.8826,-6.03,8.06,-0.03,25.32
9807,0.132,-0.2065,0.8834,-6.15,7.69,-0.08,25.33
9817,0.135,-0.2058,0.8778,-6.58,7.42,-0.12,25.33
9827,0.1371,-0.2045,0.8755,-6.72,7.6,-0.03,25.32
9837,0.1399,-0.2075,0.876,-6.41,8.03,0.09,25.33
9847,0.1342,-0.2051,0.8788,-6.14,8.27,0.0,25.32
9857,0.1364,-0.2076,0.8884,-6.18,8.02,0.03,25.34
9867,0.1359,-0.2074,0.8867,-6.55,7.76,-0.06,25.32
9877,0.1384,-0.2057,0.8826,-6.79,7.5,-0.08,25.33
9887,0.1421,-0.2097,0.8713,-6.81,7.66,-0.05,25.29
9897,0.1403,-0.2102,0.8687,-6.66,8.11,0.02,25.34
9907,0.1346,-0.21,0.8669,-6.4,8.12,-0.03,25.36
9917,0.1309,-0.2025,0.8684,-6.4,7.97,-0.05,25.33
9927,0.1331,-0.2018,0.8756,-6.32,7.74,-0.12,25.34
9937,0.1311,-0.2025,0.8749,-6.49,7.68,-0.06,25.34
9947,0.1305,-0.2043,0.8804,-6.49,7.98,-0.06,25.31
9957,0.1254,-0.2045,0.8798,-6.52,8.31,-0.06,25.29
9967,0.1276,-0.2081,0.8802,-6.09,8.11,0.05,25.32
9977,0.1307,-0.2078,0.8839,-6.15,7.65,-0.11,25.33
9987,0.1366,-0.2084,0.8789,-6.43,7.44,-0.17,25.31
9997,0.1385,-0.2113,0.8771,-6.6,7.74,-0.12,25.3
10007,0.1332,-0.2125,0.8721,-6.73,8.05,-0.14,25.33
10017,0.1315,-0.2097,0.8708,-6.52,8.4,-0.02,25.31
10027,0.1285,-0.2101,0.8842,-6.27,8.09,0.02,25.32
10037,0.1317,-0.2104,0.8813,-6.31,7.79,-0.09,25.31
10047,0.1339,-0.2072,0.8861,-6.49,7.42,-0.15,25.33
10058,0.1398,-0.2086,0.8815,-6.56,7.6,-0.09,25.32
10068,0.1411,-0.209,0.8784,-6.7,8.03,-0.06,25.32
10078,0.1364,-0.2111,0.8787,-6.64,8.35,0.08,25.33
10088,0.1331,-0.2087,0.8777,-6.49,8.34,0.09,25.3
10098,0.1283,-0.2104,0.8784,-6.53,7.83,-0.02,25.31
10108,0.1385,-0.2117,0.8743,-6.67,7.42,-0.08,25.34
10118,0.14,-0.2024,0.8683,-6.64,7.44,-0.02,25.33
10128,0.1395,-0.2047,0.8663,-6.53,7.71,-0.03,25.3
10138,0.1378,-0.2123,0.8693,-6.35,7.97,0.05,25.31
10148,0.1322,-0.2191,0.8772,-6.34,8.12,0.0,25.31
10158,0.1304,-0.215,0.8777,-6.23,7.89,-0.02,25.33
10168,0.1256,-0.2079,0.8749,-6.2,7.47,0.03,25.33
10178,0.1268,-0.2041,0.8695,-6.27,7.19,-0.09,25.34
10188,0.1301,-0.2035,0.8678,-6.18,7.62,-0.06,25.31
10199,0.1282,-0.2037,0.8706,-6.18,8.08,0.06,25.34
10209,0.1302,-0.1927,0.8785,-5.97,8.08,0.06,25.33
10219,0.1335,-0.1917,0.8805,-5.82,7.56,-0.03,25.31
10229,0.132,-0.1895,0.8876,-5.98,7.47,-0.2,25.32
10239,0.1278,-0.1973,0.89,-6.31,7.51,-0.24,25.34
10249,0.1324,-0.2006,0.8945,-6.78,7.94,-0.15,25.33
10259,0.1311,-0.2147,0.8829,-7.07,8.27,-0.14,25.34
10269,0.1305,-0.234,0.8779,-7.01,8.24,0.03,25.35
10279,0.1238,-0.2239,0.8739,-6.18,8.31,0.26,25.32
10289,0.1461,-0.2106,0.8748,-6.2,7.92,0.0,25.34
10299,0.1287,-0.214,0.8927,-6.76,7.91,-0.17,25.32
10309,0.1292,-0.217,0.8787,-6.66,8.27,-0.08,25.3
10319,0.1315,-0.2155,0.8627,-6.89,7.8,-0.09,25.31
10329,0.134,-0.2136,0.8607,-6.87,7.65,-0.14,25.33
10339,0.1351,-0.2214,0.8597,-6.41,7.4,-0.08,25.31
10349,0.1375,-0.2145,0.8605,-5.91,7.69,0.05,25.34
10359,0.1344,-0.2046,0.8668,-5.98,7.82,-0.05,25.33
10369,0.1304,-0.2065,0.8733,-6.05,7.88,-0.09,25.34
10379,0.1272,-0.2103,0.8768,-6.02,7.57,-0.03,25.33
10389,0.1315,-0.2032,0.8774,-6.11,7.45,-0.06,25.31
10399,0.1327,-0.1989,0.8824,-5.94,7.33,-0.12,25.32
10409,0.136,-0.2001,0.8806,-5.88,7.63,-0.12,25.34
10419,0.1372,-0.2024,0.8835,-6.15,7.68,-0.05,25.33
10429,0.1405,-0.2062,0.8839,-6.6,7.85,-0.05,25.31
10439,0.1387,-0.2046,0.8838,-6.67,7.89,-0.06,25.32
10449,0.1357,-0.21,0.8832,-6.64,8.03,-0.2,25.3
10459,0.1335,-0.2061,0.8823,-6.58,8.02,-0.12,25.34
10469,0.1354,-0.2085,0.8813,-6.49,8.0,-0.02,25.31
10479,0.1315,-0.2065,0.8774,-6.6,7.89,-0.15,25.34
10489,0.1337,-0.2106,0.8796,-6.7,7.86,-0.14,25.33
10499,0.1337,-0.2104,0.8749,-6.6,7.73,-0.12,25.32
10509,0.1328,-0.2135,0.8678,-6.58,7.68,-0.09,25.32
10519,0.1349,-0.2124,0.8623,-6.61,7.54,-0.15,25.32
10529,0.1362,-0.2161,0.8662,-6.4,7.44,-0.09,25.33
10539,0.1387,-0.2117,0.8793,-6.05,7.98,0.14,25.34
10549,0.1357,-0.2108,0.885,-6.06,8.17,0.12,25.34
10559,0.1324,-0.2061,0.8871,-6.34,7.73,0.03,25.32
10569,0.1345,-0.2075,0.879,-6.41,7.22,-0.08,25.32
10579,0.1354,-0.2046,0.868,-6.43,7.08,-0.2,25.32
10589,0.14,-0.2039,0.8683,-6.08,7.5,-0.05,25.34
10599,0.1362,-0.1996,0.8723,-5.94,8.18,0.03,25.32
10609,0.1332,-0.1982,0.8818,-6.31,8.58,0.11,25.32
10619,0.1276,-0.2046,0.8804,-6.64,8.38,0.03,25.35
10629,0.1309,-0.2053,0.8746,-6.98,7.74,-0.15,25.32
10639,0.1365,-0.2086,0.8708,-6.92,7.36,-0.15,25.33
10649,0.1403,-0.2117,0.8679,-6.63,7.57,-0.12,25.32
10659,0.1395,-0.2101,0.8724,-6.23,8.31,0.0,25.33
10669,0.1366,-0.2128,0.8828,-6.2,8.75,0.03,25.34
10679,0.1289,-0.2133,0.8831,-6.58,8.29,0.0,25.33
10689,0.1311,-0.21,0.8777,-6.72,7.33,-0.12,25.33
10699,0.1384,-0.2111,0.869,-6.61,7.15,-0.21,25.32
10709,0.1399,-0.2098,0.8708,-6.27,7.62,-0.11,25.34
10719,0.1383,-0.2097,0.8726,-6.17,8.24,0.02,25.34
10729,0.1372,-0.2089,0.875,-6.34,8.24,0.08,25.33
10739,0.1294,-0.2117,0.8826,-6.44,7.74,0.03,25.32
10749,0.1376,-0.209,0.8779,-6.41,7.45,-0.05,25.32
10759,0.1335,-0.2078,0.879,-6.27,7.4,-0.05,25.33
10769,0.1344,-0.2046,0.8729,-6.17,7.95,0.06,25.33
10779,0.1379,-0.2065,0.8799,-6.26,8.17,0.05,25.33
10789,0.1311,-0.2083,0.8806,-6.27,8.37,0.02,25.34
10799,0.1366,-0.2136,0.8811,-6.43,8.03,0.03,25.31
10809,0.1368,-0.2078,0.8724,-6.67,7.57,-0.12,25.31
10819,0.1348,-0.2113,0.8673,-6.85,7.4,-0.15,25.33
10829,0.1306,-0.2155,0.8712,-6.75,7.77,-0.08,25.31
10839,0.1326,-0.2181,0.8767,-6.53,8.21,-0.03,25.33
10849,0.1334,-0.2167,0.8838,-6.27,8.47,0.11,25.32
10859,0.1309,-0.2124,0.8862,-6.31,8.21,0.09,25.32
10869,0.1329,-0.2029,0.8843,-6.47,7.54,-0.02,25.32
10879,0.1332,-0.2003,0.8813,-6.43,7.1,-0.15,25.32
10889,0.1418,-0.1943,0.8729,-6.23,7.15,-0.11,25.32
10899,0.1415,-0.1974,0.8743,-6.35,7.62,-0.06,25.29
10909,0.1407,-0.2042,0.8713,-6.4,8.15,0.03,25.34
10919,0.1385,-0.2101,0.8792,-6.29,8.17,0.03,25.32
10929,0.1387,-0.2169,0.8806,-6.37,7.63,-0.06,25.33
10939,0.1377,-0.2183,0.8837,-6.5,7.44,-0.11,25.32
10949,0.139,-0.2135,0.8782,-6.82,7.71,-0.14,25.34
10959,0.1351,-0.2059,0.8778,-6.82,8.17,-0.05,25.32
10969,0.1333,-0.2023,0.8787,-6.7,8.55,0.06,25.33
10979,0.1295,-0.2013,0.8796,-6.43,8.4,-0.06,25.33
10989,0.1283,-0.2006,0.8793,-6.31,7.71,-0.11,25.32
10999,0.1368,-0.2092,0.874,-6.35,7.27,-0.2,25.31
11009,0.1393,-0.2178,0.8688,-6.29,7.31,-0.15,25.33
11019,0.1398,-0.2175,0.8734,-6.29,7.94,-0.05,25.32
11029,0.1361,-0.2177,0.8726,-6.27,8.29,0.06,25.32
11039,0.1274,-0.2119,0.8816,-6.27,8.26,0.08,25.35
11049,0.1272,-0.2056,0.881,-6.4,7.91,0.02,25.34
11059,0.1283,-0.1952,0.8749,-6.52,7.5,-0.09,25.32
11069,0.1306,-0.1947,0.8676,-6.56,7.37,-0.11,25.33
11079,0.134,-0.197,0.8588,-6.4,7.66,-0.14,25.31
11089,0.1388,-0.2036,0.8649,-6.21,8.0,0.0,25.34
11100,0.1328,-0.2148,0.8822,-6.12,8.46,0.03,25.33
11110,0.1296,-0.2095,0.889,-6.21,8.09,-0.03,25.32
11120,0.1301,-0.2113,0.8842,-6.38,7.65,-0.08,25.31
11130,0.1345,-0.2096,0.8793,-6.46,7.33,-0.18,25.33
11140,0.1354,-0.2083,0.8749,-6.29,7.53,-0.06,25.33
11150,0.1356,-0.2092,0.8805,-6.06,7.95,-0.02,25.32
11160,0.1323,-0.2087,0.8868,-6.23,8.2,0.08,25.31
11170,0.1328,-0.2085,0.8873,-6.82,8.09,-0.06,25.34
11180,0.1311,-0.2128,0.882,-7.19,7.82,-0.11,25.33
11190,0.1306,-0.2102,0.8669,-7.25,7.59,-0.23,25.36
11200,0.1296,-0.2117,0.8617,-6.63,7.6,-0.14,25.34
11210,0.1349,-0.2115,0.8611,-5.92,7.85,-0.03,25.32
11220,0.1323,-0.2056,0.8789,-5.8,8.09,0.12,25.32
11230,0.1281,-0.2056,0.8876,-5.95,8.41,-0.02,25.33
11240,0.1266,-0.2048,0.8879,-6.32,8.05,-0.08,25.34
11250,0.1289,-0.2078,0.8846,-6.6,7.37,-0.15,25.34
11260,0.1356,-0.213,0.8784,-6.44,7.37,-0.15,25.34
11270,0.1395,-0.208,0.8807,-6.24,7.74,-0.08,25.34
11280,0.1387,-0.2079,0.8832,-6.43,8.18,0.09,25.33
11290,0.1359,-0.2076,0.8851,-6.81,8.58,0.02,25.35
11300,0.132,-0.2067,0.8771,-6.93,7.94,0.02,25.32
11310,0.1293,-0.2087,0.8716,-6.75,7.4,-0.15,25.32
11320,0.1335,-0.2108,0.8585,-6.4,7.25,-0.11,25.33
11330,0.1355,-0.2085,0.8639,-6.12,7.8,0.02,25.37
11340,0.1334,-0.2083,0.8676,-6.18,8.31,0.09,25.36
11350,0.1256,-0.2094,0.8741,-6.38,8.27,-0.02,25.34
11360,0.1288,-0.2078,0.8743,-6.32,7.63,0.03,25.32
11370,0.1298,-0.2096,0.8727,-6.23,7.08,-0.15,25.33
11380,0.1372,-0.2091,0.8746,-6.2,7.3,-0.02,25.31
11390,0.1379,-0.2091,0.8748,-6.27,7.83,0.0,25.31
11400,0.1359,-0.2113,0.8793,-6.32,8.26,0.03,25.32
11410,0.1385,-0.2137,0.8752,-6.5,8.08,0.0,25.34
11420,0.135,-0.2084,0.8805,-6.37,7.69,-0.09,25.34
11430,0.1412,-0.2095,0.8765,-6.6,7.21,-0.08,25.35
11440,0.1334,-0.2086,0.8788,-6.44,7.62,-0.03,25.33
11450,0.1335,-0.2094,0.8821,-6.53,7.97,-0.05,25.35
11460,0.1333,-0.209,0.8796,-6.56,8.31,-0.02,25.36
11470,0.1338,-0.2079,0.8838,-6.37,7.98,0.02,25.34
11480,0.1353,-0.212,0.8719,-6.41,7.5,0.0,25.31
11490,0.136,-0.2085,0.8816,-6.31,7.51,-0.12,25.34
11500,0.1362,-0.2094,0.8774,-6.38,7.62,-0.06,25.31
11510,0.1342,-0.2086,0.8733,-6.55,8.2,0.02,25.32
11520,0.1346,-0.207,0.8752,-6.55,8.26,-0.08,25.35
11530,0.1362,-0.2126,0.8687,-6.37,7.77,-0.11,25.32
11540,0.1364,-0.2062,0.8733,-6.44,7.66,-0.05,25.34
11550,0.1342,-0.2079,0.8708,-6.43,7.56,-0.05,25.33
11560,0.142,-0.2043,0.8649,-6.44,7.65,-0.02,25.34
11570,0.1455,-0.202,0.8655,-6.43,7.68,-0.08,25.34
11580,0.1426,-0.2074,0.8649,-6.18,7.8,-0.03,25.35
11590,0.1383,-0.2064,0.8707,-6.11,8.11,-0.06,25.34
11600,0.1383,-0.2035,0.8802,-6.35,7.89,-0.09,25.35
11610,0.1312,-0.2111,0.887,-6.47,7.91,-0.08,25.35
11620,0.135,-0.2158,0.8831,-6.56,7.82,-0.09,25.34
11630,0.1367,-0.2166,0.8763,-6.4,7.82,-0.03,25.33
11640,0.1338,-0.21,0.8782,-6.43,7.85,-0.02,25.33
11650,0.1367,-0.2094,0.8748,-6.44,7.82,-0.02,25.37
11660,0.1337,-0.2123,0.8712,-6.53,7.69,0.0,25.33
11670,0.1299,-0.2128,0.8816,-6.63,7.79,-0.02,25.34
11680,0.1313,-0.2164,0.8811,-6.4,8.03,0.0,25.34
11690,0.1287,-0.2117,0.8822,-6.29,8.06,0.12,25.34
11700,0.1343,-0.2056,0.8822,-6.18,7.77,0.0,25.33
11710,0.1355,-0.2029,0.8765,-6.21,7.51,-0.02,25.35
11720,0.1343,-0.2026,0.8813,-6.32,7.4,-0.05,25.35
11730,0.1285,-0.2051,0.8822,-6.41,7.54,-0.05,25.34
11740,0.1289,-0.2013,0.8772,-6.38,7.95,-0.06,25.35
11750,0.1267,-0.2045,0.884,-6.7,8.0,-0.15,25.32
11760,0.1244,-0.2117,0.8676,-6.63,8.0,-0.03,25.36
11770,0.1331,-0.2098,0.8677,-6.56,7.85,-0.06,25.38
11780,0.1364,-0.209,0.8679,-6.47,7.42,-0.12,25.34
11790,0.1387,-0.2152,0.8722,-6.12,7.66,-0.11,25.35
11800,0.1395,-0.2081,0.8778,-6.0,7.79,0.06,25.36
11810,0.1359,-0.2063,0.8835,-6.26,7.92,0.02,25.34
11820,0.1339,-0.2106,0.8857,-6.34,7.8,0.0,25.34
11830,0.1356,-0.2145,0.8827,-6.37,7.56,-0.06,25.35
11840,0.1395,-0.2115,0.8794,-6.35,7.66,-0.11,25.35
11850,0.1418,-0.2062,0.884,-6.49,7.85,-0.06,25.36
11860,0.1388,-0.2083,0.8824,-6.6,7.95,-0.03,25.33
11870,0.1432,-0.2052,0.869,-6.61,8.0,0.03,25.32
11880,0.1367,-0.2113,0.8706,-6.5,7.53,0.0,25.34
11890,0.1318,-0.2076,0.87,-6.26,7.63,-0.03,25.35
11900,0.136,-0.2034,0.8754,-6.02,7.6,-0.06,25.34
11910,0.1329,-0.2006,0.8754,-6.05,8.03,0.0,25.33
11920,0.1335,-0.1998,0.8806,-6.47,8.06,0.02,25.35
11930,0.1337,-0.1996,0.8761,-6.66,7.89,-0.02,25.35
11940,0.1448,-0.209,0.8739,-6.6,7.39,-0.05,25.33
11950,0.1403,-0.2059,0.871,-6.37,7.56,-0.09,25.34
11960,0.1396,-0.2023,0.8801,-6.23,7.91,-0.02,25.33
11970,0.1389,-0.2028,0.8792,-6.37,8.21,0.08,25.35
11980,0.1403,-0.1992,0.8806,-6.58,8.2,-0.03,25.33
11990,0.1368,-0.2064,0.8763,-6.7,7.57,-0.06,25.34
12000,0.1398,-0.2083,0.8665,-6.6,7.19,-0.11,25.33
12010,0.1409,-0.2144,0.8683,-6.41,7.39,-0.11,25.33
12020,0.1394,-0.212,0.8718,-6.35,7.88,-0.05,25.35
12030,0.1364,-0.2095,0.8779,-6.37,8.38,0.0,25.36
12040,0.1309,-0.2062,0.8835,-6.58,8.27,-0.03,25.35
12050,0.1262,-0.2026,0.8799,-6.55,7.76,-0.08,25.34
12060,0.1271,-0.2019,0.8737,-6.46,7.45,-0.12,25.36
12070,0.1328,-0.2025,0.8757,-6.27,7.53,-0.12,25.35
12080,0.137,-0.2045,0.8717,-6.32,7.94,-0.11,25.35
12090,0.134,-0.2056,0.8759,-6.37,8.27,-0.02,25.34
12100,0.1332,-0.2081,0.8765,-6.37,8.06,-0.06,25.34
12110,0.136,-0.208,0.8702,-6.5,7.68,-0.12,25.36
12120,0.1384,-0.2081,0.8691,-6.53,7.6,-0.12,25.35
12130,0.1376,-0.1956,0.8759,-6.35,7.94,-0.06,25.34
12140,0.1343,-0.1959,0.8759,-6.03,8.29,-0.03,25.34
12150,0.1332,-0.2098,0.8759,-6.34,8.14,-0.17,25.34
12160,0.1339,-0.2191,0.8704,-7.07,7.45,-0.14,25.34
12170,0.1392,-0.2262,0.8671,-7.33,7.44,-0.12,25.36
12180,0.1387,-0.2236,0.8594,-6.78,7.86,-0.05,25.35
12190,0.1376,-0.219,0.8639,-6.03,8.24,0.14,25.33
12200,0.1283,-0.2096,0.879,-5.73,8.18,0.21,25.35
12210,0.1323,-0.2072,0.8865,-5.91,7.73,0.17,25.32
12220,0.1337,-0.2013,0.8855,-6.31,7.21,-0.05,25.35
12230,0.1382,-0.2053,0.8784,-6.81,6.95,-0.27,25.37
12240,0.1365,-0.1979,0.8685,-6.63,7.28,-0.12,25.37
12250,0.1405,-0.2018,0.8729,-6.09,7.74,-0.03,25.35
12260,0.1399,-0.2057,0.8773,-5.85,8.43,0.12,25.35
12270,0.1323,-0.2053,0.8948,-6.17,8.55,0.08,25.36
12280,0.1261,-0.2062,0.8964,-6.67,7.8,-0.11,25.34
12290,0.1316,-0.2052,0.8867,-6.79,7.18,-0.24,25.35
12301,0.1371,-0.2107,0.8729,-6.75,7.33,-0.2,25.34
12312,0.1337,-0.2113,0.871,-6.58,8.21,-0.08,25.35
12322,0.1296,-0.2156,0.8755,-6.41,8.73,0.03,25.37
12332,0.1344,-0.2157,0.8785,-6.53,8.69,-0.03,25.34
12342,0.1293,-0.2137,0.879,-6.89,8.02,-0.09,25.34
12352,0.1328,-0.2194,0.873,-7.1,7.42,-0.17,25.34
12362,0.1313,-0.2222,0.8661,-6.93,7.37,-0.18,25.35
12372,0.1371,-0.2191,0.8623,-6.26,7.53,0.05,25.34
12382,0.1372,-0.207,0.8739,-5.89,8.23,0.09,25.35
12392,0.1323,-0.212,0.8857,-6.02,7.97,0.05,25.36
12402,0.1234,-0.208,0.8907,-6.41,7.65,-0.12,25.34
12412,0.1333,-0.21,0.8794,-6.56,7.18,-0.09,25.34
12422,0.1326,-0.2043,0.8695,-6.49,7.36,-0.11,25.34
12432,0.1309,-0.205,0.8729,-6.03,7.79,-0.02,25.35
12442,0.1305,-0.2067,0.8767,-5.98,7.89,0.0,25.35
12452,0.1305,-0.2068,0.8812,-6.06,7.97,0.02,25.36
12462,0.1298,-0.2023,0.8822,-6.43,7.68,-0.05,25.35
12472,0.1321,-0.2012,0.881,-6.61,7.51,-0.08,25.38
12482,0.1282,-0.2013,0.8724,-6.6,7.79,-0.09,25.36
12492,0.1365,-0.203,0.8744,-6.52,7.92,-0.08,25.37
12502,0.1333,-0.2123,0.8783,-6.35,7.86,-0.12,25.37
12512,0.1357,-0.2095,0.8726,-6.2,7.79,-0.03,25.35
12522,0.139,-0.2085,0.8743,-6.47,7.57,-0.12,25.34
12532,0.1373,-0.2117,0.8711,-6.69,7.34,-0.17,25.34
12542,0.1351,-0.2115,0.8759,-6.66,7.63,-0.03,25.36
12552,0.1365,-0.2068,0.873,-6.26,7.89,-0.03,25.38
12562,0.1432,-0.2074,0.8722,-6.09,7.91,0.02,25.34
12572,0.1423,-0.2024,0.8794,-6.06,7.89,0.03,25.35
12582,0.1396,-0.2036,0.8835,-6.35,7.82,-0.03,25.37
12592,0.1394,-0.2109,0.8798,-6.75,7.44,-0.11,25.36
12602,0.1428,-0.2101,0.8708,-6.72,7.25,-0.14,25.36
12612,0.1376,-0.2067,0.8645,-6.41,7.62,-0.09,25.37
12622,0.1388,-0.204,0.8668,-6.02,8.14,-0.03,25.34
12632,0.1409,-0.2039,0.8716,-5.91,8.35,0.05,25.36
12642,0.142,-0.2069,0.8792,-6.12,8.21,0.05,25.36
12652,0.1376,-0.2124,0.879,-6.46,7.82,-0.12,25.35
12662,0.1384,-0.2134,0.8792,-6.61,7.5,-0.26,25.36
12672,0.1364,-0.2162,0.8739,-6.53,7.63,-0.12,25.37
12682,0.1359,-0.2104,0.8767,-6.12,8.11,-0.03,25.37
12692,0.13,-0.2069,0.8823,-6.27,8.55,0.15,25.37
12702,0.1285,-0.2008,0.8878,-6.5,8.41,0.11,25.37
12712,0.1251,-0.1998,0.8802,-6.73,7.83,-0.11,25.37
12722,0.1316,-0.1973,0.8689,-6.79,7.18,-0.12,25.35
12732,0.134,-0.2015,0.8652,-6.23,7.34,-0.06,25.35
12742,0.1359,-0.204,0.8673,-6.09,7.71,0.02,25.33
12752,0.1356,-0.2056,0.8727,-5.98,8.23,-0.02,25.37
12762,0.1321,-0.2084,0.8801,-6.32,8.09,-0.02,25.38
12772,0.1284,-0.2111,0.8773,-6.81,7.54,-0.09,25.38
12782,0.1315,-0.2114,0.865,-6.84,7.28,-0.11,25.38
12792,0.1328,-0.2108,0.8638,-6.38,7.57,-0.05,25.36
12802,0.1309,-0.209,0.8708,-6.06,8.21,0.02,25.36
12812,0.1295,-0.2076,0.8834,-6.02,8.2,0.09,25.36
12822,0.1306,-0.2101,0.8822,-6.17,7.97,-0.05,25.34
12832,0.1333,-0.2108,0.8817,-6.52,7.45,-0.09,25.34
12842,0.1411,-0.2089,0.8771,-6.56,7.28,-0.11,25.36
12852,0.1438,-0.2119,0.8708,-6.55,7.56,-0.12,25.34
12862,0.1406,-0.2063,0.8718,-6.41,8.09,0.05,25.35
12872,0.1384,-0.2085,0.8756,-6.29,8.27,0.0,25.34
12882,0.1338,-0.2069,0.8779,-6.32,8.14,-0.05,25.36
12892,0.1356,-0.2054,0.8804,-6.35,7.74,-0.18,25.34
12902,0.1344,-0.2092,0.8765,-6.5,7.37,-0.08,25.39
12912,0.1383,-0.2083,0.8726,-6.52,7.48,-0.11,25.37
12922,0.1405,-0.204,0.8734,-6.35,7.91,-0.03,25.34
12932,0.1345,-0.2062,0.875,-6.38,8.24,0.06,25.37
12942,0.1342,-0.209,0.8802,-6.49,8.2,-0.02,25.37
12952,0.1351,-0.2083,0.8745,-6.47,7.77,-0.12,25.34
12962,0.1305,-0.2102,0.8798,-6.47,7.69,-0.09,25.38
12972,0.1392,-0.2123,0.8672,-6.43,7.56,-0.11,25.32
12982,0.1417,-0.2074,0.8727,-6.5,8.17,0.0,25.37
12992,0.1365,-0.2092,0.8793,-6.56,8.26,0.08,25.35
13002,0.1339,-0.2106,0.8744,-6.47,7.92,0.0,25.35
13012,0.1312,-0.2125,0.876,-6.21,7.5,-0.03,25.37
13022,0.1288,-0.2087,0.8752,-5.97,7.15,-0.05,25.35
13032,0.1361,-0.2067,0.8783,-6.14,7.44,-0.06,25.34
13042,0.1335,-0.2047,0.8848,-6.63,8.02,-0.08,25.37
13052,0.1351,-0.21,0.8767,-6.85,8.52,-0.06,25.34
13062,0.1305,-0.2126,0.8728,-6.87,8.17,0.0,25.35
13072,0.132,-0.2097,0.8732,-6.43,7.82,-0.05,25.35
13082,0.1329,-0.2069,0.8734,-6.18,7.28,-0.14,25.36
13092,0.1375,-0.2052,0.8752,-6.31,7.42,0.08,25.34
13102,0.1412,-0.207,0.8738,-6.49,8.0,-0.02,25.36
13112,0.1383,-0.2078,0.8723,-6.55,8.29,0.0,25.34
13122,0.1316,-0.2103,0.8728,-6.09,8.11,-0.03,25.34
13132,0.1318,-0.2087,0.8761,-5.89,7.59,-0.03,25.34
13142,0.1354,-0.204,0.8752,-6.23,7.44,-0.09,25.35
13152,0.1356,-0.2057,0.8728,-6.82,7.82,-0.09,25.34
13162,0.1329,-0.2083,0.8711,-7.04,8.03,-0.03,25.35
13172,0.1321,-0.2109,0.8704,-6.47,8.14,-0.02,25.37
13182,0.1331,-0.2102,0.874,-6.21,7.79,-0.05,25.35
13192,0.1348,-0.2107,0.8795,-6.03,7.73,-0.06,25.33
13202,0.1375,-0.2079,0.8743,-6.29,7.79,-0.06,25.37
13212,0.1346,-0.2068,0.8773,-6.67,8.0,-0.02,25.36
13222,0.1349,-0.2101,0.8715,-6.84,8.0,-0.05,25.33
13232,0.1342,-0.2109,0.8701,-6.44,7.82,-0.03,25.34
13242,0.1321,-0.2096,0.8738,-5.98,7.74,0.0,25.34
13252,0.1329,-0.2118,0.8805,-5.85,7.98,-0.05,25.34
13262,0.1331,-0.209,0.8831,-6.31,7.85,0.0,25.34
13272,0.1315,-0.207,0.8843,-6.81,7.8,-0.02,25.33
13282,0.1344,-0.2072,0.8757,-6.84,7.48,-0.17,25.35
13292,0.1387,-0.2101,0.8705,-6.69,7.25,-0.17,25.35
13302,0.1387,-0.2083,0.8662,-6.35,7.76,0.0,25.36
13312,0.1384,-0.2112,0.8719,-6.11,8.32,0.05,25.35
13322,0.1354,-0.2056,0.877,-6.12,8.53,0.15,25.34
13332,0.1324,-0.2067,0.8893,-6.32,8.15,0.08,25.32
13342,0.1299,-0.2111,0.8835,-6.73,7.59,-0.08,25.33
13352,0.1333,-0.2095,0.8766,-6.96,7.18,-0.24,25.34
13362,0.141,-0.2091,0.8616,-6.75,7.18,-0.06,25.37
13372,0.1405,-0.2118,0.8599,-6.34,7.97,0.14,25.34
13382,0.1383,-0.2073,0.8744,-5.86,8.87,0.12,25.35
13392,0.1327,-0.2057,0.8795,-5.86,8.73,0.06,25.37
13402,0.1332,-0.2074,0.8864,-6.27,7.97,0.02,25.35
13412,0.1356,-0.2072,0.8843,-6.61,7.45,-0.14,25.34
13422,0.1385,-0.2094,0.8767,-6.78,7.48,-0.17,25.36
13432,0.1388,-0.2072,0.8685,-6.63,7.85,-0.02,25.33
13442,0.1359,-0.2065,0.8705,-6.2,8.32,0.0,25.36
13452,0.1305,-0.2056,0.8755,-6.15,8.41,0.05,25.34
13462,0.1313,-0.2083,0.8766,-6.35,8.09,0.0,25.35
13472,0.1302,-0.2104,0.8754,-6.66,7.85,-0.06,25.31
13482,0.1359,-0.2126,0.8723,-6.6,7.79,-0.05,25.34
13492,0.1306,-0.2133,0.8678,-6.46,8.05,-0.09,25.34
13502,0.1296,-0.2097,0.8667,-6.24,8.09,-0.05,25.33
13512,0.1294,-0.2063,0.8754,-6.03,8.03,0.08,25.35
13522,0.1277,-0.2076,0.8795,-6.05,7.86,0.0,25.35
13532,0.1312,-0.2089,0.882,-6.23,7.51,-0.08,25.35
13542,0.1345,-0.2085,0.8754,-6.44,7.59,-0.11,25.36
13552,0.1379,-0.2102,0.8724,-6.43,7.68,-0.06,25.36
13562,0.1372,-0.2053,0.876,-6.34,8.05,-0.06,25.36
13572,0.136,-0.2079,0.8792,-6.49,8.09,-0.03,25.34
13582,0.134,-0.2103,0.8816,-6.63,8.03,-0.06,25.36
13592,0.136,-0.2067,0.8829,-6.72,7.86,-0.05,25.33
13602,0.1348,-0.2108,0.8751,-6.69,7.8,-0.17,25.32
13612,0.1359,-0.207,0.8722,-6.52,8.0,-0.11,25.34
13622,0.132,-0.2074,0.8755,-6.4,7.95,-0.14,25.34
13632,0.1318,-0.2095,0.876,-6.23,7.69,-0.02,25.34
13642,0.1304,-0.2073,0.8749,-6.17,7.63,-0.14,25.34
13652,0.1327,-0.209,0.8677,-6.37,7.71,-0.08,25.32
13662,0.1326,-0.2059,0.8678,-6.32,7.8,-0.05,25.34
13672,0.1338,-0.2092,0.868,-6.27,8.08,0.0,25.34
13682,0.1294,-0.2092,0.8784,-6.27,8.23,0.03,25.32
13692,0.1294,-0.2074,0.8772,-6.41,8.06,-0.03,25.34
13702,0.1306,-0.2115,0.8771,-6.56,7.68,-0.06,25.35
13712,0.1366,-0.2118,0.8698,-6.4,7.36,-0.06,25.33
13722,0.132,-0.2069,0.8699,-6.03,7.57,-0.15,25.34
13732,0.1354,-0.2046,0.8734,-6.06,7.97,-0.08,25.34
13742,0.134,-0.2073,0.877,-6.27,8.09,-0.05,25.33
13752,0.134,-0.2097,0.8835,-6.58,8.23,-0.08,25.33
13762,0.1313,-0.2122,0.8868,-6.87,8.06,-0.11,25.33
13772,0.135,-0.2145,0.8752,-6.82,7.62,-0.18,25.31
13782,0.1355,-0.2119,0.8734,-6.44,7.51,-0.24,25.34
13792,0.1368,-0.2115,0.8755,-6.09,7.62,-0.18,25.36
13802,0.1405,-0.2081,0.88,-6.12,7.98,-0.09,25.35
13812,0.1359,-0.2104,0.8792,-6.34,8.0,0.05,25.33
13822,0.1354,-0.2097,0.8761,-6.55,7.89,-0.05,25.34
13833,0.1368,-0.2098,0.8738,-6.4,7.54,-0.03,25.34
13843,0.1365,-0.2073,0.8749,-6.23,7.63,0.0,25.32
13853,0.1348,-0.2095,0.8716,-6.2,7.86,-0.11,25.33
13863,0.1333,-0.2057,0.8781,-6.32,8.06,-0.02,25.33
13873,0.1335,-0.2084,0.8796,-6.52,8.03,0.02,25.33
13883,0.1338,-0.2104,0.8735,-6.58,7.76,0.06,25.34
13893,0.1343,-0.2095,0.8729,-6.38,7.54,-0.06,25.34
13903,0.1338,-0.207,0.876,-6.23,7.69,-0.08,25.33
13913,0.1345,-0.2068,0.8755,-6.43,7.71,0.05,25.35
13923,0.1317,-0.2084,0.8762,-6.82,7.97,-0.05,25.32
13933,0.1344,-0.2106,0.8726,-6.76,8.12,-0.11,25.33
13943,0.1349,-0.2091,0.8685,-6.49,7.88,-0.06,25.33
13953,0.136,-0.2091,0.8702,-6.06,7.89,0.02,25.34
13963,0.1355,-0.2031,0.8761,-6.0,7.85,-0.02,25.35
13973,0.1296,-0.2079,0.8845,-6.41,7.88,-0.11,25.34
13983,0.131,-0.2095,0.8788,-6.75,7.63,-0.09,25.34
13993,0.1322,-0.2098,0.8689,-6.75,7.42,-0.06,25.35
14003,0.1361,-0.2122,0.8719,-6.27,7.88,-0.06,25.37
14013,0.1388,-0.2119,0.8716,-6.09,8.08,0.02,25.35
14023,0.1328,-0.2092,0.8805,-6.03,8.18,0.06,25.36
14033,0.131,-0.208,0.8879,-6.18,8.03,-0.06,25.34
14043,0.1299,-0.2085,0.8793,-6.58,7.51,-0.06,25.35
14053,0.1366,-0.2089,0.8737,-6.64,7.53,-0.14,25.33
14063,0.1373,-0.2097,0.8717,-6.58,7.73,-0.08,25.33
14073,0.1376,-0.207,0.8702,-6.23,8.08,0.02,25.36
14083,0.135,-0.2083,0.88,-6.37,8.12,-0.06,25.34
14093,0.1343,-0.2119,0.8828,-6.41,7.77,-0.11,25.35
14103,0.1342,-0.214,0.8784,-6.64,7.39,-0.18,25.34
14113,0.1365,-0.21,0.8727,-6.49,7.5,-0.17,25.33
14123,0.1416,-0.2101,0.8712,-6.32,7.89,0.03,25.32
14133,0.1345,-0.2101,0.8713,-6.08,8.18,0.06,25.34
14143,0.1331,-0.2089,0.8779,-6.29,8.12,0.05,25.34
14153,0.132,-0.2065,0.879,-6.29,8.02,-0.12,25.35
14163,0.1302,-0.2083,0.8782,-6.61,7.63,-0.02,25.36
14173,0.1338,-0.2113,0.877,-6.72,7.57,-0.11,25.32
14183,0.1367,-0.2089,0.8698,-6.67,7.4,-0.03,25.34
14193,0.1362,-0.2083,0.8719,-6.31,7.79,-0.02,25.36
14203,0.1361,-0.2124,0.8685,-6.32,8.18,-0.02,25.34
14213,0.1315,-0.2075,0.8766,-6.34,8.29,-0.02,25.35
14223,0.1279,-0.2095,0.8806,-6.46,7.98,-0.05,25.35
14235,0.1333,-0.2063,0.8746,-6.29,7.22,-0.12,25.32
14245,0.134,-0.2048,0.8761,-6.34,7.3,-0.11,25.32
14255,0.1322,-0.2084,0.8763,-6.31,7.86,-0.09,25.32
14265,0.137,-0.2065,0.8768,-6.46,8.11,-0.09,25.34
14275,0.135,-0.2083,0.874,-6.55,8.08,-0.03,25.35
14285,0.1343,-0.2107,0.8762,-6.46,7.89,-0.03,25.33
14295,0.1323,-0.21,0.876,-6.6,7.53,-0.15,25.34
14305,0.1355,-0.2096,0.8737,-6.6,7.47,-0.08,25.32
14315,0.1378,-0.2101,0.8702,-6.37,7.82,-0.05,25.31
14325,0.1343,-0.2097,0.8741,-6.06,8.11,0.0,25.35
14335,0.1313,-0.2084,0.8834,-5.89,8.02,0.06,25.36
14345,0.1343,-0.2075,0.8834,-6.37,7.63,-0.06,25.35
14355,0.131,-0.2095,0.8734,-6.67,7.45,-0.14,25.32
14365,0.1368,-0.2069,0.8657,-6.63,7.88,-0.12,25.32
14375,0.1321,-0.2111,0.8677,-6.4,8.21,-0.03,25.32
14385,0.1316,-0.2087,0.8679,-6.03,7.95,-0.03,25.31
14395,0.1353,-0.2067,0.8767,-6.02,7.6,-0.11,25.31
14405,0.1361,-0.2068,0.8762,-6.32,7.68,-0.14,25.33
14415,0.1346,-0.2032,0.8788,-6.46,7.77,-0.06,25.34
14425,0.1354,-0.2052,0.8777,-6.38,7.92,-0.08,25.34
14435,0.132,-0.2075,0.8801,-6.31,7.77,-0.05,25.34
14445,0.1307,-0.2045,0.8773,-6.43,7.42,-0.08,25.33
14455,0.1318,-0.2085,0.8765,-6.6,7.63,-0.21,25.36
14465,0.1318,-0.2129,0.8746,-6.93,7.98,-0.12,25.35
14475,0.1318,-0.2145,0.8727,-6.72,8.14,-0.12,25.33
14485,0.1283,-0.2158,0.8759,-6.4,7.89,-0.11,25.32
14495,0.1265,-0.2145,0.8739,-6.09,7.63,-0.15,25.32
14505,0.1295,-0.2118,0.8755,-6.29,7.47,-0.15,25.31
14515,0.1321,-0.2091,0.8688,-6.5,7.63,-0.18,25.34
14525,0.1382,-0.2098,0.8737,-6.53,7.69,-0.17,25.32
14535,0.1388,-0.2084,0.8757,-6.15,7.54,-0.14,25.32
14545,0.1439,-0.2048,0.8801,-5.89,7.5,-0.08,25.33
14555,0.1394,-0.201,0.8762,-6.18,7.47,-0.05,25.35
14565,0.1465,-0.2026,0.8755,-6.29,7.85,-0.05,25.35
14575,0.1445,-0.2063,0.879,-6.38,8.2,0.05,25.32
14585,0.1367,-0.2097,0.8802,-6.56,8.23,0.08,25.32
14595,0.1342,-0.2102,0.8848,-6.69,7.95,0.05,25.36
14605,0.1383,-0.2133,0.8759,-6.78,7.63,-0.06,25.34
14615,0.1375,-0.2139,0.8744,-6.53,7.85,0.09,25.35
14625,0.1367,-0.2104,0.8741,-6.29,8.35,0.09,25.33
14635,0.1276,-0.2107,0.8805,-6.27,8.27,0.15,25.35
14645,0.1318,-0.2048,0.8831,-6.34,7.66,-0.08,25.33
14655,0.1344,-0.2048,0.8824,-6.63,7.13,0.02,25.32
14665,0.135,-0.2041,0.8781,-6.75,7.3,-0.11,25.35
14675,0.1364,-0.2031,0.8734,-6.53,7.4,-0.03,25.36
14685,0.1371,-0.2031,0.8702,-6.35,7.69,0.03,25.33
14695,0.1328,-0.2045,0.8784,-6.32,7.91,0.03,25.33
14705,0.1271,-0.2075,0.8795,-6.6,7.68,-0.03,25.35
14715,0.1293,-0.2136,0.8735,-6.75,7.37,-0.08,25.34
14725,0.1301,-0.2141,0.8654,-6.82,7.39,-0.14,25.35
14735,0.1333,-0.2148,0.8613,-6.41,7.62,-0.15,25.36
14745,0.1345,-0.2175,0.8643,-6.08,8.23,0.0,25.35
14755,0.1364,-0.2114,0.8802,-6.2,8.27,0.06,25.34
14765,0.1326,-0.2128,0.8813,-6.55,8.05,-0.03,25.36
14775,0.13,-0.2142,0.8777,-6.5,7.76,-0.11,25.34
14785,0.1328,-0.2102,0.8671,-6.41,7.28,-0.11,25.34
14795,0.1357,-0.207,0.8699,-5.83,7.62,-0.03,25.35
14805,0.1364,-0.2064,0.8809,-5.74,7.97,-0.03,25.34
14815,0.1373,-0.2072,0.8866,-6.11,7.98,0.08,25.33
14825,0.1404,-0.2051,0.8845,-6.66,7.44,-0.06,25.37
14835,0.1427,-0.2028,0.8772,-6.73,6.82,-0.15,25.34
14845,0.152,-0.205,0.8667,-6.52,6.69,-0.15,25.33
14855,0.1523,-0.1982,0.8667,-6.21,7.53,-0.05,25.31
14865,0.1401,-0.1984,0.8745,-6.47,8.27,0.0,25.32
14875,0.1227,-0.2079,0.8937,-6.69,8.96,-0.03,25.34
14885,0.1337,-0.2085,0.8854,-6.84,8.05,-0.17,25.32
14895,0.1429,-0.2119,0.8734,-6.56,7.15,-0.14,25.34
14905,0.1439,-0.2112,0.8685,-6.56,6.81,-0.21,25.33
14915,0.1392,-0.2081,0.8738,-6.5,7.79,-0.15,25.34
14925,0.1376,-0.2125,0.8749,-6.53,8.44,-0.05,25.33
14935,0.14,-0.212,0.8737,-6.18,8.49,0.09,25.32
14945,0.139,-0.2117,0.8788,-5.94,7.98,0.05,25.34
14955,0.1357,-0.2111,0.8851,-6.11,7.6,-0.05,25.32
14965,0.1368,-0.2125,0.8776,-6.69,7.21,-0.18,25.34
14975,0.1411,-0.213,0.8717,-6.5,7.8,-0.11,25.35
14985,0.1432,-0.2135,0.8754,-6.17,8.35,-0.08,25.32
14995,0.1344,-0.2126,0.8767,-6.03,8.61,0.08,25.34
15005,0.1299,-0.212,0.8854,-6.21,8.38,0.05,25.31
15015,0.1278,-0.2096,0.8816,-6.63,7.77,-0.14,25.34
15025,0.1293,-0.2084,0.8795,-6.72,7.42,-0.14,25.35
15035,0.1301,-0.2073,0.8667,-6.6,7.66,-0.2,25.33
15045,0.1299,-0.2084,0.8682,-6.11,8.4,0.05,25.34
15055,0.1238,-0.2091,0.8835,-5.95,8.52,0.14,25.33
15065,0.1221,-0.2106,0.8849,-6.18,8.21,-0.08,25.32
15075,0.1169,-0.2122,0.8799,-6.61,7.48,-0.11,25.34
15085,0.1241,-0.2111,0.8679,-6.5,7.37,-0.14,25.33
15095,0.127,-0.2091,0.865,-6.32,8.02,-0.08,25.36
15105,0.1262,-0.2114,0.8683,-6.41,8.37,-0.05,25.32
15115,0.1207,-0.2141,0.8737,-6.41,8.35,-0.05,25.34
15125,0.1265,-0.2146,0.8741,-6.46,7.68,-0.09,25.32
15135,0.1324,-0.2133,0.8682,-6.27,7.15,-0.18,25.33
15145,0.1398,-0.2081,0.8711,-6.05,7.33,-0.02,25.33
15155,0.1445,-0.2068,0.8732,-6.14,8.06,0.08,25.32
15165,0.1393,-0.2068,0.8857,-6.34,8.24,0.0,25.32
15175,0.137,-0.208,0.881,-6.69,7.97,-0.06,25.33
15185,0.1394,-0.2098,0.8762,-6.49,7.59,-0.03,25.3
15195,0.1371,-0.2091,0.8746,-6.14,7.59,-0.02,25.33
15205,0.1389,-0.2078,0.8728,-6.14,7.82,0.06,25.32
15215,0.1373,-0.2097,0.8829,-6.44,8.32,0.15,25.32
15225,0.1318,-0.2064,0.8783,-6.72,8.29,0.06,25.33
15235,0.1292,-0.213,0.8761,-6.7,7.63,-0.09,25.35
15245,0.135,-0.2092,0.8639,-6.4,7.3,-0.12,25.31
15255,0.1393,-0.2079,0.8643,-6.15,7.6,-0.05,25.35
15265,0.1367,-0.2064,0.8683,-6.09,8.17,0.06,25.33
15275,0.1318,-0.2086,0.8795,-6.15,8.46,0.0,25.32
15285,0.1239,-0.2086,0.8817,-6.49,8.17,-0.05,25.35
15295,0.1251,-0.2075,0.8822,-6.6,7.6,-0.11,25.33
15305,0.1318,-0.2135,0.8767,-6.64,7.27,-0.11,25.33
15315,0.1388,-0.2109,0.8707,-6.52,7.76,-0.11,25.31
15325,0.1421,-0.2122,0.8704,-6.44,8.31,0.02,25.31
15335,0.1349,-0.2092,0.8795,-6.23,8.6,0.09,25.34
15345,0.1322,-0.2065,0.8838,-6.17,8.21,0.06,25.33
15355,0.134,-0.2117,0.8822,-6.55,7.6,-0.05,25.3
15365,0.1353,-0.2074,0.8746,-6.72,7.28,-0.18,25.32
15375,0.139,-0.2113,0.8685,-6.7,7.57,-0.11,25.32
15385,0.1411,-0.21,0.8668,-6.34,8.17,-0.03,25.31
15395,0.1349,-0.2085,0.8794,-6.12,8.47,0.09,25.32
15405,0.129,-0.2086,0.8844,-6.11,8.09,0.0,25.34
15415,0.1267,-0.2079,0.8821,-6.35,7.39,-0.09,25.34
15425,0.1359,-0.2064,0.8774,-6.72,7.13,-0.18,25.33
15435,0.1375,-0.2085,0.8704,-6.73,7.42,-0.11,25.31
15445,0.1395,-0.2084,0.8677,-6.38,8.06,0.09,25.32
15455,0.1346,-0.2114,0.8744,-6.12,8.49,0.06,25.32
15465,0.1324,-0.2078,0.882,-6.23,8.26,0.08,25.31
15475,0.1329,-0.2068,0.8812,-6.47,7.53,-0.08,25.32
15485,0.1331,-0.2076,0.8761,-6.6,7.13,-0.23,25.33
15495,0.1417,-0.208,0.8717,-6.61,7.47,-0.06,25.3
15505,0.1392,-0.2089,0.8705,-6.43,8.08,-0.08,25.31
15515,0.1359,-0.2092,0.8787,-6.23,8.34,-0.06,25.32
15525,0.1367,-0.209,0.8749,-6.32,8.17,-0.12,25.32
15535,0.1324,-0.2072,0.8811,-6.41,7.8,-0.11,25.32
15545,0.1378,-0.2103,0.8761,-6.58,7.69,-0.12,25.32
15555,0.1378,-0.208,0.8738,-6.58,8.11,-0.02,25.33
15565,0.1357,-0.2112,0.8723,-6.5,8.46,0.08,25.32
15575,0.1307,-0.2164,0.8737,-6.47,8.5,0.02,25.32
15585,0.1284,-0.2092,0.874,-6.35,8.03,-0.02,25.31
15595,0.1307,-0.2108,0.8761,-6.18,7.3,-0.11,25.32
15605,0.1368,-0.2072,0.8732,-6.38,7.59,-0.06,25.29
15615,0.1353,-0.2065,0.871,-6.44,7.8,-0.09,25.34
15625,0.1307,-0.2095,0.8722,-6.34,8.15,-0.02,25.35
15635,0.1324,-0.2091,0.88,-6.31,8.11,-0.05,25.33
15645,0.1342,-0.2054,0.8826,-6.31,7.89,0.0,25.32
15655,0.1379,-0.2083,0.8784,-6.35,7.6,0.02,25.32
15665,0.1355,-0.2084,0.8781,-6.43,7.88,0.0,25.32
15675,0.1354,-0.2112,0.8781,-6.46,8.03,-0.05,25.32
15685,0.1351,-0.2095,0.8806,-6.53,8.05,0.0,25.33
15695,0.1333,-0.2118,0.884,-6.43,7.94,0.02,25.32
15705,0.1312,-0.2097,0.8767,-6.4,7.89,-0.05,25.32
15715,0.1342,-0.2092,0.8778,-6.49,7.88,-0.03,25.29
15725,0.1324,-0.209,0.8761,-6.56,7.89,-0.12,25.33
15735,0.1328,-0.2103,0.8756,-6.64,7.86,-0.02,25.33
15745,0.1339,-0.2094,0.8662,-6.53,7.89,-0.06,25.32
15755,0.1323,-0.2103,0.8761,-6.2,7.92,-0.03,25.32
15765,0.1353,-0.2101,0.8804,-6.21,8.03,0.02,25.3
15775,0.1317,-0.2097,0.8773,-6.38,7.98,0.06,25.33
15785,0.1313,-0.209,0.8779,-6.4,7.86,0.0,25.32
15795,0.1339,-0.2103,0.8771,-6.4,7.68,-0.06,25.32
15805,0.1371,-0.2115,0.8733,-6.35,7.71,-0.08,25.31
15815,0.1361,-0.21,0.8779,-6.23,7.83,-0.03,25.32
15825,0.1327,-0.2094,0.8755,-6.38,7.94,-0.06,25.34
15835,0.1315,-0.207,0.8708,-6.49,7.97,-0.09,25.34
15845,0.1339,-0.209,0.8743,-6.49,7.91,-0.06,25.34
15855,0.1342,-0.2103,0.8766,-6.41,7.88,0.03,25.33
15865,0.1315,-0.21,0.8748,-6.23,7.94,0.0,25.31
15875,0.1335,-0.2098,0.882,-6.35,7.82,-0.05,25.31
15885,0.1334,-0.2112,0.8796,-6.47,7.76,0.0,25.34
15895,0.1367,-0.2098,0.8733,-6.58,7.79,-0.02,25.34
15905,0.1335,-0.2085,0.8727,-6.41,7.77,0.02,25.32
15915,0.1335,-0.2094,0.8752,-6.34,7.91,-0.09,25.31
15925,0.1327,-0.2081,0.8768,-6.4,8.0,0.0,25.3
15935,0.1351,-0.2053,0.8798,-6.4,7.92,-0.03,25.34
15945,0.1323,-0.2067,0.8787,-6.49,7.91,-0.05,25.35
15955,0.1328,-0.2094,0.8773,-6.46,7.89,-0.03,25.34
15965,0.1289,-0.2083,0.8765,-6.41,7.89,-0.06,25.34
15975,0.1333,-0.2091,0.8811,-6.27,7.76,-0.05,25.32
15985,0.1323,-0.209,0.8789,-6.32,7.65,-0.12,25.31
15995,0.1365,-0.2081,0.8784,-6.47,7.69,-0.17,25.33
16005,0.1382,-0.2097,0.8754,-6.49,7.71,-0.08,25.31
16015,0.1382,-0.2068,0.8744,-6.52,7.74,-0.12,25.31
16025,0.1357,-0.2076,0.8708,-6.35,7.85,-0.09,25.32
16035,0.1382,-0.2104,0.8683,-6.31,7.97,0.02,25.33
16045,0.1367,-0.2067,0.8833,-6.34,8.03,-0.05,25.32
16055,0.1327,-0.2086,0.8821,-6.53,7.83,0.02,25.31
16065,0.1322,-0.2094,0.8763,-6.69,7.66,0.0,25.31
16075,0.1329,-0.2114,0.8732,-6.47,7.63,-0.09,25.32
16085,0.1359,-0.2095,0.8743,-6.32,7.69,0.03,25.35
16095,0.1344,-0.2101,0.8757,-6.27,8.0,0.08,25.34
16105,0.1316,-0.2061,0.8811,-6.24,8.03,0.03,25.33
16115,0.1318,-0.2084,0.8802,-6.49,7.83,-0.03,25.34
16125,0.1339,-0.2078,0.8738,-6.56,7.66,-0.08,25.34
16135,0.1346,-0.2108,0.875,-6.5,7.73,-0.06,25.34
16145,0.1387,-0.2101,0.8723,-6.31,7.86,-0.05,25.31
16155,0.1375,-0.2114,0.8833,-6.26,8.03,0.08,25.36
16165,0.1315,-0.2089,0.8864,-6.32,8.06,0.05,25.33
16175,0.1328,-0.2073,0.8828,-6.55,7.69,-0.05,25.32
16185,0.1365,-0.2036,0.873,-6.56,7.56,-0.09,25.34
16195,0.139,-0.2076,0.8734,-6.46,7.53,-0.06,25.33
16205,0.1375,-0.2079,0.8711,-6.46,8.03,0.02,25.34
16215,0.1356,-0.209,0.8755,-6.35,8.11,0.0,25.33
16225,0.1312,-0.2069,0.8704,-6.4,7.88,-0.02,25.33
16235,0.13,-0.2106,0.8755,-6.6,7.68,-0.02,25.33
16245,0.1337,-0.2076,0.8656,-6.47,7.66,-0.02,25.33
16255,0.1344,-0.2131,0.8708,-6.34,7.98,0.03,25.36
16265,0.1321,-0.2107,0.8737,-6.18,8.34,0.09,25.36
16275,0.1257,-0.2086,0.8815,-6.27,8.15,0.08,25.34
16285,0.1323,-0.2075,0.8816,-6.32,7.6,0.0,25.35
16295,0.1318,-0.2083,0.8767,-6.5,7.22,-0.23,25.37
16305,0.1328,-0.2064,0.8722,-6.52,7.48,-0.06,25.35
16315,0.1375,-0.2086,0.8809,-6.35,7.89,-0.08,25.33
16325,0.141,-0.2058,0.8722,-6.21,8.03,-0.06,25.35
16335,0.1346,-0.2102,0.8796,-6.24,8.09,-0.02,25.35
16345,0.1335,-0.2089,0.8763,-6.53,7.34,-0.09,25.33
16355,0.1333,-0.2108,0.8748,-6.53,7.15,-0.27,25.33
16365,0.1354,-0.2098,0.8694,-6.38,7.47,-0.11,25.33
16375,0.1376,-0.2074,0.8746,-6.29,7.98,-0.02,25.33
16385,0.131,-0.2042,0.8784,-6.17,8.2,-0.02,25.35
16395,0.1302,-0.2073,0.882,-6.35,7.86,-0.11,25.34
16405,0.1342,-0.2063,0.8789,-6.52,7.3,-0.11,25.33
16415,0.1377,-0.2096,0.8771,-6.64,7.28,-0.18,25.34
16425,0.1433,-0.2186,0.8719,-6.49,7.66,-0.09,25.33
16435,0.1235,-0.1959,0.86,-6.47,8.27,0.06,25.36
16445,0.1382,-0.1829,0.8878,-7.15,8.2,-0.29,25.34
16455,0.1249,-0.2012,0.8739,-6.0,8.5,-0.08,25.34
16465,0.1392,-0.2134,0.881,-5.53,8.47,0.17,25.34
16475,0.1204,-0.1941,0.8895,-6.82,7.25,-0.14,25.34
16485,0.1331,-0.2108,0.8878,-6.58,7.62,-0.23,25.34
16495,0.1427,-0.2106,0.8573,-6.5,7.44,0.09,25.36
16505,0.1445,-0.2053,0.8698,-6.4,8.31,0.09,25.35
16515,0.1362,-0.2063,0.8719,-6.12,8.06,-0.06,25.33
16525,0.121,-0.2155,0.8804,-6.11,7.79,0.03,25.34
16535,0.1306,-0.2036,0.8759,-6.37,7.77,0.02,25.35
16545,0.1316,-0.2025,0.8738,-6.75,7.71,-0.18,25.32
16555,0.1307,-0.2146,0.8678,-6.47,7.74,-0.05,25.35
16565,0.1298,-0.212,0.8719,-6.14,7.95,-0.03,25.35
16575,0.1309,-0.1971,0.8771,-6.0,7.95,-0.02,25.33
16585,0.1288,-0.2054,0.889,-6.17,7.59,-0.06,25.33
16595,0.1295,-0.203,0.8767,-6.55,7.66,-0.11,25.35
16605,0.1387,-0.21,0.8754,-6.72,7.65,-0.05,25.36
16615,0.1323,-0.2087,0.8705,-6.58,7.8,0.03,25.35
16625,0.1274,-0.2124,0.8779,-6.34,7.92,-0.05,25.35
16635,0.1318,-0.2111,0.8726,-6.31,7.83,0.02,25.33
16645,0.1348,-0.2114,0.8751,-6.27,7.65,-0.11,25.33
16655,0.137,-0.2111,0.8732,-6.47,7.51,-0.09,25.35
16665,0.1327,-0.2083,0.874,-6.41,7.66,-0.09,25.37
16675,0.1301,-0.2084,0.8743,-6.24,7.74,-0.02,25.35
16685,0.1326,-0.2113,0.875,-6.21,7.82,-0.05,25.33
16695,0.1306,-0.2089,0.8785,-6.26,8.09,-0.08,25.33
16705,0.1321,-0.2032,0.8822,-6.38,7.98,-0.02,25.36
16715,0.1355,-0.2074,0.8779,-6.46,7.63,-0.06,25.34
16725,0.1375,-0.2095,0.8715,-6.34,7.8,-0.03,25.34
16735,0.1346,-0.2072,0.8756,-6.34,7.89,-0.11,25.35
16745,0.1329,-0.209,0.8783,-6.38,8.17,0.02,25.35
16755,0.1354,-0.2067,0.8784,-6.35,8.14,-0.03,25.37
16765,0.1328,-0.2091,0.8784,-6.5,7.98,0.05,25.34
16775,0.1326,-0.2073,0.8761,-6.47,7.89,0.0,25.35
16785,0.1354,-0.2085,0.8782,-6.41,7.97,-0.12,25.36
16795,0.1296,-0.2098,0.875,-6.34,7.83,-0.11,25.36
16805,0.131,-0.2091,0.8766,-6.2,7.77,-0.14,25.35
16815,0.1323,-0.2087,0.8781,-6.31,7.82,-0.05,25.35
16825,0.1323,-0.2087,0.8751,-6.47,7.83,0.02,25.35
16835,0.1301,-0.2053,0.8756,-6.41,7.79,0.02,25.34
16845,0.1312,-0.2113,0.8752,-6.4,7.69,-0.11,25.36
16855,0.1321,-0.208,0.8745,-6.38,7.68,-0.09,25.34
16865,0.1351,-0.2094,0.8749,-6.35,7.73,-0.15,25.33
16875,0.1371,-0.2083,0.874,-6.41,7.92,-0.09,25.34
16885,0.1345,-0.208,0.8779,-6.46,7.94,-0.06,25.32
16895,0.1371,-0.2103,0.8787,-6.27,7.83,-0.06,25.37
16905,0.1375,-0.209,0.8761,-6.23,7.76,-0.05,25.34
16915,0.1372,-0.2087,0.875,-6.37,7.88,-0.08,25.36
16925,0.1348,-0.2073,0.8773,-6.5,7.86,-0.03,25.33
16935,0.1321,-0.2134,0.874,-6.55,8.03,-0.05,25.33
16945,0.1296,-0.2109,0.8715,-6.55,7.97,0.05,25.33
16955,0.1322,-0.2094,0.8741,-6.27,7.89,0.0,25.34
16965,0.1299,-0.2059,0.8789,-6.17,7.66,0.06,25.36
16975,0.1338,-0.2075,0.8835,-6.29,7.74,0.0,25.37
16985,0.1367,-0.2089,0.8785,-6.5,7.69,-0.11,25.36
16995,0.1349,-0.2107,0.874,-6.63,7.85,-0.09,25.35
17005,0.1338,-0.2108,0.8715,-6.58,7.95,0.02,25.36
17015,0.1342,-0.2108,0.8684,-6.4,8.02,0.03,25.36
17025,0.1328,-0.2096,0.8726,-6.21,7.86,-0.11,25.37
17035,0.134,-0.2084,0.8834,-6.18,7.69,-0.05,25.35
17045,0.1348,-0.2083,0.879,-6.49,7.59,-0.06,25.36
17055,0.1357,-0.2092,0.876,-6.67,7.63,0.0,25.34
17065,0.1401,-0.2079,0.8689,-6.56,7.63,-0.05,25.34
17075,0.1355,-0.2057,0.8756,-6.32,7.88,0.02,25.35
17085,0.1373,-0.2083,0.8726,-6.18,7.82,0.05,25.34
17095,0.1344,-0.2084,0.879,-6.34,7.91,0.0,25.37
17105,0.1337,-0.2039,0.88,-6.55,7.66,-0.03,25.34
17115,0.1379,-0.2108,0.8745,-6.52,7.82,-0.09,25.34
17125,0.1344,-0.2109,0.8729,-6.5,7.68,-0.05,25.35
17135,0.1362,-0.2117,0.8701,-6.35,7.89,0.0,25.34
17145,0.1355,-0.2089,0.8723,-6.2,7.98,0.03,25.35
17155,0.1318,-0.2092,0.8745,-6.26,7.8,-0.02,25.37
17165,0.1304,-0.2046,0.8785,-6.47,7.66,-0.05,25.33
17175,0.1333,-0.2106,0.8789,-6.4,7.65,-0.03,25.34
17185,0.1343,-0.2089,0.871,-6.38,7.76,-0.02,25.34
17195,0.1333,-0.207,0.8763,-6.29,7.83,-0.02,25.37
17205,0.1356,-0.2058,0.8783,-6.24,7.92,-0.02,25.37
17215,0.1351,-0.2072,0.8815,-6.38,7.86,-0.05,25.35
17225,0.1337,-0.2107,0.8771,-6.44,7.6,-0.15,25.36
17236,0.1343,-0.2111,0.8729,-6.49,7.69,-0.05,25.32
17246,0.1394,-0.2064,0.873,-6.49,8.02,0.0,25.35
17256,0.134,-0.209,0.8768,-6.56,7.92,-0.05,25.35
17266,0.1326,-0.2112,0.8734,-6.32,8.0,-0.06,25.37
17276,0.1324,-0.2076,0.8784,-6.4,7.83,-0.06,25.36
17286,0.1364,-0.2056,0.8789,-6.5,7.71,-0.17,25.36
17296,0.136,-0.2111,0.8751,-6.41,7.77,-0.17,25.35
17306,0.1343,-0.2079,0.8715,-6.37,7.8,-0.09,25.38
17316,0.1311,-0.2051,0.8762,-6.38,7.97,-0.02,25.36
17326,0.1309,-0.214,0.8777,-6.43,7.91,-0.09,25.36
17336,0.1315,-0.2104,0.8781,-6.35,7.79,-0.11,25.37
17346,0.1377,-0.2101,0.8726,-6.43,7.65,-0.05,25.37
17356,0.139,-0.2108,0.8733,-6.38,7.76,-0.03,25.38
17366,0.1376,-0.2107,0.8719,-6.37,7.86,-0.03,25.37
17376,0.1317,-0.2115,0.8768,-6.32,8.03,0.0,25.36
17386,0.1322,-0.2091,0.8772,-6.31,7.88,0.02,25.35
17396,0.1346,-0.2067,0.8717,-6.34,7.85,-0.11,25.38
17406,0.1338,-0.2083,0.8763,-6.27,7.79,-0.11,25.35
17416,0.1345,-0.2069,0.8738,-6.43,7.74,-0.11,25.35
17426,0.1329,-0.2073,0.8766,-6.4,7.79,-0.08,25.34
17436,0.1348,-0.2084,0.875,-6.4,7.82,-0.06,25.36
17446,0.1351,-0.2036,0.8763,-6.31,7.86,0.0,25.36
17456,0.1322,-0.207,0.8789,-6.34,7.97,-0.03,25.37
17466,0.1315,-0.2083,0.8763,-6.43,7.88,-0.05,25.36
17476,0.1323,-0.2104,0.8772,-6.32,7.86,-0.08,25.34
17486,0.1344,-0.2076,0.8756,-6.52,7.89,-0.06,25.32
17496,0.1329,-0.208,0.8752,-6.43,7.91,-0.08,25.35
17506,0.1357,-0.212,0.8738,-6.46,7.95,-0.06,25.32
17516,0.134,-0.2073,0.8771,-6.32,7.98,-0.09,25.31
17526,0.1357,-0.2103,0.8795,-6.41,7.94,0.0,25.34
17536,0.1332,-0.2114,0.8765,-6.56,7.92,-0.03,25.34
17546,0.1366,-0.2061,0.8772,-6.47,7.73,-0.03,25.37
17556,0.1317,-0.2076,0.8727,-6.41,7.68,-0.12,25.37
17566,0.1334,-0.2058,0.8778,-6.34,7.83,-0.08,25.35
17576,0.1305,-0.2072,0.8824,-6.34,8.03,-0.11,25.37
17586,0.1321,-0.2118,0.8867,-6.37,8.27,-0.03,25.34
17596,0.1323,-0.2106,0.8818,-6.53,7.95,-0.11,25.37
17606,0.1313,-0.2095,0.8777,-6.55,7.82,-0.12,25.35
17616,0.1331,-0.2072,0.8751,-6.44,7.79,-0.05,25.36
17626,0.134,-0.2103,0.8763,-6.37,7.86,-0.02,25.35
17636,0.1326,-0.2166,0.8776,-6.37,7.91,-0.03,25.34
17646,0.1271,-0.2208,0.8804,-6.47,8.06,-0.03,25.35
17657,0.1331,-0.2159,0.8738,-6.47,8.02,-0.03,25.37
17667,0.1349,-0.2122,0.8813,-6.35,7.88,-0.02,25.37
17677,0.1376,-0.2112,0.875,-6.35,7.76,-0.09,25.35
17687,0.139,-0.2095,0.8694,-6.27,7.76,-0.08,25.38
17697,0.1379,-0.2069,0.8756,-6.37,7.68,0.0,25.39
17707,0.1376,-0.2051,0.8733,-6.49,7.66,-0.05,25.36
17717,0.1414,-0.212,0.8761,-6.47,7.68,0.03,25.37
17727,0.1382,-0.2029,0.8667,-6.37,7.74,-0.08,25.36
17737,0.129,-0.2078,0.8826,-6.31,7.79,-0.11,25.37
17747,0.1328,-0.208,0.8716,-6.5,8.02,0.0,25.36
17757,0.1285,-0.2074,0.8799,-6.53,8.05,0.03,25.37
17767,0.1316,-0.2111,0.8741,-6.52,7.86,0.02,25.39
17777,0.1307,-0.2111,0.8741,-6.4,7.83,0.0,25.37
17787,0.129,-0.2091,0.8765,-6.31,7.97,-0.06,25.35
17797,0.1346,-0.2091,0.8773,-6.34,7.92,0.02,25.38
17807,0.1356,-0.2091,0.8694,-6.41,7.83,-0.06,25.34
17817,0.1333,-0.2084,0.8746,-6.37,7.73,-0.03,25.37
17827,0.1294,-0.2109,0.8752,-6.49,7.77,-0.05,25.34
17837,0.1326,-0.2111,0.8746,-6.55,7.85,0.02,25.35
17847,0.1344,-0.2112,0.8776,-6.34,7.89,-0.06,25.37
17857,0.1339,-0.2101,0.8774,-6.35,7.88,-0.02,25.35
17867,0.1385,-0.2083,0.8822,-6.37,7.83,0.0,25.37
17877,0.1375,-0.2084,0.881,-6.4,7.63,0.0,25.35
17887,0.1338,-0.2094,0.8796,-6.41,7.63,-0.03,25.34
17897,0.1379,-0.2068,0.8755,-6.38,7.79,0.03,25.37
17907,0.136,-0.2092,0.8738,-6.37,7.8,0.02,25.35
17917,0.1307,-0.2083,0.8777,-6.41,7.88,-0.06,25.37
17927,0.1328,-0.2094,0.8802,-6.49,7.94,-0.03,25.36
17937,0.1335,-0.2087,0.8726,-6.58,7.88,-0.05,25.37
17947,0.1318,-0.2104,0.8717,-6.44,7.77,-0.09,25.36
17957,0.1315,-0.208,0.8698,-6.29,7.65,-0.03,25.39
17967,0.1357,-0.2103,0.8728,-6.34,7.68,-0.02,25.39
17977,0.1349,-0.2061,0.8789,-6.31,7.91,0.03,25.37
17987,0.1357,-0.2112,0.8855,-6.44,8.08,-0.03,25.37
17997,0.1299,-0.2072,0.8761,-6.46,7.82,-0.03,25.38
18007,0.132,-0.2074,0.8749,-6.47,7.44,-0.06,25.36
18017,0.134,-0.2075,0.8722,-6.52,7.48,-0.06,25.35
18027,0.1329,-0.2075,0.8656,-6.4,7.85,0.02,25.37
18037,0.1279,-0.2094,0.8721,-6.44,8.14,0.03,25.38
18047,0.1259,-0.2085,0.8771,-6.52,8.08,-0.03,25.38
18057,0.1305,-0.2113,0.879,-6.63,7.71,-0.06,25.37
18067,0.1376,-0.2134,0.8783,-6.38,7.31,-0.18,25.36
18077,0.136,-0.2175,0.8792,-6.34,7.51,-0.06,25.37
18087,0.1389,-0.2155,0.8763,-6.34,7.83,0.0,25.35
18097,0.1344,-0.2109,0.8802,-6.02,8.2,0.11,25.34
18107,0.1339,-0.2062,0.8889,-5.82,8.11,0.05,25.37
18117,0.1357,-0.1992,0.8884,-5.88,7.77,0.0,25.36
18127,0.1373,-0.2028,0.889,-6.14,7.31,-0.12,25.38
18137,0.1389,-0.2067,0.8787,-6.56,7.34,-0.17,25.38
18147,0.1366,-0.205,0.8695,-6.69,7.79,-0.08,25.37
18157,0.134,-0.2115,0.8687,-6.47,8.38,-0.05,25.37
18167,0.1348,-0.2089,0.8691,-6.21,8.4,0.0,25.39
18177,0.1289,-0.21,0.8754,-6.26,7.95,0.05,25.37
18187,0.1271,-0.2063,0.8781,-6.49,7.54,-0.2,25.34
18197,0.1311,-0.2096,0.8735,-6.84,7.4,-0.12,25.36
18207,0.1375,-0.214,0.8695,-6.79,7.82,-0.11,25.38
18217,0.1398,-0.2178,0.8724,-6.58,8.31,0.02,25.39
18227,0.1335,-0.2153,0.8759,-6.38,8.35,0.05,25.38
18237,0.1328,-0.215,0.8811,-6.34,7.83,-0.03,25.36
18247,0.1318,-0.2122,0.8777,-6.05,7.31,-0.11,25.37
18257,0.1318,-0.2087,0.8744,-6.15,7.48,-0.11,25.37
18267,0.1351,-0.2061,0.8738,-6.27,7.82,-0.06,25.37
18277,0.1289,-0.2058,0.8771,-6.37,8.08,-0.02,25.35
18287,0.1309,-0.2067,0.8766,-6.38,8.05,-0.03,25.37
18297,0.1298,-0.2092,0.8831,-6.52,7.85,-0.17,25.38
18307,0.1332,-0.2084,0.8756,-6.55,7.56,-0.09,25.38
18317,0.1353,-0.2084,0.8694,-6.46,7.57,-0.12,25.37
18327,0.1335,-0.2091,0.8682,-6.38,7.89,-0.03,25.38
18337,0.1306,-0.207,0.8774,-6.2,8.12,0.08,25.37
18347,0.1306,-0.2095,0.8826,-6.38,8.17,0.02,25.36
18357,0.1324,-0.2096,0.8806,-6.52,7.86,0.03,25.36
18367,0.1301,-0.2097,0.8766,-6.67,7.45,-0.12,25.38
18377,0.1388,-0.2108,0.8701,-6.6,7.34,-0.14,25.39
18387,0.1361,-0.2092,0.8732,-6.56,7.73,0.0,25.37
18397,0.1356,-0.2074,0.8761,-6.32,8.15,0.03,25.35
18407,0.1335,-0.2144,0.8875,-6.34,8.2,0.03,25.38
18417,0.1287,-0.2075,0.8829,-6.55,7.97,0.02,25.39
18427,0.1365,-0.2161,0.8733,-6.7,7.48,0.02,25.38
18437,0.1398,-0.2075,0.8656,-6.43,7.44,0.0,25.38
18447,0.1405,-0.2073,0.8693,-6.17,7.77,0.02,25.39
18457,0.1333,-0.2073,0.8804,-6.03,8.06,0.05,25.38
18467,0.1312,-0.2064,0.8856,-6.47,8.14,0.06,25.4
18477,0.1232,-0.2073,0.8884,-6.93,8.0,-0.03,25.39
18487,0.1243,-0.213,0.8856,-6.85,7.86,-0.17,25.41
18497,0.1351,-0.2159,0.8699,-6.49,7.65,-0.05,25.39
18507,0.1388,-0.2142,0.8696,-6.2,7.63,0.11,25.38
18517,0.1298,-0.2135,0.8804,-6.05,8.2,0.03,25.4
18527,0.1252,-0.2089,0.8862,-6.46,8.08,0.11,25.39
18537,0.1294,-0.2073,0.8829,-6.75,7.6,0.02,25.4
18547,0.1287,-0.2109,0.8767,-6.66,7.37,-0.09,25.38
18557,0.1337,-0.2094,0.8699,-6.32,7.44,-0.11,25.38
18567,0.1361,-0.2047,0.8682,-6.0,7.76,-0.17,25.38
18577,0.1339,-0.2009,0.8752,-5.97,8.06,0.05,25.38
18587,0.1305,-0.2043,0.8871,-6.23,7.92,0.03,25.38
18597,0.1285,-0.2021,0.8854,-6.44,7.57,-0.08,25.36
18607,0.1331,-0.2056,0.8792,-6.52,7.47,-0.12,25.36
18617,0.134,-0.2079,0.8784,-6.61,7.63,-0.09,25.35
18627,0.1411,-0.2096,0.879,-6.58,7.89,-0.05,25.36
18637,0.1423,-0.209,0.8795,-6.46,8.15,0.02,25.37
18647,0.1396,-0.2125,0.8773,-6.55,8.02,-0.11,25.37
18657,0.134,-0.2114,0.8729,-6.26,7.82,-0.11,25.37
18667,0.1353,-0.2103,0.873,-6.34,7.66,-0.09,25.41
18677,0.1353,-0.2091,0.8732,-6.4,7.85,-0.03,25.37
18687,0.1353,-0.2092,0.8701,-6.43,8.09,0.02,25.37
18697,0.1313,-0.2124,0.8722,-6.46,8.11,0.03,25.4
18707,0.1301,-0.2102,0.877,-6.34,7.98,-0.03,25.4
18717,0.132,-0.2111,0.875,-6.18,7.76,-0.11,25.37
18727,0.1306,-0.2103,0.8744,-6.24,7.77,-0.06,25.37
18737,0.1306,-0.2085,0.8713,-6.52,7.74,-0.09,25.39
18747,0.1331,-0.2113,0.87,-6.41,7.86,-0.08,25.38
18757,0.137,-0.2079,0.8689,-6.24,7.83,-0.05,25.4
18767,0.1362,-0.209,0.871,-6.08,7.74,-0.03,25.41
18777,0.1361,-0.2045,0.8745,-6.21,7.79,0.0,25.42
18787,0.1343,-0.2021,0.8749,-6.35,7.92,-0.05,25.41
18797,0.1345,-0.2061,0.8788,-6.52,7.83,-0.08,25.39
18807,0.1326,-0.2059,0.877,-6.41,7.86,-0.05,25.37
18817,0.1365,-0.2074,0.8805,-6.27,7.77,-0.08,25.42
18827,0.1357,-0.2092,0.8818,-6.5,7.6,-0.09,25.39
18837,0.1365,-0.2098,0.8768,-6.63,7.79,-0.12,25.37
18847,0.1364,-0.21,0.8788,-6.72,7.89,-0.06,25.37
18857,0.1333,-0.2095,0.8767,-6.52,7.85,-0.02,25.4
18867,0.1311,-0.2108,0.873,-6.47,7.88,-0.02,25.37
18877,0.1311,-0.2104,0.8778,-6.43,7.82,-0.09,25.41
18887,0.1292,-0.2059,0.874,-6.52,7.79,-0.12,25.39
18897,0.1316,-0.2107,0.8694,-6.64,7.73,-0.08,25.37
18907,0.1307,-0.2091,0.868,-6.61,7.8,-0.02,25.4
18917,0.1332,-0.2137,0.8746,-6.24,7.94,0.0,25.39
18927,0.1278,-0.2084,0.8778,-6.08,7.97,0.05,25.41
18937,0.1301,-0.2108,0.8833,-6.17,7.79,-0.12,25.4
18947,0.1387,-0.2137,0.891,-6.27,7.69,0.0,25.4
18957,0.1389,-0.2152,0.8873,-6.38,7.82,-0.09,25.39
18967,0.1381,-0.2107,0.8832,-6.53,7.69,-0.15,25.4
18977,0.1412,-0.214,0.8842,-6.58,7.5,-0.03,25.41
18987,0.1411,-0.2092,0.8744,-6.46,7.59,-0.17,25.41
18997,0.1425,-0.2047,0.868,-6.29,7.76,0.06,25.4
19007,0.135,-0.204,0.8693,-6.23,8.15,-0.02,25.39
19017,0.1318,-0.2047,0.8708,-6.29,8.12,-0.02,25.42
19027,0.1305,-0.2085,0.8779,-6.35,7.86,0.0,25.41
19037,0.1348,-0.207,0.8774,-6.6,7.6,-0.05,25.4
19047,0.1367,-0.2085,0.8762,-6.43,7.89,-0.03,25.42
19057,0.136,-0.2073,0.8798,-6.29,8.14,0.03,25.44
19067,0.1333,-0.2091,0.8821,-6.2,8.05,0.05,25.42
19077,0.1304,-0.2114,0.8824,-6.46,7.98,0.03,25.4
19087,0.1309,-0.212,0.8796,-6.7,7.83,-0.15,25.4
19097,0.1334,-0.2123,0.8754,-6.66,7.66,-0.12,25.42
19107,0.135,-0.2114,0.8702,-6.55,7.8,-0.12,25.4
19117,0.1353,-0.2081,0.8741,-6.26,8.2,-0.12,25.41
19127,0.1302,-0.2063,0.869,-6.2,8.2,-0.05,25.42
19137,0.1283,-0.2053,0.8749,-6.2,8.11,0.0,25.41
19147,0.1321,-0.209,0.8752,-6.29,7.79,-0.05,25.4
19157,0.1311,-0.2074,0.8748,-6.38,7.69,-0.12,25.41
19167,0.1335,-0.2108,0.8749,-6.37,7.68,-0.12,25.4
19177,0.1361,-0.2062,0.8751,-6.34,7.91,-0.08,25.39
19187,0.1344,-0.2057,0.8821,-6.21,8.2,-0.02,25.38
19197,0.1313,-0.2089,0.8805,-6.29,8.08,-0.11,25.38
19207,0.1332,-0.2097,0.8805,-6.58,7.88,-0.03,25.42
19217,0.132,-0.2084,0.8767,-6.7,7.73,-0.06,25.4
19227,0.132,-0.2107,0.8792,-6.69,7.88,-0.09,25.41
19237,0.1317,-0.2125,0.8722,-6.55,8.02,-0.09,25.41
19247,0.1343,-0.2111,0.8763,-6.35,8.09,0.0,25.41
19257,0.1309,-0.2095,0.8795,-6.31,8.02,0.02,25.4
19267,0.1299,-0.2112,0.8796,-6.46,7.8,-0.11,25.42
19277,0.1304,-0.204,0.8739,-6.38,7.69,-0.05,25.4
19287,0.209,-0.116,0.7947,-5.79,6.34,0.41,25.44
19297,0.2158,-0.2899,0.8384,-5.34,6.61,0.52,25.43
19307,0.2114,-0.2852,0.7517,-6.6,4.15,0.47,25.43
19317,0.1764,-0.2616,0.844,-4.14,7.02,0.6,25.4
19327,0.1671,-0.2062,0.8929,-5.6,5.68,-0.11,25.42
19337,0.1278,-0.1902,0.9082,-6.87,6.4,-0.35,25.4
19347,0.1443,-0.2017,0.8894,-6.67,7.24,-0.29,25.42
19357,0.1504,-0.2131,0.8628,-7.4,8.31,0.11,25.44
19367,0.1406,-0.2021,0.8705,-6.87,8.95,0.03,25.43
19377,0.1268,-0.2179,0.8949,-6.14,8.75,0.02,25.42
19387,0.111,-0.2118,0.8777,-6.09,8.0,0.06,25.42
19397,0.126,-0.2063,0.8767,-6.34,7.19,-0.15,25.41
19407,0.1367,-0.2053,0.8667,-6.6,6.99,-0.23,25.42
19417,0.1423,-0.2141,0.864,-6.61,7.76,-0.11,25.42
19427,0.1371,-0.2112,0.864,-6.14,8.4,0.03,25.43
19437,0.1282,-0.2084,0.8685,-5.86,8.55,-0.05,25.43
19565,0.1375,-0.213,0.8826,-6.06,7.97,-0.03,25.41
19575,0.1329,-0.209,0.8845,-6.49,7.77,0.03,25.4
19585,0.1305,-0.2109,0.8805,-6.52,7.6,-0.09,25.42
19595,0.1268,-0.2101,0.8781,-6.47,7.63,-0.05,25.43
19605,0.1255,-0.2108,0.887,-6.37,8.03,-0.09,25.43
19615,0.1307,-0.2126,0.8842,-6.27,8.24,0.02,25.43
19625,0.1287,-0.2109,0.8815,-6.52,8.02,-0.03,25.42
19635,0.1335,-0.2094,0.8882,-6.9,7.66,0.03,25.42
19645,0.1351,-0.2084,0.8728,-6.84,7.56,-0.08,25.44
19655,0.1364,-0.2101,0.8656,-6.4,7.82,-0.03,25.42
19665,0.1331,-0.2072,0.8634,-5.6,8.0,0.12,25.43
19675,0.1324,-0.2089,0.8745,-5.34,8.02,0.12,25.44
19685,0.1302,-0.209,0.8816,-5.69,7.88,0.08,25.41
19695,0.1293,-0.2144,0.8848,-6.49,7.66,-0.03,25.4
19705,0.1282,-0.2023,0.8705,-7.4,7.66,-0.05,25.45
19715,0.1356,-0.208,0.8729,-7.62,7.56,-0.2,25.43
19725,0.1332,-0.2126,0.8646,-7.15,7.74,-0.05,25.43
19735,0.1345,-0.2131,0.8649,-6.21,7.97,0.08,25.43
19745,0.1323,-0.2078,0.8701,-5.39,7.89,0.02,25.42
19756,0.1338,-0.2069,0.8896,-5.73,7.65,0.02,25.43
19766,0.1313,-0.2062,0.8868,-6.38,7.69,0.02,25.42
19776,0.135,-0.2061,0.8789,-7.05,7.63,-0.06,25.42
19786,0.1337,-0.212,0.8669,-6.96,7.45,-0.12,25.44
19796,0.1349,-0.2147,0.8644,-6.06,7.54,-0.08,25.45
19806,0.1361,-0.2128,0.8712,-5.45,7.62,-0.02,25.43
19816,0.1321,-0.2054,0.881,-5.4,7.82,0.03,25.42
19826,0.1321,-0.2084,0.8898,-5.97,7.91,-0.02,25.43
19836,0.1354,-0.205,0.8793,-6.56,7.66,-0.02,25.43
19846,0.1359,-0.2079,0.8784,-6.61,7.53,-0.06,25.42
19856,0.1384,-0.2083,0.8755,-6.58,7.53,-0.08,25.43
19866,0.1355,-0.2095,0.8761,-6.49,7.92,0.05,25.43
19876,0.1281,-0.2122,0.8868,-6.61,8.34,-0.03,25.42
19886,0.1451,-0.2104,0.866,-6.49,7.91,0.0,25.43
19896,0.1306,-0.2092,0.8735,-6.31,7.45,0.06,25.44
19906,0.1272,-0.2059,0.8796,-6.09,7.57,0.0,25.42
19916,0.1326,-0.2074,0.8788,-5.88,7.89,-0.02,25.44
19926,0.1317,-0.2063,0.881,-6.11,8.02,0.02,25.45
19936,0.1394,-0.2057,0.8793,-6.55,8.09,-0.08,25.44
19946,0.1393,-0.2061,0.8744,-6.85,7.8,-0.14,25.43
19956,0.1323,-0.2141,0.8718,-6.67,7.6,-0.11,25.45
19966,0.1423,-0.204,0.8613,-6.14,8.02,-0.05,25.44
19976,0.1414,-0.2015,0.8842,-6.18,7.98,-0.06,25.44
19986,0.1353,-0.1998,0.8805,-6.58,7.89,-0.14,25.42
19996,0.1254,-0.2056,0.8884,-6.84,8.08,-0.17,25.42
20006,0.1273,-0.2085,0.8823,-6.99,7.73,-0.06,25.42
20016,0.1342,-0.2118,0.8723,-6.95,7.8,-0.17,25.43
20026,0.1323,-0.2114,0.8678,-6.72,7.82,-0.08,25.43
20036,0.1312,-0.2158,0.8679,-6.53,8.02,-0.06,25.44
20046,0.1267,-0.2107,0.8727,-6.7,8.24,0.0,25.43
20056,0.1307,-0.2137,0.8678,-6.73,7.68,-0.18,25.43
20066,0.1305,-0.2144,0.875,-6.26,7.51,-0.11,25.43
20076,0.1332,-0.2048,0.8848,-6.24,7.36,-0.09,25.41
20086,0.1392,-0.2079,0.8796,-6.2,7.77,-0.06,25.41
20096,0.1422,-0.2076,0.8792,-6.26,7.98,-0.03,25.42
20106,0.1345,-0.2062,0.8813,-6.29,8.29,0.08,25.41
20116,0.1299,-0.2078,0.887,-6.61,7.98,-0.05,25.4
20126,0.1252,-0.2064,0.8772,-6.69,7.68,-0.08,25.42
20136,0.1298,-0.2063,0.8719,-6.4,7.25,-0.05,25.41
20146,0.1324,-0.2065,0.8773,-6.41,7.65,0.02,25.44
20156,0.1327,-0.2043,0.8878,-6.99,8.27,-0.03,25.43
20166,0.1302,-0.2126,0.8668,-7.13,8.49,-0.03,25.42
20176,0.1356,-0.2153,0.8578,-5.86,7.57,-0.05,25.44
20186,0.1384,-0.212,0.8729,-5.04,7.22,-0.02,25.4
20196,0.1407,-0.2073,0.8945,-5.79,7.8,0.03,25.42
20206,0.1364,-0.2096,0.891,-7.44,8.34,-0.06,25.4
20216,0.1349,-0.2144,0.8713,-8.05,8.24,-0.06,25.4
20226,0.1304,-0.2159,0.8567,-6.95,7.37,-0.06,25.43
20236,0.1375,-0.2103,0.8663,-5.22,6.6,-0.15,25.44
20246,0.1436,-0.2024,0.8818,-4.87,7.3,-0.05,25.43
20256,0.1398,-0.2008,0.8835,-6.11,8.4,0.08,25.42
20266,0.1307,-0.2021,0.8871,-7.18,8.82,0.06,25.42
20276,0.125,-0.209,0.8818,-7.22,8.23,0.0,25.43
20286,0.1216,-0.2103,0.8783,-7.11,7.3,-0.17,25.42
20296,0.1343,-0.2096,0.8558,-6.32,6.99,-0.14,25.43
20306,0.144,-0.2113,0.8663,-5.6,7.59,-0.02,25.42
20316,0.1403,-0.207,0.8818,-6.02,8.66,0.06,25.43
20326,0.1342,-0.209,0.8885,-6.89,8.95,0.05,25.42
20336,0.1337,-0.2147,0.8837,-7.1,7.98,-0.05,25.42
20346,0.1399,-0.2111,0.8733,-6.56,6.92,-0.15,25.4
20356,0.1335,-0.2113,0.8715,-6.18,7.37,-0.11,25.44
20366,0.1377,-0.2087,0.882,-6.4,8.18,-0.02,25.42
20376,0.1284,-0.2073,0.8738,-6.95,8.81,0.05,25.4
20386,0.1302,-0.2131,0.8749,-6.76,8.29,0.0,25.42
20396,0.1299,-0.2096,0.8732,-6.03,7.04,-0.09,25.43
20406,0.1337,-0.2084,0.8784,-5.76,7.22,-0.26,25.43
20416,0.1376,-0.205,0.8826,-6.4,7.6,-0.05,25.45
20426,0.1437,-0.2085,0.8749,-7.83,8.37,-0.03,25.43
20436,0.1276,-0.2153,0.8533,-6.14,7.92,-0.26,25.41
20446,0.1316,-0.2137,0.8789,-4.12,7.31,-0.2,25.44
20456,0.1443,-0.1969,0.8967,-5.19,6.89,0.0,25.44
20466,0.1466,-0.2007,0.8934,-7.57,8.17,-0.23,25.45
20476,0.1195,-0.2145,0.8629,-8.34,8.06,-0.12,25.44
20486,0.1567,-0.2372,0.7419,-1.34,7.88,0.47,25.44
20496,0.187,-0.1489,0.7131,10.2,10.12,2.5,25.42
20506,0.1315,-0.1029,0.8131,21.18,14.34,2.64,25.43
20516,0.1071,-0.1873,1.0316,17.33,12.64,1.39,25.47
20526,0.0973,-0.1544,0.9816,9.36,3.74,0.17,25.44
20536,0.1248,-0.1774,0.9969,2.63,-8.47,4.06,25.42
20546,0.1499,-0.1897,0.9263,-5.65,-9.04,6.29,25.44
20556,0.1591,-0.2058,0.8976,-13.8,0.08,5.95,25.44
20566,0.1511,-0.2368,0.845,-18.56,10.29,4.47,25.43
20576,0.1299,-0.2727,0.8473,-16.61,11.79,3.45,25.44
20586,0.1102,-0.2506,0.8483,-11.68,7.54,1.27,25.44
20596,0.1261,-0.2213,0.8364,-6.32,3.34,-0.76,25.45
20606,0.1521,-0.2118,0.8179,-1.18,3.68,-0.34,25.46
20616,0.1642,-0.1874,0.885,-0.61,8.66,0.11,25.43
20626,0.1379,-0.1768,0.9336,-5.51,13.86,0.61,25.46
20636,0.106,-0.1981,0.9312,-10.37,11.47,0.11,25.42
20646,0.1007,-0.2131,0.8794,-9.73,4.37,-0.9,25.46
20656,0.1372,-0.2086,0.8696,-6.92,-0.55,-1.45,25.45
20666,0.1566,-0.196,0.8444,-5.92,2.78,-2.08,25.46
20676,0.1688,-0.193,0.8645,-7.08,9.86,-2.58,25.44
20686,0.1494,-0.191,0.8838,-8.12,13.1,-1.33,25.43
20696,0.0955,-0.2045,0.9418,-9.36,10.23,-1.86,25.44
20706,0.0927,-0.1974,0.9218,-11.59,4.26,-4.46,25.46
20716,0.127,-0.1896,0.9194,-13.85,0.61,-6.23,25.43
20726,0.1432,-0.2056,0.869,-17.11,4.61,-6.82,25.45
20736,0.1534,-0.2102,0.8248,-17.86,12.08,-5.04,25.46
20746,0.1858,-0.2008,0.8276,-15.08,16.09,-2.14,25.45
20756,0.1715,-0.2117,0.854,-10.72,13.86,0.9,25.46
20766,0.15,-0.2107,0.8718,-7.24,9.56,2.9,25.43
20776,0.1329,-0.1952,0.8712,-6.17,9.24,1.6,25.46
20786,0.1431,-0.1968,0.8888,-8.06,11.19,0.99,25.46
20796,0.1392,-0.2056,0.8842,-9.66,12.55,1.79,25.45
20806,0.1288,-0.2001,0.8966,-11.11,11.51,3.15,25.43
20816,0.1616,-0.2151,0.8875,-12.27,10.47,4.26,25.44
20826,0.1461,-0.208,0.8966,-15.36,9.01,5.22,25.44
20836,0.1304,-0.2091,0.8667,-16.26,8.67,5.04,25.45
20846,0.1195,-0.2188,0.8467,-13.79,7.71,2.98,25.43
20856,0.1251,-0.2188,0.8623,-10.4,8.87,1.53,25.44
20866,0.1285,-0.2155,0.8783,-9.25,7.3,1.8,25.45
20876,0.1285,-0.2148,0.8922,-9.08,7.1,1.22,25.45
20886,0.1277,-0.2146,0.8824,-9.97,6.64,0.93,25.46
20896,0.1373,-0.2161,0.8727,-10.44,7.37,0.66,25.45
20906,0.1394,-0.219,0.8354,-8.66,8.56,0.9,25.45
20916,0.1102,-0.2227,0.8755,-6.9,9.82,-0.35,25.43
20926,0.1113,-0.229,0.8616,-5.33,8.34,-2.09,25.43
20936,0.1436,-0.2246,0.8484,-3.37,7.24,-2.52,25.46
20946,0.1455,-0.2203,0.8566,-1.66,7.57,-2.09,25.46
20956,0.1338,-0.2111,0.8749,-1.65,7.94,-2.58,25.45
20966,0.1301,-0.2002,0.8915,-3.02,7.82,-2.95,25.44
20976,0.136,-0.2095,0.9142,-5.44,8.35,-2.35,25.44
20986,0.1241,-0.21,0.891,-7.45,7.69,-1.88,25.44
20996,0.1168,-0.2198,0.876,-8.46,6.72,-1.94,25.45
21006,0.1118,-0.2263,0.865,-9.05,8.26,-1.88,25.46
21016,0.1359,-0.2192,0.8529,-9.19,11.21,-0.99,25.44
21026,0.1492,-0.213,0.8689,-8.96,12.85,-0.34,25.46
21036,0.1562,-0.2056,0.8767,-8.35,11.27,-0.21,25.45
21046,0.1544,-0.2017,0.8635,-6.52,7.77,-0.34,25.44
21056,0.1428,-0.2179,0.8715,-5.82,7.68,0.0,25.42
21066,0.1317,-0.2102,0.8737,-5.66,8.08,0.11,25.46
21076,0.1401,-0.2141,0.8774,-5.92,8.72,0.26,25.44
21086,0.1407,-0.22,0.8567,-5.69,9.53,0.55,25.44
21096,0.1373,-0.2214,0.8586,-4.52,10.38,0.61,25.46
21106,0.119,-0.2173,0.886,-3.8,9.73,0.41,25.44
21116,0.1162,-0.2094,0.9105,-4.96,7.39,-0.17,25.46
21126,0.1295,-0.207,0.9049,-7.08,5.51,-0.55,25.48
21136,0.1393,-0.1903,0.8647,-9.04,6.29,-0.66,25.47
21146,-0.0354,0.0459,0.8254,-4.15,11.76,3.42,25.45
21156,-0.0448,-0.2847,0.8361,4.55,11.91,2.61,25.45
21166,0.0831,-0.4146,0.8002,19.11,-5.11,-4.93,25.47
21176,0.2595,-0.3545,0.8075,28.96,-6.55,-7.33,25.45
21186,0.3477,-0.2745,0.8767,25.18,1.11,-5.74,25.44
21196,0.2223,-0.1689,0.8632,18.76,15.56,0.95,25.47
21206,0.1876,-0.1521,0.989,8.24,20.41,3.01,25.43
21216,0.1958,-0.1317,1.028,-9.08,15.6,2.69,25.43
21226,0.0431,-0.1622,1.1071,-27.21,0.21,0.05,25.46
21237,0.0775,-0.2073,0.8458,-32.89,-15.6,-3.73,25.46
21247,0.2496,-0.239,0.6589,-21.98,-8.63,-2.08,25.46
21257,0.1909,-0.2146,0.7238,-10.73,15.54,0.5,25.46
21267,0.1837,-0.2279,0.7754,-4.08,23.95,2.73,25.48
21277,0.0789,-0.2175,0.9065,2.14,21.07,2.53,25.45
21287,0.0637,-0.1982,1.0057,1.19,6.18,0.37,25.46
21297,0.1046,-0.1793,0.988,-4.63,-4.37,-1.65,25.44
21307,0.1438,-0.1733,0.8998,-11.16,-4.61,-2.15,25.45
21317,0.1934,-0.1863,0.8375,-13.94,5.16,-1.07,25.44
21327,0.1881,-0.2085,0.7767,-11.85,15.39,0.67,25.45
21337,0.1332,-0.2286,0.8264,-6.31,18.21,1.57,25.44
21347,0.0902,-0.2218,0.8927,-1.11,12.38,0.95,25.47
21357,0.0941,-0.1976,0.936,-0.52,3.22,-0.31,25.46
21367,0.1345,-0.1796,0.9357,-4.11,0.11,-1.11,25.47
21377,0.1628,-0.174,0.8793,-9.02,4.11,-0.87,25.46
21387,0.1732,-0.1965,0.8405,-10.81,10.29,0.0,25.49
21397,0.1403,-0.209,0.835,-8.7,13.73,0.52,25.48
21407,0.1167,-0.217,0.8691,-5.16,11.19,0.53,25.47
21417,0.115,-0.2017,0.8977,-3.1,6.38,-0.09,25.47
21427,0.1385,-0.1934,0.9023,-4.43,3.22,-0.53,25.46
21437,0.1549,-0.1926,0.8821,-7.37,5.62,-0.46,25.46
21447,0.1539,-0.1992,0.8617,-9.18,9.48,-0.08,25.46
21457,0.1379,-0.2046,0.8484,-8.15,11.53,0.27,25.47
21467,0.1234,-0.2146,0.8729,-5.92,9.5,0.32,25.45
21477,0.1149,-0.2073,0.8972,-4.53,6.87,-0.06,25.47
21487,0.1338,-0.1979,0.8998,-5.04,5.01,-0.37,25.47
21497,0.1487,-0.1962,0.8802,-7.02,6.32,-0.26,25.47
21507,0.1464,-0.2001,0.8668,-7.94,9.15,0.05,25.46
21517,0.134,-0.2054,0.8647,-7.31,9.97,0.29,25.47
21527,0.121,-0.2075,0.8784,-5.77,8.78,0.11,25.47
21537,0.1219,-0.1986,0.8951,-4.99,6.66,-0.08,25.47
21547,0.1361,-0.2009,0.8931,-5.65,5.98,-0.24,25.46
21557,0.1432,-0.1965,0.8796,-6.92,7.27,-0.11,25.45
21567,0.1482,-0.1947,0.8628,-7.45,8.92,0.08,25.45
21577,0.1404,-0.2073,0.8647,-6.99,9.22,0.2,25.44
21587,0.1306,-0.2037,0.8748,-5.97,8.34,0.08,25.45
21597,0.1295,-0.2007,0.8861,-5.65,6.93,-0.17,25.49
21607,0.1365,-0.1993,0.8813,-6.2,6.81,-0.23,25.47
21617,0.1389,-0.2019,0.8733,-6.93,7.88,-0.06,25.47
21627,0.1355,-0.2001,0.8669,-7.11,8.73,0.0,25.46
21637,0.1277,-0.2042,0.8673,-6.56,8.5,0.11,25.48
21647,0.1281,-0.205,0.8729,-5.8,7.83,-0.05,25.47
21657,0.1278,-0.2031,0.8823,-5.74,7.47,-0.11,25.47
21667,0.1361,-0.2025,0.8848,-6.32,7.44,-0.11,25.48
21677,0.1339,-0.2007,0.8796,-6.9,8.02,-0.11,25.49
21687,0.1373,-0.2023,0.8727,-6.92,8.2,-0.09,25.49
21697,0.1326,-0.1992,0.8688,-6.34,7.97,-0.06,25.47
21707,0.1338,-0.2023,0.8779,-6.0,7.51,-0.08,25.5
21717,0.136,-0.1993,0.8845,-6.11,7.47,-0.11,25.48
21727,0.1371,-0.1975,0.8826,-6.63,7.51,-0.09,25.46
21737,0.1366,-0.2008,0.8781,-6.96,7.56,-0.15,25.5
21747,0.1401,-0.2065,0.8719,-6.75,7.79,-0.05,25.48
21757,0.1387,-0.2043,0.8752,-6.29,7.76,0.0,25.46
21767,0.1372,-0.2021,0.8792,-5.94,7.74,-0.03,25.48
21777,0.1382,-0.1968,0.8838,-6.12,7.73,0.06,25.51
21787,0.1394,-0.196,0.8894,-6.52,7.83,-0.03,25.47
21797,0.1432,-0.199,0.8782,-6.63,7.71,0.02,25.46
21807,0.1367,-0.2053,0.8801,-6.72,7.94,-0.06,25.47
21817,0.1335,-0.2059,0.8685,-6.43,7.73,-0.09,25.49
21827,0.1349,-0.202,0.877,-6.2,7.74,0.02,25.48
21837,0.1373,-0.1991,0.8729,-6.11,7.86,0.02,25.48
21847,0.1378,-0.1991,0.8735,-6.38,8.08,0.02,25.5
21857,0.1324,-0.1968,0.8768,-6.5,7.82,0.03,25.49
21867,0.1355,-0.202,0.8723,-6.61,7.53,-0.03,25.47
21877,0.1333,-0.2042,0.8674,-6.44,7.42,-0.09,25.49
21887,0.1392,-0.2051,0.8734,-6.23,7.6,-0.11,25.47
21897,0.1401,-0.2028,0.8756,-6.26,8.11,0.0,25.47
21907,0.135,-0.2021,0.8807,-6.47,8.32,0.0,25.49
21917,0.1329,-0.2,0.881,-6.69,8.15,-0.02,25.5
21927,0.1339,-0.2013,0.876,-6.75,7.65,-0.02,25.48
21937,0.1398,-0.204,0.8701,-6.5,7.42,-0.02,25.48
21947,0.1409,-0.2012,0.8716,-6.34,7.79,-0.03,25.46
21957,0.1396,-0.1982,0.8746,-6.27,8.12,0.09,25.48
21967,0.1354,-0.1998,0.8851,-6.12,8.29,0.03,25.48
21977,0.1326,-0.1967,0.8895,-6.24,7.94,-0.05,25.49
21987,0.137,-0.1991,0.8829,-6.56,7.56,-0.15,25.49
21997,0.1426,-0.2002,0.8762,-6.73,7.48,-0.09,25.5
22007,0.1394,-0.2037,0.874,-6.63,7.83,-0.11,25.47
22017,0.137,-0.2014,0.877,-6.34,8.2,-0.08,25.48
22027,0.1338,-0.2009,0.8818,-6.27,8.27,-0.02,25.44
22037,0.1322,-0.1993,0.8838,-6.46,7.77,-0.08,25.49
22047,0.1343,-0.2039,0.8762,-6.64,7.42,-0.14,25.5
22057,0.1387,-0.2018,0.874,-6.78,7.65,-0.11,25.49
22067,0.1365,-0.2064,0.8777,-6.47,8.05,-0.02,25.47
22077,0.1385,-0.2052,0.8752,-6.24,8.18,0.12,25.49
22087,0.1372,-0.2035,0.88,-6.23,8.11,0.03,25.48
22097,0.1365,-0.2062,0.8768,-6.47,7.3,-0.08,25.47
22107,0.1262,-0.2021,0.8755,-6.32,7.53,-0.06,25.48
22117,0.1342,-0.1505,0.8723,-6.69,8.15,-0.29,25.47
22127,0.1216,-0.2069,0.9059,-6.37,8.12,-0.11,25.51
22137,0.1018,-0.2224,0.8916,-6.12,8.76,0.29,25.47
22147,0.1255,-0.1925,0.8994,-6.29,8.92,-0.08,25.48
22157,0.1371,-0.1948,0.8885,-6.66,7.6,-0.34,25.5
22167,0.1367,-0.213,0.8588,-6.78,7.18,-0.14,25.48
22177,0.1425,-0.205,0.8661,-6.38,7.94,0.03,25.49
22187,0.1362,-0.1948,0.8744,-6.34,7.82,-0.15,25.49
22197,0.135,-0.2122,0.8737,-6.18,8.05,0.05,25.49
22207,0.1377,-0.2076,0.8788,-6.14,8.08,0.12,25.49
22217,0.1426,-0.2004,0.8917,-6.49,7.94,-0.12,25.49
22227,0.1383,-0.207,0.8822,-6.78,7.6,-0.21,25.49
22237,0.1375,-0.212,0.8765,-6.52,7.51,-0.05,25.47
22247,0.1405,-0.204,0.8779,-6.18,7.57,0.03,25.49
22257,0.137,-0.1979,0.8778,-5.98,7.76,-0.02,25.5
22267,0.129,-0.1974,0.8796,-6.02,7.82,0.02,25.5
22277,0.1272,-0.1941,0.879,-6.23,7.56,-0.06,25.47
22287,0.1345,-0.1958,0.8824,-6.47,7.42,-0.09,25.48
22297,0.1387,-0.2012,0.8835,-6.55,7.73,-0.05,25.49
22307,0.1357,-0.2057,0.8821,-6.37,8.29,0.02,25.48
22317,0.1403,-0.2041,0.8877,-6.44,8.29,0.06,25.5
22327,0.145,-0.2036,0.8984,-6.44,8.08,0.03,25.48
22337,0.1427,-0.2058,0.8907,-6.43,7.76,-0.08,25.48
22347,0.1456,-0.2024,0.8916,-6.6,7.83,0.0,25.49
22357,0.1428,-0.2053,0.8833,-6.81,7.94,-0.05,25.51
22367,0.1431,-0.2067,0.8784,-6.89,8.0,-0.02,25.48
22377,0.0961,-0.282,0.8929,-6.55,8.26,-0.03,25.48
22387,0.1033,-0.1805,0.874,-5.97,10.2,-0.34,25.49
22398,0.0752,-0.1853,0.9531,-5.92,11.02,-0.4,25.5
22408,0.0519,-0.2052,0.9373,-6.24,9.88,-0.23,25.5
22418,0.1979,-0.2084,0.8683,-5.95,8.34,0.23,25.49
22428,0.2268,-0.2065,0.8395,-6.08,6.67,0.11,25.47
22438,0.2036,-0.2087,0.8679,-6.21,6.81,0.14,25.49
22448,0.1593,-0.2064,0.8925,-6.46,8.17,0.12,25.5
22458,0.1451,-0.2017,0.902,-6.43,8.78,0.06,25.5
22468,0.1432,-0.1946,0.9003,-5.94,8.69,0.11,25.51
22478,0.1481,-0.1979,0.8979,-5.86,8.89,0.11,25.5
22488,0.1564,-0.2003,0.9088,-5.8,9.15,0.18,25.49
22498,0.1592,-0.2046,0.9197,-6.2,9.82,0.27,25.49
22508,0.1541,-0.2113,0.9276,-6.6,10.31,0.29,25.49
22518,0.1511,-0.2095,0.9329,-6.79,10.17,0.17,25.51
22528,0.147,-0.2025,0.931,-6.41,9.54,0.24,25.5
22538,0.1564,-0.2104,0.9347,-6.2,9.48,0.29,25.48
22548,0.1504,-0.2029,0.9354,-6.47,10.85,0.53,25.5
22558,0.1442,-0.2053,0.9395,-7.04,11.36,0.52,25.5
22568,0.1278,-0.2112,0.9109,-7.71,10.78,0.5,25.5
22578,0.1241,-0.2037,0.8865,-7.73,9.66,0.37,25.48
22588,0.1293,-0.2001,0.8674,-7.22,9.16,0.27,25.5
22598,0.1356,-0.1863,0.8604,-6.79,9.89,0.29,25.49
22608,0.1353,-0.1838,0.845,-6.47,10.6,0.49,25.51
22618,0.1296,-0.1814,0.8501,-6.52,11.04,0.41,25.48
22628,0.1235,-0.1829,0.8367,-6.96,10.44,0.31,25.49
22638,0.1189,-0.1893,0.8171,-7.53,9.63,0.17,25.49
22648,0.1118,-0.194,0.7992,-7.82,9.5,0.11,25.49
22658,0.1273,-0.1714,0.7625,-8.66,8.84,0.06,25.49
22668,0.1666,-0.2349,0.7764,-6.92,10.4,0.96,25.52
22678,0.3013,-0.2229,0.6566,-6.27,6.32,0.53,25.5
22688,0.193,-0.2032,0.7198,-5.83,4.7,0.61,25.49
22698,0.0787,-0.1956,0.8412,-6.02,7.01,0.43,25.49
22708,0.0382,-0.1877,0.8586,-6.32,8.0,0.09,25.49
22718,0.0659,-0.1964,0.8613,-6.05,8.63,-0.03,25.5
22728,0.1071,-0.1888,0.8677,-5.86,8.75,0.03,25.5
22738,0.1215,-0.198,0.8768,-5.68,9.05,0.15,25.51
22748,0.1202,-0.2036,0.891,-5.77,8.99,0.08,25.48
22758,0.1206,-0.2101,0.9038,-6.05,8.09,-0.03,25.52
22768,0.1254,-0.2136,0.907,-6.32,7.6,-0.08,25.49
22778,0.1285,-0.2218,0.9027,-6.79,7.68,0.0,25.52
22788,0.1165,-0.2037,0.8855,-6.79,8.24,0.06,25.52
22798,0.1156,-0.2008,0.8928,-6.31,8.38,0.09,25.5
22808,0.1095,-0.1925,0.882,-6.0,8.14,-0.02,25.5
22818,0.1117,-0.1891,0.882,-6.34,7.62,-0.05,25.47
22828,0.1178,-0.1958,0.8737,-7.04,7.53,-0.23,25.49
22838,0.1235,-0.2035,0.8594,-7.34,7.68,-0.12,25.52
22848,0.1262,-0.2102,0.8513,-6.98,8.18,0.02,25.51
22858,0.1237,-0.2109,0.8517,-6.32,8.17,0.03,25.51
22868,0.1221,-0.2051,0.8595,-5.74,8.06,0.05,25.51
22878,0.1232,-0.2021,0.8719,-5.77,7.71,-0.06,25.51
22888,0.1199,-0.201,0.8785,-6.18,7.57,-0.06,25.49
22898,0.129,-0.2001,0.8779,-6.5,7.57,-0.17,25.47
22908,0.129,-0.2006,0.8739,-6.55,7.89,-0.09,25.51
22918,0.1279,-0.2052,0.8855,-6.5,8.17,-0.02,25.5
22928,0.1251,-0.2054,0.8835,-6.18,7.98,0.02,25.5
22938,0.1259,-0.2019,0.8911,-6.14,8.0,0.06,25.51
22948,0.1299,-0.1968,0.8876,-6.41,7.69,-0.06,25.51
22958,0.1307,-0.2012,0.8849,-6.61,7.62,-0.12,25.5
22968,0.1283,-0.2041,0.8781,-6.64,7.74,0.03,25.48
22978,0.1278,-0.2036,0.877,-6.52,8.14,0.05,25.5
22988,0.1233,-0.2024,0.8745,-6.38,8.17,-0.05,25.51
22998,0.1198,-0.203,0.8724,-6.37,8.05,0.02,25.51
23008,0.1217,-0.2031,0.8741,-6.46,7.74,-0.09,25.49
23018,0.1224,-0.2054,0.8652,-6.47,7.56,-0.03,25.52
23028,0.1273,-0.199,0.8666,-6.43,7.73,-0.05,25.5
23038,0.1277,-0.2009,0.8722,-6.31,7.95,-0.05,25.49
23048,0.1281,-0.2018,0.8792,-6.18,8.05,0.02,25.49
23058,0.1254,-0.2006,0.8844,-6.23,7.92,-0.02,25.5
23068,0.1263,-0.2025,0.8834,-6.43,7.74,-0.14,25.48
23078,0.1251,-0.2036,0.8795,-6.53,7.68,-0.14,25.5
23088,0.1276,-0.2034,0.8788,-6.46,7.83,-0.11,25.5
23098,0.1294,-0.2029,0.8805,-6.38,7.95,-0.02,25.49
23108,0.127,-0.2025,0.8838,-6.23,8.06,0.0,25.49
23118,0.1243,-0.2048,0.8826,-6.38,7.86,-0.03,25.5
23128,0.1255,-0.204,0.8821,-6.56,7.77,-0.12,25.49
23138,0.1298,-0.2034,0.8815,-6.64,7.63,-0.05,25.47
23148,0.1288,-0.201,0.8778,-6.58,7.65,-0.09,25.47
23158,0.1288,-0.2003,0.874,-6.43,7.77,-0.08,25.49
23168,0.1246,-0.2019,0.873,-6.26,7.91,0.05,25.49
23178,0.1238,-0.1987,0.88,-6.34,7.98,0.0,25.48
23188,0.1266,-0.204,0.8751,-6.46,7.85,-0.03,25.49
23198,0.1245,-0.2046,0.8745,-6.34,7.73,-0.09,25.49
23208,0.1251,-0.1995,0.8785,-6.23,7.68,-0.02,25.51
23218,0.1271,-0.199,0.8793,-6.24,7.73,-0.03,25.5
23228,0.1232,-0.1991,0.8777,-6.35,7.71,-0.11,25.48
23238,0.1232,-0.1985,0.8767,-6.47,7.88,-0.08,25.47
23248,0.1207,-0.1996,0.8729,-6.61,7.97,0.05,25.52
23258,0.1237,-0.2029,0.877,-6.61,8.06,-0.09,25.47
23268,0.1224,-0.2021,0.8766,-6.5,7.8,0.0,25.49
23278,0.1248,-0.2034,0.876,-6.6,7.76,-0.06,25.47
23288,0.1234,-0.2021,0.8767,-6.53,7.85,-0.08,25.49
23298,0.13,-0.2064,0.8739,-6.56,7.83,-0.08,25.48
23308,0.13,-0.2037,0.8768,-6.41,7.88,0.02,25.48
23318,0.1334,-0.2025,0.8837,-6.26,7.88,-0.06,25.48
23328,0.1295,-0.2039,0.881,-6.27,7.76,-0.05,25.48
23338,0.1309,-0.2024,0.8815,-6.34,7.59,-0.08,25.48
23348,0.1315,-0.2012,0.8888,-6.26,7.8,-0.08,25.49
23358,0.1299,-0.2003,0.8799,-6.38,7.97,-0.05,25.48
23368,0.1248,-0.1987,0.882,-6.35,8.06,-0.11,25.47
23378,0.1237,-0.1946,0.8759,-6.35,7.8,-0.11,25.49
23388,0.1199,-0.192,0.8719,-6.2,7.51,-0.06,25.48
23398,0.1189,-0.1887,0.8716,-6.11,7.69,-0.17,25.48
23408,0.1205,-0.189,0.8737,-6.18,7.89,-0.17,25.49
23418,0.111,-0.1893,0.8829,-6.27,8.26,-0.21,25.47
23428,0.1161,-0.1896,0.8878,-6.49,8.29,-0.26,25.47
23438,0.1207,-0.2075,0.8837,-6.73,8.17,-0.29,25.48
23448,0.1244,-0.2208,0.882,-7.1,8.27,-0.18,25.49
23458,0.1268,-0.2195,0.8668,-7.05,8.37,-0.12,25.49
23468,0.1317,-0.2252,0.8748,-6.6,8.02,-0.06,25.47
23478,0.127,-0.2162,0.8761,-6.29,7.85,-0.06,25.49
23488,0.1274,-0.2144,0.8838,-5.97,7.45,-0.08,25.47
23498,0.1278,-0.2028,0.8765,-6.18,7.31,-0.05,25.49
23508,0.1328,-0.2014,0.8812,-6.03,7.34,-0.12,25.46
23518,0.139,-0.2062,0.8832,-6.06,7.68,-0.02,25.47
23528,0.1353,-0.2062,0.8835,-6.24,8.14,-0.02,25.49
23538,0.1288,-0.2115,0.8792,-6.55,8.15,0.06,25.51
23549,0.1276,-0.2087,0.8715,-6.6,7.68,0.05,25.49
23559,0.1278,-0.2025,0.8687,-6.24,7.33,0.05,25.46
23569,0.1287,-0.1996,0.8654,-5.85,7.4,0.05,25.48
23579,0.1302,-0.1967,0.8718,-5.86,7.73,0.11,25.48
23589,0.1292,-0.1997,0.8807,-6.37,8.06,0.18,25.49
23599,0.1245,-0.2021,0.8828,-6.87,8.09,0.08,25.49
23609,0.1249,-0.2019,0.8715,-6.85,8.02,0.14,25.5
23619,0.1234,-0.2015,0.8744,-6.43,7.8,0.06,25.49
23629,0.125,-0.1982,0.8798,-6.02,7.69,0.02,25.49
23639,0.1281,-0.1976,0.88,-5.85,7.86,0.0,25.52
23649,0.1185,-0.1925,0.8923,-6.17,8.05,0.05,25.49
23659,0.1156,-0.1976,0.8878,-6.66,7.88,-0.12,25.49
23669,0.1293,-0.2031,0.8705,-6.79,7.68,-0.11,25.51
23679,0.1217,-0.2002,0.8698,-6.67,7.71,-0.12,25.5
23689,0.1217,-0.2017,0.8763,-6.27,7.91,-0.05,25.48
23699,0.124,-0.2013,0.8762,-6.17,7.92,-0.02,25.47
23709,0.1241,-0.2008,0.8815,-6.38,8.0,-0.06,25.49
23719,0.1251,-0.2006,0.8812,-6.63,7.89,-0.03,25.49
23729,0.1274,-0.2048,0.8781,-6.78,7.89,-0.06,25.49
23739,0.127,-0.2101,0.8765,-6.7,7.91,-0.09,25.48
23749,0.1278,-0.2096,0.8778,-6.46,7.97,-0.09,25.49
23759,0.1273,-0.2074,0.8755,-6.34,8.02,0.06,25.49
23769,0.1272,-0.2081,0.8768,-6.37,7.89,0.03,25.49
23779,0.1299,-0.21,0.8772,-6.37,7.74,-0.02,25.48
23789,0.1261,-0.2068,0.8798,-6.44,7.71,-0.05,25.48
23799,0.1263,-0.2039,0.8773,-6.52,7.71,-0.08,25.49
23809,0.1267,-0.2036,0.8738,-6.41,7.82,0.03,25.5
23819,0.1241,-0.1993,0.8773,-6.14,7.79,0.06,25.49
23829,0.1249,-0.2014,0.8817,-6.17,7.88,0.02,25.49
23839,0.1257,-0.1976,0.8801,-6.34,7.73,-0.05,25.51
23849,0.1252,-0.1989,0.877,-6.47,7.69,-0.05,25.51
23859,0.123,-0.2004,0.8763,-6.55,7.74,-0.08,25.5
23869,0.1265,-0.2026,0.8756,-6.4,7.92,-0.06,25.5
23879,0.1251,-0.203,0.8782,-6.35,8.05,-0.08,25.49
23889,0.1238,-0.2036,0.8838,-6.43,8.08,0.0,25.5
23899,0.1262,-0.201,0.8792,-6.56,7.89,-0.06,25.51
23909,0.1284,-0.2039,0.8739,-6.52,7.77,-0.06,25.49
23919,0.1254,-0.2028,0.8759,-6.55,7.79,-0.12,25.49
23929,0.1239,-0.2032,0.8777,-6.26,7.86,-0.12,25.48
23939,0.1273,-0.2047,0.8768,-6.32,7.91,-0.06,25.49
23949,0.1267,-0.2028,0.8763,-6.23,7.86,0.02,25.5
23959,0.1262,-0.2003,0.8822,-6.27,7.82,-0.08,25.5
23969,0.1251,-0.2025,0.88,-6.18,7.68,-0.03,25.49
23979,0.1256,-0.2001,0.8792,-6.29,7.74,-0.05,25.49
23989,0.1261,-0.2,0.8774,-6.37,7.77,-0.05,25.5
23999,0.1284,-0.2014,0.8761,-6.46,7.8,0.0,25.5
24009,0.1228,-0.2013,0.8746,-6.44,7.89,-0.08,25.51
24019,0.1261,-0.202,0.8765,-6.5,7.97,-0.03,25.5
24029,0.1263,-0.2036,0.877,-6.47,7.85,-0.06,25.49
24039,0.1241,-0.2041,0.8767,-6.44,7.88,-0.02,25.5
24049,0.1256,-0.2024,0.8774,-6.47,7.79,-0.05,25.48
24059,0.1298,-0.1992,0.8759,-6.44,7.89,0.03,25.5
24069,0.124,-0.2019,0.8846,-6.4,7.94,0.06,25.47
24079,0.1296,-0.2026,0.882,-6.27,7.86,-0.08,25.52
24089,0.1227,-0.2031,0.8861,-6.29,7.85,-0.06,25.5
24099,0.1218,-0.2001,0.8842,-6.4,7.71,-0.05,25.48
24109,0.1235,-0.1997,0.8817,-6.44,7.68,-0.11,25.49
24119,0.1274,-0.2023,0.8823,-6.41,7.71,-0.09,25.51
24129,0.1279,-0.2021,0.8774,-6.24,7.82,-0.03,25.49
24139,0.1227,-0.2032,0.8777,-6.37,7.91,-0.12,25.5
24149,0.1212,-0.201,0.881,-6.29,7.79,-0.03,25.5
24159,0.1266,-0.2043,0.879,-6.47,7.73,-0.11,25.52
24169,0.1238,-0.2031,0.8772,-6.49,7.69,-0.03,25.48
24179,0.121,-0.2026,0.8778,-6.46,7.82,0.02,25.5
24189,0.1316,-0.2068,0.8729,-6.41,8.05,-0.02,25.5
24199,0.1268,-0.2029,0.8811,-6.32,8.0,-0.05,25.52
24209,0.1262,-0.2047,0.8796,-6.38,7.8,-0.09,25.51
24219,0.1326,-0.2036,0.8776,-6.5,7.83,-0.05,25.51
24229,0.1272,-0.1986,0.8823,-6.53,7.82,-0.05,25.53
24239,0.1304,-0.2014,0.8787,-6.44,7.73,-0.08,25.5
24249,0.1257,-0.2078,0.8767,-6.47,8.0,-0.03,25.49
24259,0.1207,-0.1957,0.8827,-6.43,7.89,-0.06,25.48
24269,0.1267,-0.2021,0.8699,-6.46,7.45,-0.15,25.51
24279,0.1276,-0.2061,0.8613,-6.46,7.57,0.0,25.5
24289,0.1272,-0.1938,0.8773,-6.21,7.92,0.05,25.51
24299,0.1223,-0.2042,0.8821,-6.31,7.86,-0.05,25.52
24309,0.1267,-0.2123,0.8759,-6.26,7.97,0.09,25.51
24319,0.1218,-0.1965,0.8915,-6.32,7.86,0.05,25.49
24329,0.1301,-0.1984,0.8828,-6.53,7.56,-0.15,25.49
24339,0.1273,-0.203,0.869,-6.64,7.82,0.0,25.48
24349,0.1401,-0.2013,0.8748,-6.47,8.03,0.09,25.51
24359,0.1377,-0.1985,0.8739,-6.23,7.83,0.05,25.5
24369,0.1255,-0.2053,0.8693,-6.31,7.65,0.0,25.51
24379,0.1174,-0.2036,0.8901,-6.24,8.06,0.02,25.53
24389,0.1213,-0.1951,0.8813,-6.38,7.85,-0.15,25.53
24399,0.1259,-0.2001,0.8754,-6.55,7.69,-0.03,25.5
24409,0.13,-0.2039,0.8719,-6.58,7.82,0.12,25.52
24419,0.1248,-0.204,0.8783,-6.47,7.97,0.03,25.49
24429,0.1254,-0.205,0.8806,-6.32,7.91,-0.05,25.53
24440,0.1223,-0.2046,0.8821,-6.32,7.8,0.02,25.49
24450,0.1279,-0.2001,0.8834,-6.4,7.63,-0.09,25.48
24460,0.1309,-0.2036,0.8761,-6.46,7.74,-0.06,25.49
24470,0.1251,-0.2025,0.8766,-6.38,7.83,0.0,25.5
24480,0.124,-0.2028,0.8813,-6.32,8.06,0.03,25.49
24490,0.1262,-0.2046,0.8801,-6.34,8.08,0.0,25.51
24500,0.1254,-0.2043,0.8793,-6.41,7.8,-0.05,25.52
24510,0.1252,-0.2002,0.8798,-6.47,7.62,-0.03,25.5
24520,0.126,-0.2008,0.8728,-6.47,7.62,-0.02,25.49
24530,0.127,-0.2002,0.877,-6.35,7.79,0.0,25.5
24540,0.129,-0.2003,0.8788,-6.31,7.98,-0.05,25.49
24550,0.126,-0.2002,0.8799,-6.34,7.98,0.0,25.51
24560,0.1223,-0.1997,0.8778,-6.53,7.85,0.06,25.51
24570,0.1234,-0.2031,0.8755,-6.49,7.74,0.0,25.5
24580,0.1251,-0.2048,0.8754,-6.47,7.79,-0.09,25.54
24590,0.1267,-0.2025,0.8761,-6.35,7.92,-0.06,25.5
24600,0.1237,-0.2025,0.8787,-6.29,7.97,0.0,25.54
24610,0.1245,-0.2018,0.8804,-6.37,7.91,0.06,25.5
24620,0.1241,-0.2004,0.8796,-6.56,7.82,-0.08,25.5
24630,0.1296,-0.2037,0.8801,-6.55,7.8,-0.06,25.5
24640,0.1282,-0.201,0.8759,-6.52,7.88,-0.05,25.49
24650,0.1252,-0.2009,0.8801,-6.44,7.95,0.0,25.52
24660,0.1272,-0.2007,0.8805,-6.4,7.91,-0.05,25.52
24670,0.1274,-0.2037,0.8792,-6.43,7.89,-0.12,25.51
24680,0.1267,-0.2065,0.8785,-6.32,7.76,-0.03,25.51
24690,0.1244,-0.2028,0.8757,-6.34,7.69,-0.09,25.49
24700,0.1272,-0.2037,0.8755,-6.44,7.69,-0.09,25.53
24710,0.1281,-0.2019,0.8768,-6.43,7.77,-0.09,25.5
24720,0.1277,-0.2029,0.8739,-6.52,8.0,-0.06,25.54
24730,0.1261,-0.2008,0.876,-6.52,8.05,-0.06,25.51
24740,0.1267,-0.2002,0.8802,-6.47,7.97,0.03,25.52
24750,0.1259,-0.2023,0.8778,-6.52,7.83,-0.03,25.52
24760,0.1228,-0.2047,0.8799,-6.52,7.97,-0.06,25.5
24770,0.1252,-0.2054,0.8752,-6.5,7.89,0.0,25.52
24780,0.1249,-0.1996,0.8773,-6.41,7.89,-0.02,25.5
24790,0.127,-0.2008,0.8715,-6.4,7.97,-0.08,25.53
24800,0.1276,-0.2036,0.8776,-6.49,8.03,-0.05,25.52
24810,0.1255,-0.2026,0.8778,-6.5,7.94,-0.02,25.5
24820,0.125,-0.2024,0.8793,-6.46,7.89,-0.05,25.51
24830,0.1243,-0.2034,0.8776,-6.32,7.83,-0.03,25.52
24840,0.1268,-0.2053,0.8735,-6.32,7.8,-0.09,25.53
24850,0.1238,-0.2015,0.8783,-6.37,7.83,0.0,25.5
24860,0.1255,-0.2017,0.8804,-6.41,7.88,-0.06,25.51
24870,0.1254,-0.2023,0.8759,-6.4,7.77,-0.12,25.52
24880,0.1261,-0.2004,0.8774,-6.49,7.82,-0.06,25.51
24890,0.1257,-0.2023,0.8746,-6.43,7.89,-0.02,25.51
24900,0.1259,-0.2056,0.8762,-6.44,7.85,-0.02,25.52
24910,0.1245,-0.2046,0.8785,-6.43,7.86,-0.03,25.52
24920,0.1239,-0.2024,0.879,-6.56,7.8,-0.03,25.5
24930,0.1249,-0.2041,0.8759,-6.46,7.8,-0.05,25.53
24940,0.1266,-0.2041,0.8781,-6.4,7.82,-0.06,25.51
24950,0.1265,-0.2046,0.8748,-6.4,7.83,-0.11,25.53
24960,0.1259,-0.2026,0.8785,-6.44,7.92,-0.11,25.52
24970,0.1224,-0.2012,0.8831,-6.4,7.95,0.03,25.52
24980,0.1241,-0.2006,0.8795,-6.49,7.85,-0.03,25.53
24990,0.1254,-0.2025,0.8811,-6.47,7.66,-0.05,25.52
25000,0.1251,-0.2028,0.8749,-6.34,7.82,-0.08,25.52
25010,0.1282,-0.2,0.8724,-6.34,7.85,-0.03,25.5
25020,0.1263,-0.2041,0.8826,-6.35,7.91,-0.05,25.52
25030,0.1233,-0.2032,0.8745,-6.53,7.89,-0.05,25.52
25040,0.1234,-0.2009,0.8779,-6.46,7.82,-0.02,25.52
25050,0.1302,-0.2021,0.8755,-6.44,7.73,-0.11,25.54
25060,0.1246,-0.2046,0.8754,-6.41,7.89,-0.03,25.5
25070,0.1241,-0.2028,0.8765,-6.34,7.95,-0.02,25.5
25080,0.1233,-0.203,0.8794,-6.4,7.92,0.02,25.52
25090,0.129,-0.2065,0.8768,-6.52,7.86,-0.06,25.52
25100,0.1277,-0.2029,0.8781,-6.55,7.8,-0.05,25.52
25110,0.1268,-0.2003,0.8761,-6.37,7.76,-0.05,25.51
25120,0.127,-0.2009,0.8806,-6.27,7.86,0.02,25.52
25130,0.1273,-0.2007,0.8795,-6.27,7.89,0.0,25.53
25140,0.1241,-0.2051,0.8795,-6.31,7.95,0.03,25.53
25150,0.124,-0.2012,0.8773,-6.5,7.92,0.0,25.52
25160,0.1248,-0.2031,0.881,-6.53,7.82,-0.06,25.52
25170,0.1252,-0.2018,0.8754,-6.41,7.85,-0.02,25.5
25180,0.1243,-0.2015,0.8739,-6.32,7.83,-0.06,25.54
25190,0.1252,-0.205,0.8802,-6.43,7.92,0.0,25.52
25200,0.125,-0.2041,0.881,-6.35,7.92,-0.08,25.51
25210,0.1249,-0.2017,0.8813,-6.46,7.86,-0.08,25.53
25220,0.1272,-0.2041,0.8806,-6.5,7.73,-0.03,25.51
25230,0.127,-0.2026,0.8798,-6.46,7.85,-0.09,25.53
25240,0.1261,-0.2013,0.8799,-6.37,7.76,0.02,25.51
25250,0.1267,-0.2028,0.8823,-6.37,7.86,0.06,25.53
25260,0.1273,-0.2031,0.8783,-6.44,7.91,0.0,25.52
25270,0.1237,-0.2031,0.8773,-6.49,7.83,-0.02,25.51
25280,0.1288,-0.2043,0.8785,-6.46,7.85,-0.03,25.51
25290,0.1246,-0.2025,0.8773,-6.43,7.88,-0.06,25.53
25300,0.1267,-0.2034,0.877,-6.32,7.83,-0.08,25.51
25310,0.1267,-0.2052,0.8765,-6.32,7.89,-0.06,25.52
25320,0.1266,-0.2029,0.879,-6.47,7.97,-0.06,25.51
25330,0.126,-0.2018,0.8821,-6.37,7.94,-0.05,25.53
25340,0.1276,-0.201,0.8818,-6.43,7.85,-0.05,25.53
25350,0.127,-0.2017,0.8792,-6.35,7.74,-0.03,25.52
25360,0.1263,-0.2,0.8777,-6.34,7.76,-0.02,25.52
25370,0.1246,-0.2012,0.8799,-6.38,7.85,-0.08,25.54
25380,0.1261,-0.2035,0.8788,-6.49,7.89,-0.02,25.53
25390,0.1239,-0.2024,0.8776,-6.44,7.85,-0.08,25.51
25400,0.1267,-0.1995,0.877,-6.31,7.86,-0.03,25.5
25410,0.1266,-0.2021,0.8761,-6.37,7.82,-0.06,25.51
25420,0.1255,-0.2032,0.8765,-6.35,7.79,-0.11,25.53
25430,0.127,-0.2032,0.8756,-6.38,7.91,-0.02,25.54
25440,0.1271,-0.2032,0.879,-6.38,8.0,-0.02,25.52
25450,0.1254,-0.2026,0.8793,-6.41,7.86,-0.06,25.54
25460,0.1255,-0.2039,0.8806,-6.4,7.8,-0.05,25.52
25470,0.1272,-0.2039,0.8763,-6.46,7.8,-0.05,25.53
25480,0.1255,-0.2029,0.8779,-6.4,7.91,-0.02,25.53
25490,0.1274,-0.2006,0.8783,-6.49,7.89,-0.09,25.54
25500,0.1254,-0.202,0.8741,-6.46,7.86,-0.05,25.54
25510,0.1255,-0.2003,0.8726,-6.44,7.94,-0.08,25.53
25520,0.123,-0.2013,0.8749,-6.41,7.83,-0.09,25.52
25530,0.1239,-0.2035,0.8782,-6.41,7.77,-0.11,25.53
25540,0.1268,-0.2026,0.8766,-6.43,7.86,-0.05,25.52
25550,0.1265,-0.2021,0.8788,-6.32,7.92,-0.05,25.55
25560,0.1257,-0.2046,0.8793,-6.34,7.92,-0.03,25.53
25570,0.1267,-0.2023,0.88,-6.35,7.88,-0.08,25.53
25580,0.1272,-0.2025,0.8777,-6.49,7.77,-0.06,25.55
25590,0.1279,-0.2006,0.8773,-6.47,7.71,-0.02,25.52
25600,0.1263,-0.2039,0.8777,-6.43,7.8,0.0,25.53
25610,0.1263,-0.2032,0.8754,-6.44,7.88,-0.03,25.53
25620,0.1238,-0.2004,0.8781,-6.43,7.91,-0.02,25.53
25630,0.1261,-0.201,0.8805,-6.55,7.82,-0.03,25.54
25640,0.1256,-0.1987,0.8777,-6.47,7.83,-0.05,25.53
25650,0.1237,-0.2026,0.8781,-6.37,7.89,-0.03,25.54
25660,0.1263,-0.2046,0.8812,-6.43,7.86,-0.03,25.53
25670,0.1278,-0.2046,0.877,-6.35,7.77,-0.05,25.55
25680,0.1241,-0.2023,0.879,-6.38,7.83,-0.12,25.51
25690,0.125,-0.2065,0.8818,-6.41,7.92,-0.06,25.52
25700,0.126,-0.2054,0.8782,-6.38,7.89,-0.09,25.52
25710,0.1272,-0.2012,0.8788,-6.41,7.83,-0.11,25.53
25720,0.1257,-0.2059,0.8777,-6.35,7.88,-0.05,25.53
25730,0.1233,-0.203,0.876,-6.43,7.91,-0.06,25.54
25740,0.124,-0.1995,0.8772,-6.5,7.91,0.03,25.54
25750,0.1251,-0.2013,0.8763,-6.41,8.0,-0.06,25.54
25760,0.125,-0.2013,0.8806,-6.47,7.85,0.02,25.56
25770,0.1274,-0.2001,0.8795,-6.49,7.86,0.03,25.55
25780,0.127,-0.2031,0.8785,-6.32,7.79,-0.06,25.53
25790,0.1235,-0.2,0.8793,-6.47,7.8,-0.02,25.52
25800,0.1238,-0.2029,0.8801,-6.37,7.89,-0.09,25.52
25810,0.1218,-0.2,0.8763,-6.4,7.92,-0.06,25.53
25820,0.1255,-0.202,0.8794,-6.37,7.86,0.0,25.53
25830,0.1249,-0.2021,0.8766,-6.5,7.8,0.02,25.53
25840,0.1251,-0.2036,0.8801,-6.4,7.83,-0.06,25.54
25850,0.1282,-0.2046,0.8756,-6.38,7.83,-0.05,25.56
25860,0.1227,-0.2009,0.8781,-6.5,7.88,-0.09,25.55
25871,0.1239,-0.2017,0.875,-6.41,7.89,-0.06,25.51
25881,0.125,-0.2025,0.8804,-6.27,7.91,-0.11,25.5
25891,0.1251,-0.2074,0.8817,-6.4,7.88,-0.03,25.52
25901,0.1256,-0.2039,0.8777,-6.46,7.91,-0.06,25.52
25911,0.1234,-0.2029,0.8798,-6.43,7.79,0.03,25.54
25921,0.1273,-0.2036,0.8789,-6.29,7.65,-0.02,25.54
25931,0.1262,-0.2012,0.8782,-6.4,7.76,-0.06,25.52
25941,0.1278,-0.2017,0.873,-6.4,7.82,-0.02,25.52
25951,0.1276,-0.2018,0.8777,-6.38,7.97,0.0,25.54
25961,0.1251,-0.201,0.8771,-6.32,7.94,-0.02,25.54
25971,0.1239,-0.2004,0.8781,-6.35,7.8,0.02,25.54
25981,0.1229,-0.2,0.8763,-6.38,7.76,-0.02,25.54
25991,0.1261,-0.2008,0.877,-6.41,7.85,-0.08,25.52
26001,0.1266,-0.203,0.8754,-6.37,7.91,-0.06,25.54
26011,0.1249,-0.2021,0.8766,-6.4,7.85,0.03,25.53
26021,0.1255,-0.2042,0.8751,-6.44,7.82,-0.05,25.52
26031,0.1272,-0.204,0.8794,-6.37,7.77,-0.03,25.53
26041,0.1254,-0.2037,0.8765,-6.5,7.76,-0.02,25.55
26051,0.1283,-0.2052,0.8765,-6.4,7.88,-0.05,25.54
26061,0.1283,-0.2054,0.876,-6.38,7.91,-0.06,25.53
26071,0.1262,-0.2013,0.8784,-6.49,7.88,0.03,25.54
26081,0.1229,-0.2014,0.8749,-6.5,7.88,-0.05,25.53
26091,0.1244,-0.2029,0.8751,-6.4,7.83,-0.09,25.54
26101,0.1244,-0.1998,0.8771,-6.4,7.82,-0.05,25.51
26111,0.125,-0.2015,0.8846,-6.27,7.85,-0.06,25.52
26121,0.1268,-0.2042,0.8785,-6.46,7.82,-0.12,25.51
26131,0.1251,-0.2009,0.8767,-6.52,7.88,-0.06,25.52
26141,0.1245,-0.2036,0.8757,-6.47,7.82,-0.02,25.53
26151,0.1263,-0.2046,0.8778,-6.44,7.86,0.03,25.5
26161,0.1255,-0.2025,0.8785,-6.37,7.86,-0.05,25.52
26171,0.1266,-0.2051,0.8787,-6.34,7.85,-0.02,25.51
26181,0.1256,-0.2021,0.8811,-6.38,7.83,-0.03,25.51
26191,0.1244,-0.1993,0.8795,-6.4,7.73,-0.06,25.52
26201,0.1279,-0.2045,0.8782,-6.44,7.82,0.0,25.52
26211,0.1285,-0.2039,0.8778,-6.43,7.79,-0.08,25.55
26221,0.1237,-0.2029,0.8762,-6.41,7.83,-0.06,25.54
26231,0.1262,-0.2051,0.8739,-6.4,7.85,-0.05,25.53
26241,0.1266,-0.201,0.8774,-6.47,7.82,-0.12,25.53
26251,0.1256,-0.2013,0.8781,-6.37,7.79,-0.02,25.52
26261,0.1255,-0.2032,0.8783,-6.35,7.79,-0.06,25.55
26271,0.1266,-0.2042,0.8796,-6.38,7.74,-0.05,25.52
26281,0.1281,-0.205,0.8793,-6.32,7.85,-0.06,25.52
26291,0.1274,-0.2009,0.8771,-6.34,7.91,-0.05,25.51
26301,0.1263,-0.2019,0.879,-6.35,7.95,-0.05,25.53
26311,0.1262,-0.2007,0.8844,-6.34,7.89,-0.02,25.54
26321,0.1257,-0.2004,0.8845,-6.31,7.8,-0.08,25.51
26331,0.1263,-0.2045,0.8784,-6.43,7.73,-0.06,25.52
26341,0.1254,-0.1997,0.8834,-6.46,7.77,-0.09,25.52
26351,0.1248,-0.2037,0.8728,-6.43,7.82,0.0,25.53
26361,0.1268,-0.2042,0.8771,-6.41,7.92,-0.02,25.55
26371,0.1183,-0.192,0.8737,-6.43,8.23,0.02,25.53
26381,0.1288,-0.2103,0.8733,-7.22,6.93,-0.31,25.54
26391,0.1234,-0.1948,0.851,-6.56,7.6,0.0,25.52
26401,0.1378,-0.2025,0.9001,-5.68,8.09,0.09,25.53
26411,0.1201,-0.2068,0.8865,-6.18,8.05,0.23,25.54
26421,0.129,-0.2144,0.8903,-6.29,7.97,0.17,25.52
26431,0.1348,-0.2039,0.8885,-6.55,7.48,-0.12,25.55
26441,0.1364,-0.2029,0.8813,-7.05,7.66,-0.34,25.54
26451,0.1279,-0.2073,0.8693,-6.72,7.97,-0.17,25.57
26461,0.1251,-0.2089,0.8677,-6.14,8.08,0.2,25.55
26471,0.1241,-0.1986,0.8776,-6.02,8.12,0.03,25.54
26481,0.1177,-0.2018,0.8824,-6.38,8.08,-0.11,25.54
26491,0.1227,-0.2004,0.8745,-6.69,7.73,-0.08,25.55
26501,0.1254,-0.2023,0.8708,-6.76,7.63,-0.11,25.53
26511,0.1272,-0.2045,0.866,-6.37,7.74,-0.05,25.54
26521,0.123,-0.2021,0.8699,-5.98,7.79,0.02,25.54
26531,0.1265,-0.1986,0.8801,-6.0,7.95,-0.08,25.54
26541,0.1251,-0.1987,0.8861,-6.21,7.91,-0.05,25.51
26551,0.1256,-0.2046,0.889,-6.49,7.83,-0.05,25.54
26561,0.1287,-0.201,0.8778,-6.67,7.83,-0.08,25.53
26571,0.1334,-0.2058,0.8744,-6.64,7.91,-0.09,25.56
26581,0.126,-0.2067,0.8787,-6.41,8.09,-0.11,25.53
26591,0.1298,-0.2031,0.8813,-6.37,8.03,-0.03,25.51
26601,0.125,-0.2002,0.886,-6.31,8.02,-0.09,25.53
26611,0.1216,-0.2026,0.8811,-6.56,7.77,-0.11,25.52
26621,0.1243,-0.2008,0.8755,-6.6,7.6,-0.12,25.53
26631,0.1229,-0.2026,0.8767,-6.34,7.82,-0.02,25.55
26641,0.1278,-0.2024,0.8802,-6.24,7.89,-0.06,25.53
26651,0.1268,-0.1985,0.8822,-6.35,8.0,-0.05,25.55
26661,0.1235,-0.2056,0.8795,-6.35,7.79,-0.03,25.53
26671,0.126,-0.202,0.8707,-6.53,7.59,-0.06,25.53
26681,0.1262,-0.203,0.8737,-6.49,7.77,-0.05,25.52
26691,0.1282,-0.1996,0.8734,-6.38,7.85,-0.02,25.55
26701,0.129,-0.2007,0.8765,-6.32,7.94,-0.08,25.54
26711,0.1245,-0.2008,0.8778,-6.4,7.98,0.0,25.54
26721,0.1237,-0.2034,0.8802,-6.53,7.91,-0.03,25.54
26731,0.1238,-0.2034,0.8733,-6.61,7.69,0.0,25.53
26741,0.1254,-0.2052,0.8778,-6.53,7.79,-0.02,25.56
26751,0.124,-0.2041,0.8781,-6.47,7.88,-0.03,25.56
26761,0.1272,-0.2002,0.8771,-6.31,8.0,-0.09,25.54
26771,0.1215,-0.2013,0.8816,-6.32,7.94,-0.05,25.55
26781,0.1248,-0.2034,0.877,-6.35,7.79,-0.08,25.54
26791,0.1243,-0.2026,0.8739,-6.44,7.69,-0.06,25.51
26801,0.1254,-0.2009,0.8781,-6.47,7.79,0.0,25.55
26811,0.1267,-0.2014,0.8765,-6.38,7.94,0.0,25.55
26821,0.1249,-0.2034,0.8801,-6.34,7.91,0.0,25.55
26831,0.1229,-0.201,0.8816,-6.37,7.94,-0.06,25.55
26841,0.1257,-0.202,0.8835,-6.5,7.77,0.02,25.55
26851,0.1254,-0.2002,0.8754,-6.41,7.76,0.03,25.55
26861,0.1274,-0.2046,0.8767,-6.43,7.76,-0.08,25.55
26871,0.1257,-0.2052,0.8734,-6.44,7.86,-0.08,25.57
26881,0.1227,-0.2031,0.8807,-6.38,8.02,0.06,25.54
26891,0.1254,-0.2048,0.886,-6.46,7.94,-0.05,25.53
26901,0.1249,-0.202,0.8767,-6.41,7.91,-0.02,25.54
26911,0.1254,-0.2025,0.8799,-6.43,7.79,-0.08,25.57
26921,0.126,-0.2035,0.8752,-6.5,7.74,-0.02,25.56
26931,0.1245,-0.2004,0.8792,-6.47,7.83,-0.09,25.54
26941,0.1263,-0.2003,0.8751,-6.4,7.97,-0.11,25.57
26951,0.1226,-0.2036,0.8783,-6.43,7.85,-0.03,25.56
26961,0.1274,-0.2019,0.8756,-6.4,7.85,-0.02,25.55
26971,0.1252,-0.2019,0.8768,-6.4,7.71,-0.03,25.53
26981,0.1273,-0.2025,0.8771,-6.43,7.76,-0.05,25.57
26991,0.1299,-0.199,0.8776,-6.44,7.85,-0.05,25.54
27001,0.1245,-0.2014,0.8796,-6.35,7.97,-0.03,25.53
27011,0.1256,-0.2043,0.8795,-6.43,7.95,0.03,25.56
27021,0.1256,-0.2024,0.8862,-6.44,7.85,-0.05,25.56
27031,0.1298,-0.2051,0.8778,-6.5,7.74,-0.09,25.55
27041,0.1307,-0.203,0.8752,-6.55,7.68,-0.11,25.53
27051,0.1277,-0.2043,0.8806,-6.4,7.79,-0.11,25.54
27061,0.1252,-0.2032,0.8782,-6.41,7.83,-0.02,25.57
27071,0.1248,-0.2017,0.8773,-6.27,7.86,-0.03,25.54
27081,0.1244,-0.2026,0.8792,-6.43,7.86,-0.09,25.57
27091,0.1257,-0.198,0.8768,-6.41,7.82,-0.03,25.57
27101,0.1259,-0.2035,0.8778,-6.41,7.79,-0.06,25.57
27111,0.1265,-0.2015,0.8801,-6.38,7.83,-0.11,25.58
27121,0.1295,-0.201,0.8783,-6.29,7.91,-0.03,25.57
27131,0.1259,-0.2006,0.8783,-6.35,7.8,-0.06,25.55
27141,0.1255,-0.2009,0.8746,-6.38,7.86,-0.05,25.55
27151,0.1263,-0.2035,0.8739,-6.41,7.79,-0.08,25.55
27161,0.1262,-0.2026,0.8729,-6.43,7.83,-0.02,25.57
27171,0.1252,-0.2019,0.8744,-6.32,7.91,-0.02,25.55
27181,0.1243,-0.2041,0.874,-6.46,7.88,0.02,25.55
27191,0.1243,-0.2026,0.8796,-6.49,7.85,-0.02,25.57
27201,0.1229,-0.2031,0.8823,-6.35,7.91,-0.09,25.56
27211,0.1254,-0.2037,0.8799,-6.4,7.76,-0.02,25.56
27221,0.1271,-0.2018,0.8833,-6.44,7.73,-0.06,25.57
27231,0.1256,-0.2025,0.8821,-6.35,7.71,-0.06,25.57
27241,0.1265,-0.2024,0.8782,-6.35,7.91,-0.02,25.55
27251,0.1278,-0.205,0.8811,-6.32,7.91,-0.08,25.58
27261,0.1249,-0.2037,0.8818,-6.38,7.92,-0.06,25.55
27271,0.1254,-0.2045,0.877,-6.43,7.89,-0.08,25.54
27281,0.1283,-0.2026,0.8788,-6.44,7.79,-0.08,25.57
27291,0.1271,-0.2024,0.8792,-6.38,7.86,-0.05,25.54
27301,0.1285,-0.2024,0.8781,-6.37,7.95,-0.09,25.53
27311,0.1271,-0.2032,0.8792,-6.35,8.0,-0.03,25.57
27321,0.1252,-0.2004,0.8779,-6.35,7.89,-0.03,25.55
27331,0.1249,-0.2048,0.881,-6.34,7.77,-0.15,25.56
27341,0.1255,-0.2015,0.8762,-6.29,7.69,-0.09,25.56
27351,0.1307,-0.1969,0.8762,-6.43,7.74,-0.06,25.57
27361,0.1301,-0.1952,0.8765,-6.46,7.91,-0.05,25.56
27371,0.1344,-0.1964,0.8785,-6.55,7.92,-0.03,25.54
27381,0.1296,-0.2018,0.8823,-6.66,7.62,-0.11,25.57
27391,0.1285,-0.2,0.8802,-6.69,7.71,-0.06,25.58
27401,0.13,-0.2031,0.8789,-6.43,7.68,-0.08,25.59
27411,0.126,-0.2056,0.8779,-6.34,7.74,-0.03,25.54
27421,0.1312,-0.208,0.868,-6.24,7.73,-0.03,25.57
27431,0.1272,-0.2065,0.87,-6.31,7.83,-0.08,25.55
27441,0.1262,-0.2106,0.8706,-6.41,7.83,-0.15,25.55
27451,0.1217,-0.2119,0.8738,-6.44,7.92,-0.11,25.55
27461,0.1167,-0.2128,0.8821,-6.23,8.0,-0.06,25.54
27471,0.1198,-0.2123,0.8866,-6.23,8.09,-0.14,25.55
27481,0.1204,-0.21,0.8917,-6.18,8.15,-0.08,25.57
27491,0.1184,-0.2104,0.8927,-6.31,8.14,-0.06,25.55
27501,0.1156,-0.2104,0.8885,-6.5,8.05,-0.06,25.57
27511,0.114,-0.2114,0.8876,-6.44,8.06,-0.12,25.57
27521,0.1191,-0.2125,0.8873,-6.44,8.12,-0.09,25.58
27531,0.1172,-0.214,0.8865,-6.24,8.18,-0.05,25.59
27541,0.119,-0.2136,0.8845,-6.27,8.23,-0.11,25.56
27551,0.1191,-0.2152,0.8823,-6.35,8.15,-0.02,25.55
27561,0.1183,-0.2103,0.8783,-6.49,8.09,-0.06,25.59
27571,0.1257,-0.2057,0.8701,-6.53,7.85,-0.14,25.57
27581,0.1311,-0.2024,0.8688,-6.63,7.63,-0.06,25.55
27591,0.1307,-0.1973,0.8696,-6.5,7.57,-0.11,25.56
27601,0.1227,-0.1951,0.88,-6.46,7.73,-0.02,25.57
27611,0.1201,-0.2,0.891,-6.35,7.89,0.09,25.58
27621,0.1198,-0.204,0.8893,-6.41,8.05,-0.09,25.54
27631,0.1232,-0.2037,0.8783,-6.49,7.86,-0.05,25.55
27641,0.1228,-0.205,0.8734,-6.46,7.79,-0.06,25.57
27651,0.12,-0.2042,0.8846,-6.29,8.0,-0.02,25.56
27661,0.1254,-0.1997,0.8779,-6.4,8.08,-0.08,25.57
27671,0.1227,-0.202,0.8783,-6.43,8.0,-0.02,25.55
27681,0.1221,-0.2024,0.8773,-6.52,7.77,0.0,25.57
27691,0.1228,-0.2041,0.8818,-6.52,7.88,-0.11,25.54
27701,0.1262,-0.2032,0.8782,-6.44,7.95,-0.05,25.57
27711,0.126,-0.2006,0.8777,-6.32,8.09,0.03,25.57
27721,0.126,-0.2004,0.8771,-6.37,7.85,-0.03,25.58
27731,0.1256,-0.2058,0.8824,-6.43,7.77,-0.11,25.58
