t_ms,accel_x_g,accel_y_g,accel_z_g,gyro_x_dps,gyro_y_dps,gyro_z_dps,imu_temp_c
3275,0.2196,-0.047,0.8656,-6.02,7.77,-0.05,20.81
3286,0.2216,-0.0466,0.8649,-5.8,8.14,-0.02,20.83
3296,0.1918,-0.0458,0.8895,-5.95,6.76,0.0,20.82
3306,0.1887,-0.0405,0.8973,-5.85,9.01,-0.02,20.84
3316,0.2134,-0.0441,0.8783,-5.91,7.65,-0.02,20.82
3326,0.2098,-0.0363,0.8932,-5.89,6.96,0.0,20.85
3336,0.2072,-0.0358,0.9003,-6.05,7.62,-0.02,20.84
3346,0.2106,-0.0447,0.8778,-5.97,7.83,-0.02,20.83
3356,0.204,-0.0477,0.8777,-6.0,7.68,-0.17,20.84
3366,0.2119,-0.0437,0.881,-5.91,7.6,-0.12,20.82
3376,0.2137,-0.038,0.8896,-5.94,7.22,-0.05,20.84
3386,0.2104,-0.04,0.8949,-5.94,6.98,-0.12,20.84
3396,0.2042,-0.0383,0.895,-5.92,7.62,-0.05,20.82
3406,0.1947,-0.0494,0.8633,-5.92,7.68,-0.03,20.84
3416,0.189,-0.0439,0.8778,-5.95,7.85,-0.05,20.83
3426,0.1992,-0.0435,0.8893,-5.88,9.4,-0.05,20.83
3436,0.2223,-0.0541,0.8639,-5.95,6.7,-0.02,20.83
3446,0.1917,-0.0535,0.9135,-6.02,7.86,0.05,20.85
3456,0.2103,-0.0435,0.9083,-5.97,9.28,0.03,20.84
3466,0.2335,-0.0416,0.8954,-5.98,7.01,0.0,20.84
3476,0.2124,-0.0339,0.9103,-6.02,7.54,0.0,20.85
3486,0.2051,-0.0377,0.9044,-6.06,8.11,-0.08,20.84
3496,0.2173,-0.0436,0.8717,-5.92,7.44,-0.11,20.82
3506,0.1903,-0.0406,0.8737,-5.91,7.6,-0.12,20.85
3517,0.1814,-0.0463,0.8673,-5.97,8.43,-0.09,20.86
3527,0.2059,-0.0526,0.8535,-5.95,8.37,-0.05,20.84
3537,0.229,-0.0399,0.8536,-5.95,5.59,0.03,20.85
3547,0.1924,-0.0389,0.9012,-5.91,6.81,0.0,20.84
3557,0.1938,-0.0359,0.9165,-6.02,9.97,0.03,20.84
3567,0.2501,-0.0337,0.8784,-5.98,7.45,-0.06,20.86
3577,0.2148,-0.0378,0.8969,-5.86,5.91,-0.02,20.85
3587,0.1857,-0.0421,0.9097,-5.94,9.39,-0.02,20.85
3597,0.2158,-0.046,0.8727,-5.92,8.9,0.02,20.87
3607,0.225,-0.0439,0.8552,-5.94,5.92,-0.09,20.82
3617,0.1877,-0.0438,0.8998,-5.89,6.4,-0.11,20.85
3627,0.1715,-0.0402,0.9127,-6.02,9.94,-0.05,20.82
3637,0.219,-0.0382,0.8757,-6.05,8.49,-0.03,20.84
3647,0.2179,-0.042,0.8707,-5.83,6.27,-0.03,20.83
3657,0.1941,-0.0431,0.8958,-5.95,7.22,-0.06,20.86
3667,0.1866,-0.0414,0.8932,-5.91,9.63,-0.08,20.85
3677,0.2253,-0.0439,0.8683,-5.94,8.7,-0.12,20.82
3687,0.2377,-0.0396,0.8533,-5.89,5.83,-0.03,20.83
3697,0.1887,-0.0426,0.8953,-5.83,7.1,-0.08,20.84
3707,0.1946,-0.0446,0.9067,-5.92,8.72,-0.08,20.84
3717,0.2177,-0.0425,0.9008,-5.94,9.08,-0.06,20.87
3727,0.2472,-0.0457,0.8729,-5.92,6.23,-0.08,20.84
3737,0.2047,-0.0458,0.9021,-5.92,6.24,-0.11,20.87
3747,0.1754,-0.0431,0.9081,-5.89,10.43,-0.03,20.84
3757,0.2284,-0.0408,0.8552,-5.89,7.86,0.06,20.88
3767,0.2222,-0.0417,0.8665,-5.95,5.3,-0.02,20.88
3777,0.1796,-0.0431,0.91,-5.94,7.69,-0.06,20.86
3787,0.1929,-0.0449,0.8971,-6.02,10.23,-0.08,20.87
3797,0.2378,-0.0415,0.8541,-5.91,6.76,-0.11,20.84
3807,0.2057,-0.0463,0.8818,-5.97,5.56,-0.14,20.86
3817,0.1796,-0.0457,0.9117,-6.02,9.5,0.02,20.87
3827,0.2172,-0.0466,0.8762,-6.02,8.93,-0.06,20.86
3837,0.2264,-0.0447,0.8639,-5.95,6.55,-0.15,20.87
3847,0.1991,-0.0438,0.8896,-5.89,6.92,0.0,20.89
3857,0.197,-0.0435,0.9014,-5.89,8.64,-0.02,20.87
3867,0.2147,-0.0398,0.8927,-6.0,8.24,-0.02,20.87
3877,0.2223,-0.0408,0.8842,-5.92,7.66,-0.02,20.87
3887,0.2152,-0.0437,0.8856,-5.94,6.79,-0.08,20.86
3897,0.1926,-0.0419,0.9083,-5.94,8.15,-0.05,20.85
3907,0.208,-0.0463,0.8842,-5.95,9.48,0.05,20.87
3917,0.2252,-0.0438,0.8575,-5.91,6.52,0.02,20.86
3927,0.2017,-0.0396,0.8755,-5.88,6.55,0.02,20.89
3937,0.1898,-0.0377,0.8892,-5.92,8.24,-0.02,20.86
3947,0.2142,-0.031,0.8829,-5.89,7.95,-0.05,20.88
3957,0.2173,-0.036,0.8934,-5.86,6.99,-0.11,20.88
3967,0.204,-0.04,0.9026,-6.12,7.76,-0.09,20.89
3977,0.2146,-0.041,0.8845,-5.91,7.79,-0.09,20.89
3987,0.1964,-0.0416,0.8884,-5.91,7.97,-0.03,20.89
3997,0.1947,-0.0436,0.8956,-5.95,8.05,-0.06,20.88
4007,0.2225,-0.0387,0.8699,-5.97,7.94,0.0,20.87
4017,0.2135,-0.0404,0.8785,-5.94,6.21,-0.05,20.88
4027,0.1998,-0.0392,0.8857,-5.89,6.87,0.02,20.88
4037,0.1919,-0.0453,0.8947,-5.94,8.72,-0.05,20.88
4047,0.2181,-0.0399,0.875,-5.91,8.03,-0.03,20.87
4057,0.2112,-0.0409,0.8822,-5.94,6.7,-0.09,20.86
4067,0.1919,-0.0392,0.8981,-5.91,8.37,-0.03,20.89
4077,0.2173,-0.0389,0.8804,-5.97,8.6,0.05,20.92
4087,0.2255,-0.0369,0.8823,-5.92,6.6,-0.09,20.91
4098,0.213,-0.0306,0.8969,-6.0,7.08,-0.09,20.9
4108,0.2054,-0.0386,0.9017,-5.91,8.17,-0.03,20.92
4118,0.2096,-0.0415,0.8853,-5.95,8.2,-0.06,20.92
4128,0.2135,-0.0461,0.8772,-6.06,7.69,-0.02,20.87
4138,0.2021,-0.0466,0.8839,-5.97,7.65,0.0,20.89
4148,0.2074,-0.0428,0.8801,-5.88,8.41,-0.02,20.87
4158,0.212,-0.0436,0.8767,-5.98,7.59,0.02,20.88
4168,0.2111,-0.0431,0.8794,-5.94,7.24,-0.03,20.91
4178,0.2061,-0.0437,0.8849,-5.88,7.47,-0.12,20.88
4188,0.2015,-0.0449,0.8857,-6.02,7.97,-0.06,20.92
4198,0.2144,-0.0471,0.8732,-5.97,7.65,-0.03,20.92
4208,0.2092,-0.0442,0.8774,-5.97,6.75,0.0,20.91
4218,0.194,-0.0461,0.8884,-5.88,7.63,-0.02,20.9
4228,0.2041,-0.0417,0.8885,-5.89,8.02,0.0,20.9
4238,0.2169,-0.0428,0.887,-5.97,7.18,-0.06,20.89
4248,0.2052,-0.0385,0.8982,-5.88,7.24,-0.11,20.92
4258,0.201,-0.0409,0.9062,-5.89,8.29,-0.03,20.89
4268,0.2075,-0.0416,0.8981,-6.0,8.46,0.02,20.9
4278,0.2148,-0.0464,0.8857,-5.91,8.12,-0.06,20.87
4288,0.2103,-0.046,0.8816,-5.89,7.54,-0.08,20.89
4298,0.2018,-0.0493,0.8806,-5.94,8.03,-0.03,20.89
4308,0.2017,-0.0492,0.882,-5.95,8.31,-0.06,20.91
4318,0.2119,-0.0428,0.8696,-5.88,7.5,-0.08,20.92
4328,0.2101,-0.0415,0.8718,-5.79,7.19,0.0,20.9
4338,0.2023,-0.0405,0.8848,-5.95,7.18,0.05,20.9
4348,0.1945,-0.0383,0.8917,-5.91,8.38,-0.02,20.9
4358,0.2167,-0.0393,0.8817,-5.91,7.62,0.17,20.9
4368,0.2222,-0.0403,0.877,-5.97,6.66,0.02,20.92
4378,0.1914,-0.0403,0.9198,-6.02,8.75,-0.08,20.93
4388,0.2146,-0.0404,0.8953,-6.03,8.9,-0.02,20.92
4398,0.2308,-0.0437,0.8776,-6.0,6.87,0.0,20.91
4408,0.22,-0.0439,0.8861,-6.0,6.61,-0.08,20.89
4418,0.2032,-0.0497,0.8864,-5.97,9.19,0.06,20.92
4428,0.2086,-0.047,0.8824,-5.95,8.92,-0.08,20.93
4438,0.2136,-0.0453,0.8612,-5.85,6.81,-0.03,20.91
4448,0.2031,-0.0431,0.8777,-5.85,7.19,-0.12,20.91
4458,0.1986,-0.0377,0.8903,-5.95,8.2,-0.02,20.9
4468,0.2129,-0.0402,0.8844,-5.98,7.86,-0.08,20.91
4478,0.2131,-0.0359,0.8837,-5.95,7.16,-0.11,20.9
4488,0.2129,-0.0355,0.8928,-6.03,6.99,-0.14,20.93
4498,0.2067,-0.0408,0.8887,-6.03,8.41,-0.02,20.92
4508,0.2087,-0.0465,0.8792,-5.83,7.76,0.05,20.89
4518,0.2059,-0.0454,0.8704,-5.91,7.44,-0.11,20.91
4528,0.1998,-0.0447,0.8792,-5.89,7.59,-0.03,20.9
4538,0.199,-0.0417,0.8873,-5.97,7.65,0.0,20.9
4548,0.2046,-0.0377,0.9028,-5.91,7.92,-0.03,20.91
4558,0.2112,-0.0402,0.9034,-5.97,7.71,-0.06,20.9
4568,0.2208,-0.0458,0.8951,-5.97,7.47,-0.12,20.93
4578,0.2007,-0.0469,0.9049,-6.0,8.41,-0.06,20.93
4588,0.2043,-0.0485,0.8811,-6.02,8.89,-0.03,20.92
4598,0.2126,-0.0477,0.868,-6.02,8.18,-0.05,20.92
4608,0.2189,-0.048,0.8688,-5.86,8.21,-0.03,20.92
4618,0.2042,-0.0421,0.8781,-5.86,6.72,-0.08,20.92
4628,0.1888,-0.0422,0.8806,-5.89,7.6,0.05,20.92
4638,0.2029,-0.041,0.8782,-5.92,8.67,-0.02,20.89
4648,0.2179,-0.033,0.8696,-5.89,7.16,0.03,20.92
4658,0.2098,-0.0366,0.8889,-5.94,6.7,-0.06,20.92
4668,0.2002,-0.0378,0.9027,-6.05,7.86,-0.06,20.92
4678,0.2076,-0.0415,0.8929,-5.91,8.56,0.0,20.92
4688,0.219,-0.0416,0.8802,-5.94,7.5,-0.03,20.92
4698,0.2051,-0.0424,0.891,-5.98,7.37,-0.03,20.93
4708,0.2036,-0.0437,0.9001,-6.0,8.34,-0.03,20.93
4718,0.2197,-0.0421,0.8785,-6.03,8.0,0.0,20.92
4728,0.2175,-0.0439,0.8801,-6.02,7.1,0.08,20.92
4738,0.1996,-0.0469,0.8849,-5.94,8.14,-0.09,20.96
4748,0.2113,-0.0457,0.8756,-5.92,7.88,-0.06,20.94
4758,0.2104,-0.0431,0.8851,-6.03,7.16,-0.03,20.92
4768,0.2039,-0.0414,0.895,-6.0,7.92,-0.06,20.92
4778,0.2081,-0.0439,0.8915,-5.91,8.52,-0.15,20.93
4788,0.225,-0.0413,0.8749,-5.89,7.28,-0.12,20.94
4798,0.2053,-0.0432,0.8904,-5.95,7.21,0.0,20.92
4808,0.2039,-0.0481,0.8838,-5.91,8.4,-0.09,20.93
4818,0.2157,-0.0463,0.8636,-5.94,7.3,-0.06,20.94
4828,0.2034,-0.0454,0.8817,-5.85,7.25,-0.02,20.95
4838,0.208,-0.0408,0.8748,-5.88,7.25,-0.03,20.94
4849,0.2056,-0.0385,0.8821,-5.92,7.07,-0.05,20.96
4859,0.2023,-0.0334,0.8926,-5.86,7.76,-0.05,20.94
4869,0.2159,-0.0378,0.8904,-5.97,7.4,-0.11,20.94
4879,0.2135,-0.0382,0.8927,-6.03,7.3,0.0,20.94
4889,0.2097,-0.0399,0.8938,-5.98,7.44,-0.11,20.95
4899,0.2009,-0.0427,0.8992,-6.02,8.17,-0.09,20.95
4909,0.2125,-0.0438,0.8881,-5.98,8.38,-0.06,20.94
4920,0.2141,-0.0471,0.8904,-6.02,8.26,-0.03,20.94
4930,0.2114,-0.043,0.8878,-6.0,7.76,-0.08,20.94
4940,0.2079,-0.0441,0.8826,-5.83,8.27,-0.02,20.93
4950,0.2174,-0.0465,0.8629,-5.89,7.98,-0.08,20.92
4960,0.2172,-0.046,0.8621,-5.91,6.64,0.0,20.94
4970,0.1998,-0.0453,0.8843,-5.91,6.84,-0.08,20.94
4980,0.1993,-0.0424,0.8835,-5.91,7.5,-0.06,20.94
4990,0.2095,-0.0402,0.8813,-6.02,7.47,-0.09,20.93
5000,0.2075,-0.0378,0.8883,-5.94,6.9,-0.12,20.94
5010,0.1989,-0.0406,0.9044,-6.05,7.91,0.02,20.97
5020,0.212,-0.0421,0.8999,-5.92,8.49,-0.05,20.93
5030,0.2267,-0.0428,0.8873,-6.05,7.22,-0.14,20.95
5040,0.2211,-0.0436,0.8928,-6.02,7.1,0.06,20.96
5050,0.2017,-0.0481,0.8928,-5.97,8.27,-0.02,20.94
5060,0.2129,-0.0496,0.8789,-5.97,8.08,-0.06,20.97
5070,0.2041,-0.0469,0.8806,-5.92,7.98,-0.03,20.95
5080,0.2131,-0.0481,0.8724,-5.86,8.0,0.05,20.94
5090,0.2164,-0.0481,0.8704,-5.86,7.02,0.03,20.96
5100,0.2101,-0.0483,0.8719,-5.89,6.98,-0.05,20.97
5110,0.2032,-0.045,0.8823,-5.85,7.73,-0.02,20.96
5120,0.213,-0.0387,0.8815,-5.8,6.99,-0.11,20.95
5130,0.2034,-0.0393,0.8973,-5.92,6.92,-0.09,20.94
5140,0.2,-0.0365,0.907,-5.97,8.44,-0.05,20.95
5150,0.2108,-0.0405,0.8922,-6.0,8.21,-0.05,20.97
5160,0.2133,-0.0433,0.8896,-5.91,7.13,-0.03,20.96
5170,0.1932,-0.0474,0.9041,-5.91,8.58,0.05,20.96
5180,0.2046,-0.0513,0.8821,-6.08,8.76,0.0,20.97
5190,0.2159,-0.0442,0.8601,-5.89,7.59,-0.11,20.97
5200,0.2131,-0.047,0.8691,-5.85,6.38,-0.14,20.97
5210,0.1885,-0.042,0.8922,-5.92,7.31,-0.02,20.95
5220,0.1826,-0.0422,0.9032,-5.82,8.08,0.02,20.94
5230,0.2236,-0.0383,0.8804,-5.92,7.54,-0.03,20.95
5240,0.2119,-0.0369,0.8958,-5.95,6.76,-0.09,20.94
5250,0.2002,-0.0459,0.9065,-5.98,7.71,-0.08,20.96
5260,0.1925,-0.0409,0.9016,-5.94,9.47,-0.09,20.96
5270,0.2037,-0.0454,0.8914,-5.94,9.42,-0.03,20.96
5280,0.2229,-0.0481,0.8638,-5.8,7.36,-0.11,20.97
5290,0.2058,-0.0468,0.8751,-5.8,6.67,-0.12,20.96
5300,0.1948,-0.0438,0.8907,-5.97,8.21,-0.05,20.96
5310,0.2096,-0.0405,0.8871,-5.92,8.15,-0.03,20.99
5320,0.2117,-0.0366,0.8903,-5.91,7.5,0.02,20.98
5330,0.2076,-0.043,0.8955,-5.94,8.03,-0.18,20.97
5340,0.2175,-0.0375,0.8929,-5.98,7.97,-0.08,20.98
5350,0.1964,-0.0474,0.8979,-5.95,7.92,-0.09,20.98
5360,0.1992,-0.046,0.8792,-6.0,9.48,0.0,20.96
5370,0.2371,-0.0441,0.8418,-5.94,6.37,0.0,20.97
5380,0.1993,-0.0422,0.8871,-5.92,5.5,-0.11,20.96
5390,0.1772,-0.0375,0.917,-6.03,10.26,0.03,20.96
5400,0.2285,-0.0369,0.8727,-5.92,8.34,-0.05,20.96
5410,0.2266,-0.0428,0.8657,-5.88,5.36,-0.09,20.97
5420,0.1768,-0.0461,0.9116,-5.98,8.03,-0.06,20.97
5430,0.1924,-0.0458,0.8949,-5.98,10.69,-0.06,20.99
5440,0.2443,-0.0394,0.8456,-5.83,6.29,-0.09,20.98
5450,0.1973,-0.0461,0.8912,-5.8,5.97,-0.05,20.95
5460,0.1786,-0.0386,0.9165,-6.03,9.86,-0.05,20.97
5470,0.222,-0.0378,0.8751,-6.0,9.1,-0.03,20.99
5480,0.233,-0.0383,0.8645,-5.98,5.39,-0.09,20.97
5490,0.1796,-0.0433,0.907,-6.0,7.92,-0.14,20.97
5500,0.203,-0.0444,0.8832,-5.85,10.11,0.06,20.99
5510,0.2388,-0.0455,0.8469,-5.88,5.68,0.0,20.98
5520,0.2197,-0.0454,0.8701,-5.91,4.96,0.02,20.97
5530,0.1935,-0.0381,0.9036,-5.97,10.03,-0.08,20.98
5540,0.2399,-0.0417,0.8604,-5.82,6.67,-0.03,20.99
5550,0.1965,-0.0427,0.9025,-5.98,6.46,-0.08,21.01
5560,0.1918,-0.0417,0.9052,-5.98,10.58,0.03,20.98
5570,0.2511,-0.0479,0.8525,-6.03,5.82,-0.11,20.98
5580,0.2271,-0.0496,0.8656,-5.94,5.27,-0.05,20.97
5590,0.182,-0.0441,0.906,-6.0,10.17,0.05,20.99
5600,0.238,-0.0391,0.8519,-5.88,7.59,-0.05,21.0
5610,0.2123,-0.0385,0.8751,-5.83,5.42,-0.03,21.0
5620,0.1792,-0.0375,0.9119,-5.97,9.07,-0.03,20.96
5630,0.2278,-0.0422,0.8676,-5.91,8.81,0.03,20.98
5640,0.2213,-0.0457,0.8671,-5.86,5.04,-0.06,20.97
5650,0.1777,-0.0426,0.9131,-6.02,9.21,-0.08,21.0
5660,0.2283,-0.04,0.8737,-6.02,9.04,0.03,20.95
5670,0.2294,-0.0398,0.8668,-5.98,5.39,-0.08,21.0
5680,0.1794,-0.0439,0.9111,-6.02,8.15,0.06,21.0
5690,0.2079,-0.0383,0.8804,-5.97,9.71,-0.05,20.96
5700,0.2255,-0.0383,0.8639,-5.91,7.98,-0.05,20.97
5710,0.1908,-0.0345,0.9071,-5.92,6.98,-0.09,20.99
5720,0.1951,-0.036,0.9049,-6.02,9.92,-0.12,20.98
5730,0.2258,-0.0409,0.8719,-5.85,8.82,-0.03,21.01
5740,0.1895,-0.0458,0.8954,-6.0,6.82,0.05,21.01
5750,0.1976,-0.0409,0.8916,-5.97,10.38,-0.03,20.99
5761,0.231,-0.0443,0.8657,-5.97,8.81,0.05,20.99
5771,0.2268,-0.0414,0.871,-6.0,5.11,-0.08,20.98
5781,0.1711,-0.0414,0.9187,-6.06,9.18,0.03,21.0
5791,0.2189,-0.0405,0.8781,-5.97,9.5,0.03,21.0
5801,0.2362,-0.0515,0.8584,-5.86,4.81,0.0,20.98
5811,0.172,-0.0383,0.9116,-6.02,8.34,-0.09,20.98
5821,0.2047,-0.0375,0.8794,-5.8,10.27,-0.12,20.98
5831,0.2328,-0.0441,0.855,-5.92,5.25,-0.08,21.0
5841,0.1821,-0.0374,0.9021,-5.91,7.4,-0.06,20.99
5851,0.1959,-0.0428,0.9015,-6.06,10.27,-0.09,21.01
5861,0.2448,-0.0426,0.8569,-5.89,6.06,-0.05,21.01
5871,0.1935,-0.0343,0.9026,-5.97,6.61,0.0,21.0
5881,0.1885,-0.0372,0.906,-5.89,10.31,0.06,21.01
5891,0.2417,-0.0369,0.8563,-5.85,6.96,0.0,20.99
5901,0.2052,-0.0344,0.8938,-6.02,5.86,-0.06,20.98
5911,0.1753,-0.0425,0.913,-6.02,8.14,-0.02,20.99
5921,0.2125,-0.0402,0.8914,-5.95,10.12,0.03,21.0
5931,0.2393,-0.0421,0.8641,-5.91,5.79,-0.08,20.99
5941,0.1826,-0.0544,0.911,-6.0,7.27,0.06,21.0
5951,0.1954,-0.052,0.8925,-5.98,10.43,0.02,21.03
5961,0.2324,-0.0511,0.8503,-5.8,6.56,0.09,20.99
5971,0.1943,-0.0471,0.8879,-5.82,5.85,0.05,21.0
5981,0.1803,-0.0383,0.9039,-5.91,9.59,-0.02,20.99
5991,0.2228,-0.0461,0.8713,-5.82,7.5,-0.06,21.0
6001,0.2087,-0.0511,0.8943,-5.92,6.24,-0.05,21.02
6011,0.1837,-0.0425,0.9071,-5.97,9.33,-0.06,21.01
6021,0.2216,-0.0518,0.8517,-5.74,7.97,0.05,20.99
6031,0.2006,-0.0338,0.8749,-5.79,5.69,-0.09,20.99
6041,0.1768,-0.027,0.8993,-5.95,9.88,-0.12,21.03
6051,0.2334,-0.0382,0.8582,-5.89,7.68,-0.02,21.01
6061,0.2106,-0.0424,0.8784,-5.97,4.81,-0.12,21.01
6071,0.1707,-0.0505,0.9178,-5.85,9.66,-0.08,20.98
6081,0.2325,-0.0494,0.8889,-5.94,8.79,-0.03,21.0
6091,0.2476,-0.0551,0.8762,-5.85,5.28,-0.09,21.02
6101,0.1852,-0.0552,0.9247,-6.03,8.11,-0.08,20.99
6111,0.2177,-0.0393,0.9012,-6.06,9.86,0.08,20.97
6121,0.2396,-0.0404,0.8711,-5.92,5.92,-0.02,21.0
6131,0.1846,-0.0343,0.8987,-5.97,7.04,-0.03,21.01
6141,0.191,-0.0348,0.8867,-5.89,10.08,0.0,20.98
6151,0.2327,-0.0394,0.842,-5.98,6.72,-0.05,21.0
6161,0.1968,-0.0402,0.8737,-5.92,5.69,-0.05,21.02
6171,0.1799,-0.0437,0.9004,-6.03,9.95,-0.05,21.03
6181,0.2407,-0.0474,0.849,-5.92,7.44,-0.12,21.03
6191,0.214,-0.0447,0.8765,-5.85,5.44,-0.09,21.02
6201,0.1835,-0.0457,0.9073,-5.94,9.28,-0.03,21.03
6211,0.2377,-0.0459,0.8706,-5.92,8.2,0.0,21.03
6221,0.2223,-0.0411,0.8848,-5.92,4.84,-0.02,21.03
6231,0.1764,-0.0405,0.9243,-5.92,9.24,-0.05,21.0
6241,0.2224,-0.0427,0.8881,-5.97,9.21,-0.03,21.02
6251,0.2351,-0.0388,0.8682,-5.92,5.15,-0.05,21.02
6261,0.1755,-0.0476,0.9192,-5.92,8.49,0.05,21.02
6271,0.2151,-0.0441,0.8778,-5.89,9.66,-0.05,21.0
6281,0.241,-0.0481,0.8517,-5.82,5.4,-0.05,21.03
6291,0.1814,-0.0435,0.9025,-6.11,7.31,-0.08,21.03
6301,0.2018,-0.0421,0.8884,-6.0,10.37,-0.08,21.02
6311,0.2421,-0.0427,0.8535,-6.03,6.4,-0.09,21.02
6321,0.2008,-0.0455,0.8889,-5.85,6.27,-0.09,21.04
6331,0.1851,-0.0446,0.9088,-5.89,9.73,-0.06,21.04
6341,0.2109,-0.0428,0.8823,-5.94,9.76,0.08,21.04
6351,0.2102,-0.0419,0.8875,-5.94,5.63,-0.03,21.03
6361,0.1821,-0.0432,0.9176,-5.94,9.71,0.02,21.02
6371,0.2383,-0.0417,0.8662,-5.89,7.76,-0.06,21.02
6381,0.2051,-0.0411,0.8893,-5.91,5.73,-0.09,21.02
6391,0.1816,-0.0404,0.9122,-5.94,9.76,-0.05,21.04
6401,0.2308,-0.0397,0.8636,-5.97,8.12,0.03,21.03
6411,0.2166,-0.0406,0.8735,-5.97,5.25,-0.18,21.01
6421,0.1815,-0.0425,0.9131,-5.88,8.93,-0.12,21.02
6431,0.2245,-0.0377,0.8779,-5.94,9.02,-0.14,21.02
6445,0.1996,-0.0405,0.8972,-6.31,5.8,0.4,21.04
6455,0.2202,-0.043,0.8829,-6.12,9.25,0.08,21.0
6465,0.2319,-0.0459,0.8684,-5.79,5.85,-0.02,21.02
6475,0.1852,-0.0387,0.9082,-6.02,8.18,-0.03,21.03
6485,0.2118,-0.0415,0.8763,-5.95,9.42,0.0,21.02
6495,0.2253,-0.0439,0.8647,-5.97,6.05,0.02,21.03
6505,0.1937,-0.0388,0.9,-5.85,7.24,-0.08,21.05
6515,0.1895,-0.0416,0.913,-5.97,8.98,-0.11,21.05
6525,0.238,-0.0414,0.8737,-5.97,6.96,-0.03,21.04
6535,0.2234,-0.0435,0.8861,-5.85,6.4,0.0,21.04
6545,0.1893,-0.0435,0.9075,-5.91,8.84,-0.03,21.04
6555,0.2144,-0.0441,0.8776,-5.98,8.38,-0.08,21.04
6565,0.2117,-0.043,0.8677,-5.92,6.6,-0.03,21.03
6575,0.1882,-0.0402,0.8844,-5.85,8.43,0.05,21.02
6585,0.2189,-0.043,0.8663,-5.86,7.57,-0.06,21.04
6595,0.1976,-0.0413,0.8806,-5.89,6.67,-0.02,21.04
6605,0.183,-0.0406,0.8934,-5.95,9.36,-0.09,21.04
6615,0.2209,-0.0381,0.8687,-6.02,8.32,-0.05,21.03
6625,0.223,-0.0388,0.8787,-6.02,5.97,0.02,21.04
6635,0.1936,-0.0355,0.9174,-6.06,8.21,-0.05,21.04
6645,0.2208,-0.0366,0.8949,-6.08,9.59,-0.08,21.05
6655,0.2325,-0.0281,0.8387,-6.03,7.91,-0.08,21.03
6665,0.2238,-0.0504,0.8116,-5.56,4.96,-0.14,21.04
6675,0.189,-0.0491,0.8975,-5.97,5.74,-0.11,21.04
6685,0.2158,-0.0541,0.9419,-6.08,9.95,-0.08,21.04
6695,0.2556,-0.0566,0.9135,-6.09,6.79,0.05,21.03
6705,0.2111,-0.0559,0.9281,-6.12,6.61,-0.02,21.02
6715,0.1797,-0.0367,0.9309,-6.06,10.14,0.11,21.02
6725,0.2137,-0.0364,0.8751,-5.8,8.81,0.0,21.02
6735,0.2103,-0.0298,0.8344,-5.88,6.52,-0.09,21.05
6745,0.1644,-0.0291,0.8665,-5.92,7.27,-0.11,21.04
6755,0.1724,-0.0342,0.863,-6.11,10.41,-0.09,21.04
6765,0.2177,-0.041,0.8436,-5.95,7.37,-0.11,21.04
6775,0.2142,-0.047,0.8663,-6.11,5.66,-0.11,21.04
6785,0.1912,-0.0471,0.9213,-5.94,9.07,-0.03,21.04
6795,0.2385,-0.0425,0.889,-6.02,8.96,0.06,21.04
6805,0.2494,-0.0358,0.8816,-5.98,5.11,-0.02,21.03
6815,0.1914,-0.0359,0.933,-5.95,8.34,-0.11,21.05
6825,0.2239,-0.0359,0.8977,-5.97,9.8,-0.05,21.03
6835,0.2458,-0.0469,0.866,-5.92,5.65,-0.02,21.04
6845,0.1896,-0.048,0.9084,-5.98,6.9,-0.14,21.03
6855,0.1909,-0.0542,0.9025,-5.94,10.23,-0.08,21.06
6865,0.2407,-0.0581,0.8523,-5.91,6.32,-0.05,21.03
6875,0.1906,-0.0515,0.8872,-5.95,6.15,-0.05,21.06
6885,0.1782,-0.0414,0.8978,-6.0,9.5,0.14,21.02
6895,0.229,-0.035,0.8574,-5.85,7.6,-0.09,21.05
6905,0.2078,-0.0352,0.8749,-5.91,5.85,-0.03,21.05
6915,0.1815,-0.0404,0.9005,-5.91,9.05,-0.03,21.02
6925,0.2197,-0.0382,0.8579,-5.86,8.55,0.02,21.05
6935,0.2192,-0.0367,0.8724,-5.97,5.69,-0.14,21.03
6945,0.1853,-0.0382,0.9098,-5.95,8.63,-0.21,21.06
6955,0.2269,-0.046,0.8828,-6.02,8.31,-0.14,21.05
6965,0.2222,-0.0452,0.8829,-6.08,5.63,-0.05,21.03
6975,0.1869,-0.0438,0.9122,-6.03,8.34,-0.06,21.04
6985,0.2222,-0.0394,0.8813,-5.89,8.75,-0.14,21.04
6995,0.2317,-0.0443,0.873,-5.88,5.33,-0.02,21.06
7005,0.1796,-0.0403,0.9219,-5.94,8.4,-0.05,21.06
7015,0.2208,-0.0431,0.8844,-5.98,9.51,-0.03,21.02
7025,0.238,-0.0454,0.8579,-5.95,5.05,-0.09,21.05
7035,0.1703,-0.0508,0.9172,-5.94,8.61,-0.05,21.04
7045,0.2112,-0.0474,0.8767,-6.06,9.97,-0.02,21.04
7055,0.2335,-0.046,0.8556,-5.83,5.01,-0.02,21.05
7065,0.1708,-0.0411,0.9082,-5.92,8.03,-0.06,21.06
7075,0.2079,-0.0399,0.8827,-5.89,9.94,-0.05,21.05
7085,0.2345,-0.0392,0.8625,-5.8,5.86,-0.03,21.05
7095,0.1863,-0.0453,0.9056,-5.89,7.16,-0.06,21.07
7105,0.1951,-0.0447,0.903,-6.03,10.47,-0.08,21.06
7115,0.2413,-0.0415,0.8491,-5.92,6.49,-0.08,21.06
7125,0.1952,-0.0432,0.8976,-5.95,6.35,-0.03,21.06
7135,0.1816,-0.0422,0.9135,-5.91,10.52,-0.02,21.04
7145,0.2407,-0.0425,0.8588,-5.92,7.15,-0.05,21.06
7155,0.2329,-0.0437,0.8636,-5.86,5.42,-0.11,21.05
7165,0.1812,-0.0425,0.9075,-5.94,7.71,0.0,21.05
7175,0.2319,-0.0409,0.864,-5.95,7.98,-0.06,21.04
7185,0.2314,-0.043,0.858,-5.88,6.24,-0.02,21.08
7195,0.1879,-0.0431,0.9092,-5.86,7.31,-0.02,21.08
7205,0.2032,-0.0428,0.895,-5.94,10.15,0.08,21.07
7215,0.2429,-0.0415,0.8538,-5.97,5.59,-0.15,21.05
7225,0.1799,-0.0453,0.9125,-5.97,7.28,-0.08,21.07
7235,0.193,-0.0425,0.8955,-6.02,10.7,-0.06,21.05
7245,0.2412,-0.0436,0.853,-5.88,6.03,0.02,21.07
7255,0.1895,-0.0425,0.8989,-5.86,6.43,-0.06,21.06
7265,0.1802,-0.0408,0.911,-5.98,9.97,-0.09,21.05
7275,0.2291,-0.0399,0.8645,-5.98,8.23,-0.05,21.07
7285,0.22,-0.042,0.8794,-5.97,5.45,-0.12,21.08
7295,0.1808,-0.0398,0.9042,-5.97,8.81,-0.11,21.07
7305,0.2134,-0.0438,0.8788,-5.91,9.19,0.02,21.06
7315,0.2281,-0.041,0.8629,-5.89,5.95,0.02,21.07
7325,0.1891,-0.0408,0.903,-5.94,7.5,-0.09,21.06
7335,0.2058,-0.0431,0.8939,-5.97,9.34,-0.06,21.07
7345,0.2314,-0.0424,0.8688,-5.91,6.5,-0.03,21.07
7355,0.189,-0.0419,0.9047,-6.08,7.65,-0.15,21.06
7365,0.2117,-0.0428,0.8799,-5.98,9.44,-0.06,21.05
7375,0.2318,-0.0436,0.8564,-5.91,5.53,-0.05,21.07
7385,0.1754,-0.043,0.9148,-5.97,7.68,-0.03,21.07
7395,0.2028,-0.0388,0.8881,-5.94,10.12,0.03,21.07
7405,0.2367,-0.0431,0.8645,-5.95,5.79,0.05,21.06
7415,0.1797,-0.041,0.9127,-5.94,7.21,-0.12,21.05
7425,0.198,-0.0438,0.896,-5.94,10.63,-0.03,21.08
7435,0.2402,-0.0439,0.8496,-5.98,6.23,-0.11,21.08
7445,0.1956,-0.0427,0.8964,-5.89,6.06,-0.11,21.07
7455,0.1813,-0.0439,0.9047,-5.97,10.55,0.02,21.07
7465,0.2363,-0.0444,0.8577,-5.83,7.48,-0.05,21.1
7475,0.2097,-0.0436,0.8862,-5.89,5.8,-0.06,21.06
7485,0.1765,-0.0443,0.9106,-5.97,9.62,-0.02,21.09
7495,0.2313,-0.045,0.8655,-5.89,8.12,0.0,21.06
7505,0.2175,-0.0425,0.88,-5.97,5.56,-0.06,21.06
7515,0.1771,-0.0396,0.9185,-5.98,9.3,-0.08,21.06
7525,0.2252,-0.0432,0.8739,-5.92,8.76,-0.05,21.07
7535,0.2192,-0.0479,0.8765,-5.86,5.45,-0.03,21.08
7545,0.174,-0.0405,0.9172,-6.06,9.28,0.02,21.05
7555,0.2253,-0.0416,0.8638,-5.97,8.81,-0.05,21.05
7565,0.2229,-0.0413,0.8683,-5.92,4.95,-0.08,21.09
7575,0.1766,-0.041,0.9124,-6.0,8.67,-0.02,21.1
7585,0.2219,-0.0427,0.8779,-5.94,8.92,0.0,21.09
7595,0.2238,-0.0405,0.8684,-5.88,5.37,-0.03,21.06
7605,0.1791,-0.0448,0.916,-6.09,8.31,-0.02,21.06
7615,0.2106,-0.0438,0.8802,-6.06,9.31,0.02,21.08
7625,0.2317,-0.0468,0.8638,-5.83,5.79,-0.09,21.07
7635,0.1833,-0.0459,0.9086,-6.0,7.56,0.02,21.05
7645,0.2104,-0.0449,0.8904,-5.94,9.8,0.0,21.06
7655,0.2432,-0.0461,0.856,-5.86,5.44,-0.11,21.07
7665,0.2194,-0.0444,0.8724,-5.92,5.28,-0.05,21.08
7675,0.1975,-0.0441,0.8945,-6.0,9.89,-0.03,21.09
7685,0.2406,-0.0435,0.8612,-5.94,6.31,-0.02,21.09
7695,0.1935,-0.0428,0.903,-5.98,6.66,-0.06,21.07
7705,0.1927,-0.0409,0.8998,-6.02,9.89,-0.03,21.07
7715,0.239,-0.0421,0.8547,-5.94,6.55,-0.05,21.09
7725,0.1881,-0.0441,0.9047,-5.97,6.76,-0.02,21.07
7735,0.191,-0.0433,0.901,-6.0,10.87,-0.12,21.08
7745,0.2438,-0.0426,0.8566,-6.0,6.63,-0.05,21.07
7755,0.2017,-0.0433,0.89,-5.91,5.86,-0.05,21.07
7765,0.1768,-0.0419,0.9146,-6.03,10.37,-0.06,21.09
7775,0.2358,-0.0422,0.8595,-5.98,8.02,-0.05,21.09
7785,0.2399,-0.0424,0.8578,-5.94,6.24,-0.02,21.08
7795,0.1774,-0.0397,0.9156,-5.98,9.21,-0.05,21.05
7805,0.1881,-0.0408,0.8995,-6.05,10.12,-0.08,21.07
7815,0.2341,-0.0404,0.8544,-5.92,7.11,-0.03,21.1
7825,0.2017,-0.0424,0.8917,-6.03,5.79,-0.09,21.1
7835,0.1801,-0.0369,0.9171,-6.08,10.03,-0.06,21.07
7845,0.2374,-0.0436,0.8625,-6.02,8.03,0.03,21.09
7855,0.2161,-0.0403,0.8766,-6.03,5.01,-0.09,21.09
7865,0.1772,-0.0402,0.9116,-5.98,9.88,-0.06,21.07
7875,0.2296,-0.0404,0.8619,-5.86,8.37,0.02,21.09
7885,0.2214,-0.0376,0.8706,-6.0,5.08,0.0,21.09
7895,0.1757,-0.0399,0.9171,-6.12,9.22,-0.08,21.07
7905,0.224,-0.0376,0.877,-6.0,9.24,-0.05,21.09
7915,0.2321,-0.0428,0.8627,-5.86,5.08,-0.08,21.06
7925,0.178,-0.0428,0.9106,-5.95,8.24,-0.09,21.07
7935,0.2106,-0.0405,0.8793,-6.0,9.42,0.0,21.07
7945,0.2394,-0.0409,0.8544,-5.89,5.13,-0.06,21.08
7955,0.1801,-0.0446,0.9124,-5.98,7.5,-0.06,21.09
7965,0.1957,-0.0367,0.8989,-6.05,10.18,-0.03,21.11
7975,0.2378,-0.0372,0.8568,-5.97,6.82,-0.08,21.09
7985,0.2095,-0.0442,0.8904,-5.92,5.83,-0.08,21.07
7995,0.179,-0.0431,0.908,-5.86,9.5,0.11,21.09
8005,0.2303,-0.041,0.8677,-6.0,8.35,0.05,21.07
8015,0.2207,-0.0405,0.8794,-5.94,5.18,-0.03,21.09
8025,0.1743,-0.0388,0.9185,-6.02,9.39,0.0,21.09
8035,0.231,-0.0391,0.8671,-5.92,8.87,0.0,21.1
8045,0.2216,-0.0405,0.8708,-5.95,5.15,-0.03,21.08
8055,0.1779,-0.0443,0.9144,-6.0,8.93,-0.06,21.09
8065,0.2214,-0.0416,0.8724,-5.92,9.04,-0.08,21.1
8075,0.2357,-0.0421,0.8616,-5.88,7.08,-0.06,21.1
8085,0.183,-0.0431,0.9089,-6.0,8.0,-0.05,21.09
8095,0.2118,-0.0426,0.8838,-6.05,9.62,-0.05,21.11
8105,0.2384,-0.0419,0.8597,-6.03,5.37,-0.06,21.09
8115,0.1791,-0.043,0.9125,-5.98,7.95,-0.09,21.07
8125,0.21,-0.0449,0.8823,-5.95,9.82,-0.06,21.1
8135,0.2383,-0.0436,0.8508,-5.89,5.02,0.02,21.11
8145,0.1787,-0.0415,0.9113,-5.98,7.6,-0.02,21.08
8155,0.208,-0.0385,0.8909,-5.94,9.6,0.02,21.09
8165,0.2363,-0.0417,0.8644,-5.94,6.17,-0.05,21.1
8175,0.191,-0.0443,0.9062,-5.89,7.04,-0.06,21.11
8185,0.1982,-0.0479,0.9016,-5.97,10.05,-0.05,21.07
8195,0.2368,-0.0464,0.8606,-5.95,6.47,-0.02,21.09
8205,0.1941,-0.043,0.8971,-5.95,6.69,0.02,21.09
8215,0.1956,-0.0385,0.8964,-5.98,9.92,-0.05,21.1
8225,0.2433,-0.038,0.8463,-5.98,6.18,0.06,21.1
8235,0.1919,-0.0376,0.8967,-5.92,6.29,-0.05,21.09
8245,0.1852,-0.0376,0.8999,-5.86,10.17,-0.12,21.09
8255,0.2373,-0.0443,0.8602,-5.83,7.37,-0.08,21.12
8265,0.2117,-0.0455,0.8788,-6.02,5.71,-0.11,21.09
8275,0.1858,-0.0463,0.9048,-5.89,9.28,-0.06,21.07
8285,0.2277,-0.0422,0.8704,-5.91,8.02,-0.03,21.08
8295,0.2135,-0.0381,0.8849,-5.89,6.11,0.0,21.09
8305,0.1815,-0.0377,0.9229,-5.94,9.85,0.06,21.09
8315,0.2439,-0.0336,0.8671,-5.83,7.62,-0.05,21.09
8325,0.2166,-0.0375,0.8894,-5.86,5.42,-0.02,21.1
8335,0.174,-0.0457,0.9224,-6.06,9.22,-0.05,21.09
8345,0.2152,-0.0483,0.8729,-5.98,9.39,-0.11,21.09
8355,0.2263,-0.0442,0.8578,-5.91,5.54,0.0,21.09
8365,0.1737,-0.0409,0.9052,-5.94,8.47,0.0,21.09
8375,0.1844,-0.0375,0.9,-5.83,9.91,-0.02,21.12
8385,0.2294,-0.0328,0.8599,-5.89,5.53,-0.06,21.1
8395,0.1833,-0.0342,0.91,-5.89,7.69,-0.12,21.1
8405,0.2081,-0.0415,0.8923,-5.95,9.85,-0.12,21.09
8415,0.2366,-0.0464,0.8727,-5.97,8.11,-0.09,21.11
8425,0.2159,-0.0497,0.884,-5.98,5.11,-0.09,21.1
8435,0.1686,-0.047,0.9305,-5.92,10.81,-0.05,21.1
8445,0.2378,-0.0402,0.8618,-5.88,8.24,-0.05,21.12
8455,0.2228,-0.0419,0.8604,-5.83,5.33,-0.08,21.09
8465,0.1859,-0.0404,0.8878,-5.88,7.37,-0.06,21.1
8475,0.1908,-0.037,0.8977,-5.85,8.99,-0.12,21.11
8485,0.217,-0.0371,0.8766,-5.95,7.8,-0.09,21.1
8495,0.2109,-0.0433,0.8821,-6.0,7.11,-0.15,21.08
8505,0.2101,-0.041,0.8861,-5.98,7.53,-0.12,21.09
8515,0.2058,-0.0421,0.9005,-6.05,7.57,-0.08,21.11
8525,0.1956,-0.0449,0.9215,-6.08,9.37,0.0,21.13
8535,0.2388,-0.0427,0.877,-6.08,8.0,-0.05,21.1
8545,0.2158,-0.0428,0.8766,-5.94,5.83,-0.05,21.13
8555,0.1753,-0.0427,0.8906,-5.92,8.7,-0.03,21.12
8565,0.2019,-0.0322,0.8608,-5.98,9.63,-0.03,21.1
8575,0.2379,-0.0374,0.8407,-5.88,5.05,-0.08,21.12
8585,0.1687,-0.0426,0.9036,-5.92,7.76,-0.08,21.09
8595,0.2225,-0.0431,0.8848,-6.03,10.08,-0.02,21.12
8605,0.2406,-0.0481,0.8716,-5.94,4.72,-0.05,21.1
8615,0.1819,-0.0509,0.9296,-5.97,8.61,0.05,21.13
8625,0.2177,-0.0371,0.8999,-6.08,9.54,0.08,21.09
8635,0.2373,-0.0417,0.8734,-5.95,6.58,-0.06,21.1
8645,0.199,-0.0337,0.8885,-6.0,6.35,-0.08,21.11
8655,0.1936,-0.0402,0.8989,-5.89,9.73,-0.09,21.09
8665,0.2285,-0.0397,0.854,-5.95,5.94,-0.11,21.09
8675,0.1833,-0.047,0.8988,-5.94,7.04,-0.06,21.1
8685,0.1842,-0.0474,0.8953,-6.06,10.12,-0.06,21.08
8695,0.2362,-0.0503,0.8456,-5.89,6.46,0.0,21.08
8705,0.1942,-0.0471,0.8922,-5.95,5.94,-0.02,21.11
8715,0.1833,-0.0388,0.907,-5.97,9.86,0.06,21.1
8725,0.2325,-0.0358,0.8707,-6.0,7.53,-0.05,21.09
8735,0.2064,-0.0371,0.8896,-5.98,6.15,-0.03,21.12
8745,0.1815,-0.0365,0.9097,-6.03,10.27,-0.08,21.1
8755,0.2411,-0.0393,0.8578,-5.88,7.25,-0.09,21.1
8765,0.2024,-0.0458,0.8961,-5.86,5.62,-0.11,21.1
8775,0.1798,-0.0496,0.9187,-6.0,10.76,-0.08,21.11
8786,0.2152,-0.048,0.8834,-5.95,9.73,-0.05,21.09
8796,0.239,-0.0458,0.8651,-5.82,5.4,-0.03,21.09
8806,0.1891,-0.0474,0.9095,-6.0,7.4,0.02,21.13
8816,0.199,-0.0405,0.8961,-5.94,10.43,0.03,21.13
8826,0.2308,-0.0399,0.8678,-6.0,8.89,0.09,21.12
8836,0.1875,-0.0448,0.8951,-6.03,6.18,-0.12,21.12
8846,0.2031,-0.0367,0.9113,-5.95,10.4,-0.08,21.12
8856,0.2507,-0.0483,0.8494,-5.83,4.44,-0.05,21.1
8866,0.1666,-0.0563,0.9053,-6.06,9.21,-0.08,21.11
8876,0.2024,-0.0349,0.8763,-6.0,9.21,0.03,21.12
8886,0.2395,-0.0415,0.8621,-5.86,5.42,0.0,21.1
8896,0.181,-0.038,0.9229,-5.89,6.89,0.05,21.11
8906,0.1755,-0.0303,0.9229,-6.18,11.08,0.0,21.1
8916,0.2189,-0.031,0.8734,-5.88,8.14,-0.02,21.09
8926,0.2048,-0.0378,0.8711,-5.94,5.8,-0.09,21.1
8936,0.1625,-0.0394,0.9104,-5.98,10.31,-0.03,21.1
8946,0.1927,-0.0508,0.8835,-6.09,10.26,-0.14,21.11
8956,0.208,-0.049,0.85,-5.95,5.73,-0.17,21.1
8966,0.2148,-0.0597,0.8756,-5.76,6.44,-0.17,21.14
8976,0.2183,-0.0515,0.8708,-5.88,5.22,0.0,21.12
8986,0.1974,-0.0443,0.9041,-5.94,8.29,0.06,21.09
8996,0.2117,-0.0425,0.8873,-5.89,8.58,0.0,21.1
9006,0.2325,-0.0397,0.8654,-5.91,7.28,-0.05,21.12
9016,0.2236,-0.0366,0.8843,-5.92,5.69,-0.09,21.1
9026,0.1982,-0.0338,0.9166,-5.77,8.03,-0.02,21.12
9036,0.2128,-0.0375,0.9183,-5.97,9.97,-0.02,21.12
9046,0.2535,-0.0441,0.873,-5.95,6.34,-0.05,21.12
9056,0.2058,-0.0443,0.9052,-5.95,6.69,-0.06,21.12
9066,0.1821,-0.041,0.9111,-5.92,8.46,-0.05,21.13
9076,0.2134,-0.047,0.8792,-5.8,9.65,0.08,21.11
9086,0.2272,-0.0433,0.8561,-5.94,5.48,0.06,21.12
9096,0.1813,-0.0415,0.8993,-5.89,7.71,0.0,21.13
9106,0.199,-0.0334,0.8785,-5.86,9.79,0.03,21.12
9116,0.2297,-0.0315,0.8524,-6.02,5.44,-0.03,21.11
9126,0.1776,-0.0333,0.8961,-6.02,7.19,-0.08,21.09
9136,0.1814,-0.0378,0.8972,-6.02,10.26,-0.05,21.13
9146,0.2334,-0.0378,0.845,-5.91,7.27,-0.03,21.13
9156,0.2072,-0.0419,0.8774,-6.0,5.62,-0.08,21.13
9166,0.1764,-0.0448,0.9146,-6.02,9.08,-0.11,21.12
9176,0.2269,-0.042,0.8828,-6.0,8.9,-0.05,21.12
9186,0.2333,-0.043,0.8801,-5.98,5.79,-0.14,21.13
9196,0.1949,-0.0421,0.9141,-6.03,8.02,-0.02,21.11
9206,0.2205,-0.0391,0.8846,-5.91,8.99,-0.03,21.12
9216,0.2369,-0.0397,0.871,-5.91,5.95,-0.12,21.12
9226,0.1876,-0.0422,0.9139,-5.97,7.77,-0.08,21.11
9236,0.2197,-0.0431,0.88,-5.89,9.59,-0.03,21.12
9246,0.2317,-0.0449,0.8588,-5.97,4.98,-0.05,21.13
9256,0.1755,-0.0419,0.9054,-5.98,8.52,-0.06,21.14
9266,0.2062,-0.0415,0.8795,-5.97,9.91,0.0,21.13
9276,0.2322,-0.0417,0.8613,-5.86,8.08,-0.03,21.15
9286,0.1884,-0.0382,0.9033,-5.77,6.64,-0.09,21.11
9296,0.1824,-0.0352,0.9177,-6.02,10.5,-0.11,21.13
9306,0.2456,-0.0381,0.8571,-5.83,6.99,-0.03,21.12
9316,0.2024,-0.0426,0.8925,-5.98,5.66,-0.03,21.12
9326,0.1798,-0.0409,0.9082,-6.06,10.09,-0.02,21.14
9336,0.2296,-0.0425,0.8611,-5.89,8.15,-0.03,21.15
9346,0.2211,-0.0417,0.8696,-5.73,4.78,-0.03,21.12
9356,0.1776,-0.0416,0.9177,-6.02,8.81,-0.02,21.15
9366,0.1807,-0.0432,0.9122,-5.98,10.06,-0.11,21.13
9376,0.2363,-0.0397,0.8602,-5.85,6.05,-0.02,21.12
9386,0.1921,-0.0392,0.8938,-5.92,6.79,-0.03,21.12
9396,0.1713,-0.0421,0.9141,-6.03,9.18,-0.06,21.14
9406,0.2467,-0.0358,0.845,-5.86,5.98,-0.06,21.12
9416,0.1959,-0.0385,0.903,-5.86,6.52,-0.14,21.14
9426,0.1876,-0.0426,0.92,-6.06,9.92,-0.15,21.11
9436,0.2349,-0.0435,0.8674,-5.95,7.77,-0.03,21.14
9446,0.2188,-0.0439,0.8906,-5.94,5.59,0.0,21.14
9456,0.1799,-0.0474,0.9069,-6.02,9.24,-0.05,21.13
9466,0.2174,-0.043,0.8617,-6.02,9.05,0.05,21.11
9476,0.2283,-0.0432,0.8521,-5.85,5.66,-0.03,21.12
9486,0.2102,-0.0415,0.8773,-5.94,5.82,0.0,21.13
9496,0.2103,-0.0406,0.8878,-5.89,9.82,-0.05,21.14
9506,0.2375,-0.0409,0.8644,-5.89,5.59,-0.09,21.14
9516,0.1876,-0.0427,0.9158,-5.97,7.33,-0.15,21.14
9526,0.1974,-0.0425,0.9032,-6.03,10.14,-0.05,21.13
9536,0.2412,-0.0413,0.8621,-5.98,6.4,-0.08,21.14
9546,0.2268,-0.0435,0.8707,-5.8,5.76,-0.05,21.12
9556,0.1868,-0.0383,0.9084,-5.94,10.26,-0.03,21.11
9566,0.2422,-0.0406,0.8528,-5.92,7.05,-0.06,21.11
9576,0.204,-0.0406,0.8828,-5.89,5.91,0.0,21.13
9586,0.1787,-0.0388,0.9061,-5.97,9.92,-0.05,21.13
9596,0.2354,-0.0425,0.8479,-5.92,7.6,-0.12,21.14
9607,0.2374,-0.0409,0.8539,-6.0,5.76,-0.09,21.13
9617,0.182,-0.0413,0.9105,-6.08,7.6,-0.06,21.14
9627,0.2076,-0.0432,0.8953,-5.89,10.23,-0.08,21.15
9637,0.244,-0.0455,0.8583,-5.82,5.65,0.0,21.13
9647,0.1917,-0.0499,0.9127,-5.92,7.3,-0.05,21.14
9657,0.2019,-0.0481,0.8956,-5.89,10.26,-0.03,21.12
9667,0.226,-0.0426,0.8665,-6.0,8.72,-0.03,21.14
9677,0.193,-0.0372,0.8964,-6.06,6.34,0.02,21.13
9687,0.183,-0.0375,0.9064,-6.03,9.95,-0.08,21.12
9697,0.2024,-0.0376,0.89,-5.95,9.85,0.0,21.13
9707,0.2318,-0.0416,0.8624,-5.92,5.95,-0.05,21.14
9717,0.1865,-0.0441,0.9036,-5.85,7.4,-0.06,21.16
9727,0.1976,-0.0427,0.8931,-6.0,10.31,0.02,21.12
9737,0.246,-0.0438,0.8501,-5.89,5.59,-0.08,21.14
9747,0.1854,-0.0435,0.9102,-6.0,6.84,-0.08,21.13
9757,0.1924,-0.0408,0.902,-6.03,10.41,0.03,21.15
9767,0.2443,-0.0392,0.8518,-5.94,6.75,-0.03,21.12
9777,0.2063,-0.0419,0.8926,-5.94,5.74,-0.08,21.15
9787,0.1785,-0.0409,0.9114,-6.08,9.92,-0.02,21.14
9797,0.2294,-0.0426,0.8671,-6.0,8.4,-0.06,21.13
9807,0.2261,-0.0432,0.8708,-5.88,5.01,-0.12,21.13
9817,0.1794,-0.0381,0.918,-5.91,8.56,-0.05,21.17
9827,0.2092,-0.0334,0.8838,-6.02,9.68,-0.06,21.13
9837,0.2352,-0.0358,0.8573,-5.88,5.65,-0.08,21.14
9847,0.1804,-0.0422,0.9054,-6.0,7.65,0.0,21.12
9857,0.2032,-0.047,0.8846,-5.98,9.82,-0.08,21.12
9867,0.2395,-0.0471,0.855,-5.85,5.79,-0.03,21.12
9877,0.1831,-0.0437,0.9089,-5.97,7.07,0.03,21.13
9887,0.2018,-0.0382,0.8943,-6.09,10.31,0.0,21.15
9897,0.2394,-0.0399,0.8605,-5.97,5.95,-0.03,21.12
9907,0.183,-0.0416,0.9034,-6.05,7.05,-0.06,21.11
9917,0.1959,-0.0404,0.896,-6.0,10.38,-0.08,21.14
9927,0.2472,-0.0435,0.8566,-5.89,6.31,0.0,21.13
9937,0.207,-0.0471,0.9038,-5.88,5.85,-0.06,21.14
9947,0.1848,-0.0461,0.9204,-6.03,10.26,-0.05,21.14
9957,0.2388,-0.0416,0.86,-5.91,7.73,0.05,21.15
9967,0.2117,-0.0398,0.8721,-5.92,5.28,-0.05,21.16
9977,0.1707,-0.035,0.9093,-6.09,9.77,-0.02,21.15
9987,0.2269,-0.0365,0.8595,-5.91,8.56,0.0,21.14
9997,0.2197,-0.0363,0.858,-5.98,4.93,-0.02,21.14
10007,0.2056,-0.041,0.8835,-5.89,5.83,-0.06,21.16
10017,0.2137,-0.0441,0.8885,-6.05,9.76,-0.08,21.15
10027,0.2382,-0.0499,0.8721,-5.95,6.29,-0.09,21.15
10037,0.2036,-0.0483,0.8979,-5.98,6.55,-0.05,21.16
10047,0.1903,-0.0444,0.9042,-5.95,9.73,0.03,21.15
10057,0.228,-0.0409,0.861,-6.05,8.03,0.0,21.15
10067,0.2131,-0.0386,0.8763,-6.0,5.5,-0.14,21.14
10077,0.1724,-0.0403,0.9178,-6.02,9.53,0.02,21.15
10087,0.234,-0.0438,0.8638,-5.98,8.52,-0.05,21.14
10097,0.2229,-0.0459,0.8698,-5.92,5.02,-0.05,21.15
10107,0.1743,-0.0466,0.9133,-6.02,9.05,0.0,21.16
10117,0.2175,-0.0416,0.8732,-6.02,9.36,-0.03,21.15
10127,0.2333,-0.042,0.8608,-5.92,4.85,0.05,21.12
10137,0.1744,-0.0386,0.9141,-6.02,8.29,-0.03,21.14
10147,0.2021,-0.0359,0.8905,-5.98,9.89,-0.02,21.15
10157,0.2385,-0.0383,0.8557,-5.95,5.85,-0.06,21.14
10167,0.1843,-0.0481,0.9077,-6.08,7.18,-0.11,21.16
10177,0.1926,-0.0454,0.9009,-6.02,10.21,-0.08,21.14
10187,0.2415,-0.0497,0.8538,-5.86,6.61,-0.03,21.13
10197,0.1963,-0.0488,0.8993,-5.98,5.8,-0.05,21.14
10207,0.1873,-0.0405,0.9106,-6.11,10.05,-0.05,21.17
10217,0.2291,-0.038,0.8705,-5.95,7.62,-0.06,21.14
10227,0.21,-0.0374,0.8822,-5.89,6.03,-0.08,21.14
10237,0.1769,-0.0427,0.9142,-5.94,9.8,-0.03,21.15
10247,0.2374,-0.0421,0.8619,-5.89,8.03,-0.08,21.16
10257,0.214,-0.0499,0.8801,-5.86,5.37,-0.08,21.16
10267,0.1761,-0.0521,0.9208,-5.97,9.24,0.0,21.12
10278,0.1826,-0.0448,0.9139,-6.03,8.61,-0.06,21.17
10288,0.2429,-0.0428,0.863,-5.94,6.99,-0.06,21.15
10298,0.2085,-0.0437,0.8904,-5.86,5.8,0.02,21.16
10308,0.1815,-0.0421,0.9067,-5.92,9.83,0.0,21.16
10318,0.2303,-0.0394,0.8624,-5.98,8.32,0.02,21.13
10328,0.2197,-0.0378,0.8638,-5.95,5.02,-0.11,21.17
10338,0.187,-0.0424,0.9019,-5.89,6.27,-0.03,21.14
10348,0.1848,-0.0419,0.9087,-6.05,10.4,-0.03,21.15
10358,0.2467,-0.0438,0.8544,-5.97,6.84,-0.02,21.13
10368,0.1989,-0.0436,0.8901,-5.97,5.59,-0.05,21.14
10378,0.1791,-0.0444,0.9087,-6.06,10.11,-0.02,21.17
10388,0.2324,-0.0446,0.8702,-6.03,7.92,-0.02,21.15
10398,0.2225,-0.0446,0.8761,-5.95,5.37,-0.05,21.17
10408,0.1832,-0.0457,0.9226,-5.97,8.66,0.06,21.15
10418,0.2158,-0.0469,0.8843,-6.02,9.82,-0.06,21.14
10428,0.2354,-0.0476,0.8556,-5.98,5.59,-0.11,21.13
10438,0.1755,-0.0443,0.9056,-5.95,7.79,-0.09,21.14
10448,0.1964,-0.0409,0.8878,-5.98,10.17,-0.09,21.14
10458,0.2195,-0.0437,0.8568,-5.98,8.43,0.0,21.15
10468,0.1854,-0.0404,0.8975,-5.86,6.63,0.02,21.17
10478,0.1857,-0.0414,0.9126,-5.92,10.41,-0.02,21.16
10488,0.238,-0.0399,0.8625,-5.98,7.15,0.02,21.14
10498,0.2073,-0.0436,0.8914,-5.94,5.8,0.0,21.15
10508,0.1812,-0.04,0.9094,-5.91,10.2,-0.06,21.17
10518,0.2112,-0.0387,0.8812,-6.06,9.71,0.02,21.15
10528,0.2075,-0.0381,0.8904,-5.97,5.6,-0.06,21.17
10538,0.1842,-0.0394,0.9171,-6.05,10.26,-0.11,21.15
10548,0.2374,-0.0454,0.8698,-6.0,8.08,-0.12,21.18
10558,0.2219,-0.0459,0.8743,-5.85,5.13,-0.02,21.19
10568,0.1749,-0.0459,0.9158,-5.98,9.39,0.06,21.15
10578,0.1919,-0.0437,0.9006,-6.05,10.55,0.03,21.14
10588,0.23,-0.0424,0.8634,-5.83,4.63,-0.11,21.14
10598,0.1708,-0.0367,0.9108,-5.95,8.76,-0.05,21.17
10608,0.2133,-0.0422,0.8789,-5.89,9.48,0.0,21.15
10618,0.2295,-0.0406,0.8516,-5.88,5.36,-0.02,21.13
10628,0.1794,-0.0437,0.9048,-6.02,7.53,0.02,21.18
10638,0.1727,-0.0436,0.9019,-5.98,9.3,-0.03,21.15
10648,0.2363,-0.0406,0.8513,-5.89,6.12,0.0,21.16
10658,0.1892,-0.0371,0.9005,-5.89,6.29,-0.05,21.16
10668,0.1908,-0.036,0.9088,-6.05,10.18,0.02,21.14
10678,0.2454,-0.0416,0.8685,-6.0,6.89,-0.14,21.15
10688,0.2104,-0.0428,0.8907,-5.95,5.74,-0.11,21.14
10698,0.1838,-0.0441,0.9111,-6.02,9.44,-0.06,21.17
10708,0.2255,-0.0433,0.87,-5.94,8.35,0.12,21.16
10718,0.2211,-0.0433,0.8801,-5.94,5.8,-0.09,21.17
10728,0.1826,-0.0385,0.9198,-6.06,8.53,-0.15,21.16
10738,0.2189,-0.0367,0.8813,-5.94,9.62,-0.06,21.17
10748,0.2285,-0.0406,0.8309,-5.94,5.01,-0.03,21.14
10758,0.1881,-0.0441,0.8547,-5.94,5.62,-0.02,21.15
10768,0.2063,-0.0374,0.8666,-5.97,9.34,-0.11,21.15
10778,0.2373,-0.037,0.8724,-5.94,5.74,-0.02,21.2
10788,0.1833,-0.0361,0.9294,-6.02,8.08,-0.05,21.18
10798,0.213,-0.0316,0.9199,-6.03,10.58,-0.06,21.16
10808,0.2561,-0.0322,0.8947,-5.92,5.68,-0.08,21.17
10818,0.2323,-0.0427,0.8951,-5.89,5.1,-0.12,21.17
10828,0.1946,-0.0396,0.9115,-6.06,10.53,-0.08,21.16
10838,0.2411,-0.0433,0.835,-5.94,6.81,-0.12,21.16
10848,0.1971,-0.0448,0.868,-5.98,5.91,-0.09,21.17
10858,0.1716,-0.0481,0.8976,-6.11,10.21,-0.08,21.14
10868,0.236,-0.0499,0.8396,-5.92,7.62,0.03,21.17
10878,0.2286,-0.051,0.8475,-5.91,5.31,0.09,21.16
10888,0.1759,-0.0499,0.8973,-5.94,9.86,0.0,21.17
10898,0.2302,-0.0349,0.8586,-5.86,7.76,0.06,21.14
10908,0.2144,-0.0372,0.8842,-5.91,5.15,-0.15,21.16
10918,0.1775,-0.0388,0.9204,-6.02,9.63,-0.09,21.16
10928,0.2042,-0.0392,0.9053,-5.97,10.24,-0.11,21.16
10938,0.2472,-0.0403,0.863,-5.94,6.09,-0.02,21.15
10948,0.1875,-0.0435,0.9094,-5.95,7.07,-0.08,21.16
10958,0.2334,-0.0386,0.8748,-5.91,8.2,-0.08,21.17
10968,0.2386,-0.0353,0.8619,-5.97,5.91,-0.02,21.15
10978,0.1863,-0.0374,0.9069,-6.0,7.16,0.05,21.17
10988,0.1962,-0.0367,0.8987,-6.03,10.09,-0.03,21.17
10999,0.2213,-0.0381,0.8732,-6.0,9.04,-0.06,21.17
11009,0.2328,-0.0443,0.8608,-6.05,5.1,-0.11,21.16
11019,0.1758,-0.0494,0.9105,-6.05,8.64,-0.09,21.15
11029,0.2106,-0.0515,0.8779,-6.08,9.89,-0.09,21.14
11039,0.2393,-0.0526,0.8489,-5.94,5.63,-0.05,21.16
11049,0.1904,-0.0532,0.9034,-5.92,6.69,-0.11,21.17
11059,0.1906,-0.0431,0.9092,-5.95,10.18,0.06,21.15
11069,0.2433,-0.0419,0.8596,-5.95,7.08,-0.03,21.15
11079,0.2021,-0.0392,0.8911,-5.97,5.82,-0.02,21.14
11089,0.1821,-0.0378,0.9088,-5.91,10.12,-0.03,21.16
11099,0.2377,-0.0403,0.8596,-5.95,7.45,-0.05,21.17
11109,0.2084,-0.0425,0.8889,-5.95,5.33,-0.06,21.14
11119,0.1837,-0.0378,0.915,-6.05,9.45,0.0,21.17
11129,0.2288,-0.0398,0.8745,-5.97,8.5,-0.06,21.16
11139,0.2224,-0.0438,0.8751,-6.0,5.31,-0.11,21.14
11149,0.1725,-0.0446,0.9099,-5.94,9.3,-0.03,21.16
11159,0.2208,-0.04,0.8652,-5.92,9.36,0.0,21.16
11169,0.2335,-0.0427,0.8595,-5.88,4.84,-0.12,21.16
11179,0.1732,-0.0396,0.9205,-5.98,8.55,-0.14,21.15
11189,0.2229,-0.0444,0.8806,-6.02,9.63,-0.12,21.15
11199,0.236,-0.0482,0.8633,-5.91,5.04,-0.17,21.15
11209,0.175,-0.0469,0.9139,-5.97,8.56,-0.08,21.17
11219,0.2147,-0.0459,0.8802,-5.85,9.5,0.0,21.18
11229,0.2302,-0.0435,0.8683,-5.88,5.59,-0.12,21.15
11239,0.1775,-0.0416,0.9156,-5.91,7.73,-0.06,21.16
11249,0.2069,-0.0409,0.8883,-5.97,10.02,0.02,21.16
11259,0.2367,-0.0446,0.8569,-5.91,5.59,-0.05,21.17
11269,0.1847,-0.0427,0.9023,-6.08,7.36,-0.03,21.19
11279,0.1978,-0.0457,0.8888,-5.98,9.95,-0.06,21.17
11289,0.2411,-0.0425,0.8516,-5.94,5.73,-0.02,21.17
11299,0.1842,-0.0431,0.9194,-5.95,7.08,0.0,21.16
11309,0.2034,-0.0355,0.9012,-5.94,10.27,0.05,21.16
11319,0.2476,-0.041,0.8585,-5.85,5.39,-0.06,21.16
11329,0.1802,-0.0419,0.9049,-5.97,7.18,0.0,21.17
11339,0.1959,-0.0406,0.9048,-6.11,10.63,-0.02,21.17
11349,0.241,-0.0466,0.8634,-5.91,6.14,0.03,21.19
11359,0.1853,-0.0463,0.902,-6.12,6.4,-0.17,21.19
11369,0.1788,-0.0381,0.8961,-6.11,10.49,-0.11,21.18
11379,0.2357,-0.0336,0.8473,-6.0,6.87,-0.06,21.17
11389,0.2074,-0.0436,0.8735,-6.02,5.66,-0.03,21.16
11399,0.1771,-0.0497,0.9147,-6.03,9.97,-0.02,21.2
11409,0.24,-0.0485,0.8573,-5.95,8.2,0.03,21.2
11419,0.2223,-0.0438,0.8811,-5.91,5.28,-0.09,21.19
11429,0.1816,-0.0398,0.9189,-6.02,9.25,0.02,21.17
11439,0.2301,-0.0359,0.8805,-5.98,8.99,-0.08,21.16
11449,0.231,-0.0334,0.8684,-5.88,5.28,-0.11,21.18
11459,0.1804,-0.0378,0.9104,-6.05,8.32,-0.09,21.19
11469,0.2098,-0.0354,0.8744,-5.97,9.66,-0.11,21.17
11479,0.231,-0.0393,0.8505,-5.98,5.21,-0.05,21.21
11489,0.1716,-0.0417,0.9072,-6.0,7.91,-0.15,21.18
11499,0.2018,-0.0419,0.8794,-5.95,9.91,0.02,21.21
11509,0.2313,-0.0396,0.8506,-5.86,5.22,0.03,21.18
11519,0.1752,-0.0387,0.9064,-5.97,8.02,0.0,21.2
11529,0.217,-0.0386,0.8843,-5.89,9.4,0.03,21.18
11540,0.2472,-0.0369,0.8622,-5.89,6.87,0.02,21.18
11550,0.2397,-0.0397,0.873,-5.89,5.05,-0.14,21.21
11560,0.1896,-0.0442,0.9194,-5.95,9.89,-0.08,21.17
11570,0.2172,-0.0425,0.8866,-5.97,9.91,0.02,21.18
11580,0.2104,-0.0494,0.8927,-5.98,5.76,-0.08,21.19
11590,0.1798,-0.0444,0.9089,-6.06,10.09,-0.06,21.21
11600,0.2018,-0.0387,0.884,-5.94,10.18,0.02,21.18
11610,0.2357,-0.0363,0.8503,-5.85,5.76,-0.03,21.2
11620,0.1843,-0.0392,0.9015,-5.91,7.1,0.0,21.19
11630,0.1951,-0.0378,0.8956,-6.08,10.09,0.05,21.2
11640,0.2417,-0.0389,0.855,-5.92,6.03,-0.02,21.17
11650,0.1808,-0.0408,0.9064,-6.08,7.04,-0.08,21.18
11660,0.1935,-0.0414,0.8942,-5.95,10.56,-0.08,21.19
11670,0.2395,-0.0422,0.8474,-5.92,6.31,-0.06,21.18
11680,0.1969,-0.0421,0.8978,-5.97,6.09,-0.09,21.19
11690,0.1815,-0.0421,0.9177,-6.03,10.72,0.0,21.19
11700,0.2448,-0.0431,0.8586,-5.89,7.04,-0.05,21.17
11710,0.2068,-0.0453,0.8909,-6.02,5.6,-0.02,21.21
11720,0.1791,-0.0417,0.9121,-6.03,10.23,-0.03,21.19
11730,0.2405,-0.0472,0.8547,-5.8,7.69,0.0,21.2
11740,0.2096,-0.0416,0.8872,-6.0,5.42,-0.02,21.19
11750,0.1824,-0.0359,0.9126,-5.98,10.14,-0.05,21.21
11760,0.2377,-0.0354,0.8602,-6.06,7.97,-0.09,21.19
11770,0.219,-0.0437,0.8737,-5.89,5.65,-0.02,21.19
11780,0.1763,-0.0426,0.9114,-6.0,9.13,-0.02,21.2
11791,0.1942,-0.0439,0.8961,-6.08,10.06,-0.02,21.19
11801,0.2405,-0.0449,0.853,-5.97,6.32,-0.03,21.17
11811,0.1927,-0.0422,0.9047,-5.95,6.35,-0.09,21.2
11821,0.1923,-0.0438,0.9054,-6.05,10.23,-0.11,21.19
11831,0.2379,-0.0378,0.8597,-6.02,6.69,-0.06,21.18
11841,0.1942,-0.043,0.8927,-6.0,6.49,-0.02,21.18
11851,0.1835,-0.0413,0.9032,-6.11,10.29,-0.08,21.17
11861,0.2446,-0.0439,0.8422,-6.0,6.56,-0.03,21.19
11871,0.1984,-0.0481,0.8904,-5.94,5.65,-0.05,21.21
11881,0.1833,-0.0433,0.912,-6.05,10.46,-0.05,21.21
11891,0.2428,-0.0426,0.8557,-5.83,7.24,-0.05,21.21
11901,0.2123,-0.0415,0.8835,-5.98,5.33,-0.11,21.2
11911,0.1775,-0.0408,0.9089,-6.03,9.95,-0.14,21.24
11921,0.2306,-0.0424,0.8643,-5.98,8.37,-0.06,21.2
11931,0.2241,-0.0426,0.8699,-5.92,5.05,-0.08,21.21
11941,0.1826,-0.0433,0.9095,-6.0,7.94,-0.12,21.22
11951,0.2007,-0.0444,0.8916,-5.92,9.34,-0.08,21.19
11961,0.2133,-0.0447,0.8784,-6.05,7.1,-0.06,21.19
11971,0.1982,-0.0437,0.887,-5.94,8.81,-0.02,21.19
11981,0.2343,-0.0443,0.8502,-5.98,6.6,-0.11,21.21
11991,0.1884,-0.0496,0.9044,-5.97,6.27,-0.09,21.2
12001,0.1847,-0.0449,0.9117,-6.05,10.63,0.0,21.19
12011,0.2478,-0.045,0.8632,-5.89,7.02,-0.08,21.22
12021,0.1998,-0.0475,0.8962,-5.91,5.98,-0.05,21.21
12031,0.1846,-0.0458,0.9026,-5.83,10.18,-0.06,21.21
12041,0.2341,-0.0417,0.8567,-5.79,7.37,-0.18,21.2
12051,0.1992,-0.0442,0.8848,-5.95,5.71,-0.02,21.2
12061,0.1681,-0.0389,0.917,-6.09,9.76,-0.03,21.19
12071,0.2351,-0.0369,0.8629,-5.92,7.92,-0.05,21.2
12081,0.2145,-0.043,0.8887,-5.88,5.02,-0.08,21.19
12091,0.1759,-0.0376,0.9196,-6.02,10.32,-0.12,21.19
12101,0.2408,-0.0361,0.8605,-5.88,7.8,-0.09,21.22
12111,0.2126,-0.0432,0.8784,-5.92,4.84,-0.15,21.18
12121,0.1772,-0.0457,0.9137,-6.08,9.5,-0.05,21.17
12131,0.217,-0.045,0.8735,-6.02,9.27,-0.02,21.2
12141,0.2329,-0.0465,0.8567,-5.91,5.45,-0.06,21.2
12152,0.2083,-0.0466,0.8894,-5.86,5.48,-0.08,21.21
12162,0.1788,-0.0452,0.9188,-6.02,10.41,-0.05,21.2
12172,0.2378,-0.0443,0.8643,-5.82,7.85,-0.02,21.2
12182,0.2144,-0.0417,0.8875,-5.83,5.66,-0.08,21.17
12192,0.1848,-0.0427,0.9191,-6.03,9.07,0.03,21.2
12202,0.1973,-0.0417,0.9009,-6.03,9.76,0.02,21.2
12212,0.2288,-0.0392,0.863,-6.09,7.25,-0.06,21.18
12222,0.197,-0.0406,0.8822,-5.95,6.14,-0.08,21.19
12232,0.1752,-0.0392,0.8969,-6.0,9.83,-0.02,21.19
12242,0.229,-0.0406,0.8542,-5.89,7.27,-0.12,21.21
12252,0.1964,-0.0419,0.8884,-5.83,6.05,-0.06,21.19
12262,0.1912,-0.0457,0.9077,-5.95,10.08,0.02,21.19
12272,0.243,-0.0422,0.8644,-5.91,6.99,0.05,21.2
12282,0.2035,-0.0439,0.8998,-5.89,6.24,-0.02,21.22
12292,0.1897,-0.0375,0.9097,-5.97,9.88,0.03,21.21
12302,0.2446,-0.0375,0.8611,-5.85,7.21,0.05,21.22
12312,0.2078,-0.0405,0.9015,-5.97,5.73,-0.08,21.19
12322,0.1914,-0.0453,0.9176,-5.97,10.95,0.02,21.2
12332,0.2522,-0.0474,0.8597,-5.86,6.46,-0.09,21.22
12342,0.1969,-0.0468,0.892,-5.86,6.5,-0.08,21.22
12352,0.1797,-0.0488,0.8975,-5.92,10.02,-0.03,21.21
12362,0.2185,-0.0479,0.8455,-5.85,7.94,-0.02,21.21
12372,0.196,-0.0464,0.8671,-5.86,5.97,-0.03,21.19
12382,0.1729,-0.043,0.9006,-5.89,9.15,0.03,21.2
12392,0.2227,-0.0397,0.8594,-5.88,8.17,-0.06,21.2
12402,0.2026,-0.0334,0.8843,-5.83,5.69,0.02,21.18
12412,0.1771,-0.0328,0.9132,-5.85,9.86,-0.08,21.21
12422,0.2411,-0.0371,0.8647,-5.82,7.56,-0.11,21.17
12432,0.2131,-0.0369,0.8942,-5.8,5.37,-0.17,21.2
12442,0.1849,-0.0394,0.9279,-5.94,9.97,-0.08,21.21
12452,0.2391,-0.0409,0.8795,-5.89,8.37,-0.03,21.21
12463,0.2446,-0.0416,0.8729,-5.88,6.56,-0.09,21.22
12473,0.1989,-0.0452,0.8979,-5.89,7.05,-0.11,21.22
12483,0.1881,-0.042,0.8923,-5.97,9.88,-0.08,21.23
12493,0.2318,-0.0372,0.8491,-5.91,7.89,0.02,21.2
12503,0.2205,-0.0403,0.8634,-5.91,5.04,-0.12,21.2
12513,0.1715,-0.047,0.9174,-5.95,8.67,-0.09,21.19
12523,0.2091,-0.0425,0.8898,-6.03,9.82,-0.08,21.21
12533,0.2404,-0.0461,0.8622,-5.88,5.37,-0.02,21.23
12543,0.1763,-0.0505,0.9128,-6.0,8.21,-0.05,21.19
12553,0.2073,-0.0426,0.884,-5.92,10.12,0.0,21.24
12563,0.2396,-0.0406,0.8558,-5.89,5.66,-0.11,21.2
12573,0.1891,-0.0376,0.9108,-5.94,7.18,0.05,21.22
12583,0.1995,-0.0371,0.9048,-5.89,10.29,0.02,21.19
12593,0.2407,-0.0393,0.8619,-5.95,6.43,0.02,21.2
12603,0.1871,-0.0453,0.9006,-5.83,6.7,-0.03,21.21
12613,0.1865,-0.0378,0.89,-5.97,10.5,-0.03,21.22
12623,0.239,-0.0389,0.8551,-5.86,6.67,-0.02,21.22
12633,0.1984,-0.0365,0.8961,-6.03,5.88,-0.06,21.22
12643,0.1807,-0.0399,0.9094,-6.09,10.35,-0.11,21.2
12653,0.2362,-0.0377,0.8533,-5.89,7.63,-0.02,21.23
12663,0.2101,-0.0424,0.8811,-6.02,5.62,-0.18,21.22
12673,0.1832,-0.0421,0.9106,-6.06,9.47,-0.03,21.22
12683,0.2255,-0.0424,0.8613,-6.02,8.47,-0.02,21.21
12693,0.2189,-0.0447,0.8679,-6.02,5.65,-0.06,21.2
12703,0.182,-0.0431,0.9041,-6.06,8.37,0.0,21.21
12713,0.2192,-0.042,0.8892,-5.91,8.69,-0.02,21.2
12723,0.2318,-0.0399,0.8838,-5.97,5.85,-0.03,21.22
12733,0.1913,-0.0382,0.9154,-6.03,7.73,-0.05,21.22
12743,0.2054,-0.0466,0.8958,-5.97,9.44,-0.08,21.21
12753,0.2334,-0.0427,0.8612,-5.97,6.7,-0.06,21.24
12763,0.1998,-0.0431,0.8937,-6.02,6.92,-0.06,21.19
12773,0.1987,-0.0441,0.8905,-6.0,8.99,-0.02,21.21
12783,0.2322,-0.0433,0.8634,-6.06,6.7,-0.05,21.2
12793,0.1941,-0.0459,0.9014,-5.98,6.69,-0.02,21.21
12803,0.1875,-0.0431,0.9003,-5.95,9.91,-0.06,21.23
12813,0.238,-0.0435,0.8522,-5.95,7.11,-0.15,21.22
12823,0.202,-0.0393,0.8762,-5.97,5.88,0.0,21.21
12833,0.1847,-0.0457,0.901,-5.95,8.92,-0.05,21.22
12843,0.1975,-0.0468,0.8948,-5.91,9.37,-0.05,21.21
12853,0.2346,-0.0433,0.8672,-5.89,7.05,-0.09,21.21
12863,0.2072,-0.0455,0.8899,-5.92,5.91,-0.05,21.21
12873,0.1769,-0.0428,0.9128,-6.03,9.88,-0.02,21.23
12883,0.2264,-0.0347,0.8712,-5.89,8.52,-0.06,21.21
12893,0.2283,-0.0399,0.8752,-6.0,5.1,-0.12,21.21
12903,0.1863,-0.0397,0.9163,-5.88,7.68,-0.05,21.22
12913,0.2063,-0.0437,0.9028,-6.02,9.69,0.02,21.25
12923,0.2333,-0.0428,0.8667,-6.02,7.05,-0.08,21.22
12933,0.2145,-0.0441,0.8789,-5.94,6.14,-0.03,21.21
12943,0.1875,-0.0433,0.8988,-5.97,8.66,-0.06,21.21
12953,0.21,-0.0433,0.8771,-6.09,9.02,0.0,21.23
12963,0.2336,-0.0436,0.8542,-5.91,6.14,-0.12,21.21
12973,0.1903,-0.046,0.8992,-5.86,6.46,-0.06,21.23
12983,0.1913,-0.0421,0.9031,-5.83,9.69,0.0,21.22
12993,0.2283,-0.0446,0.8796,-6.0,7.27,-0.03,21.21
13003,0.2104,-0.0432,0.8861,-5.97,6.6,-0.08,21.21
13013,0.1898,-0.046,0.8949,-5.95,7.97,-0.02,21.2
13023,0.2079,-0.0464,0.8788,-6.02,8.89,-0.08,21.22
13033,0.23,-0.0428,0.86,-5.82,6.12,-0.08,21.2
13043,0.1899,-0.0404,0.9109,-5.8,6.84,-0.09,21.23
13053,0.1844,-0.0391,0.9131,-6.09,10.31,-0.05,21.21
13063,0.24,-0.0396,0.8618,-5.94,7.21,-0.06,21.21
13073,0.1995,-0.0414,0.8868,-5.98,5.42,-0.12,21.21
13083,0.1775,-0.0435,0.9069,-6.02,10.73,-0.09,21.22
13093,0.2407,-0.0403,0.8553,-5.97,7.25,-0.08,21.22
13103,0.2126,-0.04,0.8861,-6.02,5.11,-0.02,21.22
13113,0.1748,-0.0417,0.9182,-6.02,9.97,-0.03,21.22
13123,0.2291,-0.0386,0.8727,-6.0,8.46,-0.02,21.22
13133,0.2252,-0.0498,0.8682,-5.89,5.33,-0.12,21.23
13143,0.1666,-0.047,0.9127,-5.89,9.39,-0.08,21.22
13153,0.2173,-0.0432,0.8722,-6.08,9.13,-0.03,21.21
13163,0.2339,-0.0463,0.8612,-5.92,5.88,-0.06,21.22
13173,0.1891,-0.0417,0.9025,-6.03,7.04,-0.02,21.2
13183,0.196,-0.0441,0.8989,-5.98,9.69,0.0,21.22
13193,0.2292,-0.0408,0.865,-5.91,7.01,-0.09,21.22
13203,0.205,-0.0411,0.8909,-5.92,6.58,-0.03,21.19
13213,0.1959,-0.0392,0.8972,-6.0,8.87,0.02,21.22
13223,0.2227,-0.0397,0.8658,-5.98,7.65,-0.03,21.22
13233,0.2072,-0.0354,0.8831,-6.06,5.98,-0.08,21.2
13243,0.1841,-0.0365,0.9099,-6.08,8.98,-0.05,21.22
13253,0.228,-0.0377,0.882,-6.03,8.43,-0.06,21.22
13264,0.2385,-0.0377,0.8666,-6.05,7.19,-0.05,21.22
13274,0.2173,-0.0422,0.8789,-6.05,5.79,-0.05,21.21
13284,0.1771,-0.0487,0.9102,-6.02,8.76,-0.06,21.24
13294,0.2142,-0.042,0.8751,-6.02,10.12,-0.05,21.25
13304,0.2372,-0.0454,0.848,-5.85,4.64,-0.02,21.24
13314,0.1788,-0.0452,0.9132,-6.06,7.73,-0.02,21.21
13324,0.2073,-0.0408,0.8972,-5.98,9.86,0.02,21.22
13334,0.2382,-0.0355,0.8644,-5.91,5.88,-0.08,21.2
13344,0.1899,-0.0435,0.9019,-5.86,7.04,0.0,21.22
13354,0.1876,-0.0452,0.8947,-5.98,10.03,0.02,21.22
13364,0.2351,-0.0415,0.8556,-6.02,7.91,-0.02,21.25
13374,0.2129,-0.0409,0.8776,-6.0,5.47,0.0,21.23
13384,0.1759,-0.0375,0.9176,-5.98,8.92,-0.08,21.25
13394,0.2164,-0.0391,0.8795,-6.09,9.07,0.0,21.24
13404,0.2319,-0.0386,0.8687,-5.92,7.28,0.0,21.23
13414,0.1848,-0.0417,0.9117,-5.95,8.2,-0.06,21.23
13424,0.207,-0.0417,0.8796,-5.95,9.51,-0.09,21.24
13434,0.2252,-0.0465,0.861,-5.97,7.01,-0.09,21.25
13444,0.2032,-0.0465,0.8799,-6.02,6.6,0.02,21.23
13454,0.1893,-0.0393,0.8989,-5.97,8.43,0.0,21.24
13464,0.1876,-0.0391,0.9038,-5.91,8.75,-0.06,21.27
13474,0.2323,-0.0377,0.8707,-6.03,6.84,-0.09,21.23
13484,0.2269,-0.0372,0.8826,-6.03,5.79,-0.08,21.22
13494,0.1893,-0.0405,0.9078,-6.14,9.8,-0.03,21.23
13504,0.2115,-0.043,0.8866,-6.03,9.22,0.03,21.24
13514,0.2153,-0.0415,0.8751,-6.03,7.34,0.02,21.23
13524,0.2079,-0.0405,0.8792,-5.92,8.12,-0.14,21.24
13534,0.22,-0.0393,0.8726,-6.03,6.78,-0.02,21.25
13544,0.2032,-0.0417,0.8938,-6.05,6.53,-0.02,21.24
13554,0.1851,-0.0382,0.907,-6.03,9.4,-0.02,21.24
13564,0.2333,-0.0413,0.8696,-6.0,8.29,-0.02,21.23
13574,0.2228,-0.0387,0.8712,-5.95,5.54,-0.08,21.24
13584,0.1736,-0.0439,0.9108,-5.91,9.21,-0.12,21.25
13594,0.2113,-0.0436,0.8779,-5.94,9.3,-0.05,21.24
13604,0.2334,-0.0444,0.8628,-5.89,5.94,-0.03,21.25
13614,0.1938,-0.0463,0.8998,-5.89,6.81,-0.14,21.26
13624,0.1893,-0.0458,0.9056,-5.89,9.59,0.03,21.24
13634,0.2328,-0.0403,0.8715,-5.95,7.92,-0.03,21.24
13644,0.2202,-0.0457,0.8772,-5.97,5.45,-0.18,21.24
13654,0.1697,-0.0465,0.9222,-5.98,9.44,-0.02,21.24
13664,0.2213,-0.0427,0.8739,-5.97,9.48,-0.02,21.24
13674,0.2351,-0.0422,0.8574,-5.94,7.56,-0.05,21.22
13684,0.1893,-0.0446,0.9005,-6.0,6.81,-0.15,21.24
13694,0.1901,-0.043,0.9111,-5.97,9.74,0.02,21.22
13704,0.2106,-0.0394,0.8926,-5.97,9.34,0.03,21.26
13714,0.2211,-0.0415,0.884,-5.94,5.89,-0.09,21.24
13724,0.1813,-0.0419,0.9078,-5.97,8.66,0.0,21.24
13734,0.2029,-0.0396,0.8787,-5.98,9.73,-0.08,21.23
13744,0.2373,-0.0408,0.8536,-5.82,5.59,-0.02,21.24
13754,0.1892,-0.0398,0.9065,-5.94,6.69,-0.03,21.24
13764,0.1782,-0.0405,0.913,-5.92,8.47,0.0,21.23
13774,0.2301,-0.0444,0.8661,-5.95,7.57,0.0,21.24
13784,0.209,-0.0433,0.8877,-5.92,5.79,-0.06,21.24
13794,0.1765,-0.0435,0.9127,-6.0,9.69,-0.05,21.24
13804,0.2207,-0.0452,0.8702,-5.91,8.81,-0.06,21.24
13814,0.2258,-0.047,0.8625,-6.05,6.02,-0.05,21.22
13824,0.1962,-0.0452,0.8948,-5.97,7.01,-0.03,21.22
13834,0.1881,-0.0415,0.9048,-5.97,9.31,-0.08,21.24
13844,0.2242,-0.0405,0.8802,-6.0,8.34,-0.09,21.24
13854,0.2242,-0.0387,0.8792,-6.02,6.09,-0.09,21.24
13864,0.1881,-0.0433,0.9054,-5.92,8.03,0.02,21.26
13874,0.1938,-0.0424,0.8879,-6.08,9.54,0.0,21.24
13884,0.2274,-0.0437,0.8645,-6.03,7.28,0.05,21.27
13894,0.2104,-0.0425,0.8799,-5.97,5.73,-0.12,21.25
13904,0.1752,-0.0392,0.9192,-5.92,9.04,0.02,21.24
13914,0.2124,-0.0374,0.8816,-6.08,9.57,-0.05,21.25
13924,0.2343,-0.0359,0.8655,-6.09,5.8,-0.06,21.26
13934,0.1897,-0.0432,0.9026,-6.02,7.16,0.05,21.24
13944,0.1841,-0.0466,0.9111,-5.97,8.69,-0.06,21.23
13954,0.2289,-0.0448,0.8601,-5.83,7.73,-0.05,21.26
13964,0.2225,-0.0426,0.8638,-5.94,5.47,-0.14,21.23
13974,0.1818,-0.0424,0.9073,-5.85,7.54,0.0,21.27
13985,0.1921,-0.0452,0.8962,-5.89,6.64,0.03,21.24
13995,0.2114,-0.0414,0.8939,-6.06,9.28,0.0,21.26
14005,0.2327,-0.038,0.8734,-6.0,6.73,-0.03,21.28
14015,0.2083,-0.0402,0.8961,-5.92,6.53,-0.05,21.23
14025,0.1831,-0.0439,0.9039,-5.95,8.99,-0.05,21.25
14035,0.2161,-0.0416,0.8746,-5.89,9.07,-0.09,21.28
14045,0.231,-0.0381,0.8584,-5.94,5.98,-0.06,21.25
14055,0.1971,-0.0404,0.8966,-5.91,6.56,-0.02,21.27
14065,0.1887,-0.0355,0.9056,-6.08,9.53,-0.12,21.27
14075,0.2332,-0.0337,0.8693,-6.08,7.89,-0.03,21.24
14085,0.2238,-0.0399,0.8759,-5.89,5.25,-0.08,21.29
14095,0.1733,-0.0411,0.9087,-5.97,8.72,-0.02,21.25
14105,0.1851,-0.0415,0.9022,-5.89,10.05,0.03,21.25
14115,0.2312,-0.0435,0.8602,-5.88,7.86,-0.03,21.23
14125,0.2118,-0.0447,0.876,-5.92,5.71,-0.06,21.24
14135,0.1868,-0.0442,0.902,-5.95,8.49,-0.11,21.27
14145,0.2058,-0.041,0.8835,-5.97,9.22,-0.02,21.25
14155,0.2325,-0.0397,0.8705,-5.97,6.55,-0.02,21.27
14165,0.2007,-0.0415,0.8925,-5.98,6.32,-0.08,21.26
14175,0.1798,-0.0424,0.9091,-5.98,9.71,-0.05,21.24
14186,0.1942,-0.0439,0.8983,-6.05,9.82,0.03,21.25
14196,0.2285,-0.0398,0.8619,-6.05,7.66,-0.06,21.24
14206,0.2189,-0.0406,0.8717,-5.88,5.16,-0.11,21.24
14216,0.1769,-0.0348,0.9152,-5.95,8.61,0.05,21.25
14226,0.214,-0.0372,0.8881,-6.08,9.47,0.02,21.27
14236,0.2419,-0.038,0.8646,-6.06,5.85,0.02,21.29
14246,0.1935,-0.0431,0.8998,-5.95,6.66,-0.06,21.26
14256,0.1796,-0.0436,0.9034,-6.05,10.09,-0.03,21.26
14266,0.2329,-0.0389,0.8516,-5.94,7.85,-0.05,21.24
14289,0.2401,-0.0459,0.8525,-5.94,6.58,0.02,21.25
14299,0.2068,-0.0439,0.889,-5.95,5.68,-0.17,21.27
14309,0.1814,-0.0439,0.9182,-6.06,9.33,-0.03,21.26
14319,0.2214,-0.0406,0.8826,-5.97,9.05,-0.03,21.25
14329,0.2316,-0.0435,0.8665,-5.94,5.76,-0.09,21.25
14339,0.1824,-0.0398,0.8984,-5.94,7.86,-0.03,21.24
14349,0.2052,-0.0406,0.88,-5.92,9.54,-0.03,21.27
14359,0.2321,-0.0438,0.8605,-5.92,5.6,-0.12,21.24
14369,0.1862,-0.0387,0.9126,-5.95,7.36,-0.12,21.23
14379,0.2034,-0.042,0.8986,-6.06,10.03,-0.08,21.24
14389,0.2401,-0.042,0.8612,-5.92,6.31,-0.08,21.26
14400,0.2219,-0.0465,0.8783,-5.98,5.69,-0.06,21.26
14410,0.1791,-0.0463,0.9056,-6.0,8.89,0.0,21.27
14420,0.2104,-0.043,0.8778,-5.97,9.54,-0.03,21.26
14430,0.236,-0.0391,0.854,-5.97,5.76,-0.02,21.26
14440,0.1892,-0.0428,0.8989,-6.0,6.64,-0.09,21.26
14450,0.1849,-0.0404,0.9059,-6.02,10.2,-0.05,21.27
14460,0.2402,-0.0399,0.8652,-5.95,7.11,-0.08,21.25
14470,0.2092,-0.0453,0.8822,-5.95,5.63,-0.08,21.26
14480,0.1743,-0.0444,0.9131,-6.05,9.62,-0.03,21.25
14492,0.1743,-0.0469,0.9087,-5.97,8.9,0.02,21.26
14502,0.2102,-0.0442,0.8783,-6.03,9.45,-0.05,21.25
14512,0.235,-0.0411,0.8567,-6.02,5.69,-0.03,21.26
14522,0.1836,-0.0413,0.912,-5.89,7.04,-0.12,21.27
14532,0.189,-0.0397,0.9065,-6.06,10.63,-0.09,21.25
14542,0.2429,-0.0409,0.8577,-6.02,6.96,-0.08,21.27
14552,0.2013,-0.0457,0.8844,-5.85,5.85,0.02,21.28
14562,0.1816,-0.0432,0.9021,-6.02,9.37,0.11,21.25
14572,0.2258,-0.0398,0.8679,-5.91,8.81,0.03,21.27
14582,0.2284,-0.0389,0.873,-5.94,5.02,-0.03,21.25
14592,0.1737,-0.041,0.9209,-5.95,8.44,-0.09,21.26
14602,0.2131,-0.0406,0.887,-5.98,10.11,-0.03,21.27
14612,0.2385,-0.0428,0.8516,-5.89,5.42,-0.06,21.25
14622,0.1727,-0.0441,0.9132,-6.02,8.21,-0.02,21.29
14632,0.2174,-0.0375,0.8716,-5.97,9.69,-0.03,21.24
14642,0.2316,-0.0399,0.8635,-5.94,4.96,-0.09,21.26
14652,0.1865,-0.0404,0.9146,-6.11,7.63,-0.09,21.26
14662,0.2019,-0.0372,0.9064,-5.94,10.05,-0.09,21.28
14672,0.2412,-0.0399,0.8602,-5.91,7.01,0.02,21.28
14682,0.2025,-0.0432,0.8879,-5.94,5.89,0.03,21.28
14692,0.1833,-0.0411,0.9048,-6.03,10.03,-0.02,21.26
14702,0.2396,-0.038,0.8499,-5.91,7.08,-0.09,21.26
14712,0.2,-0.0403,0.8856,-5.98,5.76,-0.12,21.28
14722,0.1779,-0.0416,0.9113,-5.95,7.77,-0.02,21.26
14732,0.2397,-0.038,0.8655,-5.94,7.31,-0.12,21.27
14742,0.214,-0.0416,0.8838,-5.82,5.54,-0.12,21.28
14752,0.2036,-0.0415,0.89,-5.89,6.46,-0.03,21.26
14762,0.1881,-0.0419,0.905,-5.97,9.39,-0.03,21.25
14772,0.2312,-0.0393,0.8601,-5.92,8.24,0.03,21.25
14782,0.2244,-0.0388,0.869,-6.0,4.75,-0.02,21.25
14792,0.17,-0.0376,0.9275,-5.97,9.3,-0.09,21.26
14802,0.226,-0.0364,0.8752,-6.08,9.33,0.0,21.27
14812,0.2383,-0.0367,0.8636,-5.89,5.11,-0.05,21.27
14822,0.1788,-0.0428,0.9125,-6.0,8.02,-0.05,21.27
14832,0.2007,-0.0387,0.8837,-6.02,9.92,-0.03,21.25
14842,0.2362,-0.0405,0.8567,-6.03,6.15,-0.05,21.27
14852,0.1935,-0.0397,0.8962,-6.02,6.6,0.0,21.27
14862,0.197,-0.0376,0.902,-6.03,9.31,-0.02,21.26
14872,0.2345,-0.0417,0.8688,-5.88,7.08,-0.12,21.25
14882,0.1927,-0.0469,0.8971,-5.91,6.92,-0.12,21.25
14892,0.1926,-0.0443,0.8868,-5.97,9.74,0.02,21.28
14902,0.2334,-0.0439,0.8625,-5.91,6.67,-0.12,21.27
14912,0.192,-0.042,0.8973,-6.05,6.44,-0.05,21.27
14922,0.1825,-0.0405,0.9169,-6.0,10.35,-0.05,21.26
14932,0.2325,-0.0344,0.8651,-5.98,7.91,-0.11,21.27
14942,0.2158,-0.0396,0.8795,-5.88,5.28,-0.03,21.27
14952,0.1715,-0.041,0.9172,-5.95,9.39,-0.03,21.28
14962,0.2218,-0.0391,0.8674,-5.91,8.92,-0.05,21.27
14972,0.2251,-0.0405,0.8632,-5.92,5.42,-0.05,21.27
14982,0.1823,-0.0416,0.915,-5.91,8.0,0.02,21.28
14992,0.2018,-0.0372,0.8953,-6.0,10.08,0.0,21.27
15002,0.2462,-0.0397,0.8604,-5.91,6.11,-0.08,21.26
15012,0.2214,-0.0419,0.876,-5.89,5.33,-0.06,21.29
15022,0.1946,-0.045,0.8949,-6.03,10.31,0.02,21.27
15032,0.2445,-0.0436,0.8503,-6.0,6.7,-0.12,21.26
15042,0.1996,-0.0408,0.8945,-5.89,5.97,-0.03,21.24
15052,0.187,-0.0399,0.9104,-6.03,10.15,0.0,21.25
15062,0.2426,-0.0409,0.858,-6.05,6.79,-0.12,21.27
15072,0.2386,-0.0441,0.8634,-5.91,5.37,-0.12,21.28
15082,0.1809,-0.0436,0.9041,-5.97,9.82,-0.06,21.28
15092,0.2351,-0.0394,0.8596,-5.94,7.57,-0.03,21.26
15102,0.2135,-0.0382,0.8842,-5.97,5.5,-0.02,21.28
15112,0.1937,-0.0385,0.9115,-6.05,8.67,-0.15,21.27
15122,0.234,-0.0409,0.8651,-5.95,7.8,-0.12,21.29
15132,0.2343,-0.0408,0.8636,-6.05,5.89,-0.02,21.27
15142,0.1803,-0.0454,0.9031,-5.91,9.44,-0.05,21.29
15152,0.2253,-0.0435,0.8619,-5.95,8.2,-0.03,21.3
15162,0.2263,-0.045,0.8707,-5.98,5.76,-0.05,21.29
15172,0.1893,-0.045,0.9059,-5.8,7.07,-0.05,21.27
15182,0.1906,-0.0376,0.903,-6.03,10.26,-0.08,21.27
15192,0.2225,-0.0426,0.8805,-6.08,9.3,0.02,21.27
15202,0.1982,-0.0447,0.9008,-6.03,6.18,-0.06,21.26
15212,0.1815,-0.047,0.9094,-5.91,10.38,-0.06,21.27
15222,0.2301,-0.0392,0.853,-5.91,8.34,-0.02,21.27
15232,0.222,-0.0435,0.8595,-5.85,4.85,-0.08,21.25
15242,0.1752,-0.0413,0.9126,-6.0,8.03,-0.08,21.27
15252,0.1785,-0.0371,0.915,-5.95,9.28,-0.06,21.27
15262,0.2369,-0.0372,0.8667,-6.0,6.5,-0.06,21.27
15272,0.1975,-0.0393,0.8984,-6.05,6.72,0.02,21.27
15282,0.181,-0.0428,0.9022,-5.95,10.26,0.0,21.28
15292,0.2296,-0.0376,0.8507,-6.02,8.06,-0.08,21.28
15302,0.2231,-0.0386,0.8634,-5.92,4.87,-0.09,21.29
15312,0.2014,-0.0405,0.89,-5.91,5.56,-0.05,21.28
15322,0.2006,-0.0385,0.8997,-6.12,10.08,-0.02,21.29
15332,0.2421,-0.0371,0.8589,-6.05,6.03,-0.05,21.27
15342,0.1917,-0.047,0.9015,-5.98,6.76,0.03,21.29
15352,0.1852,-0.0426,0.8947,-6.05,10.35,-0.02,21.27
15362,0.2039,-0.0463,0.8822,-5.94,9.62,0.0,21.29
15372,0.2332,-0.0419,0.8516,-6.0,6.27,0.02,21.26
15382,0.1995,-0.0479,0.8939,-5.92,6.31,0.03,21.31
15392,0.1843,-0.0448,0.9091,-6.02,9.19,0.0,21.3
15402,0.2249,-0.0409,0.874,-5.92,8.24,0.09,21.29
15412,0.2244,-0.0455,0.8843,-5.98,5.85,-0.05,21.29
15422,0.184,-0.0435,0.9083,-5.97,8.89,0.0,21.28
15432,0.223,-0.0453,0.877,-5.94,9.36,-0.09,21.3
15442,0.226,-0.0402,0.8596,-5.94,5.71,-0.08,21.28
15452,0.191,-0.0382,0.897,-6.0,7.22,-0.03,21.26
15462,0.1962,-0.037,0.8971,-5.94,9.33,-0.05,21.28
15472,0.234,-0.0366,0.8702,-5.95,7.04,0.06,21.29
15482,0.2122,-0.0381,0.887,-5.88,5.88,0.0,21.28
15492,0.1937,-0.0386,0.903,-5.86,6.89,-0.09,21.29
15502,0.2123,-0.0419,0.8787,-5.97,9.5,-0.09,21.26
15513,0.2271,-0.0415,0.8525,-5.98,7.94,-0.06,21.25
15523,0.2161,-0.0455,0.8733,-5.95,5.21,-0.11,21.28
15533,0.1802,-0.043,0.9222,-6.05,8.6,-0.09,21.28
15543,0.2118,-0.0415,0.8954,-5.95,9.69,-0.05,21.31
15553,0.2352,-0.0396,0.8652,-5.92,6.34,-0.08,21.28
15563,0.1938,-0.0397,0.8894,-5.98,6.82,-0.12,21.27
15573,0.1938,-0.0449,0.8966,-5.97,9.37,0.08,21.27
15583,0.2333,-0.0413,0.8645,-5.94,7.02,-0.02,21.28
15593,0.2078,-0.0422,0.8912,-5.88,6.12,-0.02,21.29
15603,0.1842,-0.0427,0.9135,-5.94,9.13,0.0,21.29
15614,0.1979,-0.0402,0.8979,-6.0,9.66,-0.02,21.27
15624,0.2222,-0.0398,0.8739,-5.88,8.99,-0.03,21.27
15634,0.2073,-0.0427,0.8826,-5.83,6.09,-0.05,21.28
15644,0.1799,-0.0389,0.9072,-6.05,9.5,0.02,21.29
15654,0.2262,-0.0385,0.8643,-6.03,8.37,-0.08,21.27
15664,0.2181,-0.0391,0.8689,-5.89,5.33,-0.11,21.28
15674,0.1752,-0.0394,0.9138,-5.89,8.47,0.0,21.3
15684,0.1809,-0.041,0.9124,-6.03,10.08,-0.03,21.3
15694,0.24,-0.0398,0.8633,-5.95,5.51,0.0,21.27
15704,0.1864,-0.0437,0.8998,-6.02,7.05,0.05,21.27
15714,0.1804,-0.0432,0.9026,-5.89,8.67,-0.08,21.28
15724,0.233,-0.0396,0.8499,-5.92,6.7,-0.03,21.31
15734,0.2063,-0.0389,0.8884,-5.82,5.92,0.02,21.29
15744,0.1902,-0.0378,0.9043,-6.0,7.01,-0.06,21.28
15754,0.2172,-0.0342,0.8914,-6.11,9.21,-0.05,21.27
15764,0.2354,-0.0371,0.8705,-6.03,5.83,-0.09,21.28
15774,0.1869,-0.0438,0.9091,-6.06,7.66,0.0,21.29
15784,0.1941,-0.042,0.8916,-6.08,10.31,-0.02,21.3
15794,0.238,-0.0408,0.847,-5.94,6.75,-0.03,21.28
15804,0.2019,-0.0421,0.8794,-6.0,5.76,-0.05,21.29
15814,0.1812,-0.042,0.908,-5.97,8.82,0.11,21.26
15824,0.2134,-0.0389,0.8872,-6.08,8.72,-0.02,21.3
15834,0.2273,-0.0377,0.8795,-5.97,6.63,0.03,21.28
15844,0.2015,-0.0391,0.8984,-6.03,7.27,-0.05,21.29
15854,0.2013,-0.047,0.894,-6.03,8.76,-0.03,21.29
15864,0.2041,-0.0458,0.8909,-6.03,8.17,-0.08,21.29
15874,0.2134,-0.0483,0.8713,-5.94,8.32,-0.11,21.29
15884,0.2183,-0.0481,0.8655,-5.82,7.13,-0.14,21.3
15894,0.2083,-0.0442,0.8706,-5.89,6.93,-0.14,21.31
15904,0.1968,-0.0425,0.8905,-5.86,7.45,-0.08,21.3
15914,0.2024,-0.0333,0.8964,-5.98,7.86,-0.09,21.3
15924,0.2024,-0.0344,0.8947,-5.89,7.92,-0.09,21.29
15934,0.2104,-0.0396,0.8984,-5.91,7.82,-0.05,21.28
15944,0.2172,-0.0389,0.8914,-5.92,7.97,-0.02,21.29
15954,0.2205,-0.0417,0.8827,-5.92,7.21,0.02,21.27
15964,0.2083,-0.0447,0.8875,-6.03,7.24,-0.08,21.28
15974,0.2012,-0.0446,0.8885,-6.0,8.63,-0.11,21.31
15984,0.2019,-0.0442,0.8861,-5.95,8.6,-0.05,21.3
15994,0.2119,-0.0455,0.8695,-5.92,8.34,-0.09,21.31
16004,0.2057,-0.0417,0.8777,-5.95,6.73,-0.06,21.29
16014,0.1946,-0.0404,0.8894,-6.0,7.98,-0.06,21.31
16024,0.2067,-0.0413,0.8789,-5.97,7.92,-0.06,21.29
16034,0.2036,-0.0399,0.8842,-6.05,7.1,0.03,21.32
16044,0.1954,-0.0363,0.9033,-5.92,8.41,-0.02,21.3
16054,0.2185,-0.0333,0.8834,-6.02,7.88,0.0,21.29
16064,0.2172,-0.036,0.89,-5.94,6.69,-0.08,21.3
16074,0.1941,-0.0416,0.9064,-6.05,8.46,-0.17,21.3
16084,0.2167,-0.0427,0.8845,-5.95,8.63,-0.11,21.31
16094,0.2218,-0.0477,0.8776,-6.06,7.07,-0.03,21.29
16104,0.223,-0.046,0.8728,-6.02,6.89,0.05,21.29
16114,0.1857,-0.0459,0.8864,-5.98,8.43,-0.06,21.28
16124,0.2054,-0.0487,0.8734,-5.95,8.52,-0.03,21.29
16134,0.2279,-0.0432,0.8594,-6.02,5.98,0.03,21.3
16144,0.1882,-0.0367,0.9031,-5.92,6.85,-0.06,21.29
16154,0.1886,-0.036,0.9105,-6.0,9.74,-0.02,21.27
16164,0.2346,-0.0382,0.8718,-6.02,7.85,-0.14,21.31
16174,0.2246,-0.0443,0.8818,-5.98,5.63,0.0,21.32
16184,0.189,-0.0526,0.9088,-5.97,8.2,-0.09,21.29
16194,0.2025,-0.0525,0.8899,-5.91,9.79,-0.02,21.28
16204,0.2286,-0.0474,0.8588,-6.05,7.21,-0.11,21.31
16214,0.2078,-0.0488,0.8762,-5.86,6.56,-0.12,21.34
16224,0.2017,-0.045,0.8881,-5.89,7.6,-0.02,21.3
16234,0.2151,-0.0409,0.876,-5.92,7.65,-0.06,21.3
16244,0.1997,-0.035,0.8939,-5.89,7.02,0.03,21.29
16254,0.1897,-0.0383,0.9065,-5.83,9.16,-0.06,21.29
16264,0.2142,-0.0402,0.8864,-5.94,8.21,-0.05,21.31
16274,0.2196,-0.0393,0.8805,-5.91,7.01,-0.08,21.29
16284,0.2151,-0.0413,0.8875,-5.94,6.58,-0.11,21.3
16294,0.1951,-0.0474,0.8973,-5.97,8.9,-0.05,21.3
16304,0.2124,-0.0446,0.8776,-5.95,8.21,0.08,21.3
16314,0.2118,-0.0441,0.8802,-6.0,7.07,-0.12,21.29
16324,0.2035,-0.0391,0.8916,-5.98,8.14,0.12,21.31
16334,0.2112,-0.0396,0.8744,-6.0,8.02,0.14,21.3
16344,0.2136,-0.0464,0.8701,-5.92,8.08,0.05,21.3
16354,0.1934,-0.045,0.8981,-5.97,6.89,-0.2,21.31
16364,0.1915,-0.0409,0.902,-5.98,9.37,-0.05,21.32
16374,0.2253,-0.0466,0.8718,-6.03,8.18,-0.05,21.31
16384,0.2191,-0.047,0.8701,-6.0,5.89,-0.12,21.29
16394,0.1892,-0.0453,0.9028,-5.88,8.17,-0.08,21.29
16404,0.1952,-0.0404,0.8932,-6.03,8.38,0.05,21.32
16414,0.2167,-0.0348,0.8835,-6.06,6.98,0.0,21.3
16424,0.1973,-0.0363,0.9017,-6.03,8.02,0.06,21.31
16434,0.2012,-0.0388,0.897,-6.05,9.18,0.02,21.3
16444,0.2225,-0.0446,0.8722,-6.02,8.02,-0.03,21.29
16454,0.2162,-0.0452,0.87,-5.92,6.79,-0.05,21.32
16464,0.1919,-0.0529,0.8934,-5.95,7.91,-0.02,21.31
16474,0.2053,-0.045,0.8713,-5.95,9.05,-0.02,21.31
16484,0.2286,-0.0482,0.8557,-5.94,6.23,-0.12,21.3
16494,0.1937,-0.0374,0.8928,-5.91,5.98,-0.08,21.28
16504,0.186,-0.0387,0.9219,-6.05,9.39,-0.08,21.3
16514,0.2229,-0.0341,0.8807,-6.06,8.46,-0.02,21.31
16524,0.2258,-0.0425,0.8719,-5.94,7.28,-0.03,21.3
16534,0.1908,-0.04,0.9056,-5.91,8.18,-0.06,21.29
16544,0.2208,-0.04,0.8759,-5.92,8.72,-0.18,21.29
16554,0.2194,-0.0474,0.8781,-5.91,6.27,-0.02,21.32
16564,0.1859,-0.043,0.9049,-6.02,8.5,0.0,21.32
16574,0.209,-0.0427,0.869,-5.92,9.18,-0.08,21.3
16585,0.215,-0.0392,0.8646,-5.94,8.49,-0.06,21.31
16595,0.2186,-0.0396,0.8667,-5.88,6.58,-0.06,21.32
16605,0.1926,-0.0393,0.894,-5.91,7.77,-0.05,21.3
16615,0.1987,-0.0398,0.8844,-6.02,8.02,0.02,21.32
16625,0.2069,-0.0375,0.8802,-5.97,7.8,0.03,21.29
16635,0.2114,-0.0367,0.8833,-6.02,7.59,-0.06,21.31
16645,0.208,-0.0392,0.892,-6.0,7.21,-0.03,21.32
16655,0.2018,-0.042,0.8993,-6.0,7.47,-0.17,21.32
16665,0.2039,-0.0459,0.9034,-5.97,8.81,-0.14,21.32
16675,0.2231,-0.0492,0.8768,-6.03,8.05,-0.14,21.32
16685,0.2078,-0.0502,0.8776,-5.92,7.42,-0.03,21.29
16695,0.2146,-0.0453,0.8715,-5.86,7.69,0.0,21.32
16705,0.2114,-0.0388,0.8832,-5.85,7.47,-0.08,21.32
16715,0.2118,-0.0367,0.879,-5.85,7.66,-0.08,21.32
16725,0.2087,-0.0355,0.8837,-6.0,7.22,0.03,21.3
16735,0.198,-0.0393,0.8928,-5.85,8.2,0.0,21.3
16745,0.215,-0.0359,0.8828,-6.02,7.59,-0.02,21.31
16755,0.209,-0.0422,0.8872,-6.08,7.05,-0.08,21.31
16765,0.2021,-0.038,0.8969,-6.0,7.92,-0.02,21.32
16775,0.2072,-0.0436,0.8901,-5.98,8.34,-0.11,21.31
16785,0.2183,-0.0454,0.8815,-6.02,7.68,-0.02,21.32
16795,0.2161,-0.0444,0.8829,-5.92,7.25,-0.06,21.32
16805,0.2067,-0.0396,0.8876,-5.85,7.71,-0.12,21.33
16815,0.2086,-0.0408,0.8785,-5.94,8.05,-0.05,21.3
16825,0.2156,-0.0439,0.8707,-5.92,7.42,-0.06,21.33
16835,0.2073,-0.0425,0.88,-5.95,7.04,0.0,21.32
16845,0.2026,-0.0404,0.8865,-5.89,7.5,0.0,21.31
16855,0.2052,-0.0372,0.8909,-6.02,7.74,-0.02,21.31
16865,0.2135,-0.036,0.8898,-5.94,7.57,-0.06,21.29
16875,0.2146,-0.0377,0.8904,-5.98,7.24,-0.08,21.31
16885,0.2003,-0.0406,0.9012,-6.08,7.73,-0.11,21.3
16895,0.2056,-0.0383,0.8917,-6.02,8.44,0.02,21.3
16905,0.2191,-0.0413,0.8795,-5.94,7.57,0.0,21.31
16915,0.2114,-0.04,0.8934,-5.95,7.18,-0.09,21.29
16925,0.1937,-0.0421,0.8948,-5.91,8.43,0.06,21.32
16935,0.2006,-0.0413,0.881,-5.95,8.58,-0.03,21.31
16945,0.2122,-0.0419,0.865,-5.89,7.5,-0.14,21.3
16955,0.2062,-0.0397,0.879,-5.91,6.92,-0.03,21.31
16965,0.1923,-0.0378,0.8958,-6.02,8.5,-0.02,21.32
16975,0.2128,-0.0392,0.8751,-6.02,8.09,-0.08,21.31
16985,0.2131,-0.0383,0.8804,-5.92,6.7,-0.05,21.33
16995,0.1941,-0.0381,0.9031,-6.03,7.69,-0.03,21.32
17005,0.2003,-0.0332,0.8986,-6.02,9.24,0.02,21.31
17015,0.2297,-0.0447,0.8756,-6.0,7.53,-0.02,21.32
17025,0.2009,-0.0354,0.8929,-6.21,6.55,0.0,21.31
17035,0.1873,-0.0414,0.8982,-5.92,10.12,-0.02,21.31
17045,0.2209,-0.0392,0.87,-6.12,7.45,-0.03,21.3
17055,0.2107,-0.0369,0.874,-5.91,7.01,-0.02,21.31
17065,0.2028,-0.0352,0.8906,-5.92,7.47,-0.02,21.31
17075,0.2075,-0.0332,0.8868,-5.94,7.71,-0.06,21.3
17085,0.2052,-0.0378,0.8916,-6.05,7.97,-0.09,21.31
17095,0.2087,-0.0337,0.8881,-6.03,7.94,0.02,21.33
17105,0.2191,-0.0366,0.8818,-5.98,7.53,-0.03,21.32
17115,0.208,-0.0396,0.8857,-6.06,7.25,-0.06,21.29
17125,0.2025,-0.0411,0.8877,-5.98,8.27,-0.12,21.34
17135,0.2117,-0.0403,0.8829,-6.05,8.06,-0.06,21.33
17145,0.2175,-0.0437,0.882,-6.03,7.39,-0.09,21.32
17155,0.2064,-0.0464,0.8922,-6.03,7.42,-0.05,21.31
17165,0.2084,-0.0482,0.892,-5.94,8.24,-0.05,21.31
17175,0.2123,-0.0439,0.8771,-5.89,7.42,-0.11,21.33
17185,0.2021,-0.0466,0.8848,-5.88,7.66,-0.05,21.31
17195,0.2062,-0.0426,0.8855,-5.89,7.97,-0.06,21.34
17205,0.2107,-0.0397,0.879,-5.95,7.47,-0.02,21.31
17215,0.2091,-0.0355,0.8828,-6.08,7.37,-0.03,21.33
17225,0.2078,-0.0388,0.8839,-5.98,7.39,-0.08,21.33
17235,0.2056,-0.0392,0.8911,-6.05,7.65,0.0,21.33
17245,0.2205,-0.0365,0.8815,-6.02,7.1,-0.03,21.32
17255,0.198,-0.0416,0.892,-6.05,7.34,0.05,21.31
17265,0.2135,-0.0428,0.8734,-6.05,8.56,-0.06,21.3
17275,0.23,-0.0439,0.863,-5.95,5.92,-0.05,21.3
17285,0.2153,-0.0419,0.8734,-6.0,6.12,0.03,21.32
17295,0.1897,-0.0438,0.9028,-5.98,7.47,0.06,21.35
17305,0.2043,-0.0427,0.9044,-6.11,8.98,0.05,21.32
17315,0.2283,-0.0433,0.8739,-6.05,7.63,0.0,21.36
17325,0.2211,-0.0425,0.8794,-5.97,5.91,-0.14,21.31
17335,0.1876,-0.0452,0.9106,-6.0,7.94,0.0,21.3
17345,0.2064,-0.0471,0.8962,-6.05,9.24,-0.14,21.31
17355,0.2324,-0.0453,0.8669,-5.98,6.9,0.0,21.32
17365,0.1984,-0.0446,0.8899,-6.02,6.43,-0.06,21.32
17375,0.1857,-0.0428,0.9025,-5.98,9.13,-0.05,21.31
17385,0.2223,-0.0427,0.8755,-6.05,8.27,-0.11,21.32
17395,0.225,-0.0409,0.8795,-5.97,6.43,-0.11,21.34
17405,0.1954,-0.0393,0.8992,-5.98,7.65,-0.03,21.31
17415,0.2006,-0.0446,0.8862,-5.97,8.95,0.0,21.32
17425,0.2219,-0.0459,0.864,-5.97,7.63,0.0,21.31
17435,0.2175,-0.0471,0.8774,-5.86,6.49,-0.11,21.31
17445,0.1924,-0.0475,0.8937,-5.98,7.94,-0.09,21.32
17455,0.2067,-0.0457,0.8829,-5.95,8.4,-0.05,21.31
17465,0.2134,-0.0455,0.8763,-5.8,7.27,-0.11,21.3
17475,0.2025,-0.0406,0.8857,-5.92,7.37,-0.11,21.32
17485,0.2008,-0.0442,0.8976,-5.83,8.08,0.0,21.33
17495,0.2081,-0.0375,0.8921,-5.97,8.0,-0.03,21.32
17505,0.2083,-0.0402,0.8862,-5.89,7.47,-0.08,21.34
17515,0.2029,-0.0389,0.8909,-6.02,7.53,0.02,21.34
17525,0.205,-0.0396,0.897,-5.92,8.17,-0.12,21.32
17535,0.2126,-0.0415,0.8978,-5.91,8.14,-0.12,21.33
17545,0.213,-0.0424,0.8849,-5.98,7.79,-0.08,21.32
17556,0.2083,-0.0417,0.8927,-6.09,7.62,-0.12,21.34
17566,0.1962,-0.045,0.8916,-5.91,8.85,-0.08,21.35
17576,0.2181,-0.0443,0.871,-5.98,8.02,-0.02,21.36
17586,0.2108,-0.0422,0.8739,-6.0,7.22,-0.06,21.34
17596,0.2075,-0.0446,0.8823,-5.97,7.45,-0.02,21.3
17606,0.2111,-0.0385,0.8818,-6.02,7.44,-0.06,21.33
17616,0.208,-0.0396,0.886,-6.09,7.31,-0.03,21.34
17626,0.2067,-0.0413,0.9005,-6.14,7.5,-0.03,21.33
17636,0.2068,-0.0415,0.8911,-6.02,8.32,-0.06,21.31
17646,0.2095,-0.0454,0.8843,-5.97,7.56,-0.05,21.3
17656,0.2054,-0.0424,0.8879,-5.89,8.27,-0.05,21.33
17666,0.2158,-0.0425,0.8792,-6.03,7.88,-0.05,21.32
17677,0.2202,-0.0405,0.8774,-5.97,7.34,-0.03,21.35
17687,0.2045,-0.0426,0.891,-6.02,7.27,-0.03,21.34
17697,0.1996,-0.0422,0.8959,-5.92,8.24,-0.06,21.33
17707,0.2073,-0.0449,0.8854,-5.91,8.03,-0.09,21.32
17717,0.201,-0.0439,0.8821,-6.05,7.8,-0.05,21.34
17727,0.203,-0.0449,0.8834,-6.03,7.97,-0.06,21.34
17737,0.2076,-0.0449,0.8824,-5.91,8.05,-0.02,21.32
17747,0.2092,-0.0432,0.8793,-5.95,7.42,-0.08,21.31
17757,0.205,-0.045,0.8861,-5.88,7.59,-0.06,21.34
17767,0.2126,-0.0446,0.8864,-5.91,7.47,-0.14,21.29
17777,0.1942,-0.0432,0.899,-6.02,8.21,-0.08,21.31
17787,0.2178,-0.0435,0.885,-5.94,8.15,-0.05,21.35
17797,0.2179,-0.0403,0.882,-5.85,6.76,-0.02,21.32
17807,0.1935,-0.038,0.9032,-6.0,8.12,-0.06,21.34
17817,0.2096,-0.0391,0.8921,-6.03,8.95,-0.05,21.32
17827,0.2343,-0.0376,0.8691,-5.91,6.96,0.0,21.34
17837,0.2075,-0.0383,0.8916,-6.02,6.58,0.02,21.34
17847,0.1938,-0.0433,0.8947,-5.91,8.53,-0.08,21.32
17858,0.1954,-0.041,0.8958,-5.92,8.5,0.02,21.35
17869,0.209,-0.0389,0.894,-5.95,8.35,-0.12,21.34
17879,0.2148,-0.0391,0.8875,-5.97,7.25,-0.08,21.34
17889,0.1953,-0.0405,0.8894,-5.89,8.46,-0.09,21.34
17899,0.1936,-0.0421,0.8811,-6.0,9.02,0.02,21.33
17909,0.2181,-0.0433,0.8707,-5.85,6.58,0.02,21.33
17919,0.2085,-0.0461,0.8871,-6.03,6.75,-0.12,21.35
17929,0.2034,-0.0387,0.8927,-6.06,8.64,-0.03,21.35
17939,0.2037,-0.0508,0.8932,-5.85,9.45,-0.06,21.33
17949,0.2372,-0.0386,0.8551,-6.12,6.17,-0.12,21.34
17960,0.2157,-0.0485,0.8821,-5.98,6.09,-0.14,21.34
17970,0.194,-0.0433,0.8939,-5.98,7.71,-0.08,21.32
17980,0.1935,-0.047,0.8951,-5.95,8.73,-0.03,21.32
17990,0.2129,-0.0386,0.881,-6.02,8.37,-0.03,21.3
18001,0.2231,-0.0453,0.8674,-5.92,8.11,-0.08,21.34
18011,0.2256,-0.0406,0.871,-5.92,5.24,-0.08,21.37
18021,0.1814,-0.0415,0.9143,-5.92,7.98,-0.02,21.33
18031,0.2009,-0.0375,0.8956,-5.98,9.22,-0.08,21.33
18041,0.2295,-0.0411,0.8732,-5.88,7.02,-0.05,21.37
18051,0.2085,-0.0378,0.8932,-6.03,6.43,-0.11,21.34
18061,0.1893,-0.0394,0.9028,-6.0,8.73,0.0,21.32
18071,0.2095,-0.0388,0.8851,-5.98,8.61,0.02,21.32
18081,0.2189,-0.0436,0.8749,-5.94,6.98,-0.09,21.33
18091,0.201,-0.045,0.9005,-6.09,7.83,-0.03,21.34
18101,0.2025,-0.0443,0.8905,-6.09,8.96,-0.11,21.33
18111,0.2219,-0.0471,0.8685,-6.06,7.79,0.05,21.33
18121,0.1986,-0.0465,0.8805,-5.97,7.37,-0.02,21.35
18131,0.2,-0.0474,0.8909,-6.02,8.47,0.0,21.34
18141,0.218,-0.0416,0.8752,-6.0,7.39,-0.09,21.35
18151,0.2009,-0.0421,0.8906,-5.88,7.42,0.02,21.34
18161,0.2075,-0.0444,0.8831,-5.92,7.94,-0.02,21.33
18171,0.2096,-0.0404,0.8722,-5.98,7.3,-0.06,21.36
18181,0.2129,-0.0393,0.8795,-5.88,6.82,-0.11,21.33
18191,0.1958,-0.038,0.8978,-5.92,7.53,-0.09,21.34
18201,0.1989,-0.0413,0.899,-6.06,8.92,-0.09,21.34
18211,0.2161,-0.0419,0.8804,-5.95,7.74,0.09,21.34
18221,0.2061,-0.0399,0.891,-5.98,7.53,0.08,21.35
18231,0.2094,-0.0426,0.8899,-6.02,7.77,-0.06,21.34
18241,0.2097,-0.0394,0.8873,-5.92,7.34,-0.03,21.34
18251,0.2025,-0.0461,0.8914,-5.98,7.98,-0.05,21.34
18261,0.2034,-0.047,0.8883,-6.0,8.52,0.06,21.33
18271,0.2135,-0.0449,0.8749,-5.94,8.2,-0.03,21.34
18281,0.2158,-0.0452,0.8741,-5.88,7.11,-0.03,21.34
18291,0.204,-0.0471,0.882,-6.05,7.37,-0.09,21.35
18301,0.1982,-0.0458,0.8854,-5.97,8.43,-0.02,21.34
18311,0.2098,-0.0426,0.8694,-5.91,7.95,-0.08,21.36
18321,0.2119,-0.0399,0.8716,-5.86,6.61,-0.11,21.34
18331,0.1934,-0.0382,0.9048,-6.03,7.56,-0.06,21.36
18341,0.2043,-0.0369,0.9011,-5.94,8.78,-0.11,21.35
18351,0.2245,-0.0366,0.8804,-6.0,7.21,-0.08,21.38
18361,0.2063,-0.0428,0.8987,-5.92,7.16,0.0,21.35
18371,0.2001,-0.0409,0.8942,-5.97,8.82,-0.09,21.34
18381,0.2158,-0.0438,0.8735,-5.86,8.08,-0.03,21.35
18391,0.212,-0.0468,0.8756,-5.91,7.31,0.05,21.35
18401,0.2045,-0.0421,0.8793,-5.95,7.45,-0.05,21.34
18411,0.2037,-0.0409,0.886,-5.97,7.8,-0.09,21.37
18421,0.2123,-0.0387,0.8838,-5.92,7.62,-0.14,21.37
18431,0.2125,-0.0415,0.8822,-5.95,7.54,-0.05,21.34
18441,0.2081,-0.042,0.8875,-6.0,7.53,-0.03,21.35
18451,0.2144,-0.0428,0.882,-5.95,7.57,-0.14,21.32
18461,0.2074,-0.0422,0.8867,-5.97,7.19,-0.08,21.35
18471,0.1937,-0.0443,0.8973,-5.98,8.14,-0.03,21.34
18481,0.2256,-0.0438,0.8706,-6.03,6.89,-0.03,21.36
18491,0.2028,-0.0448,0.894,-6.02,6.46,-0.06,21.34
18501,0.1923,-0.0438,0.9037,-5.94,8.9,-0.05,21.37
18511,0.2107,-0.0432,0.8772,-5.98,8.41,0.03,21.34
18521,0.2172,-0.0397,0.8737,-5.94,6.73,0.0,21.34
18531,0.2054,-0.0398,0.8969,-5.98,7.4,-0.05,21.37
18541,0.204,-0.0388,0.8972,-5.94,7.91,-0.06,21.36
18551,0.2056,-0.0391,0.886,-5.98,8.15,0.0,21.35
18561,0.2159,-0.0409,0.8761,-5.94,7.25,-0.14,21.33
18571,0.2052,-0.0424,0.8911,-5.89,7.11,-0.12,21.32
18581,0.2007,-0.0383,0.8951,-5.94,8.49,-0.06,21.37
18591,0.2174,-0.0414,0.876,-5.89,7.88,-0.05,21.34
18601,0.2126,-0.0406,0.8799,-5.98,7.16,-0.08,21.35
18611,0.2072,-0.0421,0.8906,-5.98,7.74,-0.02,21.36
18621,0.2047,-0.0355,0.882,-6.03,8.14,-0.08,21.36
18631,0.2144,-0.0433,0.8766,-5.91,7.28,-0.11,21.33
18641,0.2078,-0.0415,0.8837,-5.94,6.85,-0.05,21.36
18651,0.1992,-0.0396,0.8929,-5.97,7.79,-0.06,21.36
18661,0.2081,-0.0405,0.8916,-6.0,7.97,-0.08,21.38
18671,0.2144,-0.0393,0.8792,-5.91,7.25,0.03,21.34
18681,0.2054,-0.036,0.8943,-5.97,7.18,-0.09,21.35
18691,0.2095,-0.0417,0.8955,-6.03,7.86,-0.02,21.37
18701,0.2064,-0.0415,0.8978,-6.0,8.12,-0.09,21.33
18711,0.2123,-0.0393,0.8833,-5.98,8.49,-0.08,21.35
18721,0.2183,-0.0403,0.8732,-6.03,7.28,0.0,21.37
18731,0.1989,-0.0411,0.8896,-6.03,7.07,-0.06,21.35
18741,0.1948,-0.0383,0.8912,-5.95,9.15,-0.12,21.35
18751,0.2208,-0.0416,0.8741,-5.94,7.95,-0.06,21.36
18761,0.2168,-0.041,0.8777,-5.98,7.01,0.0,21.36
18771,0.2026,-0.0432,0.8861,-5.92,7.59,-0.08,21.37
18781,0.2019,-0.0469,0.8846,-5.97,7.8,-0.06,21.37
18791,0.2063,-0.0458,0.8778,-5.95,7.92,-0.09,21.34
18801,0.2061,-0.0435,0.8883,-5.91,7.98,-0.05,21.35
18811,0.2111,-0.0402,0.8853,-5.95,7.8,-0.05,21.33
18821,0.2173,-0.0417,0.881,-5.95,7.33,-0.11,21.35
18831,0.2012,-0.042,0.8981,-6.08,7.4,-0.11,21.35
18841,0.1949,-0.0403,0.9039,-6.06,9.4,-0.02,21.36
18851,0.2274,-0.0426,0.8762,-5.97,7.91,-0.08,21.35
18861,0.2065,-0.0409,0.8885,-6.11,6.87,-0.03,21.37
18871,0.1936,-0.0427,0.8992,-6.02,8.55,-0.05,21.37
18881,0.2119,-0.0398,0.8844,-5.97,8.67,-0.03,21.35
18891,0.2257,-0.0406,0.8756,-5.98,6.95,-0.02,21.37
18901,0.2003,-0.0415,0.8845,-5.98,7.54,0.03,21.36
18911,0.2074,-0.0428,0.8721,-5.95,8.05,0.03,21.37
18921,0.2151,-0.0385,0.8751,-5.89,6.55,-0.12,21.38
18931,0.2024,-0.0416,0.8916,-5.95,7.37,0.02,21.36
18941,0.1987,-0.038,0.9019,-6.03,8.31,-0.05,21.35
18951,0.219,-0.0454,0.879,-5.98,7.62,-0.09,21.37
18961,0.2053,-0.0446,0.8887,-6.05,6.69,-0.06,21.38
18971,0.1888,-0.0432,0.9019,-5.97,8.82,-0.02,21.36
18981,0.1995,-0.0444,0.889,-5.94,9.28,-0.03,21.35
18991,0.2157,-0.0406,0.8868,-6.05,6.69,-0.09,21.37
19001,0.2108,-0.0428,0.8956,-6.0,7.31,0.02,21.37
19011,0.2029,-0.0424,0.8997,-5.94,7.74,0.03,21.36
19021,0.2106,-0.0389,0.9001,-6.0,8.0,-0.12,21.37
19031,0.2168,-0.0404,0.8827,-5.98,7.37,0.0,21.37
19041,0.2052,-0.0439,0.8951,-6.06,7.63,-0.15,21.35
19051,0.2002,-0.0446,0.8901,-5.86,8.66,-0.03,21.35
19061,0.2067,-0.0474,0.8759,-5.91,8.11,-0.05,21.37
19071,0.2073,-0.0487,0.8723,-5.94,7.94,-0.12,21.36
19082,0.2063,-0.0497,0.8683,-5.91,7.86,-0.06,21.36
19092,0.2125,-0.0469,0.8669,-5.97,7.15,-0.08,21.38
19102,0.1925,-0.0421,0.8868,-5.91,7.83,0.0,21.37
19112,0.2023,-0.041,0.8853,-5.92,7.94,-0.05,21.35
19122,0.2114,-0.0408,0.8873,-5.94,7.62,-0.11,21.34
19132,0.2181,-0.0417,0.8922,-5.98,7.27,-0.03,21.37
19142,0.2092,-0.0356,0.9054,-5.97,7.27,-0.06,21.38
19153,0.2094,-0.0348,0.9055,-5.98,7.01,-0.08,21.35
19163,0.219,-0.0431,0.8917,-6.08,8.85,-0.03,21.39
19173,0.2268,-0.0398,0.874,-6.05,6.95,-0.09,21.37
19183,0.1981,-0.041,0.897,-6.02,7.65,0.02,21.38
19193,0.1973,-0.0426,0.8928,-5.95,8.23,-0.03,21.37
19203,0.2097,-0.0449,0.8741,-5.92,8.43,-0.05,21.37
19213,0.2145,-0.0443,0.8689,-6.0,7.3,0.03,21.37
19223,0.2047,-0.046,0.8741,-5.95,6.79,-0.02,21.36
19233,0.1881,-0.0431,0.8859,-5.94,7.73,-0.02,21.39
19243,0.2042,-0.0424,0.8828,-6.03,8.27,-0.03,21.36
19253,0.214,-0.0436,0.8726,-5.92,7.13,-0.05,21.38
19263,0.2025,-0.0409,0.8866,-6.02,7.02,-0.12,21.39
19273,0.1946,-0.0437,0.9016,-5.97,8.41,-0.03,21.37
19283,0.2126,-0.0403,0.8936,-6.02,8.58,-0.12,21.37
19293,0.228,-0.0402,0.8765,-5.88,7.22,-0.03,21.39
19303,0.2172,-0.0406,0.8906,-6.05,6.61,-0.02,21.38
19313,0.1951,-0.0443,0.9027,-6.02,8.27,-0.06,21.38
19323,0.2103,-0.0448,0.8888,-6.0,8.64,-0.03,21.37
19333,0.2145,-0.0457,0.8828,-5.97,7.76,-0.02,21.37
19343,0.2086,-0.046,0.8801,-5.98,8.02,-0.03,21.38
19353,0.2189,-0.0453,0.8773,-5.88,7.68,-0.05,21.39
19363,0.1942,-0.0472,0.8857,-5.86,7.94,-0.08,21.39
19373,0.204,-0.0432,0.8713,-5.89,8.35,0.09,21.38
19383,0.2177,-0.0416,0.8618,-6.03,6.99,-0.09,21.37
19393,0.1989,-0.0419,0.8844,-5.85,6.84,-0.06,21.38
19403,0.1927,-0.0404,0.8993,-5.82,8.21,0.0,21.41
19413,0.2025,-0.0371,0.8929,-5.95,8.53,-0.02,21.38
19423,0.2135,-0.0399,0.8867,-6.06,7.47,-0.15,21.38
19433,0.2089,-0.0376,0.8887,-5.92,6.99,0.0,21.38
19443,0.2003,-0.0381,0.8994,-5.97,7.91,-0.08,21.36
19453,0.2112,-0.0358,0.8887,-5.94,8.26,0.02,21.37
19463,0.2183,-0.0383,0.8947,-5.86,7.62,-0.12,21.4
19473,0.2152,-0.0406,0.8875,-5.86,7.6,-0.06,21.37
19483,0.2142,-0.0414,0.8779,-5.98,7.51,-0.06,21.37
19493,0.2021,-0.0427,0.8824,-5.94,7.88,-0.03,21.35
19503,0.2111,-0.0404,0.879,-5.97,8.21,-0.06,21.37
19513,0.213,-0.0415,0.8783,-5.88,7.6,0.02,21.35
19523,0.209,-0.0402,0.8793,-5.97,7.91,-0.05,21.37
19533,0.2157,-0.0399,0.8801,-5.98,7.3,-0.06,21.39
19543,0.2092,-0.0387,0.8859,-5.91,7.19,-0.05,21.38
19553,0.2004,-0.0406,0.8979,-5.89,8.23,0.03,21.35
19563,0.2156,-0.0396,0.886,-5.95,8.35,-0.08,21.38
19573,0.2228,-0.0404,0.8754,-5.98,6.78,-0.08,21.36
19583,0.1941,-0.0416,0.8962,-5.97,7.53,-0.06,21.37
19593,0.1987,-0.0433,0.8895,-5.95,9.05,-0.02,21.38
19603,0.2223,-0.0406,0.8621,-5.82,7.42,-0.11,21.37
19613,0.217,-0.0358,0.8698,-5.92,5.27,0.03,21.38
19623,0.182,-0.0363,0.9089,-5.86,7.79,-0.03,21.38
19633,0.198,-0.0334,0.8999,-6.06,9.05,-0.06,21.37
19643,0.2267,-0.0388,0.8832,-6.08,7.82,0.0,21.37
19653,0.2251,-0.0426,0.8877,-5.94,6.38,-0.02,21.38
19663,0.1979,-0.0426,0.9036,-6.18,7.69,-0.12,21.36
19673,0.2029,-0.0464,0.8896,-5.97,9.28,-0.12,21.38
19683,0.2173,-0.046,0.8722,-6.06,7.74,0.0,21.36
19693,0.2065,-0.0461,0.8785,-5.98,7.51,-0.05,21.4
19703,0.2012,-0.0403,0.8794,-5.83,7.48,-0.05,21.37
19713,0.1879,-0.0271,0.8966,-5.92,8.79,-0.09,21.39
19723,0.2137,-0.0372,0.8688,-5.91,8.93,-0.02,21.37
19733,0.1826,-0.0367,0.892,-6.27,7.89,-0.11,21.37
19743,0.2262,-0.0519,0.8824,-6.0,11.71,-0.08,21.38
19753,0.2218,-0.0459,0.8634,-5.82,4.0,-0.06,21.37
19763,0.1874,-0.0533,0.9098,-5.8,9.08,-0.09,21.39
19773,0.2081,-0.0363,0.9099,-5.95,8.67,0.02,21.38
19783,0.2156,-0.0337,0.9004,-5.94,8.27,0.03,21.39
19793,0.2064,-0.0352,0.8967,-6.03,8.41,-0.08,21.37
19803,0.1985,-0.0374,0.9031,-5.98,8.35,-0.06,21.38
19813,0.2109,-0.0449,0.8809,-5.97,8.56,-0.11,21.37
19823,0.2048,-0.05,0.8822,-5.97,6.99,-0.08,21.37
19833,0.1888,-0.0408,0.8939,-5.97,9.13,-0.06,21.39
19843,0.2212,-0.0391,0.8591,-5.94,7.94,-0.03,21.41
19853,0.2081,-0.0415,0.864,-6.03,6.12,-0.05,21.37
19863,0.1896,-0.0406,0.8888,-5.95,8.0,0.02,21.37
19873,0.2113,-0.0352,0.8735,-5.97,8.05,0.05,21.4
19883,0.2271,-0.0364,0.8721,-5.97,5.98,-0.02,21.37
19893,0.1842,-0.035,0.9229,-6.05,8.02,-0.08,21.4
19903,0.2151,-0.0433,0.8942,-6.06,9.74,-0.11,21.4
19913,0.2333,-0.0435,0.8776,-6.09,6.47,-0.09,21.39
19923,0.2063,-0.047,0.9138,-6.0,7.66,-0.09,21.37
19933,0.2023,-0.0516,0.9131,-6.05,9.02,-0.11,21.38
19943,0.2174,-0.0466,0.8833,-6.08,8.63,-0.03,21.39
19953,0.2211,-0.0424,0.8672,-6.06,6.89,0.03,21.39
19963,0.1897,-0.0463,0.892,-5.98,7.74,-0.05,21.39
19973,0.2003,-0.0426,0.8728,-5.95,9.21,0.06,21.38
19983,0.2175,-0.0392,0.8481,-5.85,7.19,0.02,21.39
19993,0.204,-0.0397,0.8663,-5.85,6.2,-0.08,21.38
20003,0.1818,-0.0366,0.8962,-6.03,7.98,-0.05,21.41
20013,0.2089,-0.0372,0.892,-5.95,9.02,-0.11,21.4
20023,0.234,-0.0365,0.8773,-6.09,6.35,-0.08,21.39
20033,0.201,-0.0405,0.9071,-5.94,7.1,-0.05,21.38
20043,0.1995,-0.0416,0.9097,-6.06,8.99,-0.05,21.37
20053,0.2316,-0.0443,0.8711,-6.06,7.82,0.0,21.37
20063,0.2032,-0.0465,0.8936,-6.0,6.05,-0.08,21.39
20073,0.1869,-0.0393,0.9037,-5.97,10.85,-0.06,21.4
20083,0.2502,-0.0394,0.8285,-5.83,4.67,-0.06,21.41
20093,0.2036,-0.0648,0.865,-5.74,5.62,-0.08,21.39
20103,0.205,-0.0448,0.8839,-5.89,5.15,0.02,21.39
20113,0.1461,-0.0406,0.9338,-6.24,10.96,-0.05,21.39
20123,0.2064,-0.0569,0.9042,-6.02,9.71,-0.03,21.39
20133,0.1942,-0.0245,0.918,-6.11,10.84,-0.03,21.39
20143,0.2231,-0.0311,0.8617,-6.11,8.78,-0.12,21.39
20153,0.2396,-0.0437,0.8755,-5.77,7.8,-0.02,21.43
20163,0.2369,-0.0293,0.8663,-5.88,4.72,-0.09,21.4
20173,0.2014,-0.0612,0.87,-5.83,4.49,-0.05,21.39
20183,0.1665,-0.0458,0.9093,-6.09,10.43,-0.02,21.4
20193,0.2168,-0.0345,0.8704,-6.06,10.56,-0.08,21.4
20203,0.2369,-0.047,0.8599,-5.73,4.5,-0.05,21.38
20213,0.174,-0.0386,0.9341,-6.21,8.63,-0.12,21.37
20223,0.2313,-0.0378,0.8861,-5.98,9.36,0.05,21.37
20233,0.2178,-0.0389,0.8871,-6.0,6.44,-0.12,21.4
20243,0.1884,-0.0474,0.9015,-5.98,8.53,0.0,21.4
20253,0.2031,-0.0455,0.8784,-5.91,9.25,-0.02,21.38
20263,0.2233,-0.0455,0.86,-5.95,7.28,0.05,21.39
20273,0.2061,-0.0431,0.8787,-5.97,6.96,-0.08,21.41
20283,0.196,-0.0435,0.8889,-5.91,8.52,0.02,21.4
20293,0.2166,-0.0383,0.8746,-5.98,7.66,-0.02,21.37
20303,0.2145,-0.0374,0.8906,-5.89,6.43,-0.02,21.38
20313,0.2075,-0.036,0.9099,-5.97,7.76,-0.03,21.37
20323,0.2062,-0.0446,0.9038,-6.06,8.24,-0.11,21.39
20333,0.2076,-0.0426,0.8868,-5.94,8.58,0.02,21.42
20343,0.2114,-0.0408,0.8684,-5.94,7.85,0.03,21.37
20353,0.2183,-0.0442,0.8651,-5.91,7.18,-0.08,21.41
20363,0.2048,-0.0416,0.8717,-5.97,7.3,-0.03,21.4
20373,0.217,-0.0438,0.869,-5.92,6.79,-0.03,21.36
20383,0.197,-0.0341,0.8879,-5.91,6.56,0.0,21.39
20393,0.1914,-0.0383,0.9052,-5.89,9.13,-0.02,21.37
20403,0.2246,-0.0378,0.8854,-5.95,7.62,0.03,21.38
20413,0.2118,-0.0399,0.8955,-5.98,6.93,0.0,21.42
20423,0.1984,-0.0421,0.9082,-6.02,8.21,-0.06,21.38
20433,0.2051,-0.0416,0.8951,-5.94,9.11,0.03,21.37
20443,0.2256,-0.0452,0.8777,-6.02,7.89,-0.05,21.37
20453,0.2194,-0.0461,0.8724,-5.98,6.96,-0.02,21.39
20463,0.2155,-0.0431,0.8593,-5.92,6.96,-0.02,21.39
20473,0.198,-0.0426,0.8689,-5.97,6.55,-0.03,21.4
20483,0.1915,-0.0406,0.8945,-5.98,8.41,-0.02,21.37
20493,0.2212,-0.0374,0.8895,-5.91,7.34,-0.02,21.39
20503,0.208,-0.0381,0.9083,-5.94,7.33,-0.05,21.39
20513,0.2051,-0.0393,0.895,-6.12,8.34,-0.12,21.38
20523,0.2036,-0.0391,0.884,-5.98,8.03,-0.03,21.37
20533,0.2048,-0.0399,0.8818,-6.02,8.32,-0.14,21.39
20543,0.217,-0.041,0.8751,-5.91,7.45,-0.05,21.4
20553,0.2073,-0.0409,0.8826,-6.02,7.47,-0.08,21.41
20563,0.2062,-0.0405,0.877,-5.98,7.63,-0.09,21.4
20573,0.2053,-0.0386,0.8829,-6.0,7.33,-0.06,21.38
20583,0.2032,-0.0382,0.8981,-6.03,7.88,-0.05,21.39
20593,0.2126,-0.0389,0.8978,-5.94,7.95,-0.09,21.39
20603,0.2107,-0.0391,0.8921,-5.91,7.77,0.0,21.4
20613,0.2056,-0.043,0.8899,-5.85,7.74,-0.14,21.39
20623,0.2007,-0.0424,0.8892,-6.05,8.44,-0.14,21.4
20633,0.2141,-0.0453,0.8779,-6.0,8.41,-0.08,21.39
20643,0.2161,-0.0425,0.8647,-5.89,7.42,-0.02,21.39
20653,0.2158,-0.0436,0.8649,-5.77,6.23,-0.08,21.39
20663,0.1802,-0.0419,0.899,-5.92,8.12,-0.05,21.37
20673,0.2103,-0.0396,0.8856,-6.02,8.69,-0.02,21.38
20683,0.2244,-0.0365,0.882,-5.98,6.64,-0.06,21.38
20693,0.2047,-0.0396,0.9001,-6.09,7.59,-0.09,21.38
20703,0.2083,-0.0394,0.8936,-6.03,8.03,-0.02,21.41
20713,0.2061,-0.0413,0.8916,-6.05,7.85,-0.02,21.38
20723,0.2047,-0.0437,0.8868,-5.97,8.21,-0.05,21.38
20733,0.209,-0.0421,0.8837,-5.92,7.76,-0.03,21.41
20743,0.2047,-0.0414,0.8757,-5.92,7.92,-0.05,21.37
20753,0.2142,-0.0455,0.8706,-6.03,7.1,-0.08,21.39
20763,0.2009,-0.038,0.8881,-5.91,7.16,-0.12,21.37
20773,0.2074,-0.0399,0.8995,-6.02,8.21,-0.06,21.41
20783,0.2179,-0.0424,0.896,-6.02,7.79,0.03,21.37
20793,0.2152,-0.0427,0.8888,-6.05,7.24,-0.17,21.38
20803,0.1976,-0.0435,0.8988,-6.05,8.37,-0.02,21.39
20813,0.2072,-0.0464,0.8893,-5.95,8.82,-0.02,21.4
20823,0.2192,-0.0461,0.8715,-6.0,7.88,-0.02,21.39
20833,0.2169,-0.045,0.865,-5.89,7.13,-0.09,21.39
20843,0.2098,-0.041,0.8679,-5.95,6.95,-0.05,21.39
20853,0.199,-0.0399,0.8868,-5.92,7.54,-0.08,21.38
20863,0.2034,-0.0364,0.8866,-6.05,8.24,0.02,21.36
20873,0.217,-0.036,0.8818,-6.08,7.39,-0.08,21.39
20883,0.2104,-0.0394,0.896,-6.0,7.04,-0.06,21.39
20893,0.1958,-0.0394,0.903,-6.12,8.2,-0.09,21.42
20903,0.2135,-0.0452,0.8903,-6.03,8.49,-0.05,21.39
20914,0.2103,-0.0448,0.8959,-5.98,8.55,-0.17,21.41
20924,0.2169,-0.0428,0.8843,-5.86,7.24,-0.08,21.4
20934,0.2041,-0.0472,0.8896,-5.94,8.61,-0.05,21.38
20944,0.2225,-0.0438,0.8645,-5.91,7.37,-0.06,21.38
20954,0.2053,-0.0435,0.877,-5.98,6.87,-0.03,21.4
20964,0.1964,-0.0465,0.8914,-6.08,8.52,-0.06,21.4
20974,0.2198,-0.0419,0.8668,-5.89,7.56,0.0,21.41
20984,0.2075,-0.043,0.8805,-5.83,6.55,-0.14,21.41
20994,0.1998,-0.0405,0.8931,-5.92,7.15,-0.03,21.38
21004,0.2073,-0.037,0.894,-6.03,8.29,-0.02,21.39
21014,0.2218,-0.0374,0.8785,-6.0,7.02,0.0,21.38
21024,0.2045,-0.0383,0.8955,-6.03,7.02,-0.09,21.38
21034,0.2018,-0.041,0.8977,-6.0,8.41,-0.09,21.38
21044,0.2076,-0.0416,0.8853,-6.06,8.32,-0.02,21.39
21055,0.2034,-0.0409,0.8894,-6.02,8.27,-0.17,21.41
21065,0.2083,-0.0415,0.892,-6.06,7.24,-0.02,21.42
21075,0.1962,-0.0314,0.903,-6.03,9.18,-0.05,21.41
21085,0.1849,-0.0394,0.9227,-6.17,11.18,-0.09,21.41
21095,0.2167,-0.0387,0.8684,-5.98,4.61,-0.08,21.36
21105,0.1694,-0.0515,0.9069,-5.97,8.7,-0.06,21.39
21115,0.1992,-0.0399,0.8925,-6.03,9.53,-0.09,21.38
21125,0.2349,-0.0463,0.8639,-5.83,6.64,0.03,21.39
21135,0.1746,-0.0453,0.9077,-6.11,7.48,-0.05,21.4
21145,0.2084,-0.0386,0.8799,-6.08,9.97,-0.03,21.41
21155,0.2424,-0.0431,0.8407,-5.77,4.78,-0.14,21.4
21165,0.1772,-0.0446,0.9064,-5.88,7.59,-0.12,21.41
21175,0.1978,-0.0394,0.8948,-6.03,8.96,-0.03,21.38
21185,0.2166,-0.0483,0.8824,-5.95,8.34,-0.03,21.39
21195,0.2167,-0.0416,0.8801,-5.92,6.02,-0.05,21.39
21205,0.194,-0.0452,0.9119,-6.02,8.37,0.06,21.39
21215,0.2155,-0.04,0.8831,-5.92,8.46,0.12,21.38
21225,0.2175,-0.0331,0.8743,-6.0,6.11,-0.03,21.42
21235,0.186,-0.0405,0.9026,-5.95,8.49,-0.11,21.39
21245,0.2158,-0.043,0.8756,-6.06,8.11,-0.14,21.4
21255,0.2114,-0.0396,0.8821,-6.08,6.96,-0.15,21.42
21265,0.1996,-0.0515,0.8954,-5.97,7.25,-0.15,21.38
21275,0.1985,-0.0508,0.899,-6.06,7.8,-0.11,21.41
21285,0.2036,-0.0446,0.9022,-5.97,8.43,-0.02,21.42
21295,0.212,-0.0463,0.8914,-5.97,8.17,0.0,21.42
21305,0.2209,-0.0437,0.8877,-5.89,7.36,-0.08,21.41
21315,0.2017,-0.0392,0.8833,-6.08,7.69,0.02,21.41
21325,0.2047,-0.0396,0.8722,-5.86,8.55,0.0,21.41
21335,0.215,-0.0415,0.8594,-5.89,7.51,-0.06,21.4
21345,0.2114,-0.042,0.877,-5.95,6.61,-0.09,21.41
21355,0.2007,-0.0449,0.8992,-5.89,7.92,-0.03,21.4
21365,0.2106,-0.0432,0.8945,-6.0,7.77,-0.08,21.39
21375,0.2112,-0.0376,0.8937,-5.86,7.95,-0.12,21.42
21385,0.2224,-0.0409,0.8835,-5.95,8.03,-0.06,21.4
21395,0.2231,-0.0383,0.8768,-5.95,6.38,0.03,21.44
21405,0.1881,-0.0389,0.8932,-6.0,8.0,-0.05,21.42
21415,0.193,-0.0432,0.8845,-6.06,8.76,0.02,21.39
21425,0.2117,-0.042,0.8717,-5.97,7.71,-0.05,21.41
21435,0.2058,-0.0428,0.877,-5.88,6.79,-0.02,21.39
21445,0.1962,-0.0442,0.8993,-6.02,7.77,-0.08,21.39
21455,0.2034,-0.0435,0.8975,-6.11,8.56,-0.06,21.39
21465,0.2162,-0.0392,0.8865,-6.08,7.94,-0.06,21.41
21475,0.22,-0.0416,0.8805,-6.0,6.9,-0.02,21.41
21485,0.2001,-0.0458,0.8939,-6.02,7.44,-0.15,21.41
21495,0.2,-0.0448,0.8901,-5.98,8.58,-0.11,21.43
21505,0.2208,-0.0392,0.8693,-5.92,7.6,-0.08,21.39
21515,0.2128,-0.0442,0.8751,-5.92,7.33,-0.06,21.4
21525,0.209,-0.0483,0.8849,-5.88,7.73,-0.03,21.42
21535,0.2111,-0.0463,0.874,-5.85,7.54,-0.05,21.41
21545,0.2048,-0.042,0.8774,-5.92,6.78,-0.03,21.43
21555,0.198,-0.0382,0.8877,-5.86,7.57,0.03,21.42
21565,0.2064,-0.0361,0.8971,-5.88,7.8,0.03,21.41
21575,0.2102,-0.0338,0.901,-6.0,7.79,-0.08,21.4
21585,0.213,-0.0387,0.8876,-6.02,7.8,-0.06,21.44
21595,0.2114,-0.0427,0.8826,-6.0,7.07,-0.12,21.42
21605,0.1974,-0.0454,0.8899,-6.02,8.11,-0.03,21.4
21615,0.2072,-0.0468,0.8856,-6.02,8.5,0.03,21.41
21626,0.2083,-0.0465,0.8943,-5.98,8.15,-0.03,21.4
21636,0.214,-0.0444,0.8776,-6.0,7.74,-0.05,21.41
21646,0.2161,-0.0428,0.8757,-5.97,6.93,-0.02,21.42
21656,0.2026,-0.0444,0.8829,-5.8,7.18,-0.05,21.41
21666,0.2048,-0.042,0.8843,-5.82,7.76,-0.05,21.39
21676,0.2141,-0.0397,0.8805,-5.88,7.53,-0.05,21.42
21686,0.2128,-0.0371,0.8876,-5.89,7.34,-0.09,21.4
21696,0.2046,-0.0419,0.8949,-6.0,7.4,-0.09,21.42
21706,0.2024,-0.0431,0.8955,-5.92,8.37,-0.06,21.44
21716,0.2145,-0.0426,0.8763,-5.91,7.66,0.02,21.4
21727,0.2109,-0.0385,0.8735,-5.89,8.2,0.0,21.42
21738,0.2076,-0.037,0.8712,-5.88,7.73,-0.03,21.43
21748,0.2089,-0.0366,0.8813,-5.94,6.82,-0.03,21.42
21758,0.198,-0.0372,0.9041,-6.02,7.71,-0.09,21.43
21768,0.2041,-0.0393,0.9017,-5.94,8.82,-0.12,21.44
21778,0.2194,-0.0419,0.8821,-6.0,7.24,-0.15,21.42
21788,0.1981,-0.0419,0.8927,-6.0,7.47,-0.05,21.42
21798,0.1996,-0.0465,0.8962,-5.91,8.85,-0.03,21.42
21808,0.2229,-0.048,0.8799,-5.94,7.88,0.02,21.42
21818,0.2096,-0.0465,0.8794,-5.94,7.13,0.0,21.42
21828,0.2008,-0.0438,0.8833,-5.86,7.82,-0.09,21.41
21838,0.2073,-0.0427,0.8789,-5.92,7.68,0.02,21.42
21848,0.2109,-0.0411,0.8794,-5.88,7.28,0.03,21.42
21858,0.2101,-0.0411,0.886,-6.02,7.28,-0.03,21.39
21868,0.2012,-0.0365,0.8949,-5.95,8.4,-0.11,21.4
21878,0.2155,-0.0349,0.8802,-6.0,7.82,-0.03,21.41
21888,0.2148,-0.0391,0.8882,-6.06,7.21,-0.08,21.42
21898,0.2007,-0.0387,0.8953,-6.06,7.97,0.0,21.42
21908,0.2063,-0.0438,0.8895,-6.09,8.44,0.08,21.41
21918,0.2126,-0.0441,0.8751,-5.98,7.39,0.06,21.44
21928,0.1998,-0.0413,0.8821,-5.83,7.6,-0.05,21.42
21938,0.2035,-0.0421,0.8768,-5.94,8.26,-0.12,21.41
21948,0.2134,-0.0378,0.8644,-5.91,7.39,-0.02,21.42
21958,0.2079,-0.0403,0.8748,-5.98,6.67,-0.03,21.43
21968,0.202,-0.0372,0.8853,-6.05,7.56,-0.03,21.4
21978,0.2081,-0.0392,0.8875,-6.0,7.74,0.02,21.41
21988,0.2139,-0.0394,0.8888,-5.95,7.19,-0.09,21.39
21998,0.2056,-0.0389,0.8966,-6.03,7.57,-0.05,21.43
22008,0.2047,-0.0386,0.894,-6.03,7.97,-0.09,21.42
22018,0.2051,-0.0381,0.8932,-5.92,8.26,-0.05,21.41
22028,0.2111,-0.0394,0.8909,-5.97,8.02,-0.08,21.42
22038,0.2113,-0.0416,0.8911,-5.98,7.91,-0.08,21.42
22048,0.2081,-0.0432,0.8918,-5.95,8.02,-0.05,21.43
22058,0.2002,-0.0449,0.8827,-5.98,8.66,-0.03,21.43
22068,0.2108,-0.0437,0.8652,-5.97,8.27,-0.11,21.42
22078,0.2202,-0.0399,0.8663,-5.98,6.53,-0.02,21.43
22088,0.2007,-0.0383,0.887,-6.0,7.53,-0.12,21.42
22099,0.1959,-0.0397,0.8822,-5.95,8.06,0.02,21.45
22109,0.2083,-0.0415,0.8783,-5.97,7.92,-0.11,21.41
22119,0.2078,-0.0415,0.8855,-5.89,7.18,-0.05,21.42
22129,0.2042,-0.0403,0.8977,-5.86,7.92,-0.05,21.41
22139,0.2092,-0.0444,0.89,-5.92,8.11,-0.09,21.42
22149,0.2111,-0.0433,0.8762,-5.92,7.65,-0.12,21.4
22159,0.2026,-0.041,0.88,-5.94,7.86,-0.06,21.43
22169,0.2072,-0.0417,0.8811,-6.02,7.8,-0.06,21.42
22179,0.2135,-0.0361,0.8917,-5.88,7.27,-0.06,21.41
22189,0.2058,-0.0374,0.902,-6.03,7.97,-0.09,21.4
22199,0.2162,-0.0378,0.8949,-6.05,8.15,-0.02,21.4
22209,0.2119,-0.0424,0.8853,-6.03,7.6,0.02,21.43
22219,0.2046,-0.042,0.8834,-6.03,8.0,-0.02,21.42
22229,0.2046,-0.0459,0.8842,-5.97,8.37,-0.08,21.42
22239,0.2089,-0.0436,0.8728,-6.02,8.29,-0.09,21.43
22249,0.2178,-0.0457,0.8633,-5.88,7.18,-0.08,21.41
22259,0.1929,-0.0415,0.8931,-5.95,6.99,-0.08,21.43
22269,0.1818,-0.0431,0.9144,-5.95,9.97,-0.05,21.4
22279,0.2109,-0.0339,0.8904,-6.02,7.48,-0.03,21.43
22289,0.1722,-0.0447,0.925,-5.97,11.85,-0.05,21.42
22299,0.2228,-0.0419,0.8722,-6.23,7.79,-0.11,21.43
22309,0.228,-0.0374,0.8641,-5.92,5.11,0.0,21.42
22319,0.1761,-0.0482,0.917,-5.95,8.72,-0.08,21.42
22329,0.1982,-0.0398,0.8978,-6.06,9.31,-0.09,21.44
22339,0.2236,-0.0408,0.8911,-5.92,9.25,0.0,21.41
22350,0.2427,-0.0367,0.8711,-5.95,6.64,0.02,21.42
22360,0.1849,-0.0372,0.9194,-6.05,8.85,-0.03,21.41
22370,0.1941,-0.0424,0.9042,-6.05,9.82,-0.05,21.41
22380,0.2323,-0.0428,0.8641,-6.03,7.74,-0.05,21.45
22390,0.2123,-0.0416,0.8795,-6.06,6.69,-0.09,21.41
22400,0.1964,-0.0446,0.8909,-6.17,8.55,-0.02,21.43
22410,0.2125,-0.0421,0.8716,-6.06,8.53,-0.11,21.39
22420,0.2229,-0.0463,0.8602,-5.94,6.34,-0.06,21.4
22430,0.1931,-0.0464,0.8857,-5.95,6.82,-0.05,21.39
22440,0.1906,-0.0436,0.8921,-5.95,7.56,-0.03,21.43
22450,0.2079,-0.0424,0.8856,-5.97,8.0,-0.05,21.43
22460,0.2108,-0.045,0.8865,-6.05,7.4,0.06,21.42
22470,0.2087,-0.042,0.8865,-6.02,7.54,-0.11,21.43
22480,0.2087,-0.0406,0.8872,-6.05,7.6,-0.06,21.42
22490,0.2125,-0.0417,0.8922,-5.98,7.74,0.02,21.42
22500,0.2129,-0.0405,0.8943,-5.98,7.65,-0.06,21.42
22510,0.2067,-0.0405,0.8934,-5.98,7.89,0.02,21.42
22520,0.2094,-0.0428,0.8856,-5.88,8.11,-0.02,21.43
22531,0.2048,-0.0409,0.887,-5.91,7.95,-0.03,21.42
22541,0.2073,-0.0399,0.8818,-5.91,8.43,0.05,21.41
22551,0.2092,-0.0409,0.8719,-5.94,7.54,-0.03,21.43
22561,0.2108,-0.0406,0.87,-5.92,7.5,-0.15,21.45
22571,0.2112,-0.0404,0.8708,-5.95,6.58,0.02,21.42
22581,0.1924,-0.0392,0.8956,-5.95,7.27,-0.12,21.44
22591,0.1967,-0.0363,0.9054,-6.12,9.01,-0.14,21.46
22601,0.2306,-0.0389,0.8784,-5.92,7.45,-0.06,21.42
22611,0.2156,-0.0435,0.8906,-6.02,6.76,-0.02,21.44
22621,0.1909,-0.0468,0.8909,-6.05,8.29,-0.03,21.42
22631,0.1974,-0.0457,0.8773,-5.89,9.13,-0.05,21.41
22641,0.2223,-0.0461,0.8586,-5.92,7.22,0.03,21.44
22651,0.209,-0.049,0.8828,-6.03,6.05,-0.08,21.42
22661,0.1875,-0.0435,0.9059,-5.89,8.44,-0.03,21.44
22671,0.2103,-0.0437,0.8928,-5.98,8.81,-0.14,21.42
22681,0.2235,-0.045,0.8782,-5.88,6.93,-0.05,21.42
22691,0.2036,-0.0469,0.9001,-5.91,7.1,-0.06,21.42
22701,0.1965,-0.0475,0.8978,-5.97,8.5,-0.02,21.43
22711,0.2133,-0.0465,0.8799,-5.85,8.26,-0.09,21.43
22721,0.2151,-0.0443,0.879,-5.94,6.81,-0.03,21.43
22731,0.2043,-0.04,0.8912,-5.91,7.27,-0.11,21.42
22741,0.2057,-0.0374,0.8944,-5.95,7.74,-0.03,21.42
22751,0.2021,-0.0389,0.9022,-5.91,7.86,0.12,21.43
22761,0.2163,-0.036,0.8826,-6.02,7.83,-0.06,21.44
22771,0.2062,-0.0378,0.8885,-5.98,7.6,-0.03,21.44
22781,0.2034,-0.0386,0.889,-6.03,8.61,0.0,21.42
22791,0.2175,-0.0389,0.8673,-5.95,7.63,-0.06,21.42
22801,0.2039,-0.0383,0.8752,-5.92,7.05,-0.02,21.44
22811,0.1969,-0.0452,0.8884,-6.02,8.18,-0.05,21.44
22821,0.2096,-0.0443,0.8861,-5.95,7.6,0.03,21.43
22831,0.2047,-0.046,0.9067,-5.98,8.08,0.02,21.43
22841,0.2246,-0.049,0.8859,-6.08,8.02,-0.05,21.44
22851,0.2345,-0.053,0.8759,-5.91,6.69,-0.05,21.47
22861,0.1858,-0.0426,0.8923,-5.91,9.11,-0.12,21.43
22871,0.2299,-0.0405,0.8555,-5.88,7.83,-0.03,21.43
22881,0.2216,-0.0433,0.8772,-5.74,4.95,-0.03,21.41
22891,0.179,-0.0394,0.926,-5.97,8.78,-0.09,21.42
22901,0.2118,-0.0355,0.8931,-5.98,9.57,-0.03,21.42
22911,0.229,-0.0353,0.873,-5.94,7.22,-0.03,21.44
22921,0.2065,-0.0405,0.8765,-5.94,6.87,0.05,21.43
22931,0.1925,-0.0435,0.8826,-5.92,7.76,-0.11,21.42
22941,0.1979,-0.0416,0.881,-5.91,8.2,-0.02,21.42
22951,0.2068,-0.0361,0.8745,-5.83,8.08,-0.09,21.4
22961,0.2253,-0.0359,0.8698,-6.0,6.27,-0.09,21.44
22971,0.1868,-0.0345,0.9279,-6.11,9.22,-0.11,21.43
22981,0.2366,-0.0399,0.8719,-6.02,8.92,-0.09,21.45
22991,0.2493,-0.0417,0.8533,-6.02,6.34,0.06,21.44
23001,0.2026,-0.0433,0.8821,-6.09,6.37,-0.03,21.44
23011,0.1832,-0.0454,0.8994,-6.06,9.57,-0.02,21.43
23021,0.2223,-0.0449,0.8651,-5.85,8.34,-0.03,21.43
23031,0.2262,-0.0435,0.8715,-5.94,5.05,-0.09,21.42
23041,0.1809,-0.0403,0.9227,-6.03,8.05,0.0,21.45
23051,0.2128,-0.0383,0.897,-6.03,9.88,0.03,21.44
23061,0.2386,-0.0426,0.8593,-6.02,6.73,0.0,21.41
23071,0.197,-0.0461,0.8943,-5.92,6.78,-0.14,21.44
23081,0.1807,-0.0444,0.889,-5.92,10.21,-0.02,21.44
23091,0.2283,-0.0394,0.8503,-5.88,6.49,-0.12,21.44
23101,0.187,-0.0383,0.9019,-6.02,6.24,-0.11,21.44
23111,0.1849,-0.0281,0.9155,-6.05,9.79,0.0,21.44
23121,0.2339,-0.0287,0.866,-6.02,7.59,-0.09,21.45
23131,0.2118,-0.0288,0.8757,-5.97,5.91,0.0,21.45
23141,0.1844,-0.0344,0.8964,-6.06,8.98,-0.02,21.44
23151,0.2319,-0.0319,0.8575,-6.12,7.79,-0.06,21.43
23161,0.2236,-0.0393,0.8705,-6.0,5.08,-0.05,21.43
23171,0.1838,-0.0406,0.9171,-6.09,8.66,-0.06,21.44
23181,0.2175,-0.0518,0.8977,-6.18,9.56,-0.09,21.46
23191,0.241,-0.0537,0.8706,-5.97,6.35,-0.05,21.41
23201,0.2046,-0.0562,0.899,-6.09,7.39,0.02,21.42
23211,0.1991,-0.0553,0.89,-5.94,9.48,-0.02,21.42
23221,0.2206,-0.0562,0.8583,-5.94,7.95,-0.09,21.45
23231,0.2156,-0.0527,0.8734,-5.86,6.24,-0.05,21.43
23241,0.181,-0.0496,0.9148,-5.86,8.17,-0.03,21.44
23251,0.2003,-0.0499,0.8992,-5.95,9.42,0.08,21.42
23261,0.2205,-0.0438,0.8721,-5.89,7.11,0.02,21.45
23271,0.2035,-0.0372,0.8964,-5.91,6.79,-0.08,21.44
23281,0.1865,-0.0344,0.9009,-5.85,9.21,-0.03,21.44
23291,0.2122,-0.0331,0.8676,-5.83,8.93,0.02,21.44
23301,0.2275,-0.024,0.8569,-5.89,5.92,-0.02,21.44
23311,0.1991,-0.032,0.9023,-5.94,6.37,0.0,21.44
23321,0.1906,-0.0337,0.9265,-6.15,9.89,-0.02,21.43
23331,0.2393,-0.0326,0.8745,-6.09,8.08,-0.02,21.43
23341,0.2217,-0.0414,0.8762,-5.98,5.83,-0.08,21.41
23351,0.174,-0.0441,0.9049,-6.14,9.63,0.0,21.45
23361,0.2186,-0.0444,0.8595,-6.09,8.84,0.05,21.44
23371,0.2251,-0.0432,0.8583,-6.02,5.21,-0.02,21.43
23381,0.1752,-0.0455,0.9161,-5.97,7.83,-0.12,21.44
23391,0.1997,-0.0425,0.9012,-6.12,10.11,-0.09,21.43
23401,0.241,-0.0453,0.8661,-6.05,6.44,-0.09,21.45
23411,0.2007,-0.0438,0.9031,-6.03,6.55,-0.02,21.42
23421,0.1937,-0.0476,0.8998,-5.97,9.4,-0.02,21.44
23431,0.2178,-0.041,0.8644,-6.12,8.24,-0.06,21.43
23441,0.2277,-0.0427,0.8617,-5.94,6.11,-0.08,21.43
23451,0.1947,-0.0402,0.9049,-5.97,7.13,-0.03,21.44
23461,0.2046,-0.0421,0.9127,-6.03,9.95,-0.06,21.44
23471,0.2499,-0.041,0.8655,-5.97,6.87,-0.03,21.44
23481,0.2017,-0.0404,0.8892,-6.03,6.41,-0.11,21.45
23491,0.1735,-0.0406,0.8903,-6.02,10.23,-0.09,21.44
23501,0.2367,-0.041,0.8408,-5.8,6.7,-0.12,21.45
23511,0.2075,-0.0426,0.8848,-5.98,5.19,-0.08,21.45
23521,0.1816,-0.0455,0.9196,-6.05,8.87,-0.08,21.48
23531,0.2129,-0.0449,0.8859,-6.03,8.95,-0.15,21.44
23541,0.2272,-0.0399,0.8715,-5.94,5.54,-0.09,21.44
23551,0.182,-0.0444,0.9047,-5.94,8.05,0.0,21.45
23561,0.2012,-0.0404,0.8833,-6.03,9.6,-0.06,21.43
23571,0.2354,-0.0375,0.8536,-5.91,6.55,-0.05,21.44
23581,0.1968,-0.0455,0.9021,-5.95,5.68,-0.05,21.43
23591,0.186,-0.0411,0.9213,-6.06,10.03,-0.14,21.44
23601,0.2423,-0.0427,0.873,-6.12,7.89,-0.08,21.44
23611,0.2207,-0.0437,0.8795,-5.95,5.63,-0.11,21.46
23621,0.1973,-0.0449,0.8945,-6.0,6.87,-0.03,21.44
23631,0.1852,-0.046,0.8958,-6.03,9.89,-0.05,21.45
23641,0.2235,-0.04,0.8602,-6.0,7.98,-0.03,21.47
23651,0.2235,-0.0405,0.8668,-5.98,5.73,-0.09,21.46
23661,0.1843,-0.045,0.9152,-5.95,7.13,-0.14,21.46
23671,0.1979,-0.0449,0.9076,-6.12,10.03,-0.03,21.46
23681,0.2372,-0.0455,0.8719,-6.02,6.85,-0.08,21.46
23691,0.2015,-0.0449,0.8909,-6.03,7.08,-0.09,21.43
23701,0.1997,-0.0417,0.8813,-5.98,9.07,-0.03,21.44
23711,0.2401,-0.0409,0.8398,-5.82,6.61,0.14,21.44
23721,0.2117,-0.0377,0.8715,-5.91,5.11,-0.05,21.47
23731,0.1766,-0.0404,0.9108,-5.97,9.04,-0.08,21.46
23741,0.2191,-0.0406,0.8877,-6.05,8.85,0.0,21.46
23751,0.2307,-0.0415,0.874,-6.05,6.27,-0.06,21.44
23761,0.1952,-0.0452,0.8961,-6.0,7.45,-0.08,21.47
23771,0.1846,-0.0474,0.8896,-5.97,9.4,-0.06,21.48
23781,0.2107,-0.0428,0.8613,-5.92,8.32,-0.02,21.45
23791,0.2224,-0.0404,0.8628,-6.0,5.54,0.03,21.45
23801,0.1885,-0.0396,0.9041,-5.86,6.99,-0.06,21.47
23811,0.1957,-0.041,0.9115,-5.98,9.39,-0.06,21.46
23821,0.2311,-0.0417,0.8778,-6.02,7.68,-0.02,21.47
23831,0.2227,-0.0394,0.8799,-5.86,6.21,-0.09,21.48
23841,0.1978,-0.0439,0.894,-5.97,7.73,-0.06,21.47
23851,0.2017,-0.0431,0.8911,-5.94,8.67,0.02,21.47
23861,0.2191,-0.0415,0.8657,-6.0,7.98,-0.03,21.46
23871,0.2183,-0.0386,0.8658,-5.98,6.23,0.0,21.45
23881,0.1863,-0.0414,0.9015,-6.03,7.25,-0.03,21.46
23891,0.1946,-0.0391,0.9044,-6.06,9.82,-0.05,21.45
23901,0.2405,-0.0358,0.8691,-5.98,7.27,-0.08,21.46
23911,0.2047,-0.0378,0.8876,-6.05,6.27,0.0,21.47
23921,0.1779,-0.0448,0.8931,-6.0,9.51,-0.05,21.45
23931,0.2162,-0.0453,0.8586,-5.95,8.27,-0.06,21.44
23941,0.223,-0.042,0.8673,-5.89,5.68,-0.03,21.45
23951,0.187,-0.0458,0.9158,-5.98,7.13,-0.02,21.43
23961,0.1973,-0.0398,0.9072,-6.08,9.6,-0.12,21.48
23971,0.2292,-0.0415,0.8759,-6.03,7.6,-0.12,21.47
23981,0.215,-0.0442,0.8915,-5.97,6.61,-0.08,21.45
23991,0.191,-0.0459,0.9023,-6.02,8.84,-0.06,21.44
24001,0.2069,-0.046,0.8728,-6.03,9.19,-0.02,21.47
24011,0.231,-0.0426,0.855,-5.91,6.44,-0.08,21.48
24021,0.1902,-0.0419,0.8969,-5.97,6.41,-0.09,21.49
24031,0.1838,-0.0408,0.9139,-5.98,10.32,0.0,21.49
24041,0.2368,-0.036,0.8757,-5.98,7.79,0.0,21.47
24051,0.2156,-0.0394,0.8906,-5.95,6.11,-0.09,21.45
24061,0.1836,-0.0442,0.9044,-6.02,9.28,-0.08,21.45
24071,0.1927,-0.0452,0.8859,-5.94,10.55,-0.08,21.46
24081,0.2264,-0.042,0.8607,-5.91,4.92,-0.14,21.49
24091,0.1907,-0.0372,0.8986,-6.02,7.42,-0.06,21.46
24101,0.1985,-0.0424,0.8984,-6.03,8.84,0.0,21.47
24111,0.214,-0.0339,0.8842,-6.11,7.95,-0.11,21.47
24121,0.219,-0.0424,0.8815,-6.0,7.02,-0.11,21.48
24131,0.1903,-0.0519,0.8905,-5.98,7.88,-0.15,21.49
24141,0.2175,-0.0509,0.8663,-6.03,7.83,-0.02,21.45
24151,0.1996,-0.035,0.8723,-6.06,4.9,-0.11,21.48
24161,0.1754,-0.0477,0.9043,-6.06,11.01,-0.03,21.44
24171,0.2429,-0.0422,0.8605,-5.92,5.6,-0.02,21.49
24181,0.1887,-0.0419,0.9348,-6.21,8.05,-0.02,21.46
24191,0.2051,-0.0408,0.9111,-6.11,10.67,0.0,21.45
24201,0.2407,-0.0509,0.8451,-5.97,5.6,-0.02,21.46
24211,0.1893,-0.05,0.8773,-5.94,7.02,-0.02,21.45
24221,0.1815,-0.0449,0.8986,-6.0,8.44,-0.03,21.47
24231,0.2366,-0.0425,0.8535,-5.83,6.17,0.0,21.48
24241,0.2209,-0.0428,0.8724,-5.94,5.08,0.03,21.48
24251,0.1815,-0.0372,0.9209,-6.12,8.96,-0.06,21.45
24261,0.2356,-0.0364,0.8723,-5.95,8.75,0.0,21.46
24271,0.224,-0.042,0.8787,-5.89,5.8,-0.06,21.46
24281,0.203,-0.0468,0.891,-5.97,7.34,-0.09,21.47
24291,0.2019,-0.0437,0.8875,-5.94,8.52,-0.03,21.46
24301,0.2188,-0.0452,0.8678,-5.97,7.89,-0.03,21.47
24311,0.2219,-0.0397,0.8663,-5.94,5.83,-0.03,21.48
24321,0.1772,-0.0381,0.9099,-5.98,7.91,-0.03,21.47
24331,0.2017,-0.0394,0.8975,-5.89,9.77,-0.02,21.49
24341,0.2415,-0.0361,0.8684,-5.94,6.05,-0.08,21.47
24351,0.1895,-0.046,0.9106,-5.94,7.11,-0.14,21.47
24361,0.1877,-0.0439,0.901,-6.08,10.34,0.02,21.45
24371,0.2402,-0.0406,0.8536,-5.97,6.75,-0.11,21.45
24382,0.229,-0.0443,0.8563,-5.92,5.42,0.05,21.45
24392,0.1885,-0.0404,0.9065,-6.12,7.44,0.0,21.47
24402,0.1832,-0.0436,0.912,-6.12,8.58,0.02,21.47
24412,0.2299,-0.0382,0.8683,-5.91,7.53,-0.02,21.47
24422,0.2168,-0.0443,0.8827,-5.91,5.88,-0.12,21.47
24432,0.1833,-0.0479,0.9073,-5.94,8.52,-0.17,21.47
24442,0.2053,-0.0437,0.8813,-5.91,9.48,-0.02,21.49
24452,0.229,-0.0425,0.8583,-5.88,6.78,-0.03,21.45
24462,0.2239,-0.0389,0.8575,-5.92,6.02,-0.06,21.49
24472,0.1788,-0.0428,0.9016,-6.03,8.58,0.06,21.47
24482,0.2026,-0.0393,0.8901,-6.05,9.1,0.05,21.46
24492,0.2218,-0.0419,0.8752,-5.95,7.68,0.0,21.49
24502,0.2103,-0.0442,0.8818,-6.05,7.1,-0.09,21.47
24512,0.187,-0.0441,0.8961,-5.95,9.22,-0.02,21.48
24522,0.1935,-0.0459,0.8956,-6.03,9.91,-0.05,21.48
24532,0.2255,-0.0403,0.8688,-5.94,5.88,-0.06,21.49
24542,0.194,-0.0425,0.9027,-5.85,7.94,-0.08,21.48
24552,0.2174,-0.0392,0.8823,-5.88,8.85,-0.08,21.5
24562,0.2368,-0.0383,0.8667,-5.89,6.17,-0.09,21.46
24572,0.1943,-0.0466,0.9042,-5.91,6.58,-0.09,21.47
24582,0.1753,-0.0433,0.9193,-5.92,8.55,-0.05,21.46
24592,0.2435,-0.0387,0.8525,-5.98,7.15,-0.12,21.47
24602,0.209,-0.0388,0.8807,-5.94,5.47,-0.14,21.49
24612,0.182,-0.0377,0.9177,-6.03,9.33,-0.02,21.46
24622,0.2241,-0.0336,0.8781,-6.09,8.98,0.02,21.45
24632,0.233,-0.0361,0.869,-6.08,5.56,-0.11,21.49
24642,0.2067,-0.0428,0.89,-5.98,6.11,-0.09,21.5
24652,0.2012,-0.0411,0.8842,-5.98,9.68,0.03,21.47
24662,0.2374,-0.0393,0.8578,-5.91,6.46,-0.02,21.47
24672,0.2058,-0.0383,0.8927,-5.97,5.91,-0.05,21.47
24682,0.1813,-0.0405,0.9222,-6.06,9.56,0.06,21.48
24692,0.2249,-0.0406,0.8805,-5.98,9.15,-0.09,21.48
24703,0.2219,-0.0441,0.8788,-5.97,7.97,-0.09,21.49
24713,0.2124,-0.0482,0.8805,-6.0,6.6,-0.12,21.49
24723,0.1837,-0.0424,0.9011,-5.97,8.85,-0.05,21.48
24733,0.2157,-0.0396,0.8663,-5.97,8.89,-0.03,21.49
24743,0.226,-0.04,0.8557,-5.86,5.31,0.03,21.49
24753,0.1858,-0.0394,0.905,-5.88,7.21,-0.02,21.48
24763,0.1987,-0.0342,0.9049,-6.02,10.17,-0.06,21.49
24773,0.2417,-0.0399,0.8708,-5.94,6.56,-0.03,21.49
24783,0.1984,-0.0448,0.8987,-6.03,6.6,-0.05,21.48
24793,0.182,-0.0441,0.9004,-5.97,10.17,0.03,21.5
24803,0.2273,-0.0389,0.8488,-5.92,7.79,-0.05,21.49
24813,0.2173,-0.0393,0.8713,-5.76,5.04,-0.03,21.49
24823,0.1721,-0.0398,0.9261,-5.94,9.25,-0.06,21.51
24833,0.2305,-0.0367,0.8828,-6.0,8.99,-0.03,21.48
24843,0.2303,-0.0393,0.8783,-5.95,5.65,-0.05,21.47
24853,0.1786,-0.0449,0.9049,-6.11,8.34,-0.06,21.47
24863,0.2067,-0.0443,0.8763,-5.97,9.89,-0.02,21.46
24873,0.2308,-0.0436,0.8536,-5.98,7.89,-0.03,21.47
24883,0.2236,-0.0399,0.8684,-5.92,5.04,-0.05,21.49
24893,0.1813,-0.0378,0.9155,-6.08,8.03,-0.02,21.48
24903,0.2051,-0.036,0.8976,-6.05,9.68,0.02,21.49
24913,0.2396,-0.0367,0.8677,-5.97,6.15,-0.06,21.47
24923,0.1967,-0.0402,0.9071,-5.91,7.1,0.02,21.5
24933,0.1893,-0.043,0.9004,-6.0,9.92,-0.05,21.49
24943,0.2219,-0.0437,0.8555,-6.0,8.06,-0.11,21.49
24953,0.2207,-0.042,0.8589,-5.89,5.59,-0.14,21.48
24963,0.1769,-0.0442,0.9139,-5.91,8.09,-0.08,21.48
24973,0.2036,-0.0406,0.8936,-6.14,9.82,-0.03,21.47
24983,0.2421,-0.0376,0.8641,-6.03,6.4,0.0,21.48
24993,0.1976,-0.0461,0.9023,-6.09,6.41,0.0,21.47
25003,0.1851,-0.0428,0.9086,-6.05,10.43,0.03,21.48
25013,0.2295,-0.0435,0.8622,-5.95,8.12,-0.08,21.48
25023,0.2261,-0.0382,0.8593,-5.85,5.68,-0.08,21.49
25033,0.1954,-0.0411,0.9033,-5.98,6.98,0.05,21.48
25043,0.1949,-0.0398,0.9091,-5.94,9.88,-0.06,21.48
25053,0.238,-0.0419,0.8746,-5.97,7.65,0.0,21.52
25063,0.2174,-0.0411,0.8865,-5.94,5.54,-0.18,21.49
25073,0.176,-0.046,0.9136,-6.02,9.77,-0.02,21.49
25083,0.22,-0.042,0.8627,-6.0,8.89,0.0,21.46
25093,0.2299,-0.0404,0.8573,-5.88,5.37,-0.12,21.45
25103,0.1829,-0.0397,0.9141,-5.95,7.18,0.0,21.5
25113,0.1962,-0.0378,0.9032,-5.95,10.29,-0.09,21.49
25123,0.2394,-0.0391,0.8611,-6.0,6.56,-0.09,21.49
25133,0.1997,-0.0428,0.8918,-5.91,6.18,-0.03,21.49
25143,0.1846,-0.0413,0.9082,-6.02,10.23,0.02,21.49
25153,0.238,-0.0411,0.855,-5.95,7.71,-0.03,21.51
25163,0.2179,-0.0403,0.8708,-5.98,5.05,-0.03,21.5
25173,0.1868,-0.0449,0.9043,-6.0,7.88,-0.09,21.47
25183,0.2109,-0.0455,0.8931,-5.88,8.93,-0.06,21.49
25193,0.2324,-0.0443,0.8763,-5.92,6.43,-0.06,21.51
25203,0.1997,-0.0471,0.9004,-6.09,6.67,-0.03,21.5
25213,0.1852,-0.0457,0.8986,-6.05,10.06,-0.09,21.48
25223,0.2302,-0.0459,0.8513,-6.0,7.56,0.0,21.49
25233,0.2043,-0.0454,0.8772,-6.0,5.47,-0.02,21.48
25243,0.1791,-0.042,0.9141,-6.09,9.44,-0.09,21.47
25253,0.2268,-0.0381,0.881,-6.0,8.63,0.0,21.5
25263,0.2247,-0.0416,0.8759,-6.0,5.94,-0.09,21.48
25273,0.1863,-0.0446,0.9037,-5.94,8.14,0.0,21.48
25283,0.1975,-0.0427,0.8894,-5.94,9.44,-0.02,21.49
25293,0.2311,-0.0406,0.8584,-6.0,7.01,-0.08,21.5
25303,0.2114,-0.0426,0.8807,-5.86,5.63,-0.12,21.49
25313,0.1777,-0.043,0.9146,-5.98,8.93,-0.08,21.49
25323,0.2123,-0.0414,0.8899,-6.05,9.5,-0.06,21.5
25333,0.2308,-0.0438,0.873,-6.03,6.2,-0.08,21.49
25343,0.1809,-0.0437,0.906,-5.98,7.69,-0.05,21.47
25353,0.204,-0.0425,0.8832,-5.92,10.05,-0.05,21.49
25363,0.2319,-0.0403,0.8536,-5.88,6.11,-0.05,21.49
25373,0.1842,-0.0416,0.9078,-5.97,6.67,-0.05,21.52
25383,0.1964,-0.037,0.9081,-5.92,10.14,-0.03,21.48
25393,0.24,-0.0375,0.8722,-5.98,7.07,0.0,21.49
25403,0.2083,-0.042,0.8931,-6.02,6.12,-0.03,21.47
25413,0.1791,-0.0464,0.9082,-6.0,10.09,-0.02,21.5
25423,0.2233,-0.0433,0.8593,-5.98,8.24,-0.05,21.49
25433,0.224,-0.0417,0.8605,-5.88,5.19,-0.05,21.49
25443,0.1755,-0.0431,0.9077,-6.0,7.82,-0.03,21.48
25453,0.1957,-0.0396,0.9025,-6.02,9.85,-0.05,21.47
25463,0.2347,-0.0386,0.8721,-6.0,7.44,-0.05,21.49
25473,0.2172,-0.04,0.8868,-5.97,5.92,-0.15,21.5
25483,0.1788,-0.0469,0.9117,-6.02,9.28,-0.11,21.49
25493,0.2179,-0.0461,0.8685,-6.02,9.28,0.02,21.48
25503,0.2302,-0.0447,0.8571,-5.98,7.82,-0.05,21.47
25513,0.1907,-0.0411,0.8971,-5.97,6.89,-0.05,21.48
25523,0.1863,-0.0438,0.9089,-5.95,8.46,-0.06,21.49
25533,0.2079,-0.04,0.8962,-6.03,9.31,-0.11,21.49
25543,0.2346,-0.0354,0.8719,-6.08,7.02,0.03,21.49
25553,0.215,-0.0437,0.8861,-5.95,6.09,-0.02,21.47
25563,0.1813,-0.0414,0.9073,-6.0,9.04,-0.08,21.5
25573,0.2065,-0.043,0.8755,-5.95,9.42,-0.05,21.48
25583,0.2313,-0.0449,0.8542,-6.0,5.92,-0.06,21.47
25593,0.192,-0.0406,0.8995,-5.97,6.78,-0.08,21.49
25604,0.1953,-0.0411,0.8871,-5.92,6.78,0.03,21.48
25614,0.2072,-0.0394,0.894,-6.0,8.84,-0.06,21.49
25624,0.231,-0.0389,0.8754,-6.05,7.02,-0.12,21.49
25634,0.2175,-0.0433,0.8899,-5.88,6.81,-0.02,21.49
25644,0.1917,-0.0459,0.9009,-5.95,8.78,-0.03,21.47
25654,0.225,-0.0442,0.8656,-6.02,8.52,-0.12,21.47
25664,0.2228,-0.0458,0.865,-5.91,5.86,-0.06,21.51
25674,0.1915,-0.0409,0.9012,-5.91,7.39,0.0,21.49
25684,0.193,-0.0374,0.9115,-5.88,9.79,-0.03,21.47
25694,0.2361,-0.0386,0.8676,-5.97,7.66,-0.12,21.49
25704,0.212,-0.0406,0.8817,-6.0,5.66,-0.02,21.49
25714,0.1714,-0.0415,0.908,-5.91,9.56,-0.03,21.48
25724,0.2242,-0.0419,0.8596,-5.89,8.52,-0.03,21.49
25734,0.2224,-0.036,0.8655,-5.95,5.63,-0.11,21.47
25744,0.1842,-0.0428,0.9005,-6.02,7.25,0.05,21.51
25754,0.1909,-0.0392,0.8961,-6.0,9.45,-0.06,21.49
25764,0.229,-0.037,0.8776,-6.0,7.47,-0.08,21.46
25774,0.2234,-0.0383,0.8796,-5.85,5.95,-0.09,21.48
25784,0.1841,-0.0475,0.9109,-5.92,8.12,-0.15,21.49
25794,0.1998,-0.0424,0.889,-5.94,10.03,-0.03,21.5
25804,0.239,-0.0399,0.8497,-5.94,6.41,-0.14,21.48
25814,0.1968,-0.042,0.8971,-5.94,5.88,-0.17,21.49
25824,0.184,-0.0385,0.9194,-6.12,9.73,-0.02,21.48
25834,0.2305,-0.035,0.8781,-6.06,8.76,-0.08,21.49
25844,0.2277,-0.0448,0.8768,-5.95,5.44,-0.05,21.5
25854,0.1801,-0.0454,0.9067,-5.98,8.2,0.0,21.49
25864,0.1981,-0.0437,0.8807,-6.0,10.23,0.05,21.49
25874,0.2375,-0.0424,0.8461,-5.98,6.24,-0.03,21.5
25884,0.2277,-0.0446,0.8557,-5.86,4.89,-0.05,21.49
25894,0.1737,-0.0399,0.9224,-6.08,10.15,-0.08,21.47
25904,0.2292,-0.0415,0.8772,-5.98,8.27,0.0,21.5
25914,0.2234,-0.0414,0.8716,-5.91,5.62,-0.05,21.5
25924,0.1755,-0.0452,0.9144,-5.91,8.81,-0.08,21.49
25934,0.2137,-0.0439,0.874,-6.02,9.37,-0.02,21.48
25944,0.2336,-0.0408,0.8561,-5.85,7.62,-0.05,21.49
25954,0.1843,-0.0381,0.9076,-6.02,7.25,-0.05,21.5
25964,0.1973,-0.0422,0.9056,-6.03,9.95,0.02,21.55
25974,0.2366,-0.0388,0.8712,-6.09,6.92,-0.08,21.53
25984,0.2106,-0.0425,0.8937,-6.06,6.09,-0.15,21.5
25994,0.1821,-0.0455,0.9111,-6.05,9.37,0.02,21.49
26004,0.182,-0.0431,0.9016,-6.06,10.47,-0.09,21.51
26014,0.2388,-0.0439,0.8446,-5.94,5.33,-0.06,21.49
26024,0.1892,-0.0422,0.8971,-5.98,6.08,-0.08,21.52
26034,0.1843,-0.0415,0.917,-5.98,10.34,0.0,21.5
26044,0.2401,-0.0425,0.8716,-5.97,7.5,-0.05,21.51
26054,0.2126,-0.0428,0.8901,-5.89,6.03,-0.11,21.52
26064,0.1931,-0.045,0.896,-6.02,6.99,0.02,21.5
26074,0.2164,-0.0424,0.8623,-5.97,8.98,-0.02,21.51
26084,0.2294,-0.0415,0.8513,-5.89,5.62,-0.03,21.48
26094,0.187,-0.0416,0.91,-6.18,6.67,0.03,21.5
26104,0.189,-0.0413,0.913,-6.05,9.82,-0.06,21.54
26114,0.2351,-0.0397,0.8676,-5.98,7.63,0.03,21.49
26124,0.2389,-0.0444,0.8608,-5.98,5.8,-0.11,21.52
26134,0.1829,-0.0453,0.9058,-5.97,9.66,-0.09,21.5
26144,0.2449,-0.0406,0.8485,-5.89,7.15,-0.02,21.49
26154,0.2072,-0.0439,0.8802,-5.83,5.01,-0.14,21.52
26164,0.1932,-0.0426,0.8986,-6.08,6.78,-0.12,21.5
26174,0.1948,-0.0406,0.906,-6.09,9.57,-0.03,21.53
26184,0.24,-0.0396,0.8629,-5.94,7.53,-0.06,21.51
26194,0.2141,-0.0428,0.8811,-5.95,5.4,-0.05,21.54
26204,0.1748,-0.0455,0.9135,-6.05,9.63,-0.05,21.51
26214,0.2247,-0.0433,0.8693,-5.91,8.93,-0.03,21.5
26224,0.2246,-0.041,0.8562,-5.91,5.4,-0.03,21.5
26234,0.1842,-0.0428,0.8975,-5.95,7.6,-0.12,21.51
26244,0.1927,-0.043,0.9041,-5.98,9.05,0.0,21.52
26254,0.2196,-0.0404,0.8861,-5.94,8.44,-0.09,21.51
26264,0.2307,-0.0435,0.8765,-5.95,6.27,-0.11,21.49
26274,0.1899,-0.0439,0.9059,-5.97,7.57,-0.11,21.5
26284,0.1871,-0.0436,0.8936,-5.97,10.27,-0.06,21.52
26294,0.2356,-0.0428,0.8522,-5.92,6.85,-0.11,21.51
26304,0.2343,-0.0452,0.8523,-5.91,5.37,0.0,21.53
26314,0.178,-0.0422,0.9175,-6.05,9.22,0.0,21.5
26324,0.2261,-0.0375,0.8829,-6.03,8.7,-0.05,21.53
26334,0.2318,-0.0399,0.8726,-5.91,5.6,0.0,21.5
26344,0.1808,-0.0442,0.9062,-6.03,8.03,-0.03,21.51
26354,0.2002,-0.0441,0.8774,-5.97,9.92,0.0,21.5
26364,0.2329,-0.0481,0.8535,-6.02,8.29,-0.06,21.5
26374,0.1897,-0.0426,0.8925,-5.97,6.27,-0.12,21.5
26384,0.179,-0.0421,0.9149,-5.92,10.32,-0.08,21.49
26394,0.2345,-0.0391,0.8792,-6.02,8.12,-0.08,21.5
26404,0.2271,-0.0458,0.8813,-5.89,5.88,-0.06,21.51
26414,0.214,-0.0464,0.8894,-5.85,6.23,-0.09,21.51
26424,0.1948,-0.047,0.8839,-5.91,9.79,0.02,21.48
26434,0.2328,-0.0421,0.8462,-5.92,6.76,-0.08,21.49
26444,0.2051,-0.0425,0.8839,-5.98,6.35,0.03,21.52
26454,0.1865,-0.0342,0.9072,-6.05,8.99,-0.02,21.5
26464,0.2244,-0.0402,0.8793,-5.95,8.72,0.0,21.51
26474,0.2286,-0.0398,0.8818,-5.98,5.48,-0.05,21.5
26484,0.2141,-0.0424,0.89,-5.95,6.26,-0.09,21.5
26494,0.2008,-0.0439,0.88,-5.97,9.44,-0.06,21.52
26504,0.2256,-0.0421,0.8623,-5.94,6.69,-0.03,21.52
26514,0.2084,-0.0438,0.8806,-5.91,5.63,-0.03,21.51
26524,0.1968,-0.0355,0.9059,-6.02,10.41,0.02,21.51
26534,0.2456,-0.0402,0.8571,-5.95,5.82,-0.05,21.51
26544,0.2202,-0.0421,0.8784,-5.86,5.1,-0.09,21.53
26554,0.1946,-0.0438,0.8883,-6.0,10.17,-0.08,21.52
26564,0.2267,-0.0415,0.8535,-5.95,7.22,-0.08,21.5
26574,0.2124,-0.0402,0.8751,-5.97,5.76,-0.09,21.51
26584,0.1805,-0.0424,0.9155,-6.08,7.98,-0.11,21.49
26594,0.1946,-0.04,0.912,-6.14,10.2,0.0,21.5
26604,0.2122,-0.0405,0.8959,-5.94,9.59,-0.02,21.47
26614,0.2043,-0.0441,0.8885,-6.08,6.5,-0.09,21.52
26624,0.1848,-0.0428,0.9026,-6.03,10.46,-0.06,21.5
26634,0.2429,-0.0427,0.8455,-5.95,6.81,-0.12,21.52
26644,0.2059,-0.0419,0.8876,-5.97,5.65,-0.03,21.49
26654,0.173,-0.0399,0.922,-6.0,9.85,0.0,21.51
26664,0.2361,-0.0433,0.8672,-5.98,8.52,-0.05,21.53
26674,0.2216,-0.0463,0.8806,-5.97,5.21,-0.09,21.52
26684,0.1746,-0.0442,0.9152,-6.05,9.85,-0.05,21.51
26694,0.2294,-0.047,0.8584,-5.98,8.67,-0.02,21.54
26704,0.2236,-0.043,0.8571,-5.88,4.99,-0.09,21.53
26714,0.1798,-0.0428,0.9095,-6.03,7.82,-0.02,21.52
26724,0.1816,-0.0442,0.9136,-6.0,9.47,-0.02,21.51
26734,0.2407,-0.0402,0.8699,-6.0,6.17,-0.03,21.52
26744,0.1981,-0.041,0.9038,-5.91,6.53,0.03,21.52
26754,0.1869,-0.0428,0.9005,-5.94,10.02,-0.03,21.49
26764,0.2089,-0.042,0.8787,-5.98,9.74,-0.03,21.53
26774,0.2133,-0.0404,0.8804,-6.02,5.16,-0.02,21.51
26784,0.1929,-0.0388,0.9027,-5.97,6.38,0.0,21.51
26794,0.186,-0.0405,0.9174,-6.11,10.09,-0.11,21.5
26804,0.238,-0.0406,0.8654,-6.09,5.89,-0.05,21.5
26814,0.2227,-0.0444,0.8766,-5.94,5.28,-0.03,21.51
26824,0.1705,-0.0483,0.9113,-6.09,9.22,-0.12,21.49
26834,0.2114,-0.048,0.8707,-5.98,9.42,-0.11,21.5
26844,0.2339,-0.0341,0.8519,-5.98,4.41,-0.06,21.49
26854,0.136,-0.0648,0.9341,-5.51,9.89,0.12,21.51
26864,0.1758,-0.054,0.9366,-6.5,14.89,-0.08,21.53
26874,0.2363,-0.0304,0.8496,-5.95,3.27,0.0,21.51
26884,0.1785,-0.048,0.9069,-6.06,12.66,-0.15,21.53
26894,0.2394,-0.0328,0.8558,-5.92,5.25,-0.06,21.5
26904,0.2197,-0.0391,0.8796,-5.95,6.58,-0.08,21.53
26914,0.1945,-0.0441,0.9104,-6.06,8.69,0.0,21.53
26924,0.2112,-0.0453,0.8955,-6.03,8.79,0.0,21.52
26934,0.2208,-0.0398,0.8792,-5.98,7.59,-0.06,21.52
26944,0.1984,-0.041,0.8884,-6.02,7.5,-0.02,21.53
26954,0.1989,-0.0514,0.8875,-6.08,9.07,-0.05,21.52
26964,0.22,-0.0431,0.8701,-5.95,6.84,-0.06,21.54
26974,0.2002,-0.0458,0.8942,-5.89,7.13,-0.09,21.53
26984,0.1921,-0.0476,0.9017,-6.03,8.44,-0.11,21.51
26994,0.2069,-0.0437,0.8966,-5.95,8.75,-0.05,21.52
27004,0.229,-0.0416,0.8751,-6.03,6.67,-0.03,21.53
27014,0.1895,-0.0463,0.9034,-5.94,7.76,-0.08,21.53
27024,0.197,-0.0377,0.8828,-5.92,9.83,-0.03,21.51
27034,0.2321,-0.0385,0.8467,-5.91,6.35,-0.03,21.49
27044,0.1975,-0.0376,0.8993,-5.97,6.06,-0.08,21.54
27054,0.1954,-0.038,0.9089,-5.95,9.18,-0.08,21.51
27064,0.2258,-0.0399,0.8828,-6.05,7.8,0.03,21.5
27074,0.2222,-0.0465,0.8822,-6.08,6.44,-0.02,21.51
27084,0.2141,-0.0464,0.8812,-5.88,6.5,-0.06,21.5
27094,0.2014,-0.041,0.8793,-5.97,9.69,0.05,21.54
27104,0.2341,-0.0392,0.8549,-5.91,5.8,-0.05,21.53
27114,0.1859,-0.0378,0.9019,-6.0,6.98,-0.08,21.53
27124,0.1996,-0.0404,0.9092,-6.05,10.05,-0.12,21.53
27134,0.2345,-0.04,0.8722,-5.86,6.87,-0.03,21.54
27144,0.2014,-0.0442,0.8888,-5.98,6.73,-0.09,21.53
27154,0.1838,-0.0424,0.9006,-5.98,9.92,-0.14,21.52
27164,0.2324,-0.0377,0.8496,-5.91,7.25,-0.06,21.52
27174,0.2091,-0.0334,0.8829,-5.88,5.82,-0.02,21.51
27184,0.1793,-0.0396,0.9196,-6.09,8.66,-0.05,21.53
27194,0.2159,-0.0397,0.8894,-5.91,9.31,-0.05,21.53
27204,0.2297,-0.0443,0.8796,-6.03,7.85,-0.09,21.53
27214,0.1917,-0.0457,0.8962,-6.02,7.57,0.0,21.51
27224,0.1962,-0.0426,0.8826,-5.98,9.19,-0.09,21.53
27234,0.2283,-0.0363,0.8542,-6.03,7.25,-0.08,21.52
27244,0.2167,-0.0382,0.8833,-5.85,5.16,-0.09,21.54
27254,0.1801,-0.041,0.9274,-5.97,8.63,-0.12,21.53
27265,0.1843,-0.0406,0.9237,-6.05,9.95,-0.03,21.53
27275,0.2402,-0.0396,0.8682,-5.97,7.94,-0.05,21.52
27285,0.2091,-0.0466,0.8816,-5.92,6.29,-0.09,21.52
27295,0.1759,-0.042,0.8976,-6.02,9.74,-0.02,21.53
27305,0.2273,-0.037,0.8503,-5.91,7.85,-0.03,21.52
27315,0.2172,-0.0396,0.8749,-5.86,5.3,-0.03,21.54
27325,0.1844,-0.0403,0.9183,-5.98,8.24,0.0,21.55
27335,0.2135,-0.0394,0.8921,-6.02,9.21,0.03,21.55
27345,0.2296,-0.0425,0.8749,-5.83,6.46,-0.06,21.52
27355,0.1952,-0.0447,0.8965,-6.08,7.62,-0.02,21.53
27365,0.1937,-0.0432,0.8864,-5.94,9.28,-0.03,21.49
