t_ms,accel_x_g,accel_y_g,accel_z_g,gyro_x_dps,gyro_y_dps,gyro_z_dps,imu_temp_c
4230,0.1392,-0.2064,0.8723,-6.23,7.89,0.02,23.74
4240,0.1389,-0.2046,0.8724,-6.23,7.88,-0.03,23.72
4288,0.1382,-0.2008,0.8776,-6.23,7.71,-0.05,23.71
4298,0.1404,-0.2047,0.875,-6.2,7.97,0.0,23.75
4308,0.1368,-0.2028,0.8767,-6.21,7.94,0.03,23.73
4318,0.1392,-0.205,0.8793,-6.37,7.89,-0.11,23.74
4328,0.1392,-0.2042,0.8746,-6.31,7.63,-0.05,23.75
4338,0.1362,-0.2048,0.8734,-6.38,7.59,-0.05,23.77
4348,0.1373,-0.2061,0.8708,-6.37,7.73,-0.06,23.75
4358,0.1399,-0.2068,0.875,-6.21,7.91,-0.12,23.77
4368,0.1362,-0.2045,0.8733,-6.05,7.85,-0.09,23.74
4378,0.1385,-0.2042,0.8784,-6.15,7.74,-0.09,23.74
4388,0.1406,-0.2012,0.8776,-6.29,7.62,-0.09,23.79
4398,0.1416,-0.2014,0.8782,-6.31,7.76,-0.11,23.77
4408,0.1377,-0.2023,0.8746,-6.38,7.86,-0.05,23.75
4418,0.1393,-0.2025,0.8771,-6.23,7.88,-0.03,23.77
4428,0.1382,-0.2053,0.8741,-6.17,7.71,-0.06,23.74
4438,0.1398,-0.2041,0.8745,-6.15,7.63,-0.09,23.74
4448,0.1403,-0.2023,0.8748,-6.32,7.65,-0.05,23.75
4458,0.1407,-0.2047,0.8739,-6.34,7.82,0.02,23.78
4468,0.1405,-0.2037,0.877,-6.29,7.91,-0.06,23.75
4478,0.1377,-0.2034,0.8783,-6.29,7.88,-0.05,23.77
4488,0.1379,-0.2034,0.8762,-6.2,7.8,-0.09,23.76
4498,0.1375,-0.204,0.8724,-6.18,7.63,0.02,23.76
4508,0.1389,-0.2009,0.8785,-6.26,7.73,0.0,23.75
4518,0.1409,-0.202,0.8772,-6.18,7.86,-0.02,23.75
4528,0.1382,-0.2039,0.8776,-6.24,7.82,0.0,23.79
4538,0.1364,-0.203,0.8782,-6.21,7.73,0.0,23.78
4548,0.1414,-0.2026,0.8763,-6.26,7.66,0.0,23.77
4558,0.1406,-0.2037,0.8771,-6.32,7.74,-0.05,23.79
4568,0.1429,-0.2034,0.8733,-6.29,7.8,-0.06,23.78
4578,0.1399,-0.2072,0.8737,-6.38,7.8,-0.08,23.77
4588,0.1414,-0.203,0.8744,-6.2,7.71,0.0,23.75
4598,0.1395,-0.2057,0.8734,-6.15,7.65,-0.03,23.78
4608,0.1403,-0.2042,0.875,-6.08,7.71,-0.05,23.78
4618,0.1372,-0.2037,0.8761,-6.12,7.77,-0.02,23.78
4628,0.1373,-0.2035,0.8773,-6.21,7.85,0.0,23.76
4638,0.141,-0.2017,0.8781,-6.37,7.92,-0.08,23.75
4648,0.1403,-0.2047,0.8765,-6.44,7.8,0.02,23.78
4658,0.1404,-0.2032,0.8793,-6.34,7.69,-0.06,23.78
4668,0.1381,-0.2045,0.8711,-6.2,7.54,-0.05,23.77
4678,0.1415,-0.2023,0.8756,-6.17,7.69,0.03,23.75
4688,0.1431,-0.1985,0.8717,-6.17,7.86,0.03,23.78
4698,0.1368,-0.2002,0.8751,-6.27,7.88,0.02,23.77
4708,0.1365,-0.2041,0.8733,-6.41,7.86,0.02,23.77
4718,0.1396,-0.2079,0.8777,-6.29,7.88,-0.02,23.8
4728,0.1415,-0.2058,0.8779,-6.24,7.88,0.02,23.75
4738,0.1378,-0.2064,0.8743,-6.12,7.71,-0.02,23.78
4748,0.1407,-0.2036,0.8713,-5.97,7.5,-0.09,23.77
4758,0.1396,-0.2017,0.8823,-6.03,7.54,-0.05,23.78
4768,0.1427,-0.2006,0.877,-6.11,7.6,-0.02,23.78
4778,0.1378,-0.2001,0.8782,-6.49,7.85,-0.03,23.77
4788,0.1389,-0.2013,0.8771,-6.43,7.94,-0.03,23.79
4798,0.1365,-0.2028,0.8732,-6.32,7.88,-0.03,23.77
4808,0.1365,-0.2003,0.8749,-6.15,7.63,-0.09,23.82
4818,0.1389,-0.1993,0.8781,-6.23,7.5,-0.05,23.79
4828,0.1415,-0.1993,0.8767,-6.24,7.69,0.0,23.79
4838,0.1439,-0.2023,0.8777,-6.4,7.83,0.0,23.82
4848,0.14,-0.2034,0.8752,-6.4,8.0,0.03,23.8
4858,0.1393,-0.2041,0.8759,-6.31,7.95,-0.09,23.76
4868,0.1388,-0.2047,0.879,-6.38,7.85,-0.03,23.78
4878,0.1381,-0.2065,0.8756,-6.47,7.82,-0.02,23.78
4888,0.1423,-0.2083,0.8741,-6.49,7.71,0.03,23.78
4898,0.1406,-0.2042,0.8723,-6.34,7.73,-0.06,23.78
4908,0.1371,-0.2047,0.8706,-6.2,7.8,-0.03,23.78
4918,0.1401,-0.204,0.8773,-6.06,7.95,-0.02,23.79
4928,0.1373,-0.2029,0.8794,-6.2,7.82,0.0,23.8
4938,0.1367,-0.203,0.8795,-6.4,7.76,-0.03,23.81
4948,0.1348,-0.2042,0.8767,-6.56,7.74,-0.12,23.81
4958,0.1361,-0.2035,0.8727,-6.31,7.59,-0.05,23.85
4968,0.1393,-0.2012,0.8745,-6.14,7.68,-0.03,23.82
4978,0.1396,-0.2014,0.8757,-6.09,7.79,0.03,23.8
4988,0.1396,-0.1985,0.8812,-6.09,7.76,0.05,23.82
4998,0.1394,-0.2026,0.8792,-6.34,7.76,-0.05,23.81
5008,0.1417,-0.1993,0.8809,-6.41,7.69,-0.05,23.82
5018,0.1418,-0.2019,0.8746,-6.53,7.73,-0.08,23.82
5028,0.1467,-0.2056,0.8719,-6.5,7.83,-0.05,23.79
5038,0.1415,-0.2039,0.8755,-6.4,8.09,0.02,23.82
5048,0.1367,-0.205,0.8763,-6.34,8.14,-0.09,23.82
5058,0.1354,-0.2059,0.8762,-6.29,7.91,0.05,23.81
5068,0.1349,-0.2065,0.874,-6.17,7.56,-0.09,23.8
5078,0.1398,-0.204,0.8726,-6.14,7.48,-0.17,23.81
5088,0.1421,-0.2048,0.8754,-6.14,7.65,-0.12,23.82
5098,0.1448,-0.2043,0.8807,-6.12,7.71,-0.02,23.84
5108,0.1399,-0.2043,0.8809,-6.26,7.76,-0.03,23.81
5118,0.1436,-0.203,0.8783,-6.34,7.71,-0.05,23.83
5128,0.1433,-0.2018,0.8752,-6.32,7.68,-0.06,23.82
5138,0.1414,-0.2024,0.8726,-6.29,7.8,-0.09,23.82
5149,0.1385,-0.202,0.8737,-6.26,7.85,-0.02,23.81
5159,0.1375,-0.2031,0.8745,-6.32,8.06,0.02,23.83
5169,0.1392,-0.2051,0.8729,-6.47,8.12,-0.05,23.83
5179,0.1357,-0.2111,0.8746,-6.49,8.02,-0.06,23.81
5189,0.1373,-0.2084,0.8749,-6.4,7.89,-0.06,23.84
5199,0.1372,-0.2061,0.8734,-6.38,7.83,-0.06,23.84
5209,0.1351,-0.2065,0.8699,-6.18,7.69,0.03,23.81
5219,0.1416,-0.2041,0.8772,-6.05,7.73,-0.09,23.84
5229,0.1412,-0.2021,0.8809,-6.17,7.83,0.0,23.85
5239,0.1392,-0.2034,0.8796,-6.27,8.05,0.0,23.81
5249,0.1384,-0.2076,0.8745,-6.46,7.83,-0.09,23.85
5259,0.1378,-0.2061,0.8723,-6.43,7.62,-0.11,23.83
5269,0.1411,-0.2059,0.8744,-6.11,7.51,-0.08,23.82
5279,0.1387,-0.2023,0.8813,-6.11,7.65,-0.08,23.83
5289,0.1379,-0.2037,0.8789,-6.2,7.82,0.03,23.83
5299,0.134,-0.2046,0.8788,-6.34,7.79,-0.05,23.84
5309,0.1315,-0.2012,0.8744,-6.32,7.4,-0.06,23.84
5319,0.1354,-0.2111,0.8625,-6.08,7.21,-0.02,23.84
5329,0.14,-0.2064,0.8658,-5.97,7.36,0.05,23.85
5339,0.1437,-0.2025,0.8712,-5.92,7.69,0.17,23.84
5349,0.1383,-0.2072,0.8772,-6.08,8.11,0.14,23.84
5359,0.1362,-0.2102,0.8801,-6.37,8.03,0.06,23.87
5369,0.1371,-0.2036,0.8809,-6.41,7.76,-0.08,23.83
5379,0.1349,-0.2072,0.8805,-6.31,7.59,-0.05,23.84
5389,0.1372,-0.2026,0.8762,-6.27,7.71,0.0,23.84
5399,0.1361,-0.197,0.877,-6.31,8.12,0.05,23.84
5409,0.1346,-0.1976,0.8806,-6.35,8.2,0.08,23.84
5419,0.1329,-0.2003,0.8774,-6.35,8.02,-0.05,23.82
5429,0.1333,-0.2046,0.8799,-6.4,7.83,-0.09,23.84
5439,0.1351,-0.2039,0.876,-6.44,7.63,-0.09,23.84
5449,0.137,-0.2028,0.8773,-6.31,7.69,-0.15,23.85
5459,0.1375,-0.2045,0.8739,-6.11,7.82,-0.08,23.84
5469,0.1399,-0.2051,0.8783,-6.15,7.88,-0.08,23.85
5479,0.1422,-0.1985,0.8759,-6.23,7.66,-0.11,23.86
5489,0.1465,-0.197,0.8744,-6.24,7.34,-0.17,23.87
5499,0.1497,-0.1992,0.8767,-6.26,7.42,-0.2,23.85
5509,0.1528,-0.1971,0.8751,-6.17,7.45,-0.11,23.86
5519,0.1581,-0.2023,0.8722,-6.18,7.79,-0.09,23.83
5529,0.1541,-0.2061,0.8771,-6.24,7.92,-0.03,23.86
5539,0.1537,-0.2128,0.8773,-6.35,8.05,-0.02,23.86
5549,0.1487,-0.2086,0.8772,-6.55,8.14,0.03,23.81
5559,0.1461,-0.2097,0.8771,-6.52,7.8,-0.05,23.85
5569,0.1421,-0.2094,0.874,-6.32,7.66,0.05,23.85
5579,0.1432,-0.2043,0.8733,-6.23,7.83,0.06,23.86
5589,0.1399,-0.2021,0.8729,-6.27,8.05,0.03,23.83
5599,0.1365,-0.1981,0.8749,-6.38,8.14,0.05,23.85
5609,0.1379,-0.1954,0.882,-6.46,8.15,0.06,23.87
5619,0.1357,-0.1982,0.8807,-6.6,8.12,-0.11,23.87
5629,0.1382,-0.2024,0.8777,-6.7,8.15,-0.08,23.87
5640,0.1368,-0.203,0.8738,-6.85,8.08,-0.08,23.87
5650,0.1372,-0.2053,0.8768,-6.72,7.91,-0.14,23.87
5660,0.1357,-0.2084,0.8765,-6.49,7.74,-0.06,23.86
5670,0.1345,-0.2029,0.8733,-6.37,7.74,0.05,23.85
5680,0.1393,-0.2056,0.8748,-6.18,7.73,0.02,23.85
5690,0.1377,-0.2017,0.8782,-6.06,7.94,-0.03,23.86
5700,0.1318,-0.2048,0.8844,-6.35,8.08,0.0,23.87
5710,0.1337,-0.2069,0.8789,-6.55,7.95,-0.09,23.84
5720,0.135,-0.2102,0.8756,-6.58,7.65,-0.08,23.86
5730,0.1376,-0.2102,0.871,-6.4,7.62,0.0,23.86
5740,0.1356,-0.2064,0.8761,-6.12,7.86,-0.08,23.85
5750,0.1359,-0.2035,0.8721,-6.12,8.03,0.0,23.86
5760,0.1377,-0.2003,0.8726,-5.95,7.85,-0.05,23.87
5770,0.1383,-0.2009,0.8802,-5.82,7.51,-0.09,23.87
5780,0.14,-0.201,0.8817,-5.89,7.48,-0.09,23.87
5790,0.1384,-0.2004,0.8779,-6.12,7.66,-0.02,23.87
5800,0.1389,-0.202,0.8789,-6.31,7.68,0.0,23.88
5810,0.1399,-0.2025,0.8724,-6.47,7.82,0.05,23.86
5820,0.1393,-0.2017,0.8756,-6.35,7.77,0.02,23.86
5830,0.1418,-0.2021,0.8701,-6.14,7.83,-0.05,23.86
5840,0.142,-0.2034,0.877,-6.23,7.91,-0.05,23.87
5850,0.14,-0.2064,0.8805,-6.58,7.92,-0.02,23.87
5860,0.1434,-0.2126,0.8779,-6.63,7.89,-0.08,23.89
5870,0.1447,-0.2046,0.8809,-6.61,8.18,0.0,23.85
5880,0.1361,-0.2045,0.8696,-6.23,7.28,-0.03,23.87
5890,0.1389,-0.1987,0.8732,-5.85,7.92,-0.17,23.86
5900,0.1443,-0.2042,0.8777,-5.94,7.66,0.06,23.85
5910,0.1316,-0.1964,0.8762,-5.97,8.41,-0.06,23.85
5920,0.1361,-0.2089,0.8812,-6.66,7.39,-0.08,23.85
5930,0.1346,-0.2006,0.8646,-6.56,7.54,-0.12,23.87
5940,0.144,-0.2095,0.8744,-5.89,7.08,-0.03,23.89
5950,0.1439,-0.1986,0.8717,-5.89,7.8,0.03,23.88
5960,0.1437,-0.2025,0.8849,-6.29,8.41,0.02,23.87
5970,0.1385,-0.2035,0.8811,-6.6,8.31,-0.02,23.88
5980,0.1359,-0.2069,0.8823,-6.64,7.91,-0.12,23.9
5990,0.1361,-0.2017,0.8708,-6.67,7.42,-0.17,23.89
6000,0.142,-0.2051,0.8634,-6.24,7.54,-0.12,23.92
6010,0.1425,-0.2065,0.8715,-6.18,8.05,0.03,23.88
6020,0.1404,-0.2094,0.8738,-6.08,8.49,0.08,23.9
6030,0.1406,-0.2064,0.884,-6.15,8.27,0.08,23.88
6040,0.1343,-0.2067,0.8854,-6.12,7.51,-0.11,23.88
6050,0.1404,-0.2036,0.8806,-6.21,6.96,-0.12,23.88
6060,0.1475,-0.2026,0.8741,-6.27,7.07,-0.2,23.89
6070,0.1464,-0.2056,0.8765,-6.26,7.86,-0.06,23.89
6080,0.1427,-0.2054,0.8712,-6.21,8.29,0.03,23.89
6090,0.1412,-0.2076,0.8756,-6.05,8.05,0.09,23.9
6100,0.1348,-0.2058,0.8719,-6.05,7.51,-0.12,23.91
6110,0.146,-0.205,0.8717,-6.08,7.13,-0.08,23.9
6120,0.1405,-0.2046,0.8723,-6.37,7.71,-0.03,23.87
6130,0.1411,-0.2015,0.87,-6.14,8.24,0.0,23.87
6140,0.1343,-0.2025,0.876,-5.92,8.31,0.02,23.89
6150,0.1311,-0.2047,0.8815,-5.76,8.11,0.0,23.88
6160,0.1349,-0.2032,0.8782,-5.83,7.45,-0.02,23.91
6170,0.139,-0.2054,0.8802,-6.08,6.95,-0.06,23.89
6180,0.1466,-0.2057,0.8766,-6.24,7.5,-0.09,23.89
6190,0.1431,-0.2032,0.8705,-6.35,8.0,0.0,23.87
6200,0.1353,-0.203,0.8701,-6.23,8.44,0.12,23.88
6210,0.1376,-0.205,0.8812,-6.17,8.02,0.12,23.87
6220,0.1403,-0.1993,0.8779,-5.97,7.01,0.31,23.89
6230,0.1444,-0.201,0.8713,-5.69,6.24,1.02,23.9
6240,0.1454,-0.1984,0.87,-5.91,6.5,1.27,23.88
6250,0.1465,-0.203,0.8748,-6.03,7.88,1.22,23.88
6260,0.1418,-0.2056,0.8694,-5.95,8.41,0.92,23.87
6270,0.1366,-0.2079,0.8831,-5.73,7.91,0.41,23.88
6280,0.1378,-0.2013,0.8789,-5.39,7.07,-0.02,23.89
6290,0.1466,-0.2,0.8795,-5.39,6.55,-0.17,23.88
6300,0.1492,-0.1982,0.8767,-5.88,6.82,-0.21,23.88
6310,0.1508,-0.1959,0.8743,-6.17,7.88,-0.12,23.89
6320,0.1434,-0.2008,0.8732,-6.38,8.32,-0.02,23.9
6330,0.1383,-0.2057,0.8776,-6.27,8.35,-0.03,23.89
6341,0.1371,-0.2108,0.8794,-6.21,7.76,-0.09,23.91
6351,0.1361,-0.203,0.8722,-6.23,7.45,-0.11,23.91
6361,0.1406,-0.2009,0.874,-6.32,7.31,-0.14,23.9
6371,0.1431,-0.1998,0.873,-6.34,7.91,-0.05,23.92
6381,0.142,-0.2058,0.8789,-6.26,8.18,-0.02,23.91
6391,0.1362,-0.2032,0.877,-6.21,8.2,0.0,23.9
6401,0.1346,-0.2069,0.8823,-6.14,7.85,0.03,23.9
6411,0.1364,-0.2065,0.8777,-6.34,7.56,-0.06,23.9
6421,0.1376,-0.2056,0.8772,-6.43,7.68,0.0,23.91
6431,0.1327,-0.2065,0.8732,-6.4,7.95,0.05,23.91
6445,0.1338,-0.2025,0.8727,-6.2,7.92,0.44,23.89
6455,0.1315,-0.2006,0.8781,-6.12,7.8,0.05,23.91
6465,0.1366,-0.202,0.8754,-6.09,7.51,-0.02,23.9
6475,0.1383,-0.2,0.8774,-6.12,7.59,0.02,23.9
6485,0.1377,-0.2006,0.8767,-6.27,7.89,0.0,23.9
6495,0.1381,-0.2028,0.8802,-6.31,8.02,0.0,23.9
6505,0.1403,-0.2034,0.874,-6.37,7.88,-0.05,23.88
6515,0.1422,-0.2009,0.8738,-6.21,7.65,-0.06,23.9
6525,0.1422,-0.2008,0.8779,-6.09,7.62,0.06,23.89
6535,0.1444,-0.2004,0.8756,-6.2,7.71,0.03,23.9
6545,0.1407,-0.2034,0.8735,-6.38,7.74,0.0,23.88
6555,0.1406,-0.2046,0.8679,-6.64,7.76,-0.03,23.89
6565,0.1376,-0.2042,0.8658,-6.4,7.79,0.06,23.9
6575,0.1361,-0.2019,0.8679,-6.14,7.86,0.02,23.92
6585,0.1368,-0.2007,0.8744,-6.11,7.92,0.17,23.91
6595,0.1376,-0.2003,0.885,-5.98,8.0,0.06,23.94
6605,0.1421,-0.202,0.8873,-6.14,7.98,0.03,23.92
6615,0.1396,-0.2021,0.8805,-6.44,7.59,-0.09,23.9
6625,0.1453,-0.2012,0.8767,-6.53,7.39,-0.05,23.91
6635,0.1411,-0.1984,0.8702,-6.44,7.45,0.0,23.9
6645,0.1439,-0.2014,0.8712,-6.2,7.98,0.0,23.92
6655,0.1388,-0.2014,0.8748,-6.15,8.23,0.03,23.91
6665,0.1377,-0.2002,0.8793,-6.32,7.98,0.0,23.91
6675,0.1394,-0.2035,0.8789,-6.32,7.57,-0.09,23.92
6685,0.139,-0.2058,0.8783,-6.43,7.36,-0.12,23.92
6695,0.1412,-0.2051,0.8741,-6.31,7.54,-0.05,23.92
6705,0.1414,-0.202,0.8689,-6.29,7.98,0.02,23.94
6715,0.1396,-0.2025,0.8744,-6.06,8.2,0.06,23.94
6725,0.1366,-0.2025,0.879,-6.15,8.2,0.05,23.9
6735,0.1351,-0.2064,0.8792,-6.23,7.92,-0.06,23.89
6745,0.1417,-0.2053,0.8849,-6.27,7.68,-0.03,23.92
6755,0.1423,-0.2047,0.885,-6.09,7.76,-0.05,23.9
6765,0.1426,-0.2036,0.8883,-6.12,7.8,0.02,23.92
6775,0.1404,-0.2028,0.8831,-6.31,7.79,-0.11,23.91
6785,0.1399,-0.1985,0.8779,-6.38,7.51,-0.08,23.91
6795,0.1455,-0.2041,0.8745,-6.29,7.56,-0.08,23.92
6805,0.1431,-0.2003,0.8772,-6.31,8.02,0.03,23.95
6815,0.145,-0.2059,0.8768,-6.53,8.11,0.05,23.94
6825,0.1396,-0.204,0.8744,-6.53,8.03,0.03,23.92
6835,0.1407,-0.2034,0.8752,-6.31,7.57,-0.02,23.93
6845,0.1387,-0.2053,0.8728,-6.24,7.54,-0.08,23.91
6855,0.1384,-0.2062,0.875,-6.29,7.53,0.0,23.93
6865,0.1384,-0.2009,0.8705,-6.6,7.85,-0.08,23.92
6875,0.1372,-0.2133,0.8718,-6.31,7.82,0.12,23.94
6885,0.1434,-0.2117,0.8845,-6.24,8.14,0.11,23.91
6895,0.1282,-0.1859,0.8771,-5.74,7.86,0.0,23.92
6905,0.1357,-0.1851,0.8739,-5.91,7.16,-0.18,23.94
6915,0.1517,-0.2025,0.8723,-6.56,7.07,-0.2,23.92
6925,0.1453,-0.2111,0.8641,-7.15,8.55,0.09,23.92
6935,0.1309,-0.2058,0.8654,-6.9,8.9,0.09,23.92
6945,0.1327,-0.204,0.8722,-5.74,8.08,0.11,23.94
6955,0.1382,-0.205,0.8853,-5.13,7.51,0.0,23.92
6965,0.136,-0.2015,0.8901,-5.92,7.56,-0.09,23.92
6975,0.1392,-0.201,0.8811,-6.93,7.8,-0.09,23.94
6985,0.1436,-0.2102,0.873,-7.19,7.94,-0.11,23.93
6995,0.1422,-0.2087,0.8661,-6.5,7.83,-0.09,23.92
7005,0.1399,-0.2008,0.8699,-5.56,7.66,0.09,23.96
7015,0.1417,-0.2001,0.8801,-5.47,7.53,-0.11,23.92
7025,0.1395,-0.1967,0.8796,-6.18,7.6,-0.03,23.93
7035,0.1399,-0.1974,0.8795,-6.73,7.85,-0.09,23.92
7045,0.14,-0.2003,0.8763,-6.79,8.12,-0.05,23.93
7055,0.137,-0.2025,0.8761,-6.34,8.15,0.0,23.92
7065,0.1379,-0.2021,0.8792,-5.86,7.79,0.03,23.89
7075,0.1361,-0.1978,0.8799,-6.11,7.19,-0.14,23.95
7085,0.142,-0.1991,0.8739,-6.6,7.25,-0.11,23.93
7095,0.1443,-0.2025,0.8679,-6.85,7.42,-0.17,23.94
7105,0.1447,-0.2053,0.8646,-6.66,7.97,-0.14,23.91
7115,0.1449,-0.2102,0.8671,-6.06,8.29,0.09,23.92
7125,0.1388,-0.2076,0.8755,-5.91,8.21,0.08,23.93
7135,0.134,-0.201,0.8839,-6.06,8.27,0.0,23.95
7145,0.1895,-0.2083,0.8456,-6.26,6.78,0.08,23.94
7155,0.1769,-0.2003,0.854,-6.47,6.44,0.24,23.92
7165,0.1134,-0.2054,0.8994,-6.47,8.15,0.05,23.95
7176,0.1317,-0.2103,0.8826,-6.26,7.57,0.14,23.94
7186,0.1255,-0.1978,0.89,-6.23,8.14,-0.08,23.94
7196,0.1475,-0.2017,0.875,-6.35,7.83,-0.08,23.93
7206,0.1489,-0.1915,0.8632,-6.32,7.59,-0.05,23.94
7216,0.137,-0.1954,0.8687,-6.47,7.44,-0.03,23.93
7226,0.14,-0.1971,0.8807,-6.38,7.74,-0.15,23.94
7236,0.1333,-0.2013,0.871,-6.38,8.09,-0.05,23.92
7246,0.1354,-0.2102,0.87,-6.58,8.2,0.02,23.94
7257,0.1398,-0.208,0.8732,-6.55,8.12,-0.09,23.92
7267,0.1395,-0.2062,0.8806,-5.98,7.91,-0.02,23.94
7277,0.1382,-0.2079,0.8864,-6.21,7.54,-0.05,23.96
7287,0.1404,-0.2039,0.8765,-6.38,7.33,-0.11,23.94
7297,0.1456,-0.2059,0.8755,-6.38,7.53,-0.09,23.94
7307,0.1449,-0.2036,0.871,-6.41,8.0,-0.09,23.96
7317,0.1404,-0.1985,0.8723,-6.4,8.15,0.0,23.93
7327,0.137,-0.203,0.8802,-6.26,8.05,-0.05,23.93
7337,0.1371,-0.203,0.8844,-6.24,7.88,-0.09,23.94
7347,0.1423,-0.1985,0.882,-6.26,7.6,-0.03,23.97
7357,0.144,-0.1958,0.8787,-6.46,7.95,-0.02,23.96
7367,0.1553,-0.2091,0.8971,-6.4,8.73,0.12,23.93
7377,0.1365,-0.2001,0.8927,-6.44,10.08,0.29,23.93
7387,0.127,-0.1975,0.8739,-7.89,7.74,-0.14,23.95
7397,0.13,-0.1967,0.8424,-8.47,7.27,-0.23,23.95
7407,0.1423,-0.1958,0.8531,-8.73,8.0,-0.12,23.95
7417,0.1311,-0.1987,0.8524,-7.73,10.44,0.18,23.97
7427,0.1299,-0.2057,0.8645,-6.23,9.63,0.26,23.97
7437,0.1241,-0.2063,0.8749,-4.41,7.19,0.12,23.96
7447,0.1313,-0.2109,0.899,-3.77,4.55,-0.32,23.98
7457,0.1437,-0.2094,0.9021,-5.4,5.04,-0.41,23.97
7467,0.1616,-0.2172,0.8766,-7.24,6.64,-0.37,23.94
7477,0.1688,-0.222,0.8486,-7.34,8.29,0.02,23.96
7487,0.1566,-0.2162,0.8562,-6.29,8.82,0.09,23.95
7497,0.1512,-0.2084,0.8745,-5.27,8.55,0.15,23.96
7507,0.1464,-0.197,0.887,-5.44,8.24,0.03,23.96
7517,0.1447,-0.1912,0.8866,-6.85,8.26,0.02,23.99
7527,0.149,-0.1956,0.874,-7.95,8.24,-0.02,23.97
7537,0.1454,-0.1957,0.868,-7.59,8.14,-0.03,23.97
7547,0.1473,-0.2034,0.8636,-6.52,8.06,0.0,23.96
7557,0.1425,-0.198,0.8805,-5.82,8.53,0.02,23.97
7567,0.1299,-0.2028,0.8926,-6.17,8.7,0.12,23.97
7578,0.1248,-0.2104,0.8865,-7.54,8.87,0.09,23.98
7588,0.1221,-0.2048,0.8732,-8.03,8.37,-0.06,23.95
7598,0.1244,-0.2064,0.8583,-7.37,7.3,-0.2,23.98
7608,0.1293,-0.207,0.8588,-6.27,6.56,-0.21,23.97
7618,0.1421,-0.202,0.8612,-5.28,6.37,-0.18,23.96
7628,0.1504,-0.1987,0.87,-5.01,6.87,-0.05,23.97
7638,0.1499,-0.2012,0.8729,-5.6,7.74,0.09,23.95
7648,0.1462,-0.2074,0.8796,-6.2,8.18,0.12,23.96
7658,0.1405,-0.2096,0.8796,-6.47,8.23,0.02,23.97
7669,0.1357,-0.2068,0.8756,-6.05,7.68,-0.05,23.95
7679,0.1322,-0.2024,0.8816,-5.79,7.22,-0.11,23.95
7689,0.1337,-0.1945,0.8776,-5.63,7.01,-0.08,23.95
7699,0.14,-0.197,0.8792,-5.85,6.96,-0.11,23.97
7709,0.1384,-0.2007,0.8794,-6.17,7.28,-0.08,23.96
7719,0.1418,-0.2047,0.8741,-6.49,7.6,-0.12,23.97
7729,0.1442,-0.2053,0.8654,-6.41,7.45,0.02,23.98
7739,0.1465,-0.2068,0.8676,-6.11,7.57,0.02,23.97
7749,0.1432,-0.2009,0.8762,-6.0,7.98,0.05,23.99
7759,0.1406,-0.2024,0.8796,-6.18,8.26,0.06,23.97
7769,0.136,-0.2046,0.8813,-6.35,8.35,-0.03,23.99
7779,0.1337,-0.2064,0.8829,-6.49,7.91,-0.12,23.97
7789,0.1353,-0.2075,0.8776,-6.44,7.3,-0.12,23.98
7799,0.1379,-0.2064,0.8724,-6.31,7.16,-0.12,23.99
7809,0.1399,-0.2017,0.8722,-6.0,7.5,-0.03,23.98
7819,0.1439,-0.2017,0.8734,-6.09,8.0,0.05,23.99
7830,0.1405,-0.2039,0.8809,-6.23,8.31,0.05,23.98
7840,0.1376,-0.2067,0.8822,-6.44,7.94,0.03,23.97
7850,0.1377,-0.21,0.8765,-6.56,7.57,0.0,23.97
7860,0.139,-0.2072,0.8728,-6.38,7.5,-0.08,23.96
7871,0.1398,-0.2041,0.8738,-6.02,7.85,0.06,23.99
7881,0.135,-0.2012,0.8805,-6.06,8.03,0.06,23.98
7891,0.1337,-0.2017,0.881,-6.14,7.79,-0.03,23.99
7902,0.1373,-0.1998,0.8816,-6.23,7.39,-0.05,24.01
7912,0.141,-0.1987,0.8788,-6.43,7.34,-0.18,23.97
7922,0.1438,-0.1991,0.8765,-6.47,7.8,-0.06,23.99
7932,0.1426,-0.1998,0.8727,-6.66,8.52,-0.02,23.98
7942,0.1406,-0.2008,0.8802,-6.87,9.13,0.0,23.96
7952,0.1349,-0.2021,0.8903,-7.37,9.28,0.0,23.98
7962,0.1339,-0.2008,0.8871,-7.8,8.95,-0.08,23.99
7972,0.1365,-0.203,0.8733,-8.11,8.63,-0.12,23.99
7982,0.137,-0.2067,0.8668,-8.05,8.49,-0.18,24.0
7992,0.1385,-0.2095,0.8704,-7.71,8.14,-0.12,23.99
8002,0.1393,-0.2096,0.871,-7.1,7.73,-0.18,24.0
8012,0.1445,-0.2098,0.8741,-6.27,7.39,-0.11,23.99
8022,0.1465,-0.2081,0.8719,-5.88,7.56,-0.05,23.99
8032,0.1478,-0.2097,0.8816,-5.79,7.82,0.0,23.99
8042,0.1416,-0.2084,0.8806,-5.97,7.8,-0.11,23.98
8052,0.1421,-0.2084,0.8806,-6.08,7.42,-0.08,23.99
8062,0.1453,-0.2046,0.8767,-6.08,7.31,-0.08,24.0
8072,0.147,-0.2042,0.8779,-6.31,7.91,0.02,24.0
8082,0.1416,-0.2041,0.8711,-6.63,8.53,0.03,24.02
8092,0.1323,-0.2034,0.8718,-6.89,8.82,0.15,24.02
8102,0.1243,-0.2021,0.8741,-6.82,8.55,-0.05,23.99
8112,0.1281,-0.2014,0.8733,-6.56,8.08,-0.03,23.96
8122,0.132,-0.2015,0.8756,-6.53,7.74,-0.05,23.99
8132,0.1357,-0.2032,0.8704,-6.64,7.77,-0.14,24.01
8142,0.1409,-0.2076,0.8745,-6.7,8.03,-0.06,24.0
8152,0.1431,-0.2047,0.8727,-6.64,8.27,-0.05,23.99
8162,0.1425,-0.2042,0.879,-6.63,8.29,-0.02,23.98
8172,0.1383,-0.2063,0.8787,-6.53,8.15,0.0,24.0
8182,0.1403,-0.2076,0.8765,-6.64,7.82,-0.08,24.0
8192,0.1383,-0.2112,0.8763,-6.76,7.68,-0.15,23.97
8202,0.1398,-0.2078,0.8674,-6.78,7.73,-0.06,23.99
8212,0.1387,-0.2068,0.8702,-6.75,7.88,0.05,24.01
8222,0.1398,-0.2045,0.8744,-6.58,8.17,0.02,24.01
8233,0.1405,-0.2034,0.877,-6.44,8.44,-0.02,24.01
8243,0.1392,-0.2021,0.8828,-6.52,8.24,-0.06,24.02
8253,0.1393,-0.205,0.8845,-6.66,7.88,-0.11,24.01
8263,0.1417,-0.205,0.8781,-6.79,7.71,-0.12,24.01
8274,0.1482,-0.205,0.8781,-6.93,7.71,-0.12,23.98
8284,0.1483,-0.2054,0.8727,-6.89,7.98,-0.06,23.99
8294,0.1458,-0.2074,0.8805,-6.76,8.24,-0.12,24.01
8304,0.1415,-0.2064,0.8738,-6.82,8.29,0.03,24.0
8314,0.1398,-0.2074,0.8711,-6.82,8.18,-0.08,24.02
8324,0.1448,-0.2146,0.8738,-6.78,7.77,-0.08,24.0
8334,0.145,-0.2175,0.8818,-6.89,8.02,0.02,24.01
8344,0.1442,-0.2056,0.8741,-7.01,8.34,-0.08,24.02
8354,0.1417,-0.2035,0.8748,-6.52,8.08,0.03,24.02
8364,0.12,-0.2163,0.8961,-6.17,8.15,0.05,24.01
8374,0.1077,-0.2078,0.9132,-6.89,9.27,-0.03,24.01
8384,0.1255,-0.2072,0.8655,-6.87,8.37,-0.03,24.02
8394,0.1412,-0.2167,0.8628,-6.38,7.22,0.06,24.02
8404,0.1396,-0.2086,0.8638,-6.2,7.22,0.0,24.0
8414,0.1396,-0.204,0.8691,-5.8,7.6,-0.05,24.01
8424,0.1388,-0.204,0.869,-5.89,7.42,-0.05,24.03
8434,0.1376,-0.1997,0.8656,-6.06,7.56,-0.06,24.0
8444,0.1379,-0.2034,0.8755,-6.17,7.77,-0.02,24.02
8454,0.1298,-0.2048,0.879,-6.05,8.0,0.02,24.02
8464,0.1274,-0.2061,0.8843,-5.98,7.74,-0.09,23.99
8474,0.1298,-0.2045,0.8815,-5.98,7.31,-0.11,24.0
8484,0.1359,-0.209,0.8755,-6.08,6.96,-0.11,24.03
8494,0.1354,-0.2115,0.8766,-6.27,7.4,-0.11,24.02
8504,0.1315,-0.2114,0.8749,-6.47,7.92,-0.03,24.0
8514,0.1281,-0.21,0.8744,-6.44,8.34,0.12,24.01
8524,0.129,-0.2067,0.8739,-6.32,8.18,0.0,24.0
8534,0.1312,-0.2047,0.8749,-6.2,7.8,-0.05,23.98
8544,0.1377,-0.2064,0.8765,-6.31,7.3,-0.09,24.01
8554,0.1405,-0.2068,0.873,-6.41,7.53,-0.14,24.04
8564,0.1432,-0.2056,0.8723,-6.31,7.97,0.0,24.02
8574,0.1392,-0.2095,0.874,-6.06,8.03,0.02,24.01
8584,0.137,-0.207,0.8743,-5.89,7.94,-0.08,24.0
8594,0.1394,-0.2043,0.8762,-5.8,7.48,-0.05,24.02
8604,0.1403,-0.2052,0.8799,-5.95,7.5,-0.02,24.02
8614,0.1367,-0.2069,0.8792,-6.29,7.69,0.0,24.01
8624,0.1356,-0.2107,0.8754,-6.21,7.8,-0.05,24.0
8634,0.1348,-0.2098,0.8713,-6.09,7.71,0.06,24.02
8644,0.1362,-0.2126,0.8706,-5.8,7.47,-0.05,24.03
8654,0.1337,-0.2079,0.8708,-5.66,7.54,-0.03,24.02
8664,0.1348,-0.2036,0.8783,-5.85,8.05,0.09,24.02
8674,0.1343,-0.2041,0.881,-6.44,8.61,0.05,24.02
8684,0.1338,-0.201,0.8904,-7.3,9.18,0.06,24.02
8694,0.13,-0.2013,0.879,-8.05,9.57,0.03,24.02
8704,0.1272,-0.2086,0.877,-8.4,9.48,-0.17,23.99
8714,0.1212,-0.2117,0.8693,-7.91,8.7,-0.17,24.0
8724,0.124,-0.2104,0.8655,-7.28,7.51,-0.2,24.03
8734,0.1312,-0.2153,0.8577,-6.31,6.5,-0.21,24.04
8744,0.1364,-0.213,0.8604,-5.5,6.26,-0.18,24.02
8754,0.1415,-0.2119,0.8654,-4.81,7.1,-0.12,24.02
8764,0.1442,-0.2135,0.8774,-4.61,7.68,0.11,24.03
8774,0.1399,-0.2112,0.8835,-4.75,7.71,0.11,24.03
8784,0.1361,-0.2086,0.8872,-4.96,6.95,-0.05,24.02
8794,0.1393,-0.204,0.8848,-5.16,6.17,-0.18,24.04
8804,0.1504,-0.2031,0.8762,-5.31,5.89,-0.12,24.01
8814,0.1528,-0.2,0.8667,-5.5,6.67,-0.06,24.03
8824,0.1523,-0.1992,0.8706,-5.63,7.62,0.03,23.99
8834,0.1526,-0.1996,0.8774,-5.73,8.26,0.11,24.05
8844,0.1451,-0.2028,0.8813,-5.74,8.17,0.11,24.02
8854,0.1471,-0.2046,0.8846,-5.83,7.57,0.03,24.02
8864,0.1492,-0.2007,0.884,-6.17,7.33,0.0,24.03
8874,0.15,-0.208,0.8727,-6.35,7.27,-0.06,24.03
8884,0.1508,-0.203,0.8717,-6.18,7.71,-0.02,24.03
8894,0.1461,-0.2026,0.8741,-5.88,8.0,0.06,24.04
8904,0.1395,-0.2054,0.8749,-5.83,8.27,-0.03,24.05
8914,0.1346,-0.2053,0.8802,-5.94,7.97,-0.03,24.02
8924,0.1276,-0.2045,0.8771,-6.15,7.42,-0.06,24.03
8934,0.1317,-0.2008,0.8701,-6.12,7.18,-0.06,24.04
8944,0.135,-0.2024,0.8749,-6.11,7.74,-0.02,24.02
8954,0.1348,-0.1958,0.8777,-6.24,8.35,0.03,24.04
8964,0.1302,-0.1985,0.8855,-6.64,8.6,0.05,24.04
8974,0.1348,-0.2031,0.8796,-7.24,8.5,-0.05,24.01
8984,0.1335,-0.2102,0.8788,-7.48,8.34,0.02,24.01
8994,0.1361,-0.2065,0.8711,-7.18,7.94,-0.05,24.0
9004,0.1388,-0.2101,0.8695,-6.66,7.82,-0.06,24.02
9014,0.1409,-0.2111,0.8705,-6.52,8.0,-0.06,24.04
9024,0.1418,-0.2086,0.8724,-6.41,8.08,-0.12,24.03
9034,0.1432,-0.2089,0.874,-6.18,7.79,-0.11,24.01
9044,0.1432,-0.2053,0.8761,-5.76,7.42,-0.18,24.01
9054,0.1429,-0.2056,0.8698,-5.36,6.9,-0.14,24.03
9064,0.1466,-0.2061,0.8739,-5.16,6.67,-0.18,24.02
9074,0.1461,-0.2001,0.8707,-5.42,6.95,-0.03,24.03
9084,0.1436,-0.1984,0.8778,-5.6,7.34,0.06,24.03
9095,0.1383,-0.2006,0.8773,-5.6,7.63,0.12,24.05
9105,0.1378,-0.2032,0.871,-5.68,7.28,-0.06,24.03
9115,0.1365,-0.2041,0.8782,-5.83,7.16,-0.05,24.02
9126,0.1365,-0.2085,0.8743,-5.85,6.95,-0.06,24.0
9136,0.1411,-0.2114,0.8706,-5.91,7.22,0.03,24.04
9146,0.1392,-0.2075,0.8741,-5.94,7.73,0.05,24.02
9156,0.139,-0.2076,0.876,-5.94,7.92,0.06,24.04
9166,0.1356,-0.201,0.8766,-5.91,7.94,0.02,24.04
9176,0.1346,-0.2036,0.8768,-5.94,7.71,-0.09,24.05
9186,0.1359,-0.2037,0.8785,-6.11,7.54,-0.09,24.02
9196,0.1365,-0.2086,0.8752,-6.21,7.68,0.0,24.03
9206,0.1389,-0.207,0.8713,-6.14,7.94,0.0,24.03
9216,0.1382,-0.2024,0.8833,-5.76,8.06,0.08,24.04
9226,0.139,-0.202,0.8861,-5.85,8.02,0.09,24.04
9236,0.1344,-0.2,0.8859,-6.05,7.98,0.05,24.04
9246,0.136,-0.2028,0.8778,-6.4,7.76,0.06,24.05
9482,0.1372,-0.2028,0.8737,-6.2,8.35,0.02,24.04
9492,0.1338,-0.2041,0.8743,-6.35,8.24,-0.02,24.04
9503,0.1351,-0.2014,0.8774,-6.27,7.8,0.02,24.05
9513,0.1384,-0.203,0.8761,-6.32,7.42,-0.14,24.04
9523,0.1431,-0.2013,0.8768,-6.29,7.59,-0.09,24.05
9534,0.1442,-0.1975,0.8739,-6.24,7.91,0.0,24.04
9544,0.1433,-0.2018,0.8806,-6.24,8.15,0.0,24.05
9554,0.1423,-0.2008,0.8807,-6.37,7.95,-0.03,24.07
9564,0.141,-0.201,0.8812,-6.53,7.59,-0.06,24.06
9574,0.1486,-0.2037,0.8768,-6.56,7.45,-0.18,24.07
9584,0.1479,-0.2053,0.8695,-6.49,7.59,-0.06,24.06
9594,0.1483,-0.2057,0.8708,-6.44,8.0,-0.05,24.04
9604,0.1475,-0.2045,0.8752,-6.32,8.26,0.05,24.06
9614,0.142,-0.2048,0.8766,-6.41,8.21,0.0,24.05
9624,0.1401,-0.2032,0.874,-6.29,7.8,-0.03,24.05
9634,0.1378,-0.2041,0.8781,-6.2,7.44,-0.11,24.05
9644,0.1432,-0.203,0.8749,-6.18,7.45,-0.14,24.08
9654,0.1434,-0.205,0.8782,-6.18,7.82,-0.05,24.07
9664,0.1403,-0.2036,0.8828,-6.11,8.12,0.06,24.08
9674,0.1401,-0.2047,0.879,-6.27,8.02,0.0,24.05
9684,0.1381,-0.1997,0.876,-6.35,7.66,-0.08,24.03
9694,0.1365,-0.2051,0.8732,-6.26,7.42,-0.08,24.05
9704,0.1394,-0.207,0.8672,-6.32,7.54,-0.12,24.07
9714,0.134,-0.2054,0.8696,-6.26,8.06,-0.06,24.03
9724,0.1343,-0.2051,0.8802,-6.27,8.21,0.06,24.07
9734,0.1321,-0.2068,0.8801,-6.38,8.14,0.09,24.08
9744,0.1307,-0.2058,0.8784,-6.29,7.68,-0.11,24.04
9754,0.1339,-0.2065,0.8729,-6.35,7.42,-0.09,24.05
9764,0.1359,-0.2039,0.8699,-6.4,7.59,-0.08,24.06
9774,0.1321,-0.2021,0.8705,-6.49,7.85,-0.05,24.07
9784,0.1338,-0.203,0.8722,-6.31,8.11,0.06,24.05
9794,0.1285,-0.2018,0.8757,-6.12,8.11,0.05,24.04
9804,0.1302,-0.2026,0.8795,-6.21,7.66,0.05,24.08
9814,0.1311,-0.2028,0.88,-6.43,7.53,-0.11,24.07
9824,0.1351,-0.2036,0.8781,-6.66,7.45,-0.12,24.04
9834,0.1373,-0.2091,0.8711,-6.55,7.83,-0.06,24.08
9844,0.1432,-0.2096,0.868,-6.26,8.09,-0.02,24.07
9854,0.1432,-0.2085,0.8794,-6.0,8.05,0.0,24.07
9864,0.1416,-0.205,0.8813,-6.27,7.74,-0.03,24.05
9874,0.1429,-0.2069,0.8776,-6.56,7.47,-0.12,24.1
9884,0.1483,-0.2041,0.8683,-6.66,7.45,-0.18,24.06
9894,0.1479,-0.2057,0.8661,-6.52,7.8,-0.06,24.08
9904,0.1466,-0.2072,0.8704,-6.18,8.17,0.02,24.06
9914,0.1382,-0.2061,0.8792,-5.95,8.23,0.06,24.04
9924,0.1403,-0.2035,0.8843,-6.03,7.89,0.0,24.04
9934,0.1385,-0.202,0.8854,-6.46,7.47,-0.15,24.05
9944,0.1432,-0.2025,0.8771,-6.73,7.22,-0.12,24.07
9954,0.1477,-0.2037,0.8694,-6.79,7.36,-0.15,24.06
9964,0.142,-0.2028,0.8649,-6.26,7.73,-0.03,24.07
9974,0.1409,-0.2058,0.8739,-6.0,8.2,-0.02,24.06
9984,0.1392,-0.2039,0.8827,-6.03,8.27,0.08,24.05
9994,0.1375,-0.2069,0.8802,-6.5,7.91,-0.05,24.07
10004,0.1394,-0.2092,0.8748,-6.76,7.51,-0.09,24.09
10014,0.1412,-0.2119,0.8663,-6.49,7.59,-0.12,24.06
10024,0.1404,-0.2068,0.8627,-6.12,8.02,-0.02,24.06
10034,0.1353,-0.2043,0.8719,-5.71,8.27,0.05,24.09
10044,0.1294,-0.203,0.885,-5.83,8.27,0.12,24.06
10054,0.1281,-0.2032,0.8843,-6.38,8.06,-0.08,24.05
10064,0.1262,-0.2065,0.8773,-6.75,7.6,-0.12,24.07
10074,0.129,-0.2075,0.8652,-6.6,7.27,-0.15,24.07
10084,0.1432,-0.2053,0.8651,-6.12,7.39,-0.11,24.07
10094,0.1448,-0.2036,0.8721,-5.71,7.88,-0.02,24.07
10104,0.145,-0.203,0.8826,-5.91,8.2,0.0,24.05
10114,0.1381,-0.2037,0.8813,-6.12,8.09,0.09,24.06
10124,0.1359,-0.203,0.8804,-6.35,7.71,-0.15,24.07
10134,0.1407,-0.2037,0.8743,-6.15,7.27,-0.15,24.07
10144,0.1403,-0.2013,0.8713,-6.09,7.39,-0.06,24.07
10154,0.1438,-0.2023,0.8751,-5.98,7.8,-0.06,24.07
10164,0.1448,-0.201,0.8774,-6.23,8.03,0.02,24.09
10174,0.1442,-0.1998,0.8762,-6.35,8.0,-0.02,24.07
10184,0.1427,-0.2018,0.876,-6.43,7.69,-0.06,24.08
10194,0.1431,-0.2023,0.8783,-6.18,7.57,-0.05,24.07
10204,0.1423,-0.2018,0.8831,-6.06,7.91,-0.03,24.07
10214,0.1392,-0.2074,0.8788,-6.31,8.17,0.03,24.06
10224,0.1396,-0.2046,0.8804,-6.53,7.94,-0.05,24.07
10234,0.1431,-0.2087,0.8777,-6.56,7.71,-0.08,24.07
10244,0.1443,-0.1995,0.8689,-6.17,7.45,-0.17,24.08
10254,0.1503,-0.1982,0.8776,-5.92,7.47,-0.09,24.07
10264,0.1504,-0.1982,0.8832,-6.18,8.15,-0.06,24.08
10274,0.1443,-0.2053,0.8766,-6.85,8.79,-0.05,24.07
10284,0.1377,-0.2008,0.8695,-7.15,8.29,-0.05,24.08
10294,0.1448,-0.2079,0.8657,-6.41,7.62,-0.09,24.06
10304,0.1465,-0.2139,0.8699,-5.94,7.62,0.0,24.08
10314,0.1519,-0.2151,0.8735,-5.76,8.11,0.12,24.07
10324,0.1415,-0.2184,0.8793,-6.08,8.21,0.05,24.06
10334,0.1311,-0.2175,0.8765,-6.35,8.11,0.03,24.06
10344,0.1257,-0.208,0.8705,-6.29,7.42,-0.03,24.05
10354,0.1254,-0.2023,0.8669,-5.89,7.01,-0.12,24.07
10364,0.1298,-0.1952,0.8694,-5.54,7.33,0.02,24.07
10374,0.132,-0.1947,0.8779,-5.92,8.11,0.02,24.09
10384,0.1296,-0.1968,0.8856,-6.35,8.58,0.03,24.07
10394,0.1276,-0.2034,0.8843,-6.53,8.15,-0.06,24.07
10404,0.1331,-0.2042,0.8788,-6.41,6.98,-0.2,24.06
10414,0.1395,-0.2053,0.8782,-6.14,6.5,-0.18,24.05
10424,0.1484,-0.2004,0.8748,-5.98,7.13,-0.09,24.08
10434,0.1508,-0.1979,0.8777,-6.11,8.0,-0.03,24.07
10444,0.1476,-0.1992,0.8833,-6.26,8.58,0.05,24.09
10454,0.1412,-0.2037,0.8854,-6.43,8.32,-0.02,24.08
10464,0.1399,-0.2042,0.8833,-6.58,7.59,-0.11,24.1
10474,0.1365,-0.2072,0.8756,-6.58,7.1,-0.17,24.09
10484,0.1429,-0.2056,0.8698,-6.5,7.3,-0.11,24.07
10494,0.1444,-0.2045,0.8718,-6.29,8.11,0.05,24.08
10504,0.1425,-0.2062,0.873,-6.14,8.6,0.09,24.06
10514,0.1373,-0.2043,0.8829,-6.24,8.31,0.02,24.12
10524,0.136,-0.2054,0.8793,-6.31,7.63,-0.05,24.11
10534,0.1376,-0.204,0.8788,-6.46,7.25,-0.09,24.09
10544,0.1422,-0.2023,0.8748,-6.44,7.54,-0.05,24.09
10554,0.139,-0.2009,0.8734,-6.31,8.15,0.0,24.09
10564,0.1339,-0.2026,0.8781,-6.23,8.46,0.08,24.08
10574,0.1328,-0.2072,0.8807,-6.32,8.24,0.03,24.07
10584,0.1349,-0.2084,0.8772,-6.47,7.6,-0.09,24.06
10594,0.1373,-0.2042,0.8734,-6.56,7.39,-0.12,24.07
10604,0.142,-0.2,0.8612,-6.43,7.31,0.0,24.07
10614,0.1416,-0.1996,0.8625,-6.31,7.88,-0.03,24.08
10624,0.1345,-0.203,0.8766,-6.17,8.26,0.02,24.08
10634,0.1334,-0.2056,0.8798,-6.21,8.18,-0.02,24.09
10644,0.13,-0.204,0.8812,-6.35,7.83,-0.03,24.1
10654,0.1326,-0.2026,0.8812,-6.46,7.5,-0.14,24.1
10664,0.135,-0.2036,0.8762,-6.44,7.59,-0.15,24.11
10674,0.135,-0.2024,0.8748,-6.37,7.79,-0.15,24.09
10684,0.141,-0.2036,0.871,-6.29,7.82,-0.02,24.07
10694,0.1412,-0.2043,0.876,-6.27,7.79,0.03,24.1
10704,0.1429,-0.2017,0.8727,-6.29,7.73,-0.06,24.07
10714,0.1438,-0.201,0.8765,-6.47,7.82,-0.08,24.1
10724,0.1421,-0.1986,0.8716,-6.52,8.03,-0.06,24.09
10734,0.1418,-0.2035,0.8762,-6.47,8.11,-0.06,24.09
10744,0.137,-0.2041,0.8749,-6.4,8.03,0.03,24.11
10754,0.1365,-0.2065,0.8748,-6.37,7.97,-0.06,24.07
10764,0.136,-0.2067,0.8768,-6.27,7.69,-0.05,24.09
10774,0.1415,-0.2046,0.8749,-6.35,7.56,-0.06,24.1
10784,0.1404,-0.2051,0.8783,-6.26,7.65,-0.15,24.09
10794,0.1427,-0.2026,0.8759,-6.34,7.86,-0.05,24.1
10804,0.1367,-0.2036,0.8785,-6.37,8.02,0.0,24.08
10814,0.1382,-0.2023,0.8773,-6.38,8.0,-0.03,24.1
10824,0.135,-0.2047,0.8735,-6.53,7.8,-0.03,24.1
10834,0.1355,-0.2086,0.8759,-6.35,7.71,-0.05,24.09
10844,0.1379,-0.2046,0.8767,-6.24,7.77,0.0,24.09
10854,0.1355,-0.2053,0.8778,-6.35,7.76,-0.05,24.07
10864,0.1396,-0.2031,0.8756,-6.34,7.85,-0.06,24.08
10874,0.1384,-0.2057,0.8787,-6.34,7.86,0.0,24.1
10884,0.1394,-0.2028,0.875,-6.4,7.74,-0.11,24.09
10894,0.1398,-0.2051,0.8735,-6.34,7.54,-0.15,24.08
10904,0.1384,-0.2041,0.8763,-6.27,7.63,-0.06,24.1
10914,0.1443,-0.203,0.8741,-6.21,7.68,-0.05,24.1
10924,0.1412,-0.2023,0.8691,-6.44,7.85,0.0,24.07
10934,0.14,-0.207,0.8729,-6.53,7.98,-0.03,24.09
10944,0.1377,-0.2064,0.8737,-6.53,7.94,0.05,24.1
10954,0.1409,-0.2073,0.8739,-6.41,7.89,-0.06,24.09
10964,0.1399,-0.2043,0.8763,-6.27,7.89,-0.08,24.11
10974,0.142,-0.205,0.8798,-6.27,8.03,-0.08,24.11
10984,0.14,-0.2056,0.8835,-6.49,7.92,-0.05,24.11
10994,0.1415,-0.2042,0.8759,-6.5,7.85,-0.11,24.1
11004,0.1387,-0.2065,0.8741,-6.61,7.73,-0.08,24.1
11014,0.1385,-0.2046,0.8724,-6.43,7.86,0.02,24.11
11024,0.1373,-0.2046,0.8718,-6.27,7.98,-0.02,24.09
11034,0.1389,-0.2041,0.874,-6.14,7.92,-0.02,24.12
11044,0.1376,-0.2056,0.8766,-6.26,7.8,0.0,24.07
11054,0.1382,-0.2031,0.8781,-6.41,7.74,-0.08,24.09
11064,0.141,-0.2024,0.8777,-6.53,7.83,-0.05,24.1
11074,0.1384,-0.202,0.8759,-6.5,8.06,-0.02,24.1
11084,0.1414,-0.2026,0.8738,-6.44,8.24,0.0,24.09
11094,0.1373,-0.2035,0.8763,-6.35,8.14,0.03,24.11
11104,0.1311,-0.2002,0.8765,-6.44,7.88,-0.06,24.08
11114,0.1334,-0.2017,0.874,-6.41,7.48,-0.12,24.11
11124,0.1373,-0.205,0.8723,-6.44,7.39,-0.05,24.1
11135,0.1354,-0.2053,0.8695,-6.24,7.47,-0.09,24.09
11145,0.1379,-0.2063,0.8712,-5.92,7.65,-0.03,24.08
11155,0.1389,-0.2068,0.881,-5.8,7.82,-0.03,24.09
11165,0.1389,-0.2024,0.8839,-5.91,7.65,-0.02,24.1
11175,0.141,-0.2052,0.885,-6.24,7.44,0.0,24.09
11185,0.1429,-0.2072,0.8839,-6.27,7.24,-0.08,24.12
11195,0.1444,-0.2079,0.8801,-6.32,7.4,-0.02,24.12
11205,0.1421,-0.2064,0.8721,-6.21,7.66,-0.11,24.12
11215,0.1401,-0.2014,0.8707,-6.15,7.83,-0.05,24.09
11225,0.1399,-0.2021,0.8729,-6.06,7.86,-0.05,24.09
11235,0.1383,-0.2054,0.8707,-6.11,7.82,-0.03,24.11
11245,0.1362,-0.2039,0.8722,-6.34,7.86,-0.11,24.11
11255,0.1367,-0.203,0.8737,-6.29,7.79,-0.09,24.12
11265,0.1364,-0.2037,0.8762,-6.09,7.86,0.03,24.09
11275,0.1364,-0.2042,0.8796,-6.27,7.82,-0.06,24.12
11286,0.1382,-0.2057,0.8778,-6.43,7.62,-0.08,24.11
11296,0.1412,-0.2036,0.8694,-6.4,7.53,-0.17,24.12
11306,0.1451,-0.2052,0.8724,-6.31,7.6,-0.12,24.1
11316,0.1451,-0.2046,0.8738,-6.11,7.88,0.05,24.12
11326,0.1412,-0.2024,0.8729,-6.11,8.09,0.02,24.09
11336,0.1398,-0.2006,0.8826,-6.21,8.09,0.0,24.12
11346,0.139,-0.2048,0.8746,-6.41,7.79,0.0,24.11
11356,0.1376,-0.2058,0.8691,-6.6,7.6,-0.03,24.11
11366,0.1346,-0.203,0.8788,-6.24,7.76,-0.05,24.12
11376,0.1345,-0.2059,0.874,-6.06,7.82,0.03,24.11
11386,0.1304,-0.2001,0.8792,-6.09,8.27,-0.02,24.12
11396,0.1298,-0.1979,0.8856,-6.34,8.03,-0.06,24.12
11406,0.1326,-0.2025,0.8798,-6.55,7.83,0.02,24.11
11416,0.1385,-0.2025,0.8783,-6.44,7.45,-0.11,24.12
11426,0.1427,-0.2047,0.8699,-6.41,7.45,-0.02,24.1
11436,0.1418,-0.2012,0.8741,-6.24,7.77,-0.03,24.13
11446,0.1431,-0.2012,0.8737,-6.2,8.05,0.02,24.13
11456,0.1375,-0.2032,0.8799,-6.31,8.09,-0.06,24.11
11466,0.1377,-0.2032,0.8745,-6.53,7.74,-0.05,24.13
11476,0.1351,-0.2056,0.8717,-6.37,7.62,-0.12,24.11
11486,0.141,-0.2053,0.8724,-6.32,7.57,-0.09,24.1
11496,0.142,-0.2015,0.8752,-6.11,7.79,-0.08,24.13
11506,0.1373,-0.2052,0.874,-6.27,8.05,0.03,24.12
11516,0.1376,-0.2039,0.8744,-6.32,7.91,-0.05,24.12
11526,0.1404,-0.2048,0.8768,-6.37,7.83,-0.09,24.1
11536,0.1462,-0.2054,0.8737,-6.52,7.89,-0.11,24.12
11546,0.1447,-0.2015,0.8779,-6.7,8.38,-0.02,24.09
11556,0.1382,-0.2051,0.882,-6.75,8.73,0.08,24.12
11566,0.1332,-0.2042,0.8759,-6.73,8.43,0.03,24.11
11576,0.1355,-0.2092,0.8782,-6.44,7.57,-0.02,24.1
11586,0.1373,-0.2084,0.8716,-5.97,6.79,-0.15,24.13
11596,0.1405,-0.2059,0.8721,-5.65,6.95,-0.08,24.14
11606,0.1414,-0.2086,0.875,-5.92,7.62,0.03,24.12
11616,0.1394,-0.2087,0.8828,-6.29,8.4,0.14,24.13
11626,0.1335,-0.1996,0.88,-6.4,8.2,0.03,24.13
11636,0.1346,-0.2,0.8771,-6.12,7.53,-0.05,24.11
11646,0.1401,-0.2041,0.8787,-6.11,7.18,-0.11,24.12
11656,0.1432,-0.2112,0.8773,-6.41,7.69,-0.09,24.14
11666,0.1439,-0.2089,0.873,-6.61,8.11,-0.03,24.13
11676,0.139,-0.2041,0.8705,-6.41,7.97,-0.09,24.12
11686,0.1368,-0.1981,0.8721,-5.88,7.6,-0.08,24.12
11696,0.1379,-0.2003,0.8776,-5.98,7.31,-0.11,24.14
11706,0.1423,-0.202,0.88,-6.24,7.59,-0.03,24.12
11716,0.1439,-0.207,0.8767,-6.7,7.95,-0.09,24.13
11726,0.1498,-0.204,0.8699,-6.89,7.82,-0.08,24.13
11736,0.1504,-0.2086,0.8674,-6.35,7.88,-0.12,24.14
11746,0.1514,-0.2079,0.8646,-6.09,7.74,-0.03,24.12
11756,0.147,-0.1968,0.8767,-6.03,7.85,0.02,24.14
11766,0.1368,-0.1995,0.8833,-6.11,7.97,-0.02,24.13
11776,0.1375,-0.201,0.8826,-6.58,7.8,-0.02,24.12
11786,0.1437,-0.2053,0.873,-6.73,7.53,-0.08,24.12
11796,0.1458,-0.2078,0.8677,-6.58,7.48,-0.11,24.12
11806,0.1428,-0.2072,0.8712,-6.24,7.88,0.0,24.12
11816,0.1373,-0.2034,0.8688,-6.21,8.05,0.05,24.12
11826,0.1392,-0.2061,0.866,-6.15,8.06,0.08,24.11
11836,0.1393,-0.204,0.8733,-6.21,8.0,0.02,24.12
11846,0.1348,-0.2064,0.8745,-6.35,8.0,-0.03,24.12
11856,0.1278,-0.2079,0.8827,-6.43,7.89,-0.03,24.12
11866,0.131,-0.2081,0.8796,-6.31,7.94,-0.15,24.12
11876,0.1302,-0.2043,0.8755,-6.38,7.95,-0.02,24.13
11886,0.1351,-0.201,0.8748,-6.37,7.95,-0.03,24.14
11896,0.1375,-0.2021,0.8777,-6.35,7.57,-0.08,24.13
11906,0.1438,-0.2041,0.8755,-6.31,7.36,-0.12,24.13
11916,0.1449,-0.2019,0.8735,-6.4,7.66,-0.11,24.14
11926,0.1445,-0.2089,0.8717,-6.46,8.11,0.03,24.13
11936,0.1385,-0.2054,0.8715,-6.41,8.23,0.02,24.13
11946,0.1372,-0.209,0.8761,-6.29,7.97,0.02,24.15
11956,0.1401,-0.2078,0.8739,-6.29,7.68,-0.05,24.13
11966,0.14,-0.205,0.8744,-6.17,7.66,-0.03,24.12
11976,0.1412,-0.2046,0.8781,-6.32,7.85,-0.06,24.13
11986,0.1378,-0.2054,0.8811,-6.29,7.88,0.0,24.14
11996,0.1398,-0.2063,0.8756,-6.31,7.91,0.02,24.12
12006,0.1416,-0.2046,0.8765,-6.31,7.63,-0.09,24.13
12016,0.1442,-0.2023,0.8754,-6.21,7.63,0.02,24.14
12026,0.1411,-0.2024,0.8733,-6.32,7.79,-0.02,24.15
12036,0.139,-0.2007,0.8688,-6.23,7.94,0.05,24.13
12046,0.1375,-0.2018,0.8746,-6.26,7.92,-0.02,24.13
12057,0.1388,-0.2026,0.8754,-6.24,7.74,-0.06,24.12
12067,0.1373,-0.2058,0.877,-6.31,7.63,-0.02,24.13
12078,0.1416,-0.2062,0.8728,-6.38,7.65,-0.11,24.13
12088,0.1388,-0.2029,0.8721,-6.41,7.86,-0.03,24.14
12098,0.1412,-0.2042,0.8748,-6.35,7.98,0.0,24.13
12108,0.1378,-0.2032,0.8809,-6.31,7.89,-0.03,24.14
12118,0.1405,-0.2008,0.8784,-6.27,7.76,-0.05,24.15
12128,0.1376,-0.2046,0.8762,-6.32,7.71,0.02,24.15
12138,0.1394,-0.2076,0.8722,-6.38,7.79,-0.05,24.13
12148,0.1379,-0.2079,0.8689,-6.35,7.85,-0.06,24.12
12158,0.1376,-0.205,0.8772,-6.23,7.86,-0.02,24.12
12168,0.1399,-0.2043,0.8821,-6.18,7.85,0.0,24.12
12178,0.14,-0.2026,0.876,-6.29,7.77,-0.06,24.13
12188,0.1414,-0.2036,0.8759,-6.38,7.69,-0.06,24.13
12198,0.1399,-0.2031,0.8729,-6.46,7.77,-0.03,24.15
12208,0.1414,-0.205,0.8774,-6.38,8.02,0.02,24.14
12218,0.1389,-0.2042,0.8782,-6.27,8.03,-0.02,24.14
12228,0.1396,-0.2021,0.8784,-6.2,7.92,-0.02,24.12
12238,0.139,-0.2018,0.8787,-6.29,7.77,-0.03,24.14
12248,0.1415,-0.203,0.8792,-6.52,7.92,-0.06,24.17
12258,0.1396,-0.2056,0.8766,-6.7,8.06,-0.03,24.13
12268,0.1399,-0.2072,0.8754,-6.69,8.27,0.0,24.14
12278,0.1389,-0.2081,0.8711,-6.52,8.21,0.03,24.15
12288,0.1373,-0.204,0.8712,-6.44,8.02,-0.02,24.15
12298,0.1356,-0.2046,0.8751,-6.24,7.77,-0.03,24.14
12308,0.1389,-0.2052,0.8738,-6.24,7.71,-0.05,24.15
12318,0.1409,-0.207,0.875,-6.24,7.59,-0.18,24.15
12328,0.1385,-0.204,0.8713,-6.21,7.68,-0.06,24.17
12338,0.1388,-0.2086,0.8726,-6.14,7.62,-0.12,24.14
12348,0.1379,-0.2061,0.8752,-6.03,7.6,-0.02,24.16
12358,0.1396,-0.2057,0.8771,-6.02,7.54,-0.06,24.16
12368,0.139,-0.2017,0.8727,-6.15,7.65,-0.03,24.15
12378,0.1431,-0.2029,0.8767,-6.23,7.74,-0.05,24.15
12388,0.1417,-0.2008,0.8768,-6.4,7.71,-0.09,24.15
12398,0.1406,-0.2031,0.875,-6.32,7.71,-0.12,24.16
12408,0.1428,-0.2041,0.8768,-6.15,7.82,-0.02,24.15
12418,0.1385,-0.202,0.8722,-6.15,7.85,-0.03,24.17
12428,0.137,-0.202,0.8792,-6.26,7.83,-0.03,24.13
12438,0.139,-0.2007,0.8781,-6.37,7.82,-0.09,24.15
12448,0.1406,-0.2021,0.8773,-6.56,7.71,-0.06,24.13
12458,0.1381,-0.2064,0.8723,-6.6,7.73,-0.09,24.12
12468,0.1415,-0.2097,0.8691,-6.46,7.76,-0.06,24.15
12478,0.1392,-0.2087,0.8713,-6.31,7.92,-0.03,24.16
12488,0.1422,-0.2059,0.8761,-6.2,8.0,0.03,24.16
12498,0.1383,-0.2054,0.8779,-6.27,8.03,-0.05,24.15
12508,0.137,-0.2025,0.8784,-6.43,7.82,-0.02,24.13
12518,0.1353,-0.2045,0.8767,-6.43,7.62,-0.11,24.15
12528,0.1382,-0.2063,0.8738,-6.29,7.66,-0.06,24.16
12538,0.1376,-0.2045,0.8734,-6.09,7.65,-0.03,24.15
12548,0.14,-0.2035,0.8734,-6.03,7.66,0.02,24.15
12558,0.1378,-0.1984,0.8726,-6.18,7.76,0.0,24.17
12568,0.1368,-0.1992,0.8759,-6.29,7.8,-0.03,24.15
12578,0.1395,-0.2034,0.8789,-6.35,7.74,-0.05,24.16
12588,0.1373,-0.2017,0.8804,-6.29,7.82,-0.05,24.16
12598,0.1404,-0.2034,0.877,-6.26,7.73,-0.08,24.14
12608,0.139,-0.2067,0.8768,-6.26,7.66,-0.11,24.14
12618,0.1389,-0.2096,0.8739,-6.53,7.65,-0.11,24.14
12628,0.1373,-0.2073,0.8717,-6.38,7.74,-0.12,24.18
12638,0.1387,-0.208,0.8738,-6.24,7.86,-0.11,24.15
12648,0.1423,-0.2091,0.876,-6.15,8.0,-0.03,24.15
12658,0.1379,-0.2039,0.8779,-6.23,8.12,0.0,24.15
12668,0.1368,-0.2045,0.8832,-6.34,8.06,0.0,24.14
12678,0.1396,-0.207,0.8798,-6.49,7.76,-0.11,24.14
12688,0.142,-0.2078,0.8749,-6.53,7.4,-0.11,24.17
12698,0.1395,-0.2078,0.8718,-6.21,7.44,-0.08,24.13
12708,0.1432,-0.2036,0.8712,-5.95,7.59,0.02,24.16
12718,0.1429,-0.2006,0.8739,-5.86,7.83,-0.03,24.17
12728,0.1379,-0.2007,0.876,-6.02,7.95,0.09,24.15
12738,0.1382,-0.2045,0.881,-6.26,7.88,-0.11,24.17
12748,0.1431,-0.2023,0.8792,-6.43,7.82,-0.03,24.17
12758,0.1389,-0.2057,0.8807,-6.5,7.77,-0.06,24.15
12768,0.1415,-0.2046,0.8746,-6.29,7.66,-0.03,24.15
12778,0.1378,-0.2034,0.8752,-6.23,7.76,-0.03,24.16
12788,0.1384,-0.2034,0.8729,-6.27,7.76,-0.02,24.14
12798,0.1415,-0.2051,0.8749,-6.34,7.89,-0.05,24.14
12808,0.144,-0.2062,0.8741,-6.37,7.98,-0.02,24.16
12818,0.1393,-0.2058,0.8777,-6.41,7.92,-0.03,24.15
12828,0.1421,-0.2048,0.8795,-6.26,7.86,-0.03,24.17
12838,0.1372,-0.2018,0.8757,-6.23,7.85,-0.06,24.16
12848,0.1356,-0.2028,0.874,-6.29,7.94,0.02,24.15
12858,0.1339,-0.2015,0.8751,-6.47,7.86,-0.05,24.17
12868,0.1332,-0.2008,0.8746,-6.29,7.76,-0.06,24.17
12878,0.136,-0.2014,0.8717,-6.21,7.34,-0.06,24.16
12888,0.1398,-0.2018,0.8774,-6.15,7.56,-0.05,24.17
12898,0.1443,-0.2031,0.8796,-6.27,7.97,0.06,24.17
12908,0.1407,-0.2062,0.8787,-6.52,8.18,0.03,24.15
12918,0.1383,-0.2104,0.8774,-6.55,8.06,0.02,24.14
12928,0.1399,-0.2062,0.8787,-6.34,7.8,-0.08,24.18
12938,0.139,-0.2039,0.8748,-6.12,7.42,-0.11,24.17
12948,0.1384,-0.2042,0.876,-6.17,7.45,-0.09,24.15
12958,0.1383,-0.1979,0.8745,-6.23,7.8,-0.08,24.16
12968,0.1392,-0.2004,0.8772,-6.49,8.0,-0.03,24.17
12978,0.1385,-0.2006,0.8723,-6.44,7.83,-0.05,24.15
12988,0.139,-0.201,0.8745,-6.26,7.68,-0.05,24.18
12998,0.1411,-0.2018,0.8798,-6.17,7.6,0.03,24.18
13008,0.1442,-0.2039,0.8789,-6.31,7.76,-0.09,24.19
13018,0.1414,-0.2065,0.8767,-6.46,7.88,0.02,24.16
13028,0.1409,-0.2067,0.8752,-6.53,7.98,-0.06,24.16
13038,0.1373,-0.1909,0.8718,-6.21,7.94,0.02,24.16
13048,0.1426,-0.2076,0.884,-6.11,7.45,-0.03,24.17
13058,0.1389,-0.2075,0.8744,-6.66,7.92,0.05,24.17
13068,0.1415,-0.2157,0.8785,-7.01,8.06,0.02,24.14
13078,0.1368,-0.2043,0.8698,-6.7,8.64,0.05,24.14
13088,0.1313,-0.192,0.8698,-5.48,7.79,0.05,24.18
13098,0.1351,-0.197,0.8816,-5.5,7.18,0.0,24.14
13108,0.1437,-0.209,0.8856,-7.22,7.77,-0.11,24.15
13118,0.1422,-0.2092,0.8746,-8.17,8.89,0.02,24.16
13128,0.1417,-0.2135,0.8628,-7.18,8.72,0.05,24.16
13138,0.1348,-0.2007,0.8632,-5.62,8.14,-0.06,24.16
13148,0.1376,-0.1995,0.8856,-4.84,6.84,-0.11,24.16
13158,0.1411,-0.2131,0.8892,-6.11,6.79,-0.12,24.15
13168,0.1439,-0.2097,0.8807,-7.4,8.0,-0.18,24.16
13178,0.1367,-0.2015,0.8646,-6.52,7.95,0.03,24.17
13188,0.1399,-0.2064,0.8658,-5.36,7.22,-0.06,24.16
13198,0.1412,-0.2061,0.8765,-5.25,7.28,-0.03,24.16
13208,0.1406,-0.1958,0.8834,-5.97,7.53,-0.02,24.17
13218,0.145,-0.2021,0.8792,-6.75,8.0,-0.06,24.17
13228,0.1375,-0.2035,0.8741,-6.84,8.34,-0.06,24.16
13239,0.1364,-0.203,0.876,-6.11,7.47,-0.09,24.15
13249,0.1425,-0.2128,0.8805,-6.09,7.36,-0.06,24.17
13259,0.1459,-0.2048,0.8773,-6.46,7.85,-0.08,24.19
13269,0.1426,-0.1974,0.8708,-6.12,8.02,0.08,24.19
13279,0.1375,-0.2035,0.879,-6.09,8.06,0.0,24.15
13289,0.1377,-0.2042,0.8794,-6.61,7.98,-0.09,24.16
13299,0.1357,-0.2045,0.879,-6.6,7.39,-0.09,24.17
13309,0.1416,-0.2076,0.8698,-6.44,7.47,-0.11,24.16
13319,0.139,-0.2002,0.8677,-6.03,7.94,-0.08,24.16
13329,0.1403,-0.1958,0.8763,-5.69,7.98,0.03,24.17
13339,0.1389,-0.2009,0.885,-6.2,8.03,-0.02,24.16
13349,0.1364,-0.2035,0.8826,-7.05,7.83,-0.11,24.17
13359,0.1385,-0.2008,0.8691,-6.81,7.34,-0.09,24.16
13369,0.1405,-0.2074,0.8622,-6.29,7.48,-0.09,24.17
13379,0.1439,-0.2024,0.8665,-5.92,7.98,0.05,24.18
13389,0.1417,-0.2015,0.8762,-5.89,8.21,0.05,24.19
13399,0.1398,-0.2096,0.885,-6.4,8.43,0.02,24.18
13409,0.1359,-0.209,0.885,-6.7,8.08,-0.08,24.15
13419,0.1398,-0.2106,0.8761,-6.44,7.31,-0.08,24.16
13429,0.1423,-0.2076,0.865,-6.12,7.21,-0.06,24.17
13440,0.1425,-0.2012,0.8699,-6.0,7.63,-0.11,24.18
13450,0.1426,-0.2024,0.8739,-6.02,8.09,-0.02,24.16
13460,0.1406,-0.2054,0.8787,-6.35,8.52,-0.03,24.18
13470,0.1392,-0.1979,0.8768,-6.4,8.2,-0.06,24.17
13480,0.1338,-0.2039,0.8806,-6.09,7.44,-0.09,24.18
13490,0.1414,-0.2029,0.8821,-6.05,7.37,-0.15,24.15
13500,0.1422,-0.1949,0.8789,-6.38,7.5,-0.06,24.17
13510,0.1459,-0.1996,0.8762,-6.55,7.51,-0.03,24.16
13520,0.1448,-0.2087,0.8728,-6.63,8.12,-0.06,24.16
13530,0.1458,-0.2125,0.8671,-6.37,8.15,-0.08,24.18
13540,0.1392,-0.2045,0.8737,-5.77,7.86,-0.05,24.2
13550,0.1471,-0.2144,0.8748,-6.08,7.47,-0.05,24.16
13560,0.146,-0.2135,0.8729,-6.67,7.68,-0.12,24.18
13570,0.1416,-0.2118,0.8767,-7.01,7.95,0.03,24.16
13580,0.1362,-0.2086,0.8757,-6.61,8.43,0.06,24.18
13590,0.135,-0.2004,0.8757,-5.6,8.17,0.11,24.18
13600,0.1364,-0.2,0.8882,-5.42,7.66,0.03,24.17
13610,0.1342,-0.1996,0.8904,-6.49,7.85,-0.08,24.18
13620,0.1313,-0.2017,0.8816,-7.24,7.83,-0.05,24.18
13630,0.1305,-0.2053,0.8708,-6.96,7.57,-0.02,24.19
13640,0.127,-0.2083,0.8668,-6.37,7.74,-0.03,24.16
13650,0.1279,-0.202,0.8687,-5.62,7.71,0.0,24.17
13660,0.1353,-0.198,0.8837,-5.71,7.51,0.02,24.19
13670,0.1412,-0.1971,0.8848,-6.38,7.77,-0.02,24.2
13680,0.1385,-0.1996,0.8754,-6.87,7.56,-0.15,24.17
13690,0.1442,-0.2035,0.8723,-6.73,7.5,-0.08,24.18
13700,0.1453,-0.2064,0.8652,-6.61,7.8,-0.09,24.23
13710,0.1417,-0.2046,0.8699,-6.31,8.2,0.02,24.19
13720,0.1406,-0.2037,0.8774,-6.24,8.34,0.02,24.19
13730,0.1331,-0.2068,0.8787,-6.49,8.2,0.03,24.18
13740,0.1392,-0.2079,0.8768,-6.7,7.62,-0.08,24.17
13750,0.1406,-0.2111,0.866,-6.64,7.45,-0.14,24.18
13760,0.1421,-0.2087,0.8641,-6.43,7.74,-0.08,24.17
13770,0.1434,-0.2059,0.8698,-6.03,8.02,0.0,24.17
13781,0.1396,-0.2031,0.8789,-5.97,8.21,0.03,24.17
13791,0.1371,-0.2046,0.8842,-6.4,8.08,-0.05,24.16
13801,0.1418,-0.2052,0.88,-6.53,7.6,-0.11,24.18
13812,0.1376,-0.2037,0.8722,-6.37,7.44,-0.11,24.2
13822,0.1365,-0.1992,0.8754,-6.23,7.74,-0.05,24.18
13832,0.1362,-0.2002,0.8779,-5.86,8.05,0.05,24.18
13842,0.1366,-0.2047,0.8824,-6.03,8.03,0.03,24.18
13852,0.1354,-0.2006,0.8801,-6.34,7.86,0.0,24.2
13862,0.1365,-0.2048,0.8789,-6.46,7.57,-0.11,24.19
13872,0.1407,-0.2073,0.8728,-6.56,7.59,-0.05,24.19
13882,0.1417,-0.2076,0.8722,-6.43,7.89,-0.06,24.17
13892,0.1421,-0.2065,0.873,-6.35,8.32,0.03,24.17
13902,0.136,-0.2041,0.8733,-6.41,8.44,0.06,24.17
13912,0.1344,-0.2025,0.8777,-6.61,8.17,-0.03,24.19
13922,0.1332,-0.2086,0.8789,-6.63,7.79,-0.05,24.17
13932,0.1357,-0.2065,0.8711,-6.67,7.59,-0.06,24.16
13942,0.1368,-0.2045,0.8671,-6.31,7.8,-0.09,24.16
13952,0.1398,-0.2034,0.874,-6.11,7.88,0.02,24.18
13962,0.1383,-0.2025,0.8767,-6.15,7.92,-0.05,24.19
13972,0.1368,-0.2053,0.8771,-6.37,7.83,-0.08,24.2
13982,0.1359,-0.2063,0.874,-6.44,7.54,-0.06,24.19
13992,0.1398,-0.2057,0.8728,-6.35,7.53,-0.14,24.18
14002,0.1393,-0.2034,0.8701,-6.15,7.47,-0.08,24.19
14012,0.1434,-0.2042,0.8685,-5.95,7.56,-0.03,24.17
14022,0.145,-0.2032,0.8828,-5.83,7.62,0.02,24.17
14032,0.1395,-0.207,0.8792,-6.02,7.68,-0.06,24.18
14042,0.1401,-0.2065,0.8793,-6.26,7.74,-0.08,24.19
14052,0.1403,-0.2052,0.8828,-6.38,7.88,-0.06,24.19
14062,0.1376,-0.2062,0.8823,-6.32,7.89,0.03,24.21
14072,0.1333,-0.2029,0.8827,-6.21,7.91,0.06,24.17
14082,0.1331,-0.203,0.8796,-6.27,7.82,-0.06,24.19
14092,0.1334,-0.2009,0.8746,-6.32,7.65,-0.03,24.19
14102,0.1364,-0.2002,0.8779,-6.32,7.79,-0.05,24.19
14112,0.1331,-0.2036,0.8691,-6.56,7.83,-0.03,24.18
14122,0.1393,-0.2114,0.8706,-6.52,7.89,-0.02,24.19
14132,0.1418,-0.2086,0.8754,-6.4,8.03,0.0,24.2
14142,0.1344,-0.2036,0.8802,-6.17,8.21,-0.03,24.18
14152,0.139,-0.2031,0.8837,-6.41,7.74,-0.12,24.18
14162,0.1371,-0.198,0.8704,-6.78,7.4,-0.15,24.2
14172,0.1412,-0.1998,0.8684,-6.85,7.34,-0.08,24.19
14182,0.1432,-0.2073,0.8583,-6.5,7.65,-0.03,24.19
14192,0.1445,-0.2039,0.8687,-6.06,8.55,0.08,24.19
14202,0.1411,-0.207,0.881,-6.02,8.43,0.14,24.18
14212,0.1389,-0.2085,0.8912,-6.24,8.12,0.02,24.19
14222,0.1332,-0.2043,0.8914,-6.67,7.62,-0.15,24.18
14232,0.1362,-0.2048,0.8768,-7.08,7.51,-0.21,24.2
14242,0.1376,-0.2046,0.8684,-6.92,7.31,-0.11,24.21
14252,0.1453,-0.207,0.8685,-6.38,7.91,0.0,24.22
14262,0.1427,-0.208,0.8716,-6.2,8.31,0.09,24.16
14272,0.1428,-0.2035,0.8809,-6.23,8.46,0.06,24.18
14282,0.1427,-0.2068,0.887,-6.32,8.21,0.06,24.18
14292,0.14,-0.202,0.8877,-6.66,8.08,-0.05,24.2
14302,0.1368,-0.2046,0.8848,-6.76,7.95,-0.03,24.22
14312,0.1385,-0.2053,0.8783,-6.73,8.0,-0.02,24.21
14322,0.136,-0.2064,0.8723,-6.61,8.02,-0.06,24.21
14332,0.1367,-0.2067,0.8713,-6.53,8.03,0.03,24.2
14342,0.136,-0.2065,0.8691,-6.44,7.92,-0.03,24.19
14352,0.1371,-0.2054,0.8723,-6.32,7.66,-0.11,24.19
14362,0.1385,-0.209,0.8696,-6.06,7.57,0.03,24.18
14372,0.1393,-0.2053,0.8765,-6.0,7.74,-0.06,24.18
14382,0.1407,-0.2047,0.8774,-6.32,8.18,0.03,24.19
14393,0.1367,-0.2073,0.8729,-6.64,8.17,-0.05,24.19
14403,0.1357,-0.2054,0.8711,-6.52,7.86,-0.12,24.2
14413,0.1348,-0.2076,0.8737,-6.12,7.45,-0.03,24.21
14424,0.1393,-0.2054,0.8691,-5.76,7.27,0.03,24.19
14434,0.1416,-0.2056,0.8745,-5.79,7.48,0.02,24.22
14444,0.142,-0.2075,0.8767,-6.14,7.82,0.03,24.18
14454,0.1409,-0.2073,0.8729,-6.5,7.88,0.0,24.22
14464,0.1384,-0.2073,0.8776,-6.43,7.92,0.03,24.2
14474,0.1384,-0.205,0.8783,-6.2,7.71,-0.02,24.19
14484,0.1345,-0.2008,0.8773,-6.2,7.82,0.02,24.19
14494,0.1401,-0.2035,0.8744,-6.34,7.71,0.02,24.21
14504,0.1362,-0.2069,0.8755,-6.38,7.65,-0.06,24.18
14514,0.1403,-0.2069,0.8777,-6.27,7.56,-0.09,24.18
14524,0.1432,-0.2062,0.8737,-6.06,7.48,-0.06,24.17
14534,0.1416,-0.2047,0.8754,-5.92,7.8,-0.03,24.19
14544,0.1433,-0.2009,0.882,-6.02,8.06,0.0,24.22
14554,0.1388,-0.2001,0.8856,-6.32,8.06,-0.05,24.23
14564,0.1365,-0.2031,0.8817,-6.52,7.74,-0.09,24.23
14574,0.1393,-0.205,0.8704,-6.58,7.39,-0.09,24.21
14584,0.1379,-0.2019,0.8691,-6.47,7.47,-0.18,24.22
14594,0.1404,-0.2056,0.8735,-6.24,7.83,-0.05,24.2
14604,0.1436,-0.2043,0.8722,-6.18,8.12,-0.05,24.23
14614,0.1394,-0.2054,0.8793,-6.24,8.11,0.02,24.2
14624,0.1378,-0.2067,0.8752,-6.35,7.83,-0.05,24.18
14634,0.1395,-0.2073,0.8781,-6.37,7.71,-0.08,24.21
14644,0.141,-0.2067,0.8701,-6.38,7.83,0.0,24.21
14654,0.1371,-0.2096,0.8773,-6.37,8.02,-0.06,24.19
14664,0.1371,-0.2059,0.8787,-6.37,8.15,0.02,24.19
14674,0.1364,-0.2073,0.8788,-6.44,8.24,0.03,24.19
14684,0.137,-0.2015,0.8763,-6.41,8.02,0.0,24.22
14694,0.1357,-0.2041,0.8761,-6.44,7.82,0.0,24.21
14704,0.1371,-0.2045,0.874,-6.32,7.95,-0.06,24.21
14714,0.1373,-0.2059,0.8784,-6.34,8.14,-0.03,24.2
14724,0.1351,-0.2068,0.8756,-6.35,8.03,-0.03,24.19
14734,0.1318,-0.2073,0.8762,-6.37,7.62,-0.08,24.19
14744,0.1387,-0.2072,0.8735,-6.17,7.27,-0.12,24.21
14754,0.1428,-0.2061,0.8743,-5.98,7.31,-0.06,24.21
14764,0.1412,-0.2034,0.8765,-5.97,7.82,0.02,24.2
14774,0.1389,-0.2029,0.874,-6.2,8.06,0.06,24.2
14784,0.1317,-0.2029,0.881,-6.34,7.73,-0.03,24.2
14794,0.135,-0.2029,0.8784,-6.34,7.3,-0.17,24.21
14804,0.1339,-0.204,0.8744,-6.03,6.99,-0.09,24.22
14814,0.1379,-0.2026,0.8706,-5.79,7.02,-0.08,24.2
14824,0.1409,-0.2039,0.8728,-5.86,7.42,-0.11,24.22
14834,0.1377,-0.2008,0.8713,-6.05,7.51,-0.05,24.2
14844,0.1382,-0.2045,0.8732,-6.15,7.37,-0.08,24.2
14854,0.1412,-0.2056,0.8765,-6.2,7.28,-0.15,24.22
14864,0.1442,-0.2035,0.8745,-6.21,7.63,-0.05,24.22
14874,0.1429,-0.205,0.873,-6.2,7.77,0.03,24.22
14884,0.1404,-0.203,0.877,-6.38,8.09,0.02,24.23
14894,0.1396,-0.2018,0.8782,-6.37,7.98,0.11,24.21
14904,0.1377,-0.2047,0.8773,-6.34,7.83,-0.03,24.2
14914,0.1354,-0.2068,0.877,-6.17,7.5,-0.03,24.22
14924,0.1392,-0.2057,0.8732,-6.24,7.48,0.0,24.22
14934,0.1404,-0.2047,0.8774,-6.41,7.76,0.0,24.23
14944,0.1403,-0.2053,0.8733,-6.49,8.05,-0.06,24.2
14954,0.1364,-0.2078,0.875,-6.4,7.95,-0.05,24.21
14964,0.1378,-0.2087,0.8762,-6.34,7.57,0.02,24.21
14974,0.1378,-0.2078,0.8735,-6.23,7.47,-0.15,24.22
14984,0.1428,-0.2108,0.8748,-6.53,7.65,-0.02,24.22
14994,0.1378,-0.2041,0.8755,-6.46,8.02,0.05,24.21
15005,0.1376,-0.2013,0.8759,-6.23,8.09,0.02,24.22
15015,0.1334,-0.203,0.8746,-6.31,7.82,-0.08,24.19
15025,0.1393,-0.2036,0.8732,-6.27,7.6,-0.17,24.21
15036,0.1396,-0.2058,0.8739,-6.4,7.68,-0.05,24.22
15046,0.1427,-0.2046,0.8719,-6.35,8.03,-0.03,24.23
15056,0.141,-0.2031,0.8765,-6.38,8.15,-0.06,24.22
15066,0.1384,-0.2007,0.8811,-6.4,7.94,0.02,24.23
15076,0.1395,-0.2037,0.8824,-6.38,7.88,-0.05,24.21
15086,0.1406,-0.2029,0.876,-6.66,7.63,-0.06,24.22
15096,0.1406,-0.2063,0.8699,-6.58,7.6,-0.11,24.22
15106,0.1423,-0.2068,0.8684,-6.43,7.63,0.0,24.21
15116,0.1415,-0.2084,0.8705,-6.29,7.83,-0.09,24.2
15126,0.1398,-0.2062,0.8768,-6.27,8.02,-0.02,24.23
15136,0.1373,-0.204,0.8811,-6.47,8.03,-0.03,24.21
15146,0.1357,-0.2041,0.8796,-6.44,7.76,0.0,24.22
15156,0.1399,-0.2017,0.8751,-6.56,7.54,-0.11,24.23
15166,0.1433,-0.2009,0.8726,-6.37,7.65,-0.06,24.24
15176,0.1384,-0.2061,0.8748,-6.37,7.68,-0.08,24.22
15186,0.1427,-0.2042,0.874,-6.35,7.8,-0.08,24.22
15196,0.1427,-0.2073,0.8761,-6.49,7.89,-0.03,24.2
15206,0.1379,-0.2075,0.8727,-6.55,7.88,-0.03,24.22
15216,0.1428,-0.2028,0.8734,-6.41,7.89,-0.05,24.19
15226,0.1403,-0.2046,0.8757,-6.35,7.85,0.0,24.22
15236,0.1405,-0.2018,0.8778,-6.38,8.02,0.03,24.2
15246,0.1411,-0.2046,0.8799,-6.4,8.14,-0.06,24.22
15256,0.1409,-0.2085,0.8794,-6.56,8.05,-0.05,24.22
15266,0.1395,-0.2102,0.8772,-6.56,7.83,-0.14,24.23
15276,0.14,-0.2065,0.8754,-6.4,7.53,-0.12,24.22
15286,0.1436,-0.2058,0.8713,-6.18,7.56,-0.08,24.22
15296,0.1439,-0.2037,0.875,-6.14,7.62,-0.06,24.22
15306,0.1429,-0.205,0.8768,-6.27,7.92,0.02,24.21
15316,0.1384,-0.2057,0.876,-6.37,7.92,-0.08,24.21
15326,0.1388,-0.2073,0.8741,-6.15,7.59,-0.08,24.21
15336,0.137,-0.2085,0.8771,-5.91,7.25,0.02,24.23
15346,0.1366,-0.2085,0.8746,-5.89,7.22,-0.06,24.22
15356,0.1387,-0.2039,0.8716,-5.98,7.45,-0.05,24.2
15366,0.1414,-0.202,0.8799,-6.24,7.68,-0.05,24.24
15376,0.1421,-0.2046,0.8784,-6.27,7.66,-0.08,24.23
15386,0.142,-0.205,0.8774,-6.12,7.62,0.0,24.22
15396,0.1431,-0.2035,0.8794,-6.03,7.48,-0.03,24.2
15406,0.139,-0.2014,0.8772,-5.94,7.57,-0.08,24.22
15416,0.1406,-0.2,0.876,-6.18,7.63,-0.09,24.22
15426,0.1389,-0.2006,0.874,-6.43,7.76,-0.09,24.22
15436,0.1398,-0.2036,0.8772,-6.41,7.66,-0.09,24.22
15446,0.1404,-0.2023,0.8701,-6.24,7.62,-0.17,24.2
15456,0.1398,-0.2068,0.8722,-6.06,7.69,-0.14,24.21
15466,0.1416,-0.2014,0.8741,-6.21,7.98,0.02,24.2
15476,0.1384,-0.204,0.8767,-6.4,8.12,0.0,24.22
15486,0.1329,-0.2079,0.8788,-6.47,8.15,-0.03,24.21
15496,0.1305,-0.2065,0.876,-6.47,7.82,-0.08,24.23
15506,0.1289,-0.2048,0.8761,-6.37,7.57,-0.03,24.21
15516,0.1335,-0.2029,0.8682,-6.11,7.44,-0.11,24.2
15526,0.1362,-0.1997,0.8744,-6.08,7.68,-0.09,24.22
15536,0.1381,-0.2014,0.8763,-6.38,7.85,0.02,24.21
15546,0.1421,-0.208,0.8751,-6.58,7.83,-0.08,24.23
15556,0.1448,-0.2074,0.8772,-6.47,7.69,-0.05,24.21
15566,0.1438,-0.2072,0.8762,-6.21,7.73,-0.05,24.21
15576,0.1469,-0.2039,0.8726,-6.03,7.8,0.0,24.23
15586,0.1409,-0.1997,0.877,-6.14,7.98,-0.02,24.21
15596,0.1362,-0.2048,0.8788,-6.41,7.88,-0.02,24.22
15606,0.1361,-0.2035,0.8778,-6.67,7.79,0.0,24.22
15617,0.1362,-0.2028,0.8735,-6.72,7.65,-0.03,24.19
15627,0.1392,-0.2063,0.8701,-6.52,7.73,0.02,24.22
15637,0.1451,-0.205,0.8762,-6.31,7.95,0.0,24.22
15647,0.1439,-0.2029,0.8774,-6.32,8.26,0.0,24.22
15657,0.1433,-0.2013,0.8854,-6.66,8.27,0.03,24.22
15667,0.1401,-0.2029,0.8806,-6.9,8.18,-0.05,24.22
15677,0.1415,-0.2064,0.8762,-6.92,8.06,-0.05,24.2
15687,0.1382,-0.2081,0.8729,-6.73,8.03,-0.03,24.22
15697,0.1384,-0.2119,0.87,-6.32,8.05,-0.03,24.21
15708,0.1403,-0.2102,0.876,-6.15,7.98,0.0,24.24
15718,0.1362,-0.2119,0.8779,-6.23,7.73,0.02,24.22
15728,0.1399,-0.209,0.8761,-6.26,7.5,-0.02,24.22
15738,0.1376,-0.2085,0.8752,-6.31,7.39,-0.09,24.22
15748,0.1411,-0.2057,0.8734,-6.11,7.4,0.0,24.22
15758,0.1403,-0.2017,0.8679,-6.03,7.63,-0.02,24.22
15768,0.137,-0.2073,0.8668,-6.06,7.69,-0.08,24.21
15778,0.1368,-0.2089,0.8691,-6.18,7.5,-0.09,24.22
15788,0.1339,-0.2058,0.8696,-6.24,7.5,0.0,24.22
15798,0.1362,-0.2064,0.8689,-6.24,7.56,-0.08,24.22
15808,0.1385,-0.2034,0.876,-6.05,7.94,0.09,24.24
15818,0.1392,-0.2042,0.8792,-6.05,7.8,0.06,24.21
15828,0.1404,-0.2004,0.8768,-6.29,7.66,-0.06,24.26
15838,0.1373,-0.2017,0.8809,-6.46,7.31,-0.21,24.22
15848,0.1431,-0.2039,0.8784,-6.5,7.33,-0.17,24.24
15858,0.1459,-0.2076,0.8756,-6.38,7.85,-0.02,24.27
15868,0.1462,-0.2061,0.8811,-6.27,8.32,0.05,24.25
15878,0.1426,-0.2091,0.8806,-6.4,8.18,-0.03,24.2
15888,0.1432,-0.2052,0.8772,-6.53,7.88,0.0,24.23
15898,0.144,-0.2046,0.879,-6.61,7.8,-0.12,24.24
15908,0.1459,-0.2057,0.8716,-6.5,7.97,-0.11,24.23
15918,0.1455,-0.2035,0.8738,-6.4,8.26,0.03,24.21
15928,0.1392,-0.2036,0.8737,-6.27,8.27,0.06,24.19
15938,0.1327,-0.2074,0.876,-6.15,7.98,0.05,24.22
15948,0.1378,-0.2068,0.8776,-6.02,7.59,-0.02,24.22
15958,0.1396,-0.2037,0.8802,-5.94,7.48,-0.03,24.22
15968,0.1429,-0.201,0.8738,-6.11,7.59,-0.11,24.25
15978,0.1407,-0.2006,0.8794,-6.11,8.03,-0.05,24.23
15988,0.1368,-0.2051,0.8749,-6.12,8.14,0.09,24.24
15998,0.1357,-0.2059,0.8817,-6.08,7.94,0.02,24.22
16008,0.1354,-0.2026,0.8772,-6.03,7.63,-0.06,24.23
16018,0.137,-0.2041,0.8734,-6.17,7.47,-0.09,24.23
16028,0.1393,-0.2041,0.8713,-6.17,7.51,-0.11,24.21
16038,0.1383,-0.2053,0.8721,-6.29,7.86,-0.08,24.24
16048,0.1379,-0.2025,0.8761,-6.2,8.02,-0.02,24.24
16058,0.1406,-0.2021,0.8735,-6.2,8.02,-0.08,24.23
16068,0.1356,-0.2034,0.8796,-6.41,7.89,-0.03,24.26
16078,0.1376,-0.1995,0.8722,-6.46,7.88,-0.02,24.22
16088,0.1371,-0.2012,0.8743,-6.6,8.02,-0.06,24.22
16098,0.1373,-0.2008,0.8771,-6.7,8.46,-0.05,24.22
16108,0.1385,-0.2059,0.8846,-6.6,8.7,-0.02,24.24
16118,0.1367,-0.2023,0.8834,-6.6,8.32,0.06,24.24
16128,0.1368,-0.2017,0.8834,-6.53,7.77,-0.12,24.22
16138,0.1394,-0.2009,0.8829,-6.47,7.33,-0.21,24.24
16148,0.1431,-0.202,0.8771,-6.5,7.39,-0.27,24.22
16158,0.1385,-0.2086,0.8685,-6.66,7.69,-0.26,24.24
16168,0.1361,-0.219,0.8632,-6.63,7.82,-0.17,24.23
16178,0.139,-0.2219,0.8569,-6.7,7.79,-0.03,24.24
16188,0.1412,-0.2194,0.8615,-6.23,7.54,0.0,24.23
16198,0.1494,-0.2091,0.8623,-5.76,7.42,-0.02,24.23
16208,0.1487,-0.2001,0.8728,-5.34,7.57,0.02,24.22
16218,0.1471,-0.1949,0.8835,-5.66,7.83,0.06,24.23
16228,0.1425,-0.1936,0.8885,-6.2,8.18,0.03,24.22
16238,0.1412,-0.1956,0.8868,-6.6,8.06,-0.08,24.24
16248,0.1415,-0.2048,0.8727,-6.72,7.45,-0.09,24.24
16258,0.1458,-0.2079,0.8685,-6.29,7.21,-0.11,24.23
16268,0.1516,-0.2051,0.8683,-5.83,7.5,0.11,24.22
16278,0.1458,-0.1998,0.8796,-5.69,8.21,0.09,24.22
16288,0.1396,-0.1921,0.8834,-5.95,8.46,0.14,24.25
16298,0.1377,-0.2008,0.8927,-6.37,8.09,0.08,24.22
16308,0.1381,-0.2051,0.891,-6.92,8.11,-0.09,24.26
16318,0.1349,-0.2123,0.8804,-7.11,8.08,-0.11,24.22
16328,0.136,-0.2125,0.8722,-6.92,8.12,-0.12,24.24
16338,0.1376,-0.2152,0.8708,-6.46,8.08,-0.09,24.24
16348,0.1346,-0.2106,0.8716,-6.18,8.12,0.02,24.22
16358,0.1311,-0.2103,0.8749,-6.27,7.94,0.0,24.22
16368,0.1328,-0.2068,0.8715,-6.55,7.85,-0.03,24.23
16378,0.1313,-0.2076,0.8693,-6.69,7.76,0.02,24.23
16388,0.1327,-0.2086,0.871,-6.47,7.65,0.0,24.24
16398,0.1329,-0.2009,0.8699,-6.26,7.8,-0.02,24.22
16408,0.1334,-0.2002,0.8744,-6.12,7.74,-0.09,24.22
16418,0.1356,-0.1981,0.8763,-6.14,7.76,-0.05,24.23
16428,0.1375,-0.2037,0.8801,-6.53,7.71,-0.09,24.22
16438,0.1398,-0.2051,0.8811,-6.79,7.68,-0.06,24.24
16448,0.1438,-0.2108,0.8721,-6.73,7.85,-0.08,24.24
16458,0.1425,-0.2096,0.8647,-6.5,7.95,-0.02,24.24
16468,0.1407,-0.2102,0.8702,-6.26,8.09,0.02,24.26
16478,0.1395,-0.2072,0.8739,-6.08,7.91,0.02,24.23
16488,0.14,-0.1993,0.8824,-6.0,7.76,0.0,24.23
16498,0.1404,-0.1971,0.8816,-5.98,7.69,-0.09,24.23
16508,0.1389,-0.1991,0.882,-6.35,7.59,-0.06,24.24
16518,0.1443,-0.2057,0.8793,-6.5,7.76,-0.06,24.26
16528,0.146,-0.2081,0.8785,-6.52,7.86,-0.08,24.23
16538,0.1432,-0.2114,0.8806,-6.35,8.11,0.05,24.23
16548,0.1404,-0.2087,0.8772,-6.23,7.95,0.05,24.24
16558,0.1409,-0.2072,0.8787,-6.12,7.71,-0.03,24.24
16568,0.1395,-0.203,0.8768,-6.26,7.56,-0.02,24.24
16578,0.1353,-0.2051,0.8772,-6.35,7.57,-0.03,24.22
16588,0.1385,-0.2046,0.8696,-6.31,7.66,-0.09,24.25
16598,0.1356,-0.2091,0.8721,-6.18,7.89,-0.06,24.23
16608,0.1339,-0.2068,0.8711,-6.23,8.09,0.0,24.24
16618,0.1343,-0.2079,0.8787,-6.21,7.89,0.03,24.24
16628,0.137,-0.2048,0.8756,-6.26,7.4,-0.06,24.25
16638,0.1382,-0.2012,0.8749,-6.41,7.34,-0.14,24.24
16648,0.1409,-0.2015,0.8755,-6.46,7.65,-0.05,24.24
16658,0.1401,-0.2019,0.8765,-6.55,7.97,0.03,24.24
16668,0.137,-0.2076,0.8767,-6.41,8.05,0.0,24.26
16678,0.1383,-0.2059,0.8741,-6.32,7.88,-0.02,24.23
16688,0.137,-0.2031,0.8763,-6.17,7.5,-0.09,24.21
16698,0.1395,-0.2043,0.8778,-6.27,7.34,-0.11,24.24
16708,0.14,-0.2061,0.8717,-6.43,7.5,-0.05,24.24
16718,0.1418,-0.2047,0.8729,-6.31,7.8,0.0,24.25
16728,0.1399,-0.2048,0.8733,-6.34,8.12,0.06,24.23
16738,0.141,-0.2067,0.8745,-6.23,8.02,0.02,24.24
16748,0.1414,-0.2039,0.8851,-6.27,7.92,0.02,24.25
16758,0.1428,-0.2013,0.8824,-6.26,7.85,-0.11,24.22
16768,0.1372,-0.2034,0.8821,-6.27,7.92,-0.11,24.23
16778,0.1376,-0.2043,0.879,-6.55,7.69,-0.12,24.26
16788,0.14,-0.2024,0.8754,-6.47,7.66,-0.02,24.23
16798,0.1337,-0.2037,0.8748,-6.37,7.79,-0.05,24.24
16808,0.1449,-0.2065,0.8699,-6.34,7.8,-0.02,24.24
16818,0.1417,-0.2069,0.87,-6.29,7.94,0.02,24.23
16828,0.1385,-0.2021,0.8777,-6.17,7.92,-0.06,24.25
16838,0.1389,-0.2025,0.8768,-6.21,7.73,-0.02,24.25
16848,0.1353,-0.202,0.8787,-6.31,7.79,-0.14,24.25
16858,0.1375,-0.2072,0.8757,-6.4,7.82,-0.06,24.24
16868,0.1373,-0.2081,0.8795,-6.46,8.03,-0.05,24.24
16878,0.1395,-0.2084,0.8763,-6.38,7.91,-0.02,24.25
16888,0.1409,-0.205,0.8694,-6.26,7.51,-0.03,24.24
16898,0.1412,-0.2037,0.868,-6.09,7.33,-0.05,24.24
16908,0.1416,-0.2004,0.8713,-6.08,7.37,-0.09,24.23
16918,0.1429,-0.1996,0.8717,-6.15,7.65,-0.03,24.25
16928,0.1416,-0.2032,0.8722,-6.29,7.73,0.0,24.25
16938,0.1394,-0.2092,0.8704,-6.17,7.53,-0.06,24.23
16948,0.1381,-0.213,0.8708,-5.94,7.28,-0.14,24.23
16958,0.1396,-0.2081,0.8704,-5.82,7.07,-0.05,24.27
16968,0.1447,-0.2126,0.865,-5.83,7.24,0.0,24.25
16978,0.1427,-0.2144,0.8694,-5.86,7.45,0.09,24.22
16988,0.1382,-0.208,0.8781,-6.0,7.95,0.02,24.25
16998,0.1357,-0.2039,0.8864,-6.18,7.68,-0.08,24.24
17008,0.1357,-0.2097,0.8824,-5.92,7.45,-0.09,24.24
17018,0.1315,-0.2042,0.8829,-5.92,7.31,-0.11,24.25
17028,0.1332,-0.2026,0.8823,-6.0,7.44,-0.08,24.23
17038,0.1367,-0.2004,0.8812,-6.12,7.69,-0.14,24.23
17048,0.1411,-0.2078,0.8756,-6.21,7.65,-0.02,24.25
17058,0.1442,-0.2035,0.8715,-6.29,7.53,-0.02,24.27
17068,0.1422,-0.2039,0.8722,-6.2,7.51,0.03,24.24
17078,0.1416,-0.2062,0.8726,-6.09,7.73,-0.02,24.27
17088,0.1372,-0.2021,0.8722,-6.06,8.08,0.0,24.24
17098,0.1384,-0.1991,0.8794,-6.21,8.08,-0.02,24.24
17108,0.1385,-0.204,0.8799,-6.35,7.82,-0.06,24.26
17118,0.1383,-0.203,0.8765,-6.4,7.65,0.02,24.24
17128,0.1405,-0.2018,0.8708,-6.4,7.5,-0.08,24.26
17138,0.1425,-0.2009,0.8728,-6.37,7.73,0.0,24.25
17149,0.1398,-0.2039,0.871,-6.32,7.97,0.0,24.25
17159,0.1399,-0.2045,0.8783,-6.4,8.08,0.0,24.26
17169,0.1378,-0.2051,0.876,-6.35,7.83,-0.05,24.24
17179,0.1344,-0.2035,0.8762,-6.27,7.48,-0.05,24.24
17189,0.1434,-0.2048,0.8726,-6.26,7.45,-0.06,24.24
17199,0.1407,-0.2001,0.8711,-6.17,7.63,-0.05,24.24
17209,0.1429,-0.2041,0.8737,-6.17,7.89,-0.05,24.24
17219,0.1404,-0.2012,0.8757,-6.24,8.15,0.0,24.24
17229,0.1405,-0.2031,0.8762,-6.24,8.03,-0.02,24.26
17239,0.1385,-0.2087,0.8818,-6.24,7.73,-0.08,24.24
17249,0.1381,-0.2006,0.8771,-6.46,7.77,-0.09,24.24
17259,0.1333,-0.2072,0.8855,-6.46,7.8,-0.15,24.24
17269,0.1429,-0.208,0.8663,-6.31,8.14,-0.05,24.23
17279,0.1385,-0.2031,0.8823,-6.21,8.2,0.0,24.25
17289,0.139,-0.2058,0.8787,-6.23,8.2,0.05,24.23
17299,0.1312,-0.2026,0.8829,-6.21,8.06,-0.03,24.26
17309,0.1364,-0.2012,0.8834,-6.27,7.77,-0.03,24.24
17319,0.1421,-0.2029,0.8715,-6.31,7.54,-0.11,24.26
17329,0.1375,-0.2001,0.8751,-6.31,7.85,-0.06,24.3
17340,0.1418,-0.204,0.8762,-6.26,7.98,-0.03,24.25
17350,0.1425,-0.2034,0.8726,-6.34,8.18,0.02,24.24
17360,0.1375,-0.2084,0.8757,-6.44,8.23,0.02,24.24
17370,0.1385,-0.2098,0.8766,-6.53,8.08,0.06,24.24
17380,0.1359,-0.2118,0.8774,-6.4,7.69,0.05,24.26
17390,0.1403,-0.2091,0.8744,-6.11,7.54,-0.02,24.26
17400,0.1411,-0.2045,0.8738,-6.21,7.73,-0.05,24.25
17410,0.1384,-0.2042,0.8718,-6.15,8.09,0.02,24.27
17420,0.1379,-0.2042,0.8794,-6.29,8.15,0.05,24.25
17430,0.1353,-0.2051,0.8746,-6.23,7.95,-0.08,24.22
17440,0.1379,-0.2028,0.8741,-6.35,7.5,-0.06,24.26
17450,0.1381,-0.2034,0.874,-6.21,7.36,-0.09,24.25
17460,0.1401,-0.2003,0.8726,-6.24,7.65,0.0,24.24
17470,0.139,-0.1982,0.8805,-6.34,8.12,-0.02,24.26
17480,0.1371,-0.2051,0.8798,-6.67,8.46,0.02,24.25
17490,0.1388,-0.2078,0.8761,-6.72,8.31,0.03,24.26
17500,0.1405,-0.2091,0.8727,-6.64,7.76,-0.02,24.26
17510,0.1384,-0.2046,0.8705,-6.24,7.31,-0.08,24.25
17520,0.1394,-0.2052,0.8788,-6.08,7.51,-0.02,24.24
17530,0.1385,-0.2056,0.8794,-6.2,8.05,0.03,24.24
17540,0.14,-0.2078,0.8761,-6.29,8.27,-0.06,24.27
17550,0.1381,-0.2095,0.8772,-6.5,7.98,0.03,24.25
17560,0.135,-0.2041,0.8723,-6.23,7.51,-0.02,24.26
17570,0.1399,-0.2041,0.8779,-6.08,7.21,-0.06,24.26
17580,0.1433,-0.2058,0.8773,-6.21,7.45,-0.05,24.23
17590,0.1437,-0.1991,0.8752,-6.32,8.12,-0.02,24.25
17600,0.1403,-0.2036,0.8771,-6.55,8.37,0.0,24.27
17610,0.1371,-0.2076,0.8793,-6.41,8.03,0.0,24.27
17620,0.1385,-0.2079,0.8773,-6.21,7.62,-0.08,24.27
17630,0.142,-0.2043,0.8781,-6.26,7.3,-0.12,24.29
17640,0.1427,-0.2043,0.876,-6.27,7.48,-0.02,24.26
17650,0.1427,-0.2012,0.8704,-6.44,7.95,-0.03,24.27
17660,0.1396,-0.2048,0.875,-6.46,8.24,0.02,24.27
17670,0.1404,-0.2053,0.8785,-6.43,8.26,0.06,24.27
17680,0.1355,-0.2069,0.8777,-6.29,8.0,0.0,24.26
17690,0.139,-0.2028,0.8789,-6.38,7.71,-0.09,24.27
17700,0.1414,-0.2028,0.873,-6.37,7.59,-0.09,24.26
17710,0.1399,-0.2021,0.8715,-6.43,7.8,-0.02,24.28
17720,0.1426,-0.2052,0.8776,-6.37,8.03,0.02,24.29
17730,0.1396,-0.2034,0.8722,-6.34,8.12,-0.05,24.27
17740,0.1395,-0.2026,0.8746,-6.29,7.94,-0.11,24.28
17750,0.1399,-0.2035,0.8746,-6.18,7.6,-0.02,24.26
17760,0.1428,-0.2045,0.8702,-6.29,7.56,-0.06,24.25
17770,0.1434,-0.2032,0.8729,-6.26,7.74,-0.08,24.25
17780,0.1418,-0.2061,0.8752,-6.32,7.91,-0.05,24.27
17790,0.1421,-0.2034,0.881,-6.23,7.97,-0.03,24.29
17800,0.1373,-0.2046,0.88,-6.26,7.85,-0.05,24.27
17810,0.1383,-0.2108,0.8748,-6.43,7.66,-0.03,24.28
17820,0.1404,-0.2062,0.8745,-6.41,7.66,-0.03,24.25
17830,0.1383,-0.2089,0.8696,-6.38,7.69,-0.14,24.25
17840,0.1407,-0.2054,0.8728,-6.38,7.97,-0.08,24.29
17850,0.1407,-0.2061,0.8813,-6.2,7.97,-0.03,24.24
17860,0.1383,-0.2046,0.8754,-6.26,7.82,-0.05,24.28
17870,0.1387,-0.2026,0.8717,-6.4,7.77,-0.02,24.27
17880,0.1379,-0.2046,0.8756,-6.44,7.79,-0.09,24.25
17890,0.1403,-0.2046,0.8715,-6.35,7.91,0.05,24.25
17900,0.1383,-0.2041,0.8805,-6.26,7.86,0.03,24.25
17910,0.1383,-0.2034,0.8766,-6.24,7.74,0.03,24.23
17920,0.1388,-0.2064,0.8782,-6.35,7.59,-0.05,24.23
17930,0.1415,-0.2036,0.8745,-6.23,7.59,-0.03,24.28
17940,0.1421,-0.2013,0.8743,-6.32,7.71,-0.08,24.27
17950,0.1412,-0.2023,0.8721,-6.29,7.97,-0.02,24.27
17960,0.1401,-0.2037,0.8723,-6.2,7.94,-0.03,24.29
17970,0.1377,-0.2031,0.8783,-6.21,7.76,-0.06,24.26
17980,0.1404,-0.2021,0.8783,-6.46,7.76,-0.09,24.26
17990,0.1393,-0.203,0.8745,-6.46,7.77,-0.12,24.29
18000,0.142,-0.2035,0.8745,-6.29,7.89,-0.11,24.27
18010,0.1373,-0.2031,0.8768,-6.32,7.91,0.03,24.27
18020,0.137,-0.2051,0.8754,-6.2,7.76,-0.06,24.28
18030,0.1384,-0.204,0.876,-6.27,7.56,-0.11,24.26
18040,0.1443,-0.2048,0.8724,-6.44,7.54,-0.08,24.27
18050,0.1434,-0.2036,0.876,-6.44,7.69,-0.09,24.27
18060,0.1437,-0.2048,0.8752,-6.31,7.92,0.02,24.28
18070,0.1436,-0.2043,0.8737,-6.29,7.94,0.02,24.24
18080,0.1439,-0.2084,0.8745,-6.27,7.83,0.06,24.26
18090,0.1416,-0.2041,0.8776,-6.31,7.88,-0.05,24.27
18100,0.1415,-0.2047,0.8748,-6.29,7.92,-0.06,24.28
18110,0.1385,-0.2056,0.8777,-6.31,7.89,-0.06,24.26
18120,0.1387,-0.2051,0.8792,-6.26,7.94,-0.02,24.26
18130,0.1373,-0.2039,0.8784,-6.26,7.83,-0.02,24.28
18140,0.1404,-0.2064,0.8793,-6.27,7.77,-0.02,24.27
18150,0.1421,-0.2034,0.8815,-6.32,7.82,-0.08,24.26
18160,0.1385,-0.2031,0.8755,-6.44,7.95,-0.05,24.27
18170,0.1398,-0.2043,0.8767,-6.35,8.06,-0.06,24.29
18180,0.1343,-0.2061,0.8761,-6.24,7.97,-0.02,24.24
18190,0.1371,-0.2008,0.8757,-6.27,7.76,0.02,24.25
18200,0.1368,-0.203,0.8755,-6.38,7.79,-0.05,24.27
18210,0.1387,-0.2053,0.8772,-6.47,7.77,-0.11,24.27
18220,0.1365,-0.2034,0.8735,-6.49,7.82,0.03,24.26
18230,0.1384,-0.2048,0.8726,-6.44,7.88,0.0,24.28
18240,0.1403,-0.2056,0.877,-6.24,7.91,-0.03,24.28
18250,0.1372,-0.201,0.8757,-6.26,7.88,0.08,24.25
18260,0.1409,-0.2048,0.8773,-6.34,7.66,-0.12,24.28
18270,0.1444,-0.2021,0.8738,-6.35,7.77,-0.02,24.25
18280,0.142,-0.2035,0.8765,-6.32,7.71,-0.06,24.29
18290,0.1422,-0.2064,0.87,-6.31,7.73,-0.06,24.29
18300,0.1403,-0.2064,0.8774,-6.18,7.82,-0.03,24.27
18310,0.1392,-0.2053,0.8806,-6.26,7.8,-0.06,24.28
18320,0.1415,-0.2039,0.8777,-6.34,7.73,-0.03,24.3
18330,0.141,-0.2037,0.8801,-6.43,7.77,-0.03,24.28
18340,0.1395,-0.2057,0.8748,-6.37,7.77,-0.06,24.26
18350,0.14,-0.2053,0.8722,-6.35,7.73,-0.06,24.27
18360,0.1423,-0.2058,0.875,-6.27,7.74,-0.03,24.26
18370,0.142,-0.2035,0.8751,-6.26,7.76,-0.09,24.26
18380,0.1399,-0.2031,0.8824,-6.34,7.71,-0.12,24.27
18390,0.1403,-0.2017,0.8735,-6.27,7.74,-0.08,24.27
18400,0.1414,-0.2019,0.879,-6.38,7.79,-0.06,24.29
18410,0.1382,-0.2061,0.8772,-6.29,7.98,-0.02,24.26
18420,0.1388,-0.2053,0.8737,-6.32,8.03,0.0,24.28
18430,0.1398,-0.2051,0.8774,-6.29,7.92,0.03,24.27
18440,0.1388,-0.2037,0.8801,-6.2,7.74,0.03,24.28
18450,0.1383,-0.204,0.8781,-6.31,7.6,-0.06,24.29
18460,0.1407,-0.202,0.8765,-6.44,7.66,-0.05,24.29
18470,0.1398,-0.2036,0.8706,-6.4,7.76,-0.06,24.27
18480,0.1388,-0.2024,0.8749,-6.32,7.85,-0.05,24.29
18490,0.1394,-0.2034,0.875,-6.23,7.89,0.02,24.29
18500,0.1373,-0.2064,0.8738,-6.17,7.83,-0.03,24.26
18510,0.1387,-0.2043,0.8782,-6.23,7.76,-0.08,24.27
18520,0.141,-0.2062,0.8732,-6.29,7.66,-0.05,24.28
18530,0.139,-0.2042,0.8781,-6.29,7.66,-0.17,24.28
18540,0.1418,-0.2018,0.8723,-6.41,7.79,-0.03,24.27
18550,0.1436,-0.203,0.8739,-6.31,7.94,-0.03,24.28
18560,0.1401,-0.2063,0.8801,-6.29,7.92,-0.06,24.29
18570,0.1425,-0.2072,0.8774,-6.34,7.89,0.0,24.29
18580,0.1426,-0.2047,0.8723,-6.27,7.85,-0.06,24.27
18590,0.1395,-0.2046,0.8752,-6.34,7.74,-0.06,24.28
18600,0.1398,-0.2064,0.8744,-6.29,7.77,-0.03,24.27
18610,0.1416,-0.2024,0.8783,-6.29,7.91,-0.02,24.28
18620,0.1399,-0.2042,0.8784,-6.29,7.86,-0.02,24.28
18630,0.1387,-0.2048,0.8739,-6.31,7.85,-0.02,24.27
18640,0.139,-0.2051,0.8722,-6.34,7.8,-0.03,24.27
18650,0.1395,-0.2045,0.8708,-6.29,7.69,-0.06,24.24
18660,0.1384,-0.2084,0.8802,-6.24,7.71,-0.06,24.28
18670,0.1399,-0.2072,0.8668,-6.23,7.77,0.0,24.27
18680,0.1362,-0.2001,0.8759,-6.43,7.97,-0.12,24.29
18690,0.14,-0.2034,0.8768,-6.29,7.66,-0.06,24.28
18700,0.1388,-0.2065,0.8735,-6.11,7.68,-0.02,24.27
18710,0.1398,-0.198,0.8788,-6.14,7.77,-0.08,24.28
18720,0.1428,-0.2004,0.8837,-6.35,7.79,-0.11,24.27
18730,0.1414,-0.202,0.8755,-6.52,7.83,-0.11,24.27
18740,0.1384,-0.2048,0.8751,-6.63,7.89,-0.02,24.28
18750,0.1387,-0.2024,0.8734,-6.49,7.8,-0.05,24.27
18760,0.1398,-0.205,0.8732,-6.24,7.68,-0.09,24.28
18770,0.1399,-0.2039,0.8771,-6.17,7.73,-0.06,24.28
18780,0.1395,-0.2023,0.8779,-6.4,7.79,-0.09,24.28
18790,0.1403,-0.2052,0.8798,-6.52,7.86,-0.09,24.27
18800,0.1421,-0.2052,0.8702,-6.53,7.88,0.0,24.26
18810,0.1416,-0.2057,0.8696,-6.31,7.77,0.02,24.28
18820,0.1411,-0.2026,0.8751,-6.14,7.69,-0.08,24.28
18830,0.1423,-0.202,0.8792,-6.14,7.8,-0.09,24.28
18840,0.1426,-0.2015,0.8787,-6.41,7.82,-0.03,24.28
18850,0.139,-0.2034,0.8761,-6.5,7.85,-0.05,24.28
18860,0.1384,-0.2008,0.8777,-6.46,7.83,0.0,24.3
18870,0.1399,-0.2061,0.8728,-6.24,7.85,-0.05,24.3
18880,0.1416,-0.2057,0.8741,-6.18,7.85,0.0,24.28
18890,0.1373,-0.2024,0.8778,-6.32,7.85,-0.03,24.29
18900,0.1381,-0.2047,0.8804,-6.47,7.88,-0.05,24.27
18910,0.1406,-0.2076,0.8726,-6.55,7.8,-0.05,24.31
18920,0.1403,-0.2064,0.875,-6.27,7.82,0.0,24.29
18930,0.1398,-0.208,0.8815,-6.24,7.77,0.02,24.28
18940,0.1415,-0.2053,0.8755,-6.24,7.77,-0.09,24.3
18950,0.1404,-0.2062,0.877,-6.37,7.83,-0.08,24.28
18960,0.1395,-0.2063,0.8751,-6.43,7.76,-0.08,24.28
18970,0.1404,-0.2051,0.8726,-6.34,7.74,0.03,24.28
18980,0.1443,-0.2059,0.8745,-6.23,7.66,-0.11,24.3
18990,0.1384,-0.2028,0.8729,-6.23,7.82,-0.05,24.28
19000,0.1417,-0.2036,0.8746,-6.27,7.85,-0.02,24.29
19010,0.1414,-0.2047,0.8761,-6.4,7.91,-0.08,24.28
19020,0.1394,-0.2063,0.8708,-6.41,7.83,-0.03,24.3
19030,0.1399,-0.2031,0.8689,-6.34,7.71,-0.06,24.29
19040,0.1411,-0.2056,0.8713,-6.24,7.57,-0.11,24.27
19050,0.1447,-0.2032,0.8713,-6.24,7.76,-0.03,24.29
19060,0.1439,-0.2062,0.8727,-6.32,7.91,-0.08,24.28
19070,0.1403,-0.2032,0.8732,-6.43,8.02,-0.06,24.27
19080,0.1417,-0.2059,0.8802,-6.23,7.92,-0.08,24.28
19090,0.1407,-0.2067,0.884,-6.2,7.86,-0.08,24.29
19100,0.1445,-0.2087,0.8842,-6.38,7.88,-0.03,24.29
19110,0.1401,-0.2067,0.8823,-6.41,8.03,-0.06,24.3
19120,0.141,-0.2086,0.8789,-6.43,7.97,-0.03,24.3
19130,0.1417,-0.2096,0.8761,-6.35,7.66,-0.09,24.3
19140,0.1416,-0.2084,0.8715,-6.26,7.59,-0.03,24.3
19150,0.145,-0.2036,0.8668,-6.35,7.48,-0.08,24.32
19160,0.1434,-0.205,0.8646,-6.38,7.66,-0.03,24.29
19170,0.1404,-0.2004,0.8677,-6.31,7.88,-0.02,24.3
19180,0.1409,-0.2026,0.8716,-6.27,7.83,-0.02,24.31
19190,0.139,-0.2052,0.8737,-6.15,7.92,-0.11,24.32
19200,0.1368,-0.2018,0.882,-6.24,7.8,-0.05,24.28
19210,0.1417,-0.2023,0.8795,-6.29,7.69,-0.02,24.32
19220,0.1503,-0.2039,0.8785,-6.49,7.53,-0.05,24.31
19230,0.1432,-0.2087,0.8737,-6.38,7.74,-0.08,24.31
19243,0.1385,-0.2052,0.8783,-6.23,7.91,-0.06,24.3
19253,0.1462,-0.2046,0.8734,-6.18,7.65,-0.08,24.3
19263,0.1456,-0.2029,0.8794,-6.29,7.91,-0.03,24.29
19273,0.1372,-0.2056,0.8763,-6.58,7.85,-0.05,24.31
19283,0.1355,-0.2046,0.8688,-6.66,7.89,0.02,24.29
19293,0.1365,-0.2075,0.868,-6.34,7.8,-0.12,24.3
19303,0.1361,-0.2029,0.8672,-6.15,7.65,-0.02,24.3
19313,0.1404,-0.2012,0.8702,-6.0,7.76,-0.08,24.27
19323,0.1399,-0.2046,0.8779,-6.02,8.0,-0.06,24.31
19333,0.1393,-0.2025,0.88,-6.4,7.98,-0.02,24.3
19344,0.1412,-0.2043,0.8761,-6.55,7.8,-0.08,24.3
19354,0.1401,-0.2069,0.8756,-6.41,7.63,-0.05,24.3
19364,0.1375,-0.2073,0.8766,-6.32,7.53,-0.03,24.29
19374,0.1423,-0.2023,0.8749,-6.21,7.73,-0.06,24.31
19384,0.1393,-0.2034,0.8751,-6.24,7.94,-0.03,24.33
19394,0.1406,-0.2034,0.8809,-6.38,8.05,-0.02,24.29
19404,0.1403,-0.2059,0.8771,-6.43,7.8,-0.03,24.32
19414,0.14,-0.2083,0.8762,-6.4,7.63,0.0,24.3
19424,0.1427,-0.2069,0.8802,-6.24,7.65,-0.11,24.29
19434,0.1427,-0.2014,0.8749,-6.24,7.83,-0.05,24.3
19444,0.1409,-0.203,0.8722,-6.32,7.89,0.05,24.29
19454,0.1368,-0.2014,0.8755,-6.38,7.8,-0.02,24.29
19464,0.1382,-0.204,0.8777,-6.37,7.71,-0.09,24.28
19474,0.1393,-0.2015,0.8748,-6.29,7.62,-0.05,24.29
19484,0.1417,-0.2035,0.874,-6.35,7.69,-0.02,24.29
19494,0.1387,-0.2039,0.8756,-6.35,7.85,-0.06,24.31
19504,0.1417,-0.2028,0.8741,-6.32,7.74,-0.02,24.3
19514,0.1403,-0.2064,0.8713,-6.23,7.79,-0.02,24.31
19524,0.1393,-0.2042,0.8755,-6.32,7.79,0.0,24.29
19534,0.1394,-0.2058,0.8766,-6.26,7.73,-0.11,24.29
19544,0.1415,-0.2043,0.8754,-6.43,7.62,-0.02,24.28
19554,0.139,-0.2009,0.8746,-6.44,7.83,-0.12,24.3
19564,0.1376,-0.2028,0.8745,-6.4,7.86,-0.03,24.29
19574,0.1411,-0.2017,0.874,-6.31,8.0,0.09,24.29
19584,0.1399,-0.2056,0.8778,-6.29,8.0,-0.03,24.29
19595,0.1372,-0.2065,0.8818,-6.29,7.94,-0.02,24.29
19605,0.1384,-0.2064,0.8837,-6.44,7.76,-0.03,24.28
19615,0.1401,-0.2078,0.8815,-6.52,7.65,-0.05,24.3
19625,0.14,-0.2067,0.8732,-6.5,7.66,-0.02,24.3
19635,0.1375,-0.2051,0.8696,-6.38,7.76,-0.11,24.3
19645,0.1368,-0.2012,0.8716,-6.26,7.91,-0.15,24.3
19655,0.1368,-0.2031,0.874,-6.12,7.85,-0.02,24.29
19665,0.1356,-0.203,0.8716,-6.24,7.69,0.0,24.31
19675,0.1383,-0.2023,0.8774,-6.43,7.63,-0.05,24.29
19685,0.1417,-0.2001,0.8722,-6.43,7.73,-0.08,24.3
19695,0.1436,-0.2042,0.8735,-6.35,7.92,-0.08,24.3
19705,0.1447,-0.2065,0.8798,-6.43,8.0,0.05,24.32
19715,0.141,-0.2065,0.8793,-6.37,8.0,-0.08,24.32
19725,0.1417,-0.2067,0.8734,-6.44,7.71,-0.06,24.3
19735,0.1381,-0.2073,0.8761,-6.35,7.62,-0.12,24.29
19746,0.1411,-0.2046,0.8779,-6.35,7.69,-0.14,24.33
19756,0.1449,-0.2051,0.8734,-6.4,8.08,0.0,24.32
19766,0.1427,-0.2048,0.8783,-6.37,8.29,0.11,24.31
19776,0.1368,-0.2057,0.8778,-6.34,8.15,0.0,24.31
19786,0.1357,-0.2059,0.8761,-6.43,7.76,-0.03,24.3
19796,0.1381,-0.2057,0.8728,-6.47,7.56,-0.11,24.29
19806,0.1381,-0.2069,0.8723,-6.4,7.56,-0.14,24.32
19816,0.1421,-0.2039,0.8677,-6.43,7.86,-0.06,24.31
19826,0.1418,-0.2047,0.873,-6.34,8.17,-0.02,24.3
19836,0.1394,-0.2085,0.8754,-6.34,8.21,0.11,24.3
19846,0.1367,-0.2057,0.8776,-6.29,8.06,0.05,24.33
19856,0.1373,-0.2096,0.8802,-6.44,7.83,-0.11,24.29
19866,0.1376,-0.2075,0.8762,-6.47,7.74,-0.05,24.3
19876,0.1412,-0.2069,0.8767,-6.49,7.77,-0.06,24.32
19886,0.1414,-0.2063,0.8772,-6.41,7.92,-0.02,24.31
19896,0.1416,-0.2054,0.8744,-6.4,7.95,-0.08,24.31
19906,0.1368,-0.2039,0.8773,-6.34,7.82,0.0,24.29
19916,0.1395,-0.2039,0.8772,-6.41,7.76,-0.06,24.31
19926,0.1379,-0.1991,0.8748,-6.44,7.65,-0.09,24.33
19936,0.1422,-0.202,0.8728,-6.41,7.71,-0.05,24.29
19946,0.1433,-0.2006,0.8723,-6.4,7.88,0.03,24.31
19956,0.1412,-0.2059,0.8788,-6.32,8.02,0.0,24.32
19966,0.1403,-0.207,0.8811,-6.38,8.03,-0.05,24.3
19976,0.1387,-0.2098,0.8768,-6.41,7.97,-0.03,24.32
19986,0.1393,-0.2067,0.8754,-6.58,7.8,0.0,24.32
19996,0.1381,-0.2052,0.8724,-6.6,7.66,-0.06,24.32
20006,0.1418,-0.2076,0.8727,-6.47,7.83,0.09,24.29
20016,0.1411,-0.2032,0.8712,-6.29,8.05,0.03,24.31
20026,0.1403,-0.2043,0.8759,-6.31,8.11,-0.03,24.29
20036,0.1372,-0.2013,0.8788,-6.27,7.95,-0.06,24.3
20046,0.1344,-0.2051,0.8804,-6.34,7.83,-0.09,24.32
20056,0.1373,-0.2046,0.8767,-6.49,7.71,-0.12,24.32
20066,0.1395,-0.2037,0.8767,-6.41,7.68,-0.05,24.32
20076,0.1426,-0.2032,0.8752,-6.35,7.79,0.03,24.31
20086,0.1418,-0.2085,0.879,-6.4,7.97,0.0,24.32
20096,0.141,-0.2081,0.88,-6.41,7.83,-0.05,24.33
20106,0.1399,-0.2096,0.8751,-6.44,7.8,-0.05,24.31
20116,0.1417,-0.2095,0.8745,-6.4,7.77,-0.08,24.32
20126,0.1385,-0.207,0.8708,-6.32,7.86,-0.11,24.32
20136,0.1365,-0.2051,0.8728,-6.18,7.97,-0.02,24.32
20146,0.1373,-0.2037,0.8762,-6.24,7.94,0.0,24.32
20156,0.1383,-0.2017,0.8768,-6.21,7.82,-0.06,24.31
20166,0.1372,-0.2023,0.8811,-6.37,7.63,-0.08,24.28
20176,0.1383,-0.2047,0.8741,-6.4,7.56,-0.06,24.31
20186,0.1401,-0.2072,0.8701,-6.41,7.68,-0.03,24.31
20196,0.1422,-0.2072,0.8759,-6.4,7.89,-0.06,24.3
20206,0.1406,-0.2057,0.8761,-6.41,8.06,-0.03,24.29
20216,0.1401,-0.2089,0.8766,-6.37,7.97,0.02,24.29
20226,0.139,-0.2084,0.877,-6.38,7.74,-0.06,24.3
20236,0.1388,-0.2059,0.879,-6.35,7.73,-0.02,24.3
20246,0.1392,-0.2026,0.8772,-6.26,7.68,-0.03,24.31
20256,0.139,-0.2051,0.876,-6.14,7.8,-0.02,24.31
20266,0.1392,-0.2036,0.8765,-6.24,7.88,0.03,24.3
20276,0.1414,-0.2013,0.8774,-6.23,7.85,-0.02,24.3
20286,0.1439,-0.2025,0.8802,-6.31,7.77,-0.09,24.33
20296,0.1379,-0.2047,0.8754,-6.4,7.77,-0.05,24.34
20306,0.1427,-0.2069,0.8735,-6.44,7.82,-0.06,24.31
20316,0.1425,-0.2056,0.8734,-6.32,7.94,-0.12,24.31
20326,0.1414,-0.2056,0.8765,-6.38,7.92,-0.06,24.3
20336,0.1375,-0.2048,0.8748,-6.38,8.02,-0.06,24.31
20346,0.1394,-0.2037,0.8727,-6.4,7.92,-0.09,24.32
20356,0.1394,-0.2039,0.8782,-6.44,7.94,-0.08,24.31
20366,0.1383,-0.2069,0.8778,-6.43,7.94,-0.03,24.32
20376,0.1399,-0.2062,0.8756,-6.46,7.83,-0.06,24.33
20386,0.1385,-0.2046,0.8734,-6.46,7.85,-0.05,24.33
20396,0.14,-0.2054,0.8751,-6.41,7.88,-0.09,24.31
20406,0.1425,-0.2058,0.8734,-6.24,7.91,-0.02,24.31
20416,0.1376,-0.2028,0.8751,-6.26,7.97,-0.05,24.33
20426,0.1384,-0.2063,0.8757,-6.41,7.88,-0.08,24.33
20436,0.1399,-0.2061,0.8743,-6.41,7.86,-0.06,24.33
20446,0.1379,-0.2072,0.8734,-6.32,7.74,-0.09,24.31
20456,0.1425,-0.207,0.876,-6.29,7.79,-0.06,24.33
20466,0.139,-0.2075,0.8734,-6.24,7.76,-0.09,24.31
20476,0.1433,-0.2032,0.8777,-6.26,7.8,-0.08,24.32
20486,0.1381,-0.2037,0.8783,-6.34,7.79,-0.09,24.35
20496,0.14,-0.2068,0.8732,-6.18,7.68,-0.05,24.35
20507,0.1395,-0.2042,0.8745,-6.14,7.69,-0.14,24.3
20517,0.1427,-0.204,0.8776,-6.18,7.68,-0.03,24.34
20527,0.141,-0.2061,0.8761,-6.26,7.79,-0.08,24.34
20538,0.1406,-0.2081,0.8713,-6.34,7.91,-0.03,24.34
20548,0.1383,-0.2083,0.8783,-6.44,7.89,-0.03,24.34
20558,0.1376,-0.2031,0.8695,-6.31,7.59,-0.09,24.34
20568,0.1359,-0.2061,0.8707,-6.15,7.57,-0.05,24.31
20578,0.1372,-0.2018,0.8772,-6.21,7.62,-0.09,24.34
20588,0.1385,-0.2035,0.8763,-6.31,7.82,-0.05,24.34
20598,0.1372,-0.2042,0.8756,-6.43,7.86,0.02,24.32
20608,0.1354,-0.2067,0.8781,-6.41,7.86,-0.06,24.31
20618,0.1353,-0.2067,0.8763,-6.37,7.63,-0.09,24.34
20628,0.1345,-0.2061,0.8751,-6.23,7.65,-0.09,24.33
20638,0.1405,-0.2054,0.8787,-6.29,7.66,0.0,24.31
20648,0.1433,-0.2034,0.8761,-6.37,7.86,-0.02,24.32
20658,0.1429,-0.2035,0.8756,-6.47,7.88,-0.03,24.32
20668,0.1418,-0.2087,0.8737,-6.49,7.76,-0.05,24.32
20678,0.1436,-0.2057,0.8776,-6.31,7.66,-0.05,24.34
20688,0.1417,-0.2063,0.875,-6.31,7.82,-0.03,24.36
20698,0.1418,-0.2046,0.8822,-6.47,8.03,0.0,24.34
20708,0.1399,-0.2046,0.8773,-6.4,8.11,0.03,24.32
20718,0.1399,-0.2067,0.8805,-6.2,8.02,-0.03,24.34
20728,0.1395,-0.2087,0.8798,-6.23,7.79,-0.08,24.33
20738,0.1384,-0.2041,0.8792,-6.34,7.6,0.0,24.32
20748,0.1422,-0.2037,0.8751,-6.47,7.76,-0.05,24.32
20758,0.1427,-0.205,0.8741,-6.47,7.91,-0.06,24.34
20768,0.1426,-0.2063,0.8785,-6.34,8.09,0.02,24.33
20778,0.1377,-0.205,0.8752,-6.38,8.0,-0.02,24.35
20788,0.1387,-0.2046,0.8749,-6.29,7.82,-0.03,24.34
20798,0.1382,-0.2054,0.8757,-6.31,7.76,0.03,24.32
20808,0.1392,-0.2076,0.8748,-6.41,7.85,-0.02,24.33
20818,0.1383,-0.2024,0.8761,-6.29,7.89,0.05,24.33
20828,0.1375,-0.2081,0.8744,-6.29,8.0,0.03,24.33
20838,0.1378,-0.2059,0.8756,-6.29,7.91,-0.08,24.33
20848,0.1367,-0.2073,0.8772,-6.37,7.77,-0.02,24.34
20858,0.1359,-0.2021,0.8738,-6.41,7.71,-0.11,24.34
20868,0.1384,-0.2068,0.8746,-6.38,7.73,-0.05,24.35
20878,0.1411,-0.2052,0.874,-6.29,7.82,-0.03,24.33
20888,0.1398,-0.2061,0.8704,-6.12,8.02,-0.05,24.34
20898,0.1368,-0.2063,0.8796,-6.23,8.12,-0.09,24.34
20908,0.1327,-0.2068,0.8792,-6.43,7.92,-0.05,24.34
20918,0.1365,-0.2039,0.874,-6.44,7.79,-0.11,24.32
20928,0.1354,-0.2043,0.8779,-6.34,7.74,-0.06,24.34
20938,0.1377,-0.2059,0.8745,-6.32,7.79,-0.03,24.35
20948,0.1388,-0.2042,0.8735,-6.29,7.79,-0.12,24.34
20958,0.1377,-0.2045,0.8762,-6.37,7.77,-0.05,24.33
20968,0.1416,-0.2064,0.8754,-6.35,7.73,-0.09,24.34
20978,0.142,-0.2067,0.8723,-6.4,7.74,-0.14,24.3
20988,0.1384,-0.2085,0.8771,-6.44,7.85,-0.06,24.35
20998,0.1405,-0.2063,0.8762,-6.27,7.94,-0.09,24.34
21008,0.1379,-0.2075,0.8751,-6.2,7.86,0.03,24.32
21018,0.1373,-0.2076,0.8763,-6.12,7.77,-0.09,24.34
21028,0.1383,-0.2057,0.8805,-6.24,7.6,-0.11,24.34
21038,0.1379,-0.2064,0.8771,-6.46,7.59,-0.11,24.36
21048,0.1385,-0.2079,0.8771,-6.41,7.74,-0.11,24.35
21058,0.1383,-0.2056,0.8721,-6.32,7.85,-0.12,24.33
21068,0.1375,-0.2051,0.8739,-6.24,7.91,-0.08,24.34
21078,0.1399,-0.2032,0.8796,-6.23,7.88,-0.05,24.32
21088,0.1384,-0.2048,0.8782,-6.4,7.88,-0.06,24.34
21098,0.1392,-0.2073,0.8755,-6.56,7.82,-0.09,24.33
21108,0.1407,-0.2048,0.8759,-6.37,7.69,-0.03,24.32
21119,0.1415,-0.2058,0.8735,-6.23,7.69,-0.06,24.34
21129,0.1398,-0.2039,0.8727,-6.21,7.73,-0.08,24.34
21139,0.1381,-0.2042,0.879,-6.29,7.94,-0.06,24.36
21149,0.1439,-0.2056,0.8772,-6.34,7.91,-0.05,24.34
21159,0.1418,-0.2078,0.8722,-6.43,7.82,0.0,24.33
21169,0.1384,-0.2052,0.8748,-6.31,7.79,-0.05,24.32
21179,0.1405,-0.205,0.8754,-6.24,7.8,-0.03,24.32
21189,0.1381,-0.2036,0.8776,-6.26,7.83,-0.02,24.35
21199,0.1385,-0.2062,0.8801,-6.2,7.86,-0.03,24.34
21209,0.1401,-0.2048,0.8762,-6.34,7.89,-0.05,24.33
21219,0.1381,-0.2039,0.8783,-6.34,7.79,-0.06,24.35
21229,0.1404,-0.2068,0.876,-6.27,7.74,0.03,24.34
21239,0.1368,-0.2072,0.8733,-6.37,7.86,-0.06,24.33
21249,0.1381,-0.2078,0.8719,-6.29,7.89,-0.05,24.33
21259,0.1382,-0.208,0.8749,-6.37,7.98,-0.05,24.35
21269,0.1375,-0.2064,0.8774,-6.35,7.86,-0.05,24.32
21279,0.1439,-0.2062,0.8757,-6.38,7.82,-0.08,24.34
21289,0.1406,-0.2061,0.8744,-6.37,7.83,-0.03,24.33
21299,0.1399,-0.2057,0.8745,-6.29,7.92,-0.02,24.34
21309,0.1368,-0.2032,0.871,-6.21,7.8,-0.08,24.34
21319,0.1368,-0.2051,0.8763,-6.21,7.82,-0.06,24.33
21329,0.1388,-0.2047,0.8757,-6.21,7.74,-0.03,24.34
21339,0.1383,-0.2054,0.8739,-6.34,7.8,-0.03,24.34
21349,0.1367,-0.2079,0.8759,-6.4,7.94,-0.02,24.33
21359,0.1353,-0.2072,0.8766,-6.4,8.06,-0.09,24.34
21369,0.1372,-0.2054,0.8773,-6.31,7.92,-0.02,24.35
21379,0.1383,-0.2057,0.8789,-6.24,7.77,-0.02,24.34
21389,0.1381,-0.2059,0.8737,-6.4,7.71,0.0,24.34
21399,0.1373,-0.2031,0.8722,-6.4,7.73,-0.08,24.34
21409,0.1377,-0.2047,0.8712,-6.35,7.91,-0.02,24.36
21419,0.1387,-0.2048,0.8762,-6.27,8.02,0.02,24.34
21429,0.139,-0.2086,0.8795,-6.26,7.86,-0.06,24.36
21439,0.1373,-0.2056,0.8796,-6.37,7.77,-0.05,24.35
21449,0.1373,-0.2031,0.8773,-6.31,7.6,-0.11,24.35
21459,0.1405,-0.2047,0.8744,-6.29,7.5,-0.11,24.35
21469,0.1418,-0.2052,0.874,-6.24,7.68,-0.08,24.37
21479,0.1415,-0.2051,0.8773,-6.18,7.8,-0.08,24.33
21489,0.1389,-0.2028,0.8759,-6.29,7.88,-0.08,24.35
21499,0.1428,-0.2042,0.8772,-6.38,7.86,-0.08,24.34
21509,0.1416,-0.2062,0.8759,-6.38,7.68,-0.06,24.35
21519,0.1456,-0.2037,0.8733,-6.4,7.71,-0.05,24.34
21529,0.1418,-0.2061,0.8761,-6.32,7.76,-0.08,24.37
21539,0.1444,-0.2052,0.8732,-6.23,7.95,0.06,24.37
21549,0.1353,-0.2043,0.8765,-6.37,8.12,-0.02,24.37
21559,0.1349,-0.2067,0.8833,-6.29,8.0,-0.08,24.33
21570,0.1364,-0.2051,0.877,-6.27,7.68,-0.14,24.34
21580,0.1395,-0.2072,0.8787,-6.35,7.45,-0.03,24.34
21590,0.1406,-0.2047,0.8752,-6.38,7.65,-0.06,24.35
21600,0.1415,-0.2058,0.8748,-6.35,8.05,0.05,24.35
21610,0.1381,-0.2036,0.8743,-6.34,8.18,0.05,24.36
21620,0.137,-0.2043,0.876,-6.29,8.03,-0.02,24.35
21630,0.1372,-0.2052,0.8801,-6.35,7.71,-0.02,24.37
21640,0.1394,-0.2058,0.877,-6.35,7.6,-0.12,24.36
21650,0.1387,-0.2065,0.8741,-6.4,7.65,0.03,24.35
21660,0.142,-0.2046,0.8732,-6.35,7.95,0.02,24.34
21670,0.141,-0.2057,0.8766,-6.37,8.14,0.03,24.34
21680,0.1362,-0.2048,0.8776,-6.29,7.86,0.03,24.33
21690,0.1382,-0.2029,0.8794,-6.27,7.53,-0.06,24.34
21700,0.1398,-0.2041,0.8728,-6.47,7.56,-0.05,24.34
21710,0.1409,-0.2056,0.8748,-6.41,7.86,0.03,24.36
21720,0.1423,-0.2079,0.8741,-6.34,8.12,-0.03,24.35
21731,0.1373,-0.2032,0.8787,-6.21,8.09,0.08,24.36
21741,0.1375,-0.2029,0.8765,-6.21,7.77,-0.11,24.33
21751,0.1406,-0.2041,0.8824,-6.31,7.48,-0.12,24.35
21761,0.1398,-0.2032,0.8795,-6.4,7.47,-0.02,24.37
21771,0.1436,-0.2039,0.8778,-6.46,7.59,-0.08,24.37
21781,0.1407,-0.2072,0.8729,-6.44,7.88,-0.08,24.36
21791,0.1414,-0.2069,0.8688,-6.23,8.02,0.03,24.36
21801,0.1394,-0.207,0.8721,-6.21,7.94,-0.02,24.37
21811,0.139,-0.2064,0.8778,-6.34,7.91,0.06,24.35
21822,0.139,-0.2079,0.879,-6.4,7.73,-0.05,24.33
21832,0.1393,-0.2064,0.8778,-6.34,7.79,-0.08,24.37
21842,0.1387,-0.204,0.8734,-6.32,7.73,-0.05,24.36
21852,0.141,-0.2063,0.8793,-6.06,7.74,-0.09,24.36
21862,0.1396,-0.2025,0.8772,-6.15,7.65,-0.14,24.37
21872,0.1392,-0.2041,0.8806,-6.18,7.66,0.0,24.35
21882,0.1406,-0.2046,0.8794,-6.34,7.6,-0.06,24.37
21892,0.1392,-0.2069,0.8754,-6.52,7.77,-0.05,24.36
21902,0.1398,-0.2054,0.8727,-6.24,7.74,-0.03,24.37
21912,0.1416,-0.2065,0.8737,-6.21,7.86,-0.02,24.37
21922,0.1393,-0.2043,0.8741,-6.29,7.83,-0.02,24.36
21932,0.1389,-0.2046,0.8783,-6.43,7.77,-0.06,24.37
21942,0.1387,-0.208,0.8745,-6.56,7.89,-0.02,24.36
21952,0.1404,-0.2097,0.8711,-6.5,8.0,0.02,24.36
21962,0.137,-0.2053,0.8767,-6.31,8.03,0.02,24.37
21972,0.1306,-0.2031,0.8853,-6.09,8.26,-0.05,24.36
21982,0.145,-0.1997,0.8784,-6.18,8.0,-0.05,24.37
21992,0.1288,-0.2035,0.8845,-6.43,8.03,-0.08,24.38
22002,0.1317,-0.2063,0.8832,-6.6,7.85,-0.03,24.36
22012,0.1337,-0.2091,0.8711,-6.47,7.8,-0.09,24.37
22022,0.1379,-0.2061,0.8705,-6.31,7.68,-0.05,24.37
22032,0.1393,-0.2004,0.869,-6.08,7.8,-0.02,24.38
22042,0.1416,-0.2019,0.8716,-6.12,7.56,-0.09,24.39
22052,0.1481,-0.2074,0.8799,-6.4,7.63,-0.08,24.36
22062,0.1403,-0.2073,0.8756,-6.63,8.0,-0.09,24.37
22072,0.1396,-0.2052,0.873,-6.29,7.97,0.03,24.36
22082,0.137,-0.2078,0.8746,-6.0,7.85,0.0,24.36
22092,0.1379,-0.2085,0.8812,-6.31,7.88,0.02,24.37
22102,0.1416,-0.21,0.882,-6.73,7.92,-0.08,24.37
22112,0.1384,-0.2069,0.8746,-6.64,7.95,0.0,24.37
22122,0.141,-0.2043,0.8698,-6.05,7.59,-0.05,24.35
22132,0.14,-0.2007,0.873,-5.62,7.33,-0.03,24.36
22142,0.1393,-0.2036,0.8776,-6.26,7.57,-0.05,24.35
22152,0.1439,-0.2051,0.8779,-6.76,7.88,-0.08,24.39
22162,0.1432,-0.2084,0.8667,-6.75,8.15,-0.12,24.37
22172,0.1395,-0.2073,0.8691,-6.03,7.85,-0.05,24.39
22182,0.1375,-0.2061,0.8772,-5.66,7.45,-0.06,24.38
22192,0.1422,-0.204,0.8812,-6.02,7.45,-0.03,24.37
22202,0.1421,-0.2035,0.8802,-6.73,7.86,0.0,24.37
22212,0.1387,-0.2075,0.8713,-6.89,8.15,0.0,24.36
22222,0.1365,-0.2065,0.874,-6.38,7.95,0.0,24.36
22235,0.1379,-0.2069,0.8745,-6.15,7.62,-0.05,24.35
22245,0.1394,-0.2008,0.8789,-6.23,7.79,-0.08,24.36
22255,0.1406,-0.2012,0.8695,-6.4,7.94,-0.06,24.38
22265,0.1403,-0.2072,0.879,-6.55,8.02,-0.03,24.38
22275,0.1376,-0.2114,0.8761,-6.55,8.11,-0.03,24.35
22285,0.1376,-0.2075,0.8751,-6.38,7.89,-0.02,24.33
22295,0.1372,-0.2035,0.8755,-6.03,7.69,-0.05,24.38
22305,0.1395,-0.2015,0.8778,-5.92,7.59,-0.02,24.37
22315,0.1401,-0.2019,0.8827,-6.2,7.82,-0.09,24.37
22325,0.14,-0.2068,0.8799,-6.61,7.88,-0.06,24.38
22335,0.1345,-0.2089,0.8701,-6.69,7.8,-0.05,24.37
22345,0.1392,-0.2072,0.8688,-6.43,7.76,0.0,24.37
22355,0.139,-0.2046,0.8707,-6.12,7.8,0.02,24.37
22365,0.1372,-0.2017,0.8799,-5.79,7.91,-0.03,24.37
22375,0.137,-0.199,0.8815,-6.14,7.98,0.02,24.36
22385,0.1403,-0.2039,0.8818,-6.53,7.97,-0.08,24.36
22395,0.1368,-0.2068,0.8755,-6.72,7.79,-0.09,24.39
22405,0.1387,-0.2072,0.8724,-6.55,7.63,-0.05,24.39
22415,0.1392,-0.2089,0.8715,-6.14,7.77,0.02,24.38
22425,0.1396,-0.2048,0.8774,-6.08,8.02,0.02,24.37
22435,0.1378,-0.2048,0.8806,-6.37,8.03,0.0,24.39
22445,0.1354,-0.2036,0.8773,-6.56,7.89,-0.02,24.37
22455,0.1389,-0.2079,0.8748,-6.55,7.6,-0.06,24.37
22465,0.1375,-0.2067,0.8707,-6.24,7.51,-0.09,24.38
22475,0.1384,-0.2042,0.874,-6.14,7.68,-0.11,24.37
22485,0.1396,-0.2067,0.8739,-6.29,8.0,-0.06,24.38
22495,0.1373,-0.2061,0.875,-6.52,8.14,-0.02,24.39
22506,0.1359,-0.2063,0.877,-6.49,7.83,-0.05,24.38
22516,0.1367,-0.2073,0.8766,-6.26,7.51,-0.02,24.38
22526,0.1421,-0.2039,0.8777,-6.17,7.42,-0.05,24.38
22536,0.1405,-0.2041,0.8755,-6.27,7.66,-0.03,24.36
22546,0.1395,-0.2062,0.8771,-6.38,7.94,-0.06,24.35
22556,0.1389,-0.2065,0.8744,-6.5,7.98,0.0,24.4
22566,0.1378,-0.2053,0.8755,-6.35,7.85,-0.03,24.39
22576,0.1395,-0.2069,0.8744,-6.2,7.66,-0.06,24.37
22586,0.1381,-0.2075,0.876,-6.18,7.62,-0.06,24.38
22596,0.139,-0.2042,0.8773,-6.32,7.66,-0.05,24.39
22606,0.1422,-0.2062,0.8801,-6.38,7.85,0.0,24.37
22616,0.1382,-0.2045,0.8746,-6.44,7.85,-0.09,24.38
22626,0.1396,-0.2062,0.8778,-6.46,7.83,-0.06,24.36
22636,0.1385,-0.2072,0.8794,-6.29,7.71,-0.06,24.39
22646,0.1395,-0.2054,0.8765,-6.26,7.73,-0.02,24.39
22656,0.1409,-0.2063,0.8776,-6.27,7.79,0.02,24.37
22666,0.1384,-0.2068,0.8749,-6.32,7.89,-0.11,24.4
22676,0.1385,-0.2067,0.8778,-6.31,7.88,-0.05,24.38
22686,0.1389,-0.2063,0.8759,-6.27,7.71,-0.08,24.39
22696,0.1395,-0.2053,0.8745,-6.35,7.71,-0.09,24.37
22706,0.1404,-0.205,0.8756,-6.29,7.73,-0.09,24.39
22716,0.1395,-0.2087,0.8762,-6.34,7.88,-0.08,24.37
22726,0.1399,-0.208,0.8767,-6.35,7.97,-0.11,24.38
22736,0.1376,-0.2029,0.8748,-6.34,7.94,-0.11,24.39
22746,0.1403,-0.2076,0.8773,-6.37,7.82,0.02,24.37
22756,0.1373,-0.2062,0.8767,-6.31,7.74,-0.08,24.36
22766,0.1377,-0.2041,0.88,-6.24,7.82,-0.03,24.39
22776,0.1396,-0.2026,0.8777,-6.34,7.92,-0.02,24.39
22786,0.136,-0.2039,0.8757,-6.37,7.89,-0.02,24.38
22796,0.1366,-0.204,0.879,-6.27,7.85,-0.02,24.38
22806,0.1377,-0.2072,0.8729,-6.31,7.71,-0.08,24.37
22816,0.1389,-0.2056,0.8735,-6.32,7.71,0.03,24.39
22826,0.1395,-0.2062,0.8738,-6.37,7.85,-0.02,24.38
22836,0.1387,-0.2051,0.8748,-6.35,7.97,-0.11,24.37
22846,0.1387,-0.2054,0.8744,-6.32,8.02,-0.03,24.39
22856,0.1372,-0.2057,0.8761,-6.31,7.89,-0.09,24.39
22866,0.1379,-0.2068,0.8743,-6.31,7.79,-0.03,24.38
22876,0.1375,-0.2058,0.8712,-6.23,7.73,-0.03,24.36
22886,0.1403,-0.205,0.8774,-6.26,7.65,-0.08,24.39
22896,0.1405,-0.2058,0.8748,-6.32,7.68,-0.11,24.38
22906,0.1415,-0.208,0.873,-6.32,7.74,-0.03,24.38
22916,0.1396,-0.2032,0.8756,-6.32,7.79,-0.08,24.41
22926,0.142,-0.2017,0.8763,-6.31,7.86,0.0,24.37
22936,0.1377,-0.2062,0.8732,-6.27,7.85,-0.06,24.39
22946,0.1394,-0.205,0.8811,-6.4,7.77,-0.06,24.38
22956,0.1388,-0.2073,0.8749,-6.43,7.79,-0.08,24.39
22966,0.1377,-0.2075,0.8752,-6.38,7.74,-0.03,24.38
22976,0.1371,-0.2045,0.8741,-6.34,7.66,-0.06,24.39
22986,0.1431,-0.2062,0.875,-6.26,7.62,-0.02,24.43
22996,0.1387,-0.2041,0.8734,-6.26,7.74,-0.08,24.38
23006,0.1384,-0.2042,0.877,-6.34,7.82,0.02,24.39
23016,0.14,-0.2053,0.876,-6.43,7.88,-0.06,24.4
23026,0.1355,-0.2073,0.8798,-6.5,7.91,-0.06,24.39
23036,0.1371,-0.2084,0.8794,-6.5,7.85,-0.11,24.38
23046,0.139,-0.2083,0.8723,-6.35,7.71,-0.08,24.38
23056,0.1384,-0.2078,0.8719,-6.29,7.66,-0.06,24.39
23066,0.1384,-0.2085,0.8741,-6.27,7.69,-0.03,24.4
23076,0.1385,-0.2048,0.8763,-6.23,7.79,0.06,24.4
23086,0.1414,-0.2053,0.8745,-6.31,7.85,0.05,24.4
23096,0.1418,-0.2072,0.8746,-6.34,7.85,-0.08,24.38
23106,0.1411,-0.2061,0.8738,-6.32,7.89,-0.02,24.38
23116,0.1404,-0.2078,0.8804,-6.24,7.85,-0.05,24.4
23126,0.1379,-0.2068,0.8796,-6.31,7.79,-0.08,24.39
23136,0.1394,-0.2061,0.8784,-6.24,7.71,-0.03,24.39
23146,0.139,-0.2043,0.874,-6.32,7.79,-0.09,24.37
23156,0.1404,-0.2064,0.877,-6.31,7.79,-0.11,24.39
23166,0.1398,-0.2039,0.8723,-6.29,7.92,0.0,24.36
23176,0.1383,-0.2047,0.8768,-6.31,7.98,-0.03,24.37
23186,0.1377,-0.2062,0.8759,-6.31,7.98,-0.02,24.42
23196,0.1398,-0.2051,0.8761,-6.34,7.88,-0.14,24.39
23206,0.1376,-0.2086,0.8757,-6.4,7.73,-0.02,24.38
23216,0.1384,-0.2057,0.8777,-6.31,7.69,-0.05,24.39
23226,0.136,-0.2059,0.8749,-6.24,7.77,-0.05,24.4
23236,0.1394,-0.2086,0.8765,-6.24,7.97,-0.02,24.39
23246,0.1405,-0.2064,0.8757,-6.4,7.98,-0.03,24.37
23256,0.1399,-0.2057,0.8757,-6.46,7.86,-0.05,24.41
23266,0.1405,-0.2052,0.8741,-6.43,7.85,-0.03,24.41
23276,0.1373,-0.2045,0.8777,-6.37,7.77,0.05,24.42
23286,0.1387,-0.2031,0.8722,-6.44,7.89,-0.05,24.39
23296,0.1411,-0.209,0.8723,-6.47,7.92,-0.02,24.4
23306,0.1393,-0.2061,0.8738,-6.4,7.98,0.0,24.42
23316,0.1373,-0.2069,0.8748,-6.38,7.76,-0.05,24.39
23326,0.141,-0.2059,0.8739,-6.35,7.77,-0.06,24.41
23336,0.1416,-0.2059,0.879,-6.27,7.73,0.02,24.4
23346,0.1385,-0.203,0.875,-6.34,7.83,-0.12,24.4
23356,0.1372,-0.2058,0.8743,-6.41,7.73,-0.03,24.38
23366,0.1406,-0.2026,0.8749,-6.32,7.8,-0.06,24.4
23376,0.1376,-0.2064,0.8761,-6.24,7.8,0.0,24.38
23386,0.1384,-0.2064,0.8738,-6.24,7.8,0.02,24.39
23396,0.1378,-0.2068,0.8743,-6.34,7.85,-0.14,24.39
23406,0.1385,-0.208,0.8752,-6.37,7.86,-0.08,24.39
23416,0.1383,-0.2089,0.8722,-6.34,7.89,-0.09,24.41
23426,0.1401,-0.2054,0.8757,-6.35,7.82,0.05,24.42
23436,0.1398,-0.2032,0.8749,-6.27,7.82,-0.05,24.42
23446,0.1383,-0.2058,0.8788,-6.38,7.92,-0.03,24.39
23456,0.1394,-0.2,0.8784,-6.27,7.95,-0.05,24.4
23466,0.1379,-0.2065,0.8778,-6.52,7.95,-0.08,24.39
23476,0.1385,-0.2069,0.8735,-6.4,7.79,-0.08,24.38
23486,0.1422,-0.2069,0.8717,-6.44,7.74,-0.02,24.41
23496,0.1422,-0.2076,0.8734,-6.34,7.69,0.03,24.39
23506,0.1406,-0.2007,0.8774,-6.29,7.73,0.0,24.39
23516,0.1392,-0.2063,0.8713,-6.37,7.92,-0.02,24.39
23526,0.1384,-0.2096,0.8777,-6.53,8.0,0.02,24.39
23536,0.1375,-0.2087,0.875,-6.38,7.92,-0.05,24.43
23546,0.1396,-0.2084,0.8748,-6.38,7.73,-0.06,24.4
23556,0.1416,-0.2084,0.8745,-6.35,7.82,-0.08,24.4
23567,0.1388,-0.2036,0.8754,-6.35,7.89,0.0,24.38
23577,0.141,-0.2042,0.8739,-6.31,7.92,-0.06,24.41
23587,0.1378,-0.2061,0.8707,-6.37,7.91,-0.05,24.4
23597,0.1384,-0.2051,0.8779,-6.31,7.91,0.06,24.39
23607,0.139,-0.2061,0.8737,-6.31,7.86,0.0,24.37
23617,0.1403,-0.2043,0.876,-6.32,7.85,-0.03,24.41
23627,0.1416,-0.2052,0.8793,-6.37,7.86,-0.03,24.38
23637,0.1399,-0.2072,0.8748,-6.34,7.83,0.0,24.41
23647,0.1399,-0.2065,0.8762,-6.35,7.88,0.03,24.38
23657,0.1377,-0.208,0.8795,-6.37,7.83,-0.02,24.39
23667,0.1354,-0.2062,0.877,-6.34,7.82,0.05,24.4
23677,0.1379,-0.2058,0.8772,-6.31,7.89,0.0,24.4
23687,0.1404,-0.2072,0.8781,-6.32,7.85,-0.09,24.4
23697,0.1393,-0.207,0.8759,-6.23,7.85,-0.05,24.4
23707,0.1401,-0.2061,0.8759,-6.24,7.76,0.02,24.4
23717,0.1393,-0.2051,0.8741,-6.35,7.79,-0.02,24.41
23727,0.1415,-0.2032,0.876,-6.37,7.82,-0.06,24.42
23737,0.1401,-0.2061,0.8708,-6.34,7.89,0.08,24.42
23747,0.1349,-0.2078,0.8776,-6.29,8.03,-0.05,24.41
23757,0.1398,-0.2076,0.8772,-6.27,7.97,-0.06,24.41
23767,0.1401,-0.2073,0.8799,-6.32,7.86,-0.08,24.39
23777,0.1376,-0.2061,0.8732,-6.38,7.68,-0.09,24.41
23787,0.137,-0.2054,0.8792,-6.37,7.69,-0.08,24.39
23797,0.1356,-0.2068,0.8776,-6.23,7.8,-0.02,24.41
23807,0.1406,-0.2047,0.8738,-6.18,7.71,-0.02,24.38
23817,0.1425,-0.2029,0.8748,-6.18,7.69,-0.02,24.4
23827,0.1411,-0.2057,0.8757,-6.32,7.79,-0.05,24.42
23837,0.1411,-0.2062,0.8788,-6.37,7.88,-0.09,24.41
23847,0.1393,-0.2008,0.8757,-6.37,7.77,0.0,24.42
23857,0.1403,-0.2046,0.8734,-6.32,7.77,0.0,24.41
23867,0.1381,-0.2018,0.8752,-6.15,7.77,-0.06,24.39
23877,0.1401,-0.2047,0.8734,-6.14,7.82,0.02,24.4
23887,0.1372,-0.2047,0.8823,-6.26,7.92,-0.05,24.39
23897,0.1388,-0.207,0.8802,-6.38,7.95,0.02,24.42
23907,0.1395,-0.2047,0.8781,-6.46,7.79,-0.05,24.41
23917,0.1403,-0.2072,0.8811,-6.46,7.62,-0.09,24.39
23927,0.1406,-0.2051,0.8728,-6.4,7.65,-0.15,24.41
23937,0.142,-0.2062,0.876,-6.32,7.82,-0.03,24.39
23947,0.1399,-0.2072,0.8782,-6.32,8.17,0.03,24.4
23957,0.1382,-0.2083,0.8774,-6.41,8.11,0.0,24.42
23967,0.136,-0.2084,0.8816,-6.38,7.88,-0.06,24.37
23977,0.1356,-0.2074,0.8795,-6.46,7.5,-0.08,24.39
23987,0.141,-0.2089,0.871,-6.32,7.53,-0.14,24.41
23997,0.1411,-0.2054,0.8683,-6.37,7.79,-0.02,24.4
24007,0.1392,-0.2047,0.8733,-6.23,7.97,-0.05,24.42
24018,0.1371,-0.2047,0.8757,-6.21,7.88,-0.05,24.4
24028,0.1368,-0.2034,0.8763,-6.24,7.73,0.0,24.4
24038,0.1371,-0.2031,0.8738,-6.34,7.51,-0.05,24.39
24048,0.1392,-0.2031,0.8743,-6.41,7.71,0.02,24.42
24058,0.1381,-0.2051,0.871,-6.41,8.02,-0.05,24.4
24068,0.1396,-0.2047,0.8738,-6.37,8.05,0.11,24.4
24078,0.1357,-0.2042,0.8765,-6.41,7.91,-0.02,24.39
24088,0.1381,-0.2037,0.8749,-6.38,7.71,-0.03,24.4
24098,0.1361,-0.2041,0.8751,-6.38,7.65,-0.09,24.4
24108,0.1407,-0.2068,0.8783,-6.37,7.89,-0.02,24.41
24118,0.1409,-0.208,0.8784,-6.38,8.03,-0.06,24.42
24128,0.1376,-0.207,0.8783,-6.37,7.94,-0.06,24.4
24138,0.1364,-0.2072,0.8765,-6.31,7.79,-0.05,24.42
24148,0.1393,-0.207,0.8778,-6.29,7.65,-0.08,24.41
24158,0.14,-0.2056,0.8759,-6.38,7.68,-0.08,24.4
24168,0.1394,-0.2094,0.873,-6.52,7.76,-0.08,24.41
24178,0.1401,-0.2083,0.8708,-6.38,7.85,0.03,24.42
24188,0.1395,-0.2076,0.8762,-6.27,7.97,-0.06,24.4
24198,0.1354,-0.2064,0.8787,-6.02,7.77,-0.03,24.43
24208,0.1372,-0.2052,0.879,-6.23,7.73,-0.08,24.41
24218,0.1383,-0.2043,0.8818,-6.34,7.63,-0.08,24.43
24228,0.1403,-0.2058,0.8734,-6.35,7.66,-0.03,24.43
24238,0.1407,-0.2068,0.8785,-6.27,7.89,0.03,24.45
24248,0.1398,-0.2074,0.8763,-6.35,7.95,-0.02,24.42
24258,0.1405,-0.2089,0.8794,-6.32,8.0,-0.06,24.42
24268,0.1383,-0.2079,0.8784,-6.38,7.68,-0.08,24.42
24278,0.1422,-0.2067,0.8739,-6.41,7.65,-0.02,24.42
24288,0.1396,-0.2074,0.8729,-6.29,7.76,-0.02,24.45
24298,0.1398,-0.2075,0.8737,-6.29,7.91,0.0,24.42
24308,0.1361,-0.2079,0.8728,-6.18,7.97,0.02,24.43
24318,0.1367,-0.2076,0.874,-6.14,7.83,0.03,24.4
24328,0.1348,-0.2034,0.8767,-6.17,7.77,-0.03,24.42
24338,0.1392,-0.2081,0.873,-6.18,7.65,-0.09,24.41
24348,0.1371,-0.2041,0.8696,-6.31,7.65,-0.05,24.4
24358,0.139,-0.2054,0.8744,-6.24,7.94,-0.03,24.41
24368,0.136,-0.2039,0.8738,-6.24,7.97,0.02,24.43
24378,0.1388,-0.2056,0.8757,-6.2,7.79,-0.02,24.4
24388,0.136,-0.2083,0.8772,-6.35,7.68,-0.03,24.42
24398,0.1376,-0.2052,0.8759,-6.35,7.54,-0.05,24.41
24408,0.141,-0.2059,0.8773,-6.27,7.77,-0.09,24.42
24418,0.1416,-0.2069,0.8713,-6.32,8.03,-0.05,24.44
24428,0.139,-0.2047,0.8787,-6.34,7.95,-0.05,24.42
24438,0.1373,-0.2056,0.8761,-6.41,7.8,-0.03,24.44
24448,0.1368,-0.205,0.8784,-6.35,7.76,-0.03,24.44
24458,0.1421,-0.2056,0.8732,-6.32,7.74,0.06,24.41
24468,0.1405,-0.2036,0.8779,-6.31,7.73,-0.02,24.42
24478,0.1401,-0.2056,0.8743,-6.27,7.89,-0.06,24.4
24488,0.1384,-0.2067,0.8743,-6.32,7.79,-0.05,24.43
24498,0.1395,-0.2078,0.874,-6.4,7.73,-0.02,24.4
24508,0.1395,-0.203,0.8754,-6.23,7.71,-0.05,24.44
24518,0.1361,-0.2028,0.8712,-6.2,7.68,-0.08,24.43
24528,0.1366,-0.2007,0.8751,-6.29,7.69,-0.03,24.44
24538,0.1376,-0.2029,0.8756,-6.21,7.69,-0.12,24.44
24548,0.1425,-0.2073,0.8761,-6.35,7.86,-0.09,24.42
24558,0.1403,-0.2045,0.8733,-6.38,7.95,-0.05,24.44
24568,0.1364,-0.2041,0.8752,-6.34,7.92,-0.06,24.43
24578,0.137,-0.2059,0.873,-6.37,7.82,-0.03,24.42
24588,0.1385,-0.2068,0.8751,-6.32,7.73,-0.03,24.43
24598,0.1394,-0.2053,0.8782,-6.35,7.85,-0.06,24.45
24608,0.1379,-0.2057,0.8721,-6.34,7.91,0.02,24.42
24618,0.139,-0.2079,0.8778,-6.32,7.91,-0.02,24.39
24628,0.1371,-0.2087,0.8782,-6.31,7.86,-0.02,24.42
24638,0.14,-0.2061,0.8782,-6.34,7.69,-0.05,24.44
24648,0.1395,-0.2064,0.8706,-6.31,7.57,-0.03,24.43
24658,0.1421,-0.2062,0.8743,-6.32,7.53,-0.09,24.45
24668,0.14,-0.205,0.8716,-6.29,7.68,-0.06,24.44
24678,0.1384,-0.205,0.8724,-6.24,7.86,0.06,24.44
24688,0.1396,-0.2084,0.8821,-6.11,7.97,0.02,24.44
24698,0.1389,-0.2043,0.8766,-6.23,7.92,-0.06,24.43
24708,0.1404,-0.2021,0.8766,-6.2,7.65,-0.03,24.42
24718,0.1406,-0.2059,0.8771,-6.34,7.47,-0.06,24.43
24728,0.1403,-0.2057,0.8785,-6.32,7.56,-0.12,24.45
24738,0.1426,-0.2069,0.8789,-6.37,8.0,-0.05,24.44
24748,0.1432,-0.2073,0.8771,-6.38,8.08,-0.03,24.39
24758,0.141,-0.2051,0.8766,-6.35,7.89,0.02,24.43
24768,0.139,-0.2051,0.8788,-6.29,7.66,0.0,24.43
24778,0.1416,-0.205,0.8766,-6.23,7.56,-0.09,24.42
24788,0.14,-0.2034,0.8746,-6.26,7.71,-0.03,24.44
24798,0.1409,-0.2069,0.8728,-6.29,8.0,-0.05,24.43
24808,0.1357,-0.2084,0.8778,-6.43,8.14,0.0,24.46
24818,0.1379,-0.2081,0.8781,-6.31,8.0,-0.12,24.47
24828,0.1342,-0.2067,0.8766,-6.29,7.76,-0.06,24.46
24838,0.136,-0.2031,0.8806,-6.26,7.54,-0.12,24.45
24848,0.1405,-0.2042,0.8737,-6.35,7.69,-0.06,24.44
24858,0.1399,-0.2036,0.8723,-6.35,7.88,-0.02,24.44
24868,0.1389,-0.2035,0.875,-6.34,7.97,0.03,24.44
24878,0.1387,-0.2059,0.8702,-6.29,7.98,0.0,24.45
24888,0.1406,-0.2074,0.8759,-6.26,7.83,-0.03,24.43
24898,0.14,-0.2021,0.8787,-6.34,7.66,-0.09,24.42
24908,0.1394,-0.2062,0.8763,-6.49,7.69,-0.08,24.42
24918,0.137,-0.2054,0.877,-6.41,7.91,0.03,24.47
24928,0.1357,-0.208,0.875,-6.34,7.94,-0.06,24.43
24938,0.1383,-0.2024,0.8756,-6.32,7.89,-0.02,24.45
24948,0.137,-0.204,0.8781,-6.26,7.91,0.05,24.43
24958,0.1372,-0.2048,0.8813,-6.31,7.71,-0.03,24.44
24968,0.1422,-0.2042,0.8785,-6.38,7.62,-0.12,24.42
24978,0.1416,-0.203,0.8754,-6.34,7.62,-0.11,24.43
24988,0.1412,-0.2087,0.8739,-6.37,7.73,-0.08,24.45
24998,0.1436,-0.2057,0.8751,-6.35,7.97,-0.03,24.44
25008,0.1404,-0.2073,0.8781,-6.21,8.02,-0.08,24.44
25018,0.1405,-0.2079,0.8802,-6.26,7.91,-0.08,24.44
25028,0.1382,-0.2056,0.8741,-6.35,7.82,-0.11,24.43
25038,0.1372,-0.2036,0.8788,-6.34,7.69,-0.06,24.45
25048,0.1384,-0.207,0.8726,-6.32,7.77,-0.05,24.45
25058,0.1388,-0.2023,0.8737,-6.29,7.88,0.02,24.44
25068,0.1396,-0.2072,0.8737,-6.31,8.02,-0.03,24.44
25078,0.1353,-0.2072,0.8744,-6.4,7.83,-0.08,24.45
25088,0.1404,-0.2056,0.8755,-6.4,7.73,-0.03,24.42
25098,0.14,-0.2031,0.8718,-6.38,7.76,-0.05,24.44
25108,0.1395,-0.2061,0.8682,-6.44,7.94,-0.03,24.43
25118,0.1377,-0.2069,0.8729,-6.38,7.97,0.06,24.45
25128,0.1365,-0.2051,0.8732,-6.32,7.94,-0.06,24.41
25138,0.1366,-0.2052,0.8779,-6.23,7.8,0.0,24.44
25148,0.135,-0.2065,0.8756,-6.31,7.62,-0.03,24.44
25158,0.1375,-0.2068,0.8759,-6.41,7.62,-0.12,24.43
25168,0.1377,-0.2051,0.8782,-6.31,7.69,-0.03,24.45
25178,0.1409,-0.2081,0.8727,-6.23,7.91,0.0,24.43
25188,0.1389,-0.2084,0.8763,-6.2,7.94,-0.05,24.44
25199,0.1343,-0.2067,0.8756,-6.26,7.83,0.02,24.45
25209,0.1401,-0.2069,0.8805,-6.35,7.63,-0.06,24.45
25219,0.1431,-0.2039,0.8774,-6.37,7.68,-0.11,24.44
25230,0.1385,-0.2056,0.8722,-6.38,7.73,-0.09,24.45
25240,0.1409,-0.205,0.8761,-6.29,7.89,-0.08,24.43
25250,0.1445,-0.2072,0.8726,-6.35,7.89,-0.05,24.46
25260,0.1414,-0.2048,0.8765,-6.31,7.94,-0.05,24.45
25270,0.1387,-0.2063,0.8768,-6.29,7.91,0.0,24.44
25280,0.1401,-0.2051,0.8767,-6.24,7.88,-0.06,24.45
25290,0.1379,-0.2032,0.8749,-6.24,7.74,-0.03,24.47
25300,0.1398,-0.2061,0.8766,-6.34,7.74,0.0,24.48
25310,0.1401,-0.2028,0.8824,-6.41,7.83,-0.03,24.46
25320,0.1389,-0.2041,0.8787,-6.41,7.88,-0.03,24.44
25330,0.1362,-0.2058,0.8783,-6.35,7.79,0.03,24.44
25340,0.1401,-0.2091,0.8757,-6.37,7.8,-0.08,24.45
25350,0.1426,-0.2068,0.8738,-6.38,7.95,-0.02,24.48
25360,0.1403,-0.2065,0.8778,-6.43,7.97,0.02,24.46
25370,0.1377,-0.2073,0.8782,-6.41,7.88,-0.05,24.45
25380,0.1372,-0.2081,0.8752,-6.31,7.83,-0.08,24.45
25390,0.1376,-0.2068,0.8745,-6.34,7.82,-0.11,24.47
25400,0.1377,-0.2048,0.8713,-6.38,7.85,-0.03,24.44
25410,0.1387,-0.2061,0.8755,-6.29,7.83,0.06,24.47
25420,0.141,-0.2007,0.875,-6.23,7.79,-0.09,24.44
25430,0.1387,-0.2037,0.8766,-6.24,7.79,0.0,24.43
25440,0.1421,-0.2037,0.8799,-6.2,7.69,-0.06,24.46
25450,0.1423,-0.2068,0.8754,-6.37,7.74,-0.09,24.46
25460,0.1426,-0.2059,0.8705,-6.44,7.83,-0.03,24.45
25470,0.1406,-0.2057,0.8746,-6.4,7.92,0.0,24.45
25480,0.1385,-0.2074,0.8748,-6.23,7.89,-0.09,24.46
25490,0.1376,-0.2054,0.874,-6.21,7.79,-0.05,24.46
25500,0.1382,-0.2059,0.8781,-6.17,7.79,-0.09,24.44
25510,0.1403,-0.2079,0.8759,-6.41,7.71,-0.11,24.45
25520,0.1399,-0.2079,0.8754,-6.32,7.76,-0.05,24.47
25530,0.1412,-0.2076,0.877,-6.26,7.83,0.02,24.46
25540,0.1388,-0.2067,0.8795,-6.24,7.86,0.05,24.47
25550,0.1399,-0.2048,0.8759,-6.27,7.77,-0.08,24.48
25560,0.1389,-0.2046,0.8761,-6.34,7.83,-0.09,24.45
25570,0.1393,-0.2061,0.8773,-6.32,7.82,-0.11,24.47
25580,0.1388,-0.2079,0.8734,-6.35,8.0,-0.05,24.48
25590,0.1377,-0.2068,0.8771,-6.31,8.05,-0.02,24.48
25600,0.136,-0.2061,0.8831,-6.21,7.92,-0.02,24.47
25610,0.1372,-0.2032,0.8835,-6.18,7.74,-0.03,24.47
25620,0.139,-0.2026,0.8745,-6.37,7.66,-0.09,24.48
25630,0.1377,-0.2068,0.8718,-6.44,7.8,-0.05,24.47
25640,0.1354,-0.2046,0.8669,-6.47,7.91,-0.02,24.47
25650,0.1373,-0.2041,0.8702,-6.24,7.92,0.05,24.47
25660,0.1392,-0.2075,0.8726,-6.18,8.03,-0.06,24.49
25670,0.1365,-0.2029,0.8801,-6.23,7.94,-0.09,24.49
25680,0.1405,-0.2048,0.882,-6.38,7.8,-0.06,24.44
25690,0.1392,-0.2095,0.8727,-6.53,7.76,-0.03,24.45
25700,0.1389,-0.2075,0.8759,-6.44,7.83,0.02,24.49
25711,0.1416,-0.207,0.8766,-6.24,7.95,-0.05,24.48
25721,0.1411,-0.2057,0.8762,-6.15,7.91,-0.03,24.47
25731,0.141,-0.2058,0.8755,-6.35,7.85,-0.03,24.46
25741,0.1405,-0.2036,0.8755,-6.4,7.76,-0.05,24.46
25751,0.1371,-0.2031,0.8766,-6.37,7.77,-0.09,24.49
25761,0.1375,-0.2046,0.8723,-6.24,7.8,-0.05,24.48
25771,0.1396,-0.2061,0.8721,-6.21,7.95,0.03,24.47
25781,0.1379,-0.2052,0.8783,-6.32,8.09,-0.05,24.47
25791,0.1361,-0.2074,0.879,-6.4,8.02,-0.02,24.47
25801,0.1378,-0.2067,0.8767,-6.46,7.88,-0.02,24.5
25811,0.1371,-0.2041,0.8755,-6.4,7.73,-0.03,24.49
25821,0.1392,-0.2062,0.8783,-6.38,7.71,-0.03,24.49
25831,0.1387,-0.2075,0.8726,-6.41,7.83,-0.05,24.48
25841,0.1387,-0.2043,0.8726,-6.35,7.91,-0.06,24.48
25851,0.1366,-0.2057,0.8759,-6.41,7.92,-0.03,24.46
25861,0.1383,-0.2059,0.8772,-6.24,7.82,-0.03,24.47
25871,0.1376,-0.2057,0.876,-6.26,7.82,-0.02,24.47
25881,0.1376,-0.2057,0.8762,-6.38,7.74,-0.08,24.48
25891,0.1422,-0.2081,0.8719,-6.31,7.92,-0.02,24.45
25901,0.1514,-0.2085,0.8667,-6.23,7.6,0.0,24.47
25911,0.1425,-0.2075,0.8768,-6.14,7.8,-0.06,24.46
25921,0.1354,-0.2035,0.8813,-6.24,7.95,-0.03,24.47
25931,0.1345,-0.203,0.8839,-6.34,8.0,-0.02,24.47
25941,0.142,-0.2056,0.8756,-6.38,7.65,-0.06,24.47
25951,0.1392,-0.2064,0.8721,-6.41,7.77,-0.09,24.47
25961,0.1372,-0.2057,0.8732,-6.32,7.8,-0.09,24.49
25971,0.1371,-0.2046,0.8781,-6.31,8.02,-0.08,24.5
25981,0.141,-0.2057,0.877,-6.27,7.89,-0.02,24.47
25991,0.1407,-0.2054,0.8765,-6.35,7.8,-0.08,24.47
26001,0.1387,-0.2058,0.8767,-6.38,7.77,-0.03,24.45
26011,0.1401,-0.2041,0.8759,-6.52,7.86,0.0,24.48
26021,0.139,-0.2067,0.875,-6.44,7.83,-0.03,24.49
26031,0.1368,-0.2073,0.8777,-6.26,7.88,-0.05,24.48
26041,0.1361,-0.2064,0.8746,-6.18,7.79,-0.05,24.49
26051,0.1385,-0.2059,0.8741,-6.27,7.79,-0.06,24.46
26061,0.1367,-0.2087,0.8783,-6.38,7.77,-0.11,24.49
26071,0.1414,-0.2074,0.8777,-6.41,7.77,-0.05,24.48
26081,0.1415,-0.2045,0.8712,-6.4,7.83,-0.11,24.48
26091,0.1421,-0.2056,0.8761,-6.38,7.97,-0.02,24.49
26101,0.1393,-0.2069,0.8721,-6.52,8.17,-0.02,24.48
26112,0.1407,-0.2075,0.8796,-6.55,8.14,-0.03,24.51
26122,0.137,-0.2079,0.8773,-6.31,7.85,-0.05,24.48
26132,0.141,-0.2078,0.875,-6.34,7.77,-0.08,24.49
26142,0.142,-0.2043,0.881,-6.27,7.79,-0.06,24.5
26152,0.1361,-0.2052,0.8785,-6.26,7.8,-0.02,24.5
26162,0.1376,-0.2046,0.8815,-6.23,7.79,-0.02,24.48
26172,0.1398,-0.2052,0.8761,-6.26,7.73,-0.09,24.47
26182,0.1392,-0.2037,0.8776,-6.29,7.63,-0.06,24.49
26192,0.1403,-0.2045,0.8732,-6.32,7.8,-0.05,24.49
26202,0.1375,-0.2029,0.8727,-6.32,8.03,-0.03,24.49
26212,0.1393,-0.2052,0.8744,-6.26,8.15,0.03,24.48
26222,0.1339,-0.2063,0.8793,-6.52,8.15,-0.08,24.49
26233,0.1365,-0.2065,0.8768,-6.56,7.94,-0.08,24.47
26244,0.141,-0.2086,0.8702,-6.52,7.76,-0.05,24.49
26254,0.1434,-0.2084,0.8723,-6.5,7.88,-0.05,24.5
26264,0.1404,-0.2084,0.8754,-6.5,8.09,0.0,24.49
26274,0.1383,-0.2053,0.8762,-6.49,8.12,0.02,24.51
26284,0.1366,-0.2079,0.8776,-6.47,7.97,-0.14,24.52
26294,0.1354,-0.2095,0.8771,-6.53,7.79,-0.11,24.5
26304,0.1366,-0.2091,0.8716,-6.37,7.51,-0.11,24.51
26314,0.1392,-0.2052,0.8743,-6.17,7.51,-0.03,24.51
26324,0.1345,-0.2032,0.875,-6.17,7.71,-0.05,24.48
26334,0.1398,-0.2059,0.8794,-6.18,7.89,-0.08,24.49
26344,0.135,-0.2009,0.8787,-6.24,7.88,0.02,24.51
26354,0.1415,-0.2053,0.88,-6.41,7.73,0.02,24.5
26364,0.1378,-0.205,0.8765,-6.37,7.57,-0.11,24.5
26374,0.1406,-0.2084,0.8752,-6.38,7.66,-0.02,24.49
26384,0.1401,-0.2076,0.8737,-6.23,7.91,-0.05,24.51
26394,0.1357,-0.2087,0.8752,-6.32,8.18,0.02,24.5
26404,0.1356,-0.2056,0.8766,-6.37,8.24,0.0,24.52
26414,0.1316,-0.2065,0.8751,-6.32,7.98,-0.03,24.5
26425,0.136,-0.205,0.8809,-6.35,7.57,-0.11,24.51
26435,0.1365,-0.2072,0.8762,-6.38,7.57,-0.06,24.5
26445,0.1393,-0.2074,0.8743,-6.41,7.66,-0.05,24.52
26455,0.14,-0.2072,0.8765,-6.32,7.82,0.0,24.5
26465,0.1403,-0.2078,0.8737,-6.29,7.83,0.06,24.5
26475,0.1398,-0.205,0.8768,-6.2,7.74,-0.06,24.5
26485,0.1401,-0.201,0.8768,-6.17,7.76,-0.03,24.49
26495,0.1405,-0.2046,0.8776,-6.35,7.85,-0.05,24.51
26505,0.1376,-0.2053,0.8752,-6.44,8.02,0.0,24.48
26515,0.1372,-0.2076,0.8739,-6.47,8.09,0.02,24.5
26525,0.1327,-0.207,0.8796,-6.44,7.94,-0.06,24.47
26535,0.1371,-0.2076,0.8768,-6.34,7.69,-0.09,24.49
26545,0.1387,-0.207,0.8717,-6.37,7.6,0.0,24.49
26556,0.1406,-0.2057,0.8721,-6.34,7.63,0.02,24.51
26566,0.1405,-0.2078,0.8772,-6.32,8.0,0.02,24.51
26576,0.1398,-0.2059,0.8746,-6.34,8.08,0.02,24.49
26586,0.1394,-0.207,0.8804,-6.31,7.88,-0.06,24.52
26596,0.1384,-0.2078,0.8793,-6.18,7.62,-0.05,24.5
26606,0.1411,-0.2069,0.8795,-6.17,7.6,-0.11,24.48
26616,0.1431,-0.2097,0.8745,-6.37,7.63,-0.06,24.51
26626,0.1355,-0.2061,0.8733,-6.34,7.83,-0.06,24.5
26636,0.1394,-0.2043,0.8737,-6.34,7.98,-0.02,24.51
26646,0.1389,-0.2053,0.8738,-6.21,7.97,0.0,24.51
26656,0.1366,-0.2042,0.8773,-6.23,7.86,0.02,24.49
26666,0.1373,-0.205,0.8777,-6.32,7.79,0.0,24.48
26676,0.1378,-0.2065,0.8788,-6.49,7.86,-0.06,24.5
26686,0.1392,-0.2029,0.8787,-6.56,7.85,-0.06,24.5
26696,0.1384,-0.2058,0.8718,-6.41,7.8,-0.06,24.49
26706,0.1405,-0.2068,0.8744,-6.31,7.73,-0.03,24.54
26716,0.1359,-0.209,0.8759,-6.26,7.71,0.08,24.53
26726,0.1356,-0.2065,0.8792,-6.24,7.69,-0.08,24.5
26736,0.1364,-0.2037,0.8749,-6.29,7.65,-0.03,24.52
26746,0.1355,-0.2025,0.8754,-6.23,7.76,-0.03,24.49
26756,0.1356,-0.2064,0.8773,-6.24,7.76,-0.02,24.51
26766,0.1385,-0.2076,0.8777,-6.37,7.79,-0.11,24.52
26776,0.1389,-0.2047,0.8735,-6.52,7.83,-0.08,24.51
26786,0.1417,-0.204,0.8809,-6.49,7.71,-0.12,24.53
26796,0.1409,-0.207,0.8713,-6.46,7.82,-0.09,24.52
26806,0.1411,-0.2037,0.8739,-6.4,7.94,0.06,24.51
26816,0.14,-0.2062,0.8787,-6.26,8.17,0.03,24.54
26826,0.1378,-0.2065,0.8782,-6.52,7.98,-0.03,24.5
26836,0.1348,-0.2086,0.8754,-6.63,7.82,-0.09,24.49
26846,0.1372,-0.2078,0.8708,-6.56,7.57,-0.09,24.52
26856,0.1403,-0.2084,0.8688,-6.24,7.53,-0.09,24.53
26866,0.1372,-0.2057,0.8713,-6.08,7.51,-0.06,24.54
26876,0.1377,-0.2042,0.8784,-5.92,7.54,-0.02,24.54
26886,0.1382,-0.2045,0.8788,-6.09,7.6,-0.03,24.52
26896,0.1399,-0.2065,0.8761,-6.38,7.63,-0.05,24.53
26906,0.1396,-0.2073,0.8765,-6.55,7.69,-0.12,24.54
26916,0.1384,-0.2097,0.8762,-6.47,7.79,-0.05,24.49
26926,0.1375,-0.2089,0.8729,-6.27,7.82,0.05,24.52
26936,0.1384,-0.2061,0.8763,-6.21,7.92,-0.11,24.51
26946,0.1365,-0.2068,0.8776,-6.31,7.98,0.03,24.53
26956,0.1375,-0.2047,0.8767,-6.5,8.05,-0.03,24.52
26966,0.1398,-0.2081,0.8781,-6.63,7.76,-0.03,24.55
26976,0.142,-0.2062,0.8724,-6.35,7.56,-0.09,24.53
26986,0.1449,-0.2074,0.8717,-6.34,7.63,0.0,24.49
26996,0.1429,-0.2054,0.8732,-6.17,7.71,-0.02,24.53
27006,0.1426,-0.2081,0.8729,-6.21,7.86,-0.03,24.52
27016,0.1396,-0.2062,0.8707,-6.09,7.8,-0.03,24.53
27026,0.1392,-0.2065,0.8741,-6.2,7.56,-0.09,24.53
27036,0.1364,-0.209,0.8734,-6.18,7.42,-0.12,24.55
27046,0.1396,-0.2103,0.875,-6.14,7.5,-0.05,24.52
27056,0.1372,-0.2054,0.874,-6.26,7.91,-0.02,24.52
27066,0.1399,-0.2068,0.8711,-6.43,8.03,0.08,24.52
27076,0.1364,-0.2054,0.8763,-6.26,7.91,-0.05,24.52
27086,0.1368,-0.2048,0.8774,-6.12,7.83,-0.02,24.52
27096,0.1395,-0.199,0.882,-6.23,7.65,-0.12,24.54
27106,0.1416,-0.2019,0.8788,-6.44,7.62,-0.11,24.54
27116,0.1384,-0.2059,0.8763,-6.55,7.76,-0.08,24.53
27126,0.1392,-0.2046,0.8735,-6.53,7.86,-0.06,24.52
27137,0.1375,-0.2084,0.8704,-6.41,7.97,-0.03,24.54
27147,0.1389,-0.2065,0.8723,-6.34,7.92,-0.02,24.54
27157,0.1377,-0.2061,0.8732,-6.31,7.94,0.02,24.53
27168,0.1388,-0.207,0.88,-6.27,7.89,-0.05,24.52
27178,0.1432,-0.2076,0.8773,-6.41,7.74,0.03,24.53
27188,0.1384,-0.2076,0.8789,-6.32,7.65,0.03,24.53
27198,0.1394,-0.2073,0.8711,-6.18,7.65,-0.06,24.52
27208,0.1409,-0.2026,0.8754,-6.26,7.82,-0.03,24.53
27218,0.1396,-0.2024,0.8821,-6.21,7.94,-0.05,24.52
27228,0.1377,-0.2045,0.8799,-6.37,7.95,0.06,24.54
27238,0.1366,-0.2051,0.8778,-6.44,7.94,0.03,24.54
27248,0.1349,-0.2039,0.879,-6.43,7.83,0.0,24.54
27258,0.1365,-0.2086,0.874,-6.37,7.74,-0.08,24.54
27268,0.1379,-0.2052,0.8745,-6.44,7.82,-0.06,24.53
27278,0.1426,-0.2058,0.8716,-6.46,7.86,-0.08,24.52
27288,0.1426,-0.2087,0.8716,-6.43,7.88,-0.03,24.52
27298,0.1395,-0.208,0.8766,-6.49,8.12,0.02,24.52
27308,0.1366,-0.2117,0.8721,-6.26,8.08,-0.05,24.53
27318,0.1365,-0.2078,0.8766,-6.31,7.92,-0.03,24.53
27328,0.1335,-0.2063,0.8749,-6.26,7.66,-0.12,24.52
27338,0.1344,-0.2073,0.8785,-6.41,7.77,-0.05,24.52
27349,0.1375,-0.2025,0.8717,-6.49,7.73,-0.11,24.54
27359,0.1395,-0.2042,0.8757,-6.31,7.83,-0.02,24.52
27369,0.1425,-0.2045,0.8743,-6.18,7.85,-0.02,24.54
27379,0.1428,-0.2065,0.8774,-6.37,7.66,0.03,24.55
27389,0.1398,-0.2072,0.875,-6.44,7.85,-0.09,24.53
27399,0.1401,-0.2091,0.8756,-6.44,8.02,-0.02,24.55
27409,0.1351,-0.2089,0.8754,-6.35,8.15,0.06,24.54
27419,0.1335,-0.2098,0.8755,-6.21,7.92,-0.02,24.56
27429,0.1342,-0.2089,0.8783,-6.29,7.68,-0.08,24.55
27439,0.1376,-0.2032,0.8828,-6.29,7.45,-0.11,24.55
27449,0.1437,-0.2085,0.877,-6.38,7.37,-0.06,24.56
27459,0.1449,-0.2063,0.8763,-6.47,7.69,0.02,24.52
27469,0.1429,-0.204,0.8707,-6.41,8.0,-0.03,24.55
27480,0.1361,-0.2048,0.8741,-6.2,8.02,0.0,24.54
27490,0.1378,-0.2061,0.8818,-6.11,7.83,0.0,24.54
27500,0.1378,-0.203,0.8755,-6.26,7.51,-0.05,24.53
27510,0.1371,-0.204,0.8757,-6.31,7.51,-0.11,24.54
27520,0.1387,-0.2056,0.873,-6.34,7.62,-0.02,24.56
27530,0.1368,-0.2056,0.8695,-6.34,7.89,-0.02,24.52
27540,0.1383,-0.207,0.8749,-6.27,8.05,0.0,24.58
27550,0.1381,-0.205,0.8785,-6.27,7.97,-0.02,24.58
27560,0.1381,-0.2054,0.8807,-6.4,7.94,0.02,24.53
27570,0.1405,-0.2035,0.8779,-6.49,7.74,-0.11,24.56
27580,0.1403,-0.2061,0.8789,-6.46,7.66,-0.09,24.56
27590,0.1396,-0.2006,0.873,-6.4,7.73,-0.06,24.54
27600,0.1393,-0.2034,0.8733,-6.29,7.79,0.0,24.55
27610,0.1392,-0.2095,0.8782,-6.37,7.94,0.02,24.53
27620,0.1393,-0.2068,0.88,-6.43,7.91,-0.03,24.55
27630,0.1381,-0.2086,0.8778,-6.46,7.91,0.09,24.54
27640,0.1389,-0.2064,0.8724,-6.4,7.8,0.02,24.57
27650,0.1393,-0.2079,0.8751,-6.35,7.79,-0.06,24.56
27660,0.139,-0.2091,0.8773,-6.31,7.76,-0.08,24.55
27670,0.1403,-0.205,0.8777,-6.31,7.91,-0.02,24.54
27680,0.1378,-0.2061,0.876,-6.34,8.0,-0.08,24.53
27690,0.1367,-0.2048,0.8751,-6.23,7.95,0.03,24.57
27700,0.1362,-0.2081,0.8789,-6.31,7.79,-0.02,24.55
27710,0.1367,-0.2061,0.8726,-6.31,7.71,-0.08,24.56
27720,0.1388,-0.2061,0.8751,-6.32,7.74,0.0,24.54
27730,0.1411,-0.2053,0.8765,-6.46,7.85,-0.03,24.55
27740,0.1431,-0.2056,0.8782,-6.4,7.89,-0.05,24.56
27750,0.14,-0.2079,0.8777,-6.32,7.89,-0.05,24.54
27760,0.1399,-0.2069,0.8757,-6.27,7.77,-0.03,24.56
27770,0.1411,-0.2087,0.8732,-6.35,7.82,0.02,24.52
27780,0.1371,-0.2052,0.8755,-6.4,7.85,0.02,24.57
27790,0.1357,-0.2084,0.8785,-6.34,7.98,0.06,24.57
27800,0.1345,-0.2065,0.8767,-6.35,7.91,0.0,24.54
27810,0.1361,-0.2102,0.8785,-6.38,7.71,-0.05,24.55
27820,0.1394,-0.2087,0.8771,-6.31,7.65,-0.06,24.56
27830,0.1422,-0.2034,0.8715,-6.31,7.73,-0.08,24.55
27840,0.1421,-0.2047,0.8759,-6.43,7.91,-0.02,24.57
27850,0.1389,-0.2036,0.8746,-6.46,8.14,0.03,24.56
27860,0.1392,-0.2041,0.8744,-6.46,8.15,-0.03,24.57
27870,0.1403,-0.2047,0.8789,-6.4,8.02,-0.09,24.55
27880,0.1362,-0.2086,0.8752,-6.37,7.77,0.0,24.56
27890,0.1357,-0.2065,0.8788,-6.4,7.65,-0.06,24.55
27900,0.1392,-0.2063,0.8752,-6.43,7.66,-0.08,24.56
27910,0.1359,-0.207,0.8766,-6.35,7.8,-0.02,24.55
27920,0.1405,-0.2078,0.8728,-6.38,7.79,-0.08,24.57
27930,0.1388,-0.2075,0.8696,-6.4,7.83,-0.03,24.55
27940,0.1344,-0.2053,0.8766,-6.29,7.83,-0.08,24.55
27950,0.1405,-0.2037,0.876,-6.29,7.82,-0.03,24.54
27960,0.1379,-0.2046,0.8743,-6.35,7.79,-0.03,24.55
27970,0.1404,-0.2069,0.877,-6.4,7.91,-0.06,24.56
27980,0.136,-0.2053,0.8776,-6.32,7.91,-0.08,24.54
27990,0.1371,-0.2046,0.8754,-6.32,7.8,-0.08,24.57
28000,0.1384,-0.2067,0.8773,-6.24,7.82,-0.03,24.56
28010,0.1401,-0.2026,0.8779,-6.34,7.88,-0.08,24.54
28020,0.1395,-0.2079,0.8781,-6.5,7.97,-0.02,24.54
28030,0.1388,-0.2074,0.8794,-6.44,8.02,-0.11,24.57
28040,0.1395,-0.2084,0.8739,-6.43,7.89,-0.03,24.57
28050,0.1426,-0.2083,0.876,-6.29,7.69,-0.08,24.56
28060,0.1395,-0.2052,0.8734,-6.27,7.59,0.0,24.55
28070,0.1406,-0.2052,0.8767,-6.24,7.79,-0.05,24.54
28080,0.1378,-0.2063,0.8743,-6.32,7.89,-0.05,24.56
28090,0.1389,-0.207,0.879,-6.41,7.88,-0.12,24.55
28100,0.1353,-0.2073,0.8756,-6.29,7.83,-0.08,24.56
28110,0.1354,-0.2046,0.8776,-6.24,7.76,0.0,24.58
28120,0.14,-0.2037,0.8734,-6.34,7.74,-0.08,24.56
28130,0.1383,-0.2054,0.8801,-6.34,7.76,0.0,24.57
28140,0.137,-0.2057,0.8771,-6.31,7.83,0.0,24.56
28150,0.1406,-0.2054,0.8783,-6.31,7.82,-0.03,24.58
28160,0.1403,-0.2058,0.8774,-6.41,7.86,-0.09,24.58
28170,0.1421,-0.2069,0.8752,-6.34,7.79,-0.03,24.58
28180,0.1388,-0.2087,0.8754,-6.35,7.86,-0.03,24.58
28190,0.1351,-0.2084,0.8754,-6.34,7.91,0.0,24.6
28200,0.1362,-0.2076,0.8755,-6.35,7.97,-0.11,24.57
28210,0.1368,-0.2051,0.8718,-6.29,7.85,-0.05,24.59
28220,0.1393,-0.205,0.8774,-6.35,7.66,-0.12,24.57
28230,0.1414,-0.2046,0.874,-6.31,7.66,-0.03,24.59
28240,0.1381,-0.2028,0.8749,-6.32,7.79,-0.09,24.57
28250,0.1403,-0.2043,0.8737,-6.38,7.92,-0.09,24.57
28260,0.1387,-0.2061,0.8793,-6.38,7.97,-0.03,24.56
28270,0.1372,-0.2068,0.8802,-6.32,7.85,0.03,24.57
28280,0.1376,-0.208,0.8741,-6.38,7.74,-0.09,24.61
28290,0.1368,-0.2058,0.874,-6.32,7.63,-0.09,24.58
28300,0.136,-0.207,0.8721,-6.31,7.73,-0.05,24.58
28310,0.1412,-0.2078,0.8755,-6.21,7.83,0.05,24.56
28320,0.1375,-0.2053,0.8777,-6.27,7.92,0.0,24.55
28330,0.1385,-0.205,0.8794,-6.35,7.92,-0.05,24.6
28340,0.1389,-0.2048,0.8771,-6.38,7.86,-0.09,24.59
28350,0.1405,-0.2096,0.8723,-6.49,7.89,-0.09,24.57
28360,0.1404,-0.2069,0.8746,-6.49,7.89,0.06,24.57
28370,0.137,-0.204,0.8767,-6.46,8.0,0.03,24.59
28380,0.1381,-0.2068,0.8743,-6.37,7.98,-0.05,24.58
28390,0.1355,-0.2061,0.8762,-6.35,7.97,-0.08,24.58
28400,0.1327,-0.2075,0.8749,-6.37,7.77,0.0,24.59
28410,0.1359,-0.2061,0.8722,-6.27,7.65,-0.03,24.59
28420,0.1381,-0.2079,0.8755,-6.26,7.6,0.02,24.6
28430,0.1392,-0.2076,0.8746,-6.21,7.76,-0.06,24.59
28440,0.1406,-0.2046,0.8738,-6.32,7.66,-0.03,24.59
28450,0.1392,-0.2091,0.8785,-6.43,7.76,-0.09,24.57
28460,0.1398,-0.2083,0.8741,-6.41,7.66,-0.14,24.57
28470,0.14,-0.2089,0.8794,-6.29,7.69,-0.05,24.58
28480,0.1411,-0.2072,0.8794,-6.26,7.76,-0.02,24.59
28490,0.1385,-0.208,0.8783,-6.29,7.83,-0.05,24.59
28500,0.14,-0.2075,0.8767,-6.35,7.68,0.0,24.59
28510,0.1375,-0.2109,0.8796,-6.23,7.6,-0.11,24.58
28520,0.1437,-0.21,0.8746,-6.35,7.62,-0.02,24.61
28530,0.1406,-0.208,0.8741,-6.41,7.71,-0.05,24.57
28540,0.1393,-0.2045,0.8755,-6.31,7.88,0.03,24.59
28550,0.1371,-0.202,0.8711,-6.23,7.95,-0.02,24.57
28560,0.1373,-0.2043,0.8761,-6.11,7.86,0.0,24.61
28570,0.1373,-0.204,0.8733,-6.24,7.71,-0.06,24.59
28580,0.137,-0.2026,0.8752,-6.27,7.57,-0.06,24.59
28590,0.1383,-0.2046,0.8719,-6.44,7.56,-0.15,24.59
28600,0.1422,-0.2064,0.8702,-6.37,7.79,-0.08,24.57
28610,0.1383,-0.2076,0.8772,-6.37,7.98,-0.03,24.59
28620,0.1399,-0.2043,0.8759,-6.34,8.05,-0.02,24.58
