t_ms,accel_x_g,accel_y_g,accel_z_g,gyro_x_dps,gyro_y_dps,gyro_z_dps,imu_temp_c
3302,0.328,-0.0215,0.8613,-6.73,7.89,0.0,30.37
3313,0.3268,-0.0284,0.8625,-6.78,7.91,-0.06,30.39
3323,0.3278,-0.0262,0.8651,-6.76,8.03,-0.06,30.38
3333,0.3286,-0.0267,0.8646,-6.85,7.98,-0.12,30.39
3343,0.3282,-0.0227,0.8671,-6.81,7.97,-0.08,30.37
3353,0.3264,-0.0258,0.8621,-6.69,7.86,-0.06,30.38
3363,0.3289,-0.0256,0.8673,-6.79,7.88,-0.02,30.37
3373,0.3242,-0.0221,0.8641,-6.78,7.92,-0.03,30.38
3383,0.3289,-0.0269,0.866,-6.79,7.95,-0.11,30.38
3394,0.3293,-0.0228,0.8647,-6.6,7.89,-0.11,30.39
3404,0.3292,-0.0271,0.8623,-6.72,7.97,0.02,30.38
3414,0.3281,-0.027,0.8634,-6.7,7.98,-0.02,30.37
3424,0.3253,-0.0271,0.8657,-6.76,7.94,-0.09,30.4
3434,0.3269,-0.0259,0.869,-6.7,7.89,-0.05,30.39
3444,0.3282,-0.0261,0.8655,-6.7,8.02,0.05,30.39
3455,0.3284,-0.0264,0.8647,-6.78,7.97,-0.08,30.39
3465,0.327,-0.0262,0.8663,-6.72,7.88,-0.08,30.39
3475,0.3273,-0.0266,0.8687,-6.78,7.97,-0.08,30.41
3485,0.3276,-0.0258,0.8639,-6.69,7.91,0.0,30.39
3495,0.3291,-0.0244,0.8669,-6.73,7.94,0.06,30.4
3505,0.3295,-0.0247,0.87,-6.81,8.02,0.03,30.39
3515,0.3267,-0.0244,0.8635,-6.78,7.95,0.03,30.38
3525,0.33,-0.027,0.8666,-6.78,8.06,0.0,30.38
3535,0.3256,-0.0281,0.8682,-6.79,7.94,-0.06,30.37
3545,0.325,-0.028,0.868,-6.75,7.97,0.03,30.39
3555,0.3301,-0.0262,0.8673,-6.78,7.97,0.02,30.42
3565,0.327,-0.0259,0.8602,-6.76,7.88,-0.05,30.41
3575,0.3303,-0.0269,0.8649,-6.73,8.0,-0.08,30.39
3585,0.3278,-0.0265,0.8607,-6.78,8.03,0.03,30.38
3595,0.3274,-0.0264,0.8652,-6.78,8.03,-0.03,30.42
3605,0.3284,-0.026,0.8694,-6.72,7.95,0.0,30.41
3615,0.3292,-0.0265,0.8691,-6.81,8.02,-0.08,30.38
3625,0.3301,-0.0232,0.8652,-6.76,7.97,0.05,30.39
3635,0.3289,-0.0238,0.864,-6.67,7.83,-0.02,30.4
3645,0.3296,-0.0265,0.8633,-6.7,7.94,-0.09,30.42
3655,0.3286,-0.0262,0.8629,-6.79,7.95,0.0,30.38
3665,0.3286,-0.0247,0.8644,-6.76,7.98,0.0,30.4
3675,0.3268,-0.0277,0.8696,-6.72,8.02,0.06,30.39
3685,0.3282,-0.0248,0.8656,-6.69,7.97,-0.02,30.4
3695,0.3262,-0.0238,0.8661,-6.79,8.0,0.0,30.4
3705,0.3293,-0.0256,0.8678,-6.76,7.91,-0.03,30.4
3715,0.3274,-0.0256,0.8639,-6.78,7.94,0.11,30.41
3725,0.3235,-0.025,0.8668,-6.81,8.02,0.03,30.41
3735,0.3269,-0.0267,0.866,-6.81,8.0,-0.02,30.4
3745,0.3286,-0.0267,0.8646,-6.7,7.97,-0.06,30.39
3755,0.3284,-0.0247,0.8655,-6.75,8.0,-0.05,30.39
3765,0.3262,-0.0272,0.8667,-6.7,8.02,-0.02,30.39
3775,0.3285,-0.0262,0.8666,-6.76,7.94,-0.03,30.42
3785,0.3273,-0.0269,0.8661,-6.76,7.91,0.0,30.39
3795,0.3279,-0.0258,0.8655,-6.84,7.98,-0.03,30.39
3805,0.329,-0.0247,0.8622,-6.76,7.92,0.05,30.41
3815,0.328,-0.0256,0.8607,-6.76,8.0,-0.08,30.42
3825,0.3279,-0.0262,0.8657,-6.73,7.95,-0.09,30.43
3835,0.3253,-0.0259,0.8677,-6.7,7.97,-0.02,30.39
3845,0.3278,-0.0272,0.8645,-6.64,8.0,-0.06,30.42
3855,0.3286,-0.0277,0.8616,-6.72,7.97,-0.09,30.39
3865,0.3271,-0.0256,0.8633,-6.73,7.98,0.0,30.41
3875,0.3264,-0.0226,0.864,-6.76,8.11,-0.06,30.39
3885,0.3267,-0.0256,0.8645,-6.75,8.0,0.03,30.39
3895,0.3287,-0.0272,0.8632,-6.82,7.97,-0.08,30.4
3905,0.3282,-0.0243,0.8647,-6.75,7.89,-0.08,30.41
3915,0.3281,-0.0253,0.8658,-6.79,8.05,-0.06,30.4
3925,0.3271,-0.0226,0.8658,-6.78,7.95,0.02,30.43
3935,0.3264,-0.0251,0.8676,-6.67,7.97,-0.03,30.4
3945,0.3286,-0.0272,0.868,-6.7,7.95,-0.03,30.42
3955,0.3296,-0.0277,0.8658,-6.73,7.97,-0.02,30.42
3965,0.3285,-0.0243,0.8667,-6.82,8.05,-0.02,30.43
3975,0.3301,-0.024,0.8615,-6.73,7.94,-0.03,30.43
3985,0.3282,-0.0249,0.864,-6.69,7.95,-0.05,30.4
3995,0.3279,-0.0247,0.8674,-6.7,8.0,0.03,30.39
4005,0.3275,-0.0291,0.8644,-6.7,7.94,0.0,30.4
4015,0.3254,-0.0262,0.8673,-6.69,7.95,0.02,30.4
4025,0.3246,-0.0247,0.8652,-6.75,7.98,-0.15,30.43
4035,0.3254,-0.0266,0.8661,-6.72,8.0,-0.02,30.41
4045,0.3286,-0.0229,0.8612,-6.75,7.98,0.05,30.42
4055,0.3284,-0.0242,0.8661,-6.76,7.98,-0.03,30.43
4065,0.3271,-0.0206,0.8663,-6.73,8.02,-0.02,30.44
4075,0.3269,-0.0255,0.8682,-6.75,8.0,-0.08,30.43
4085,0.3289,-0.026,0.8665,-6.76,7.97,-0.08,30.42
4096,0.3278,-0.0289,0.8662,-6.78,8.05,0.02,30.45
4106,0.3295,-0.0269,0.8647,-6.69,8.02,0.05,30.42
4116,0.3265,-0.0233,0.865,-6.75,7.95,0.02,30.43
4127,0.3289,-0.0255,0.8632,-6.75,7.97,0.0,30.42
4137,0.33,-0.0258,0.8662,-6.73,7.95,0.02,30.43
4147,0.3285,-0.0253,0.865,-6.69,7.98,0.0,30.44
4157,0.3281,-0.0265,0.8644,-6.82,7.94,-0.05,30.43
4167,0.3289,-0.0242,0.8668,-6.78,8.0,-0.05,30.44
4177,0.3278,-0.0248,0.864,-6.7,7.98,0.0,30.44
4187,0.3284,-0.0255,0.8632,-6.75,7.89,-0.02,30.42
4197,0.3264,-0.0256,0.8623,-6.69,7.95,-0.03,30.45
4207,0.3256,-0.0239,0.8679,-6.75,7.98,-0.03,30.43
4217,0.3267,-0.0238,0.8657,-6.7,7.97,-0.09,30.43
4227,0.3248,-0.0251,0.8679,-6.64,7.97,-0.06,30.44
4237,0.3286,-0.0226,0.8651,-6.75,8.0,-0.08,30.44
4247,0.327,-0.0254,0.8655,-6.79,7.92,-0.06,30.44
4257,0.328,-0.0231,0.865,-6.75,7.94,-0.06,30.45
4267,0.3256,-0.0245,0.8652,-6.78,7.98,-0.06,30.43
4277,0.3279,-0.0238,0.8641,-6.73,7.94,-0.02,30.42
4287,0.3279,-0.0244,0.8611,-6.78,8.02,-0.09,30.44
4297,0.3252,-0.0248,0.8671,-6.81,8.02,-0.03,30.42
4307,0.3245,-0.026,0.8643,-6.79,8.0,-0.09,30.42
4317,0.3274,-0.026,0.8655,-6.79,7.98,-0.05,30.43
4327,0.33,-0.025,0.8663,-6.82,7.98,-0.02,30.44
4337,0.3286,-0.0236,0.8641,-6.81,8.0,0.02,30.42
4347,0.3307,-0.0267,0.866,-6.67,7.92,0.02,30.43
4357,0.3269,-0.0266,0.8651,-6.66,7.95,-0.12,30.42
4367,0.3231,-0.0273,0.8633,-6.84,8.03,0.0,30.44
4377,0.3289,-0.0255,0.8647,-6.82,7.98,-0.06,30.43
4387,0.3279,-0.0228,0.8651,-6.66,7.94,-0.03,30.41
4397,0.3293,-0.0289,0.8689,-6.75,7.97,0.0,30.43
4407,0.3285,-0.0258,0.8677,-6.82,7.98,-0.05,30.44
4417,0.326,-0.0264,0.8677,-6.73,7.98,-0.05,30.45
4427,0.3279,-0.0258,0.8608,-6.76,8.03,-0.08,30.43
4437,0.3274,-0.0245,0.8651,-6.79,7.95,-0.12,30.43
4447,0.3253,-0.0249,0.8663,-6.72,8.0,0.0,30.44
4457,0.3257,-0.0264,0.8657,-6.73,8.02,-0.05,30.46
4467,0.3257,-0.0273,0.861,-6.67,8.03,-0.06,30.45
4477,0.3258,-0.0264,0.8647,-6.69,7.92,-0.06,30.44
4487,0.3268,-0.0239,0.8636,-6.73,7.97,0.05,30.46
4497,0.3267,-0.0266,0.8636,-6.81,7.95,-0.06,30.42
4507,0.327,-0.0245,0.866,-6.81,7.97,0.0,30.42
4517,0.3286,-0.0265,0.8636,-6.75,7.95,-0.05,30.44
4527,0.329,-0.0265,0.8655,-6.78,7.98,-0.08,30.46
4537,0.3302,-0.0247,0.8616,-6.78,7.98,-0.06,30.45
4547,0.329,-0.0253,0.8665,-6.76,7.98,0.02,30.46
4557,0.3301,-0.0248,0.866,-6.69,7.94,0.0,30.46
4567,0.3301,-0.024,0.8616,-6.69,7.94,-0.03,30.47
4577,0.3311,-0.0266,0.8672,-6.7,8.02,-0.05,30.46
4587,0.3259,-0.0254,0.8645,-6.73,7.92,-0.11,30.45
4597,0.3295,-0.0249,0.8618,-6.72,7.97,-0.06,30.44
4607,0.3243,-0.0255,0.865,-6.78,7.98,-0.14,30.47
4617,0.327,-0.0239,0.8655,-6.75,7.97,-0.02,30.45
4627,0.3245,-0.0228,0.8652,-6.75,7.83,0.0,30.45
4637,0.3296,-0.0259,0.8658,-6.76,7.92,0.05,30.47
4647,0.3287,-0.0258,0.8666,-6.76,7.97,-0.09,30.45
4657,0.3276,-0.0227,0.8654,-6.75,7.91,-0.05,30.46
4667,0.3271,-0.0264,0.8687,-6.81,7.94,-0.05,30.45
4677,0.3257,-0.0249,0.8646,-6.73,8.02,-0.08,30.45
4687,0.3289,-0.0253,0.8619,-6.75,7.98,-0.08,30.47
4697,0.3295,-0.0214,0.8616,-6.72,7.91,-0.06,30.45
4707,0.3269,-0.0264,0.8656,-6.75,7.92,0.0,30.48
4717,0.3263,-0.0266,0.8669,-6.82,8.03,0.03,30.45
4727,0.3267,-0.0266,0.8634,-6.76,7.94,-0.05,30.44
4737,0.3279,-0.0239,0.8662,-6.78,8.0,-0.05,30.44
4747,0.3281,-0.0276,0.8628,-6.85,8.06,-0.02,30.44
4757,0.3273,-0.0254,0.8616,-6.72,8.0,0.0,30.44
4767,0.327,-0.0253,0.8643,-6.76,8.0,-0.03,30.47
4777,0.326,-0.0255,0.8634,-6.73,8.09,-0.12,30.46
4787,0.3271,-0.0259,0.8628,-6.63,7.97,-0.05,30.45
4797,0.3271,-0.0237,0.8616,-6.76,8.02,-0.03,30.47
4807,0.3304,-0.0266,0.8694,-6.81,7.98,-0.12,30.47
4817,0.328,-0.0249,0.869,-6.84,7.98,0.0,30.44
4827,0.3291,-0.0258,0.8651,-6.78,7.97,0.03,30.44
4837,0.3293,-0.0247,0.8674,-6.79,7.92,0.03,30.46
4847,0.33,-0.0254,0.8641,-6.75,7.94,-0.02,30.45
4857,0.3275,-0.0267,0.8607,-6.67,8.0,-0.03,30.47
4867,0.3253,-0.025,0.8678,-6.84,7.97,0.02,30.47
4877,0.3274,-0.026,0.8666,-6.78,7.97,-0.05,30.46
4887,0.3287,-0.0267,0.8674,-6.84,7.97,-0.08,30.48
4897,0.3291,-0.0223,0.8662,-6.73,8.02,0.02,30.46
4907,0.3246,-0.0234,0.8684,-6.82,7.97,-0.08,30.48
4917,0.3287,-0.0277,0.8632,-6.79,7.95,0.03,30.45
4927,0.3282,-0.0286,0.8628,-6.72,8.0,-0.02,30.47
4937,0.329,-0.0249,0.8644,-6.73,8.03,-0.03,30.46
4947,0.3256,-0.0229,0.8641,-6.75,8.0,-0.11,30.44
4957,0.3257,-0.0217,0.8651,-6.76,8.0,-0.02,30.47
4967,0.3252,-0.0253,0.863,-6.79,8.05,-0.08,30.44
4977,0.3252,-0.0259,0.8661,-6.85,7.92,-0.14,30.45
4987,0.3245,-0.0254,0.8687,-6.75,8.0,0.03,30.46
4997,0.3267,-0.0264,0.8718,-6.73,7.97,0.05,30.46
5007,0.3264,-0.022,0.8636,-6.84,8.03,-0.06,30.46
5017,0.3243,-0.0228,0.86,-6.79,7.95,0.02,30.45
5027,0.3291,-0.0254,0.8671,-6.9,7.95,-0.15,30.47
5037,0.3282,-0.0267,0.8639,-6.78,8.03,0.06,30.48
5047,0.3262,-0.0234,0.8669,-6.72,8.06,-0.06,30.46
5057,0.3259,-0.0256,0.8646,-6.75,7.95,-0.08,30.47
5067,0.3291,-0.0256,0.8634,-6.78,8.0,-0.06,30.47
5077,0.3295,-0.0244,0.8663,-6.78,7.98,-0.06,30.48
5087,0.3302,-0.027,0.8624,-6.75,7.97,-0.06,30.47
5097,0.327,-0.0269,0.8674,-6.72,8.02,-0.06,30.48
5107,0.3289,-0.0234,0.8649,-6.82,7.97,-0.05,30.45
5118,0.3311,-0.0262,0.8652,-6.81,7.95,-0.02,30.49
5128,0.327,-0.0248,0.8671,-6.7,8.0,0.03,30.45
5138,0.328,-0.0245,0.8658,-6.69,8.02,-0.05,30.48
5148,0.329,-0.0253,0.8632,-6.75,8.0,0.0,30.47
5158,0.3252,-0.0264,0.8662,-6.87,7.95,0.02,30.46
5168,0.3276,-0.0242,0.8647,-6.67,7.88,-0.05,30.46
5178,0.3293,-0.0273,0.8673,-6.73,7.97,-0.08,30.46
5188,0.3292,-0.0269,0.864,-6.73,7.94,0.0,30.47
5198,0.328,-0.0248,0.8608,-6.75,7.94,-0.03,30.47
5208,0.3275,-0.0272,0.8636,-6.67,7.94,-0.08,30.52
5218,0.329,-0.027,0.8645,-6.81,7.91,-0.02,30.48
5228,0.3273,-0.0278,0.8655,-6.6,7.92,-0.06,30.46
5238,0.3253,-0.0266,0.8654,-6.76,7.91,-0.06,30.49
5248,0.3279,-0.0266,0.8617,-6.64,7.95,-0.02,30.49
5258,0.3287,-0.025,0.8652,-6.72,8.02,-0.08,30.48
5268,0.329,-0.0244,0.8655,-6.72,8.05,0.02,30.45
5279,0.3304,-0.0271,0.8612,-6.84,8.11,-0.09,30.47
5289,0.3293,-0.0259,0.8655,-6.72,7.98,0.03,30.47
5299,0.3291,-0.0255,0.8687,-6.67,8.0,-0.08,30.51
5309,0.325,-0.0239,0.8657,-6.79,7.97,-0.08,30.48
5319,0.326,-0.0243,0.8639,-6.69,7.82,0.0,30.47
5329,0.3301,-0.025,0.8678,-6.7,7.92,-0.02,30.48
5339,0.3284,-0.0225,0.8654,-6.72,7.97,-0.05,30.48
5349,0.324,-0.0261,0.8644,-6.79,7.97,-0.03,30.46
5359,0.3263,-0.0297,0.8621,-6.79,7.98,-0.06,30.49
5369,0.3275,-0.0239,0.8652,-6.79,7.92,-0.05,30.48
5379,0.3252,-0.0276,0.8685,-6.67,7.97,-0.03,30.47
5389,0.3276,-0.0272,0.8604,-6.75,7.98,-0.02,30.47
5399,0.3262,-0.0247,0.8649,-6.78,8.03,-0.02,30.47
5409,0.3258,-0.025,0.8641,-6.73,7.95,0.02,30.49
5419,0.3267,-0.0248,0.8635,-6.82,7.91,-0.08,30.49
5429,0.3273,-0.0272,0.8672,-6.72,7.95,-0.08,30.49
5439,0.3257,-0.0271,0.8652,-6.81,7.98,-0.08,30.45
5449,0.328,-0.0273,0.8668,-6.85,7.98,-0.12,30.46
5459,0.3267,-0.0242,0.8671,-6.78,7.94,-0.03,30.49
5469,0.3281,-0.0262,0.8645,-6.72,8.05,-0.03,30.48
5479,0.328,-0.0259,0.8657,-6.79,7.92,-0.03,30.47
5489,0.3287,-0.0277,0.8652,-6.75,7.95,-0.03,30.49
5499,0.329,-0.0242,0.8661,-6.81,7.98,-0.03,30.48
5509,0.329,-0.0267,0.8693,-6.78,7.97,-0.02,30.48
5519,0.3292,-0.025,0.8652,-6.78,7.92,-0.05,30.49
5530,0.3271,-0.0244,0.8665,-6.72,7.97,-0.08,30.5
5540,0.327,-0.0251,0.8586,-6.81,7.97,-0.02,30.48
5550,0.3297,-0.0243,0.8639,-6.72,7.97,0.0,30.49
5560,0.3253,-0.0247,0.8635,-6.81,8.03,-0.05,30.48
5570,0.3263,-0.0254,0.8656,-6.79,7.94,-0.03,30.48
5580,0.3273,-0.0291,0.8656,-6.7,7.89,-0.12,30.51
5590,0.3269,-0.0277,0.8638,-6.7,7.91,-0.05,30.5
5600,0.3269,-0.0245,0.8657,-6.76,7.98,0.02,30.47
5610,0.327,-0.027,0.8645,-6.78,7.92,-0.05,30.49
5620,0.3252,-0.0228,0.8676,-6.69,8.06,0.05,30.48
5630,0.3252,-0.0242,0.8619,-6.73,7.98,0.05,30.49
5640,0.3281,-0.0265,0.863,-6.78,7.97,-0.09,30.49
5650,0.328,-0.0271,0.8688,-6.84,7.98,-0.02,30.49
5660,0.325,-0.0258,0.8669,-6.69,7.97,-0.08,30.49
5670,0.3278,-0.0266,0.8632,-6.7,7.92,0.03,30.51
5680,0.3258,-0.025,0.8654,-6.67,7.97,-0.02,30.49
5690,0.326,-0.025,0.863,-6.73,7.97,-0.05,30.47
5700,0.3268,-0.0258,0.8668,-6.69,8.02,-0.12,30.49
5711,0.3298,-0.024,0.8638,-6.76,8.0,-0.05,30.52
5721,0.3274,-0.0249,0.8633,-6.75,7.98,-0.05,30.47
5731,0.3289,-0.0253,0.8629,-6.72,8.0,-0.08,30.47
5741,0.3263,-0.0261,0.8667,-6.75,7.98,-0.03,30.5
5751,0.3273,-0.0245,0.8634,-6.82,7.98,-0.03,30.47
5761,0.3285,-0.0243,0.8679,-6.78,8.08,-0.06,30.48
5771,0.3275,-0.0266,0.8661,-6.73,7.97,0.0,30.47
5781,0.3265,-0.0255,0.8682,-6.76,8.02,0.02,30.5
5791,0.3256,-0.0247,0.8652,-6.84,7.92,0.0,30.51
5801,0.328,-0.0265,0.8667,-6.76,8.0,0.0,30.48
5811,0.3303,-0.0282,0.8644,-6.66,8.0,-0.08,30.48
5821,0.3293,-0.0236,0.8619,-6.69,7.97,-0.05,30.49
5832,0.3284,-0.0243,0.8613,-6.73,7.91,0.03,30.47
5842,0.3269,-0.0225,0.8654,-6.79,7.94,-0.06,30.48
5852,0.3291,-0.026,0.8623,-6.73,7.98,0.03,30.49
5862,0.3265,-0.0278,0.8674,-6.76,7.89,-0.02,30.51
5872,0.327,-0.025,0.8671,-6.82,8.0,-0.08,30.49
5882,0.3229,-0.0276,0.8644,-6.79,7.88,0.0,30.51
5892,0.3274,-0.0231,0.8657,-6.73,8.05,-0.09,30.49
5903,0.3267,-0.0266,0.8682,-6.72,8.03,-0.03,30.51
5913,0.3259,-0.026,0.863,-6.75,7.95,0.06,30.49
5923,0.3279,-0.0278,0.8628,-6.78,8.06,-0.03,30.49
5933,0.3289,-0.0242,0.8667,-6.81,7.97,-0.02,30.49
5943,0.3262,-0.0245,0.8651,-6.79,7.95,-0.05,30.52
5953,0.3265,-0.0253,0.8665,-6.82,7.97,-0.02,30.49
5963,0.3267,-0.0229,0.8678,-6.67,8.03,-0.03,30.51
5973,0.3276,-0.0266,0.8632,-6.82,7.98,-0.03,30.51
5983,0.3308,-0.0256,0.8635,-6.67,7.97,-0.06,30.5
5993,0.3269,-0.0239,0.8683,-6.75,8.05,0.0,30.5
6003,0.328,-0.0253,0.8696,-6.81,7.91,-0.05,30.5
6013,0.3276,-0.0258,0.8661,-6.75,7.95,0.05,30.5
6023,0.3295,-0.0272,0.8647,-6.73,7.95,-0.08,30.5
6033,0.3274,-0.0238,0.8629,-6.82,7.97,-0.08,30.5
6043,0.3278,-0.0254,0.8602,-6.78,7.95,-0.03,30.48
6053,0.329,-0.0232,0.8641,-6.87,7.98,0.0,30.51
6063,0.3254,-0.0254,0.8676,-6.79,8.0,-0.11,30.49
6073,0.3295,-0.0236,0.8644,-6.78,7.92,-0.09,30.49
6083,0.3278,-0.0283,0.8645,-6.67,7.94,0.0,30.48
6093,0.3284,-0.0259,0.8632,-6.73,7.94,-0.17,30.5
6103,0.3282,-0.0267,0.8651,-6.76,7.91,-0.03,30.51
6113,0.3301,-0.0255,0.8644,-6.78,7.97,-0.03,30.48
6123,0.3274,-0.0244,0.8625,-6.7,7.94,-0.03,30.49
6133,0.3274,-0.0281,0.8683,-6.73,8.03,0.02,30.49
6143,0.327,-0.0248,0.8654,-6.73,7.95,-0.02,30.51
6153,0.3254,-0.0238,0.8655,-6.69,7.98,-0.08,30.5
6163,0.3287,-0.0249,0.8619,-6.75,7.94,-0.08,30.49
6173,0.3267,-0.0255,0.8636,-6.73,8.0,-0.05,30.5
6183,0.3265,-0.0281,0.8685,-6.84,7.92,-0.05,30.51
6193,0.3268,-0.0245,0.8625,-6.76,7.91,-0.03,30.5
6203,0.3269,-0.0231,0.8676,-6.79,8.02,0.0,30.5
6213,0.3268,-0.0259,0.8643,-6.73,7.98,-0.03,30.52
6223,0.3274,-0.0282,0.8651,-6.79,7.98,-0.08,30.49
6233,0.3306,-0.0239,0.8646,-6.78,7.97,-0.08,30.51
6243,0.3303,-0.0278,0.8663,-6.81,7.94,-0.06,30.51
6253,0.3279,-0.0256,0.865,-6.79,7.97,0.0,30.5
6263,0.327,-0.0253,0.8649,-6.75,8.0,-0.02,30.49
6273,0.3243,-0.0269,0.8666,-6.81,7.95,-0.02,30.49
6283,0.33,-0.0248,0.8667,-6.81,7.95,-0.02,30.52
6293,0.3264,-0.024,0.8625,-6.79,8.0,0.02,30.5
6303,0.3279,-0.0243,0.8643,-6.73,7.97,0.05,30.49
6313,0.329,-0.0278,0.8639,-6.78,7.95,0.02,30.49
6323,0.3276,-0.028,0.8643,-6.73,7.94,-0.03,30.49
6333,0.3286,-0.0251,0.8671,-6.84,8.02,0.03,30.52
6343,0.3267,-0.0254,0.8677,-6.9,7.88,-0.03,30.5
6353,0.3281,-0.0256,0.8633,-6.79,7.94,-0.05,30.49
6363,0.3278,-0.0277,0.8668,-6.78,7.98,0.03,30.49
6373,0.3257,-0.0261,0.8632,-6.73,7.98,-0.02,30.51
6383,0.3264,-0.024,0.8661,-6.76,7.98,-0.06,30.51
6393,0.3259,-0.0254,0.8669,-6.76,7.98,-0.03,30.5
6403,0.3242,-0.0255,0.8661,-6.82,8.02,-0.06,30.49
6413,0.3281,-0.0255,0.8604,-6.75,7.95,-0.03,30.51
6423,0.3286,-0.0255,0.8646,-6.72,7.94,-0.03,30.51
6433,0.3267,-0.0237,0.8611,-6.69,7.92,-0.08,30.5
6446,0.3287,-0.0243,0.8649,-6.9,7.89,1.71,30.5
6456,0.3262,-0.0267,0.8679,-6.7,8.11,0.11,30.5
6467,0.3315,-0.026,0.8622,-6.76,8.0,-0.08,30.5
6477,0.3307,-0.0256,0.8674,-6.73,8.0,-0.03,30.52
6487,0.3253,-0.0249,0.8668,-6.79,7.91,0.02,30.52
6497,0.3264,-0.0288,0.8661,-6.69,7.95,-0.06,30.5
6507,0.3276,-0.026,0.8665,-6.84,8.0,-0.02,30.51
6517,0.3235,-0.0258,0.8639,-6.67,8.0,-0.03,30.5
6527,0.3279,-0.0255,0.8651,-6.73,7.95,-0.02,30.51
6537,0.3313,-0.0251,0.8661,-6.76,7.95,-0.08,30.53
6547,0.3303,-0.0243,0.8656,-6.79,7.91,-0.03,30.52
6557,0.33,-0.0217,0.8665,-6.66,7.95,-0.02,30.49
6567,0.3263,-0.0248,0.8636,-6.76,8.02,0.02,30.52
6577,0.3254,-0.022,0.8678,-6.73,7.92,-0.09,30.57
6587,0.3264,-0.0266,0.8658,-6.78,8.03,-0.06,30.51
6597,0.3285,-0.025,0.8706,-6.78,7.91,-0.08,30.52
6607,0.3273,-0.0276,0.8671,-6.75,7.8,-0.08,30.52
6617,0.3301,-0.026,0.8663,-6.67,7.98,-0.03,30.54
6627,0.3301,-0.0243,0.8673,-6.82,7.95,-0.05,30.52
6637,0.3289,-0.0255,0.8661,-6.72,8.06,-0.02,30.51
6647,0.3265,-0.0256,0.8629,-6.66,8.0,-0.02,30.54
6657,0.3282,-0.0229,0.865,-6.76,7.94,-0.02,30.54
6667,0.3285,-0.0277,0.8641,-6.75,8.0,-0.02,30.53
6677,0.3291,-0.0277,0.8651,-6.76,7.97,-0.03,30.52
6687,0.3282,-0.0249,0.8608,-6.75,7.95,-0.08,30.52
6697,0.3254,-0.026,0.8645,-6.7,7.95,-0.05,30.54
6707,0.3247,-0.0261,0.8671,-6.7,7.92,-0.05,30.53
6717,0.3279,-0.0249,0.8663,-6.78,7.91,0.03,30.54
6727,0.326,-0.0243,0.8667,-6.81,7.92,-0.09,30.53
6737,0.3276,-0.0255,0.8625,-6.7,7.94,0.02,30.51
6747,0.3273,-0.026,0.8645,-6.85,7.97,-0.06,30.52
6757,0.3289,-0.0238,0.8656,-6.82,7.98,-0.05,30.54
6767,0.3279,-0.0239,0.8649,-6.75,7.98,-0.14,30.54
6777,0.3287,-0.0254,0.8643,-6.73,7.97,-0.02,30.52
6787,0.328,-0.0238,0.8663,-6.73,8.03,-0.05,30.52
6797,0.3293,-0.0238,0.8651,-6.75,8.03,-0.06,30.52
6807,0.3291,-0.0255,0.8617,-6.72,7.98,-0.09,30.54
6817,0.3262,-0.0228,0.8651,-6.82,8.0,-0.11,30.51
6827,0.3289,-0.0276,0.8684,-6.75,8.05,-0.09,30.52
6837,0.3312,-0.026,0.8649,-6.78,7.98,0.02,30.53
6847,0.3258,-0.0248,0.866,-6.76,7.95,-0.03,30.53
6857,0.3251,-0.0244,0.8602,-6.84,7.91,-0.03,30.55
6867,0.3254,-0.026,0.8673,-6.81,8.03,0.02,30.54
6877,0.3286,-0.0225,0.8636,-6.85,8.02,-0.08,30.52
6887,0.329,-0.0238,0.8671,-6.75,7.88,0.03,30.52
6897,0.3267,-0.03,0.8639,-6.72,7.95,0.0,30.52
6907,0.3284,-0.0284,0.8634,-6.72,7.98,0.03,30.52
6917,0.3275,-0.0273,0.8663,-6.79,7.98,-0.03,30.53
6927,0.3274,-0.0261,0.8646,-6.72,7.97,-0.11,30.54
6937,0.3276,-0.0267,0.8667,-6.72,7.94,-0.08,30.53
6947,0.3279,-0.025,0.8652,-6.82,7.98,-0.06,30.55
6957,0.3268,-0.026,0.8639,-6.76,8.02,-0.08,30.54
6968,0.3287,-0.0245,0.8684,-6.75,8.0,0.0,30.55
6978,0.3286,-0.0232,0.8656,-6.66,7.92,-0.03,30.52
6988,0.327,-0.026,0.8652,-6.78,7.95,0.03,30.54
6998,0.328,-0.0259,0.8622,-6.67,7.95,-0.02,30.53
7008,0.3303,-0.0244,0.8635,-6.72,7.98,-0.05,30.54
7018,0.3298,-0.0273,0.8665,-6.72,8.02,-0.03,30.52
7028,0.3259,-0.0249,0.8685,-6.75,7.95,-0.03,30.52
7038,0.3307,-0.0243,0.8641,-6.7,7.92,-0.11,30.52
7048,0.3276,-0.0249,0.8625,-6.75,7.94,-0.05,30.5
7058,0.3293,-0.0239,0.8667,-6.76,8.02,-0.09,30.53
7068,0.3243,-0.0249,0.8652,-6.85,7.92,-0.06,30.52
7078,0.3278,-0.0264,0.8661,-6.81,7.97,-0.02,30.52
7088,0.326,-0.0249,0.8636,-6.84,7.95,-0.08,30.55
7098,0.3285,-0.0244,0.8635,-6.84,7.92,-0.11,30.52
7108,0.3297,-0.026,0.8655,-6.75,7.88,-0.09,30.52
7118,0.3301,-0.026,0.8635,-6.79,7.95,-0.02,30.54
7128,0.3282,-0.0231,0.8635,-6.79,7.95,-0.02,30.52
7138,0.3296,-0.0269,0.8678,-6.78,8.02,-0.03,30.54
7148,0.3286,-0.0264,0.8607,-6.72,7.98,-0.06,30.54
7158,0.3247,-0.0255,0.8667,-6.76,7.97,-0.02,30.51
7168,0.3248,-0.026,0.8661,-6.79,7.95,0.02,30.52
7178,0.3262,-0.0278,0.8662,-6.81,7.98,-0.02,30.53
7188,0.3296,-0.0256,0.8621,-6.85,7.88,-0.06,30.53
7198,0.3287,-0.0242,0.8645,-6.7,7.97,0.0,30.52
7208,0.3241,-0.0264,0.8646,-6.78,8.0,0.02,30.55
7218,0.3293,-0.027,0.8624,-6.73,8.03,-0.03,30.52
7228,0.3281,-0.0244,0.8654,-6.73,8.0,-0.02,30.53
7238,0.3265,-0.0247,0.8634,-6.87,7.97,-0.08,30.51
7248,0.3293,-0.0281,0.8643,-6.67,7.98,-0.03,30.49
7258,0.3264,-0.0244,0.8665,-6.79,7.92,-0.02,30.49
7268,0.3302,-0.0239,0.8635,-6.76,7.98,-0.02,30.52
7278,0.3262,-0.0261,0.8629,-6.72,7.95,-0.08,30.51
7288,0.3258,-0.025,0.8616,-6.81,8.0,-0.06,30.51
7298,0.3279,-0.025,0.8641,-6.75,8.0,-0.05,30.51
7308,0.3297,-0.0293,0.8638,-6.72,7.94,-0.05,30.51
7318,0.3267,-0.027,0.8687,-6.78,7.97,-0.09,30.52
7328,0.3298,-0.0254,0.8665,-6.76,8.0,0.0,30.54
7338,0.3296,-0.0229,0.868,-6.78,7.94,-0.14,30.51
7348,0.3273,-0.0261,0.8679,-6.75,7.98,-0.06,30.51
7358,0.327,-0.0255,0.866,-6.84,8.03,-0.06,30.51
7368,0.3269,-0.0231,0.8636,-6.7,8.0,0.02,30.51
7378,0.325,-0.0237,0.8668,-6.76,8.03,-0.03,30.52
7388,0.3281,-0.0276,0.8628,-6.75,7.94,0.0,30.52
7398,0.3282,-0.0272,0.8608,-6.7,8.02,0.0,30.55
7409,0.3251,-0.0251,0.8611,-6.73,7.92,-0.06,30.53
7419,0.3271,-0.026,0.8633,-6.7,8.0,-0.11,30.54
7429,0.3296,-0.0276,0.8694,-6.73,8.06,-0.09,30.54
7439,0.3257,-0.0265,0.8644,-6.78,8.0,-0.03,30.53
7449,0.3281,-0.0256,0.8651,-6.75,7.92,-0.03,30.55
7459,0.3269,-0.0267,0.869,-6.75,8.0,-0.05,30.53
7469,0.3275,-0.0258,0.8677,-6.81,7.95,-0.03,30.54
7479,0.3282,-0.0244,0.8629,-6.81,8.02,-0.05,30.53
7489,0.3278,-0.0264,0.8655,-6.7,7.92,-0.15,30.52
7499,0.3271,-0.0248,0.8678,-6.89,7.97,-0.05,30.54
7509,0.3271,-0.0275,0.8613,-6.75,8.0,-0.11,30.52
7519,0.3268,-0.0261,0.8658,-6.79,7.91,0.05,30.53
7529,0.3265,-0.0227,0.8672,-6.75,8.0,-0.05,30.54
7539,0.3276,-0.0284,0.8657,-6.82,7.94,-0.11,30.52
7549,0.3258,-0.0262,0.8666,-6.84,7.95,-0.06,30.53
7559,0.328,-0.0261,0.8663,-6.72,7.94,-0.02,30.52
7569,0.3284,-0.0256,0.8625,-6.78,7.91,0.03,30.52
7579,0.3292,-0.0273,0.8612,-6.82,7.94,0.02,30.53
7589,0.3286,-0.0254,0.8604,-6.72,7.95,0.11,30.54
7599,0.325,-0.0245,0.8644,-6.89,7.95,-0.03,30.54
7609,0.3276,-0.0242,0.8647,-6.82,7.98,-0.02,30.52
7619,0.3286,-0.025,0.8658,-6.75,8.03,-0.09,30.52
7629,0.3301,-0.0265,0.8661,-6.75,8.02,0.03,30.55
7639,0.3286,-0.0243,0.8678,-6.76,7.92,-0.08,30.52
7649,0.3279,-0.025,0.8676,-6.84,8.02,-0.06,30.54
7659,0.3259,-0.027,0.8652,-6.76,8.02,-0.08,30.52
7669,0.3308,-0.0271,0.8668,-6.82,7.89,0.02,30.52
7679,0.3297,-0.0255,0.8651,-6.75,7.95,-0.08,30.54
7689,0.3265,-0.0258,0.8641,-6.76,7.97,0.0,30.53
7699,0.3254,-0.0233,0.8616,-6.89,7.98,0.02,30.56
7709,0.3264,-0.0265,0.8639,-6.72,7.95,0.02,30.53
7719,0.3271,-0.0253,0.868,-6.82,7.91,-0.06,30.54
7729,0.3259,-0.025,0.8666,-6.87,7.98,-0.03,30.54
7739,0.3252,-0.0233,0.8699,-6.84,7.97,-0.05,30.55
7749,0.3281,-0.0247,0.8643,-6.73,8.05,0.02,30.52
7759,0.329,-0.0261,0.8649,-6.69,7.88,-0.09,30.53
7769,0.329,-0.0251,0.8668,-6.84,7.95,-0.02,30.53
7779,0.3302,-0.025,0.8672,-6.81,7.94,0.05,30.54
7789,0.3276,-0.0247,0.8647,-6.73,7.89,-0.02,30.52
7799,0.3268,-0.0232,0.8669,-6.78,8.08,-0.03,30.52
7809,0.3293,-0.0254,0.8684,-6.73,8.08,-0.02,30.54
7819,0.3304,-0.0278,0.8655,-6.78,7.94,-0.02,30.53
7829,0.3271,-0.0256,0.8657,-6.84,7.89,-0.05,30.55
7839,0.3273,-0.0249,0.8618,-6.79,8.02,-0.09,30.55
7849,0.3257,-0.0269,0.8649,-6.76,7.97,0.02,30.54
7859,0.3282,-0.0267,0.8671,-6.78,8.0,-0.02,30.55
7869,0.3256,-0.0242,0.8654,-6.79,8.03,0.0,30.56
7879,0.3248,-0.0234,0.8699,-6.79,7.97,-0.06,30.54
7889,0.3269,-0.0288,0.8639,-6.85,7.97,-0.09,30.52
7899,0.325,-0.0251,0.8677,-6.69,7.92,-0.06,30.54
7909,0.3267,-0.0242,0.865,-6.84,7.88,-0.06,30.55
7919,0.3267,-0.025,0.8676,-6.81,7.98,-0.09,30.55
7929,0.3285,-0.0251,0.8635,-6.78,8.0,0.0,30.53
7939,0.3278,-0.0247,0.8684,-6.81,7.92,0.03,30.56
7949,0.3295,-0.0227,0.8629,-6.78,7.97,0.0,30.51
7959,0.3279,-0.0243,0.8694,-6.79,7.94,-0.06,30.56
7969,0.3293,-0.0223,0.8705,-6.75,7.95,0.0,30.54
7979,0.3273,-0.0264,0.8646,-6.79,7.97,0.02,30.55
7989,0.3275,-0.0259,0.8629,-6.87,7.89,-0.05,30.53
7999,0.3284,-0.0242,0.8661,-6.7,7.95,-0.03,30.53
8009,0.3273,-0.0243,0.8611,-6.75,8.06,-0.09,30.52
8019,0.3263,-0.0239,0.8639,-6.76,7.97,-0.03,30.53
8029,0.3282,-0.0265,0.8645,-6.82,7.95,-0.08,30.55
8039,0.3265,-0.0262,0.8652,-6.7,7.95,0.06,30.53
8049,0.3275,-0.025,0.8667,-6.73,8.05,0.02,30.55
8059,0.3286,-0.0276,0.863,-6.73,8.02,-0.06,30.55
8069,0.328,-0.0243,0.8639,-6.78,7.94,-0.06,30.53
8079,0.3279,-0.0239,0.8617,-6.76,7.95,-0.03,30.53
8089,0.3301,-0.0239,0.8618,-6.76,7.95,0.03,30.54
8099,0.3269,-0.0237,0.8708,-6.73,7.97,0.0,30.55
8109,0.329,-0.0265,0.8674,-6.7,7.98,-0.02,30.56
8119,0.3273,-0.0262,0.8639,-6.79,7.95,-0.08,30.56
8129,0.3291,-0.0266,0.8632,-6.82,8.0,0.02,30.54
8139,0.3271,-0.0249,0.8621,-6.73,7.98,-0.06,30.57
8149,0.3253,-0.0259,0.8636,-6.75,8.05,0.05,30.54
8159,0.3258,-0.0272,0.8652,-6.84,7.94,0.0,30.55
8169,0.3274,-0.0243,0.8644,-6.82,7.98,-0.02,30.56
8179,0.3274,-0.0271,0.8656,-6.82,7.91,-0.12,30.54
8189,0.327,-0.0243,0.8682,-6.73,8.0,-0.05,30.55
8199,0.328,-0.0238,0.8652,-6.81,7.94,-0.03,30.54
8209,0.3229,-0.0269,0.8643,-6.79,7.89,-0.05,30.52
8219,0.3287,-0.0265,0.8649,-6.72,8.08,0.0,30.54
8229,0.3301,-0.0267,0.8647,-6.78,8.03,-0.06,30.54
8239,0.3269,-0.0249,0.8647,-6.75,7.92,-0.05,30.56
8249,0.328,-0.026,0.8644,-6.73,7.88,-0.08,30.54
8259,0.3278,-0.0261,0.8698,-6.7,7.95,-0.02,30.54
8269,0.3276,-0.027,0.8657,-6.75,8.02,-0.05,30.56
8279,0.3273,-0.0278,0.8629,-6.85,8.0,-0.09,30.54
8289,0.3269,-0.0289,0.8658,-6.84,7.97,-0.05,30.55
8299,0.3282,-0.0249,0.8635,-6.78,7.91,-0.08,30.54
8309,0.3284,-0.025,0.8668,-6.84,7.91,-0.06,30.52
8319,0.3269,-0.0244,0.8638,-6.76,7.91,-0.06,30.55
8329,0.3285,-0.0277,0.8629,-6.84,8.06,0.03,30.54
8339,0.3273,-0.0283,0.8682,-6.72,8.0,0.06,30.56
8349,0.3258,-0.0239,0.8674,-6.72,8.06,-0.03,30.54
8359,0.3282,-0.0255,0.8683,-6.81,7.97,-0.02,30.52
8369,0.3313,-0.0272,0.8618,-6.78,7.83,-0.05,30.55
8379,0.3298,-0.026,0.8652,-6.73,7.91,-0.03,30.52
8389,0.3298,-0.0247,0.8619,-6.76,8.03,-0.02,30.54
8399,0.329,-0.0232,0.8652,-6.78,7.95,-0.06,30.53
8409,0.327,-0.0231,0.8674,-6.82,7.97,-0.03,30.54
8419,0.3303,-0.0237,0.8673,-6.84,8.08,0.05,30.52
8429,0.3286,-0.0249,0.863,-6.81,7.97,0.0,30.57
8439,0.3262,-0.0255,0.8643,-6.81,7.97,0.0,30.58
8449,0.3318,-0.0253,0.8662,-6.75,7.94,-0.05,30.54
8459,0.3269,-0.0238,0.8641,-6.78,7.97,-0.05,30.55
8469,0.3286,-0.021,0.8611,-6.75,7.98,-0.06,30.54
8479,0.3262,-0.0271,0.8639,-6.66,8.0,-0.03,30.55
8489,0.3267,-0.0247,0.8663,-6.84,7.97,-0.09,30.52
8499,0.3265,-0.0281,0.8663,-6.79,7.95,-0.03,30.55
8509,0.3267,-0.0277,0.8645,-6.81,7.88,0.05,30.57
8519,0.3271,-0.028,0.8684,-6.72,7.97,0.0,30.54
8529,0.326,-0.0259,0.8656,-6.78,7.94,0.0,30.54
8539,0.3292,-0.0244,0.8678,-6.78,7.97,0.0,30.54
8549,0.3282,-0.0242,0.8636,-6.76,7.89,-0.02,30.54
8559,0.3281,-0.0254,0.866,-6.76,7.98,-0.09,30.53
8569,0.3281,-0.0249,0.8662,-6.76,7.89,0.06,30.55
8579,0.3267,-0.0259,0.869,-6.75,7.95,-0.05,30.57
8589,0.3278,-0.0264,0.8656,-6.78,7.86,-0.06,30.56
8599,0.3276,-0.0228,0.8661,-6.82,8.0,0.05,30.53
8609,0.329,-0.0251,0.8668,-6.73,7.92,-0.06,30.55
8619,0.3258,-0.0255,0.8643,-6.87,8.0,-0.14,30.52
8629,0.3289,-0.025,0.8651,-6.73,7.97,0.0,30.52
8639,0.3279,-0.0277,0.8622,-6.81,8.0,-0.03,30.54
8649,0.3276,-0.0264,0.8655,-6.7,7.95,-0.06,30.55
8659,0.3268,-0.0253,0.8625,-6.78,8.02,-0.02,30.54
8669,0.3279,-0.0244,0.8613,-6.7,7.98,0.0,30.56
8679,0.3262,-0.0291,0.8677,-6.66,8.0,-0.12,30.55
8689,0.3274,-0.0249,0.8654,-6.78,7.98,-0.06,30.53
8699,0.3241,-0.0255,0.8629,-6.84,8.02,-0.02,30.56
8709,0.326,-0.0249,0.8669,-6.79,7.98,0.0,30.54
8719,0.3271,-0.0267,0.8651,-6.76,8.0,-0.02,30.56
8729,0.3258,-0.0236,0.8654,-6.78,7.95,0.05,30.55
8739,0.3258,-0.0265,0.8662,-6.81,7.89,0.02,30.55
8749,0.327,-0.0271,0.8643,-6.79,7.95,0.03,30.55
8759,0.3286,-0.0264,0.8687,-6.75,7.97,-0.08,30.55
8769,0.3291,-0.026,0.8655,-6.66,7.97,-0.05,30.54
8779,0.3276,-0.0255,0.8616,-6.75,7.91,0.02,30.55
8789,0.3274,-0.0236,0.8628,-6.79,7.92,0.03,30.56
8799,0.326,-0.0276,0.8657,-6.87,7.92,-0.06,30.55
8809,0.3287,-0.0248,0.8629,-6.69,8.0,0.0,30.53
8819,0.3286,-0.0275,0.8669,-6.81,7.98,-0.11,30.53
8829,0.3275,-0.0254,0.8627,-6.82,7.97,-0.12,30.54
8839,0.3276,-0.0275,0.8643,-6.73,7.98,-0.09,30.53
8849,0.3259,-0.0243,0.8629,-6.7,8.0,-0.02,30.54
8859,0.3267,-0.028,0.865,-6.75,7.94,0.03,30.54
8869,0.3298,-0.025,0.8671,-6.75,7.95,0.0,30.53
8879,0.3276,-0.0259,0.8662,-6.73,7.98,0.03,30.54
8889,0.3248,-0.0261,0.8661,-6.87,7.94,0.0,30.56
8899,0.3297,-0.0245,0.864,-6.69,7.88,0.0,30.54
8909,0.3273,-0.0249,0.8652,-6.76,7.98,-0.08,30.53
8919,0.3262,-0.0258,0.8685,-6.81,7.98,-0.05,30.55
8929,0.3278,-0.0256,0.863,-6.81,8.0,-0.06,30.54
8939,0.3296,-0.0256,0.8668,-6.75,7.94,-0.08,30.53
8949,0.3274,-0.0278,0.8661,-6.82,7.95,0.02,30.5
8959,0.3265,-0.0236,0.8615,-6.78,7.94,0.05,30.54
8969,0.329,-0.0238,0.8639,-6.87,7.92,0.03,30.53
8979,0.3296,-0.0282,0.8676,-6.87,7.97,0.02,30.56
8989,0.3271,-0.022,0.8661,-6.67,7.94,-0.06,30.52
8999,0.3268,-0.0259,0.8651,-6.72,7.95,0.0,30.53
9009,0.3248,-0.0286,0.8658,-6.84,8.0,0.03,30.54
9019,0.3296,-0.0273,0.8658,-6.82,7.94,-0.03,30.57
9029,0.3268,-0.0262,0.8687,-6.87,7.94,0.03,30.55
9039,0.3263,-0.0289,0.8655,-6.76,7.97,0.02,30.54
9049,0.3268,-0.0272,0.8657,-6.78,8.0,-0.05,30.53
9059,0.3312,-0.0258,0.8668,-6.89,7.94,0.0,30.52
9069,0.329,-0.0229,0.8651,-6.78,8.02,-0.02,30.54
9079,0.3237,-0.0259,0.8672,-6.87,7.97,0.06,30.54
9089,0.3271,-0.0229,0.8623,-6.69,7.98,-0.09,30.55
9099,0.3275,-0.0248,0.8669,-6.7,7.98,-0.05,30.53
9109,0.3276,-0.0242,0.8695,-6.79,7.98,0.03,30.53
9119,0.3268,-0.0281,0.8689,-6.82,7.95,-0.03,30.52
9129,0.3254,-0.0248,0.8701,-6.82,8.0,0.05,30.54
9139,0.3246,-0.0247,0.8619,-6.78,8.02,0.0,30.57
9149,0.3271,-0.0264,0.8643,-6.76,7.95,-0.2,30.56
9159,0.3285,-0.0267,0.8666,-6.76,7.92,-0.08,30.54
9169,0.3282,-0.0248,0.8657,-6.73,7.91,-0.08,30.54
9179,0.3263,-0.0262,0.8639,-6.76,7.91,0.0,30.55
9189,0.3287,-0.024,0.864,-6.76,7.95,-0.02,30.54
9199,0.33,-0.025,0.8654,-6.78,7.92,-0.02,30.54
9209,0.327,-0.0271,0.8645,-6.89,7.94,-0.08,30.53
9219,0.3267,-0.0265,0.865,-6.78,7.92,-0.06,30.55
9229,0.3281,-0.0275,0.8674,-6.75,7.95,0.02,30.57
9239,0.3281,-0.0227,0.8643,-6.75,7.98,-0.09,30.53
9249,0.3275,-0.0249,0.8671,-6.78,7.98,-0.12,30.55
9259,0.3295,-0.0228,0.8667,-6.76,7.95,-0.09,30.55
9269,0.3282,-0.0242,0.8691,-6.87,7.95,-0.08,30.56
9279,0.3251,-0.0264,0.8639,-6.79,7.97,-0.03,30.56
9289,0.3304,-0.0247,0.8669,-6.76,7.95,0.0,30.56
9299,0.329,-0.0251,0.866,-6.67,8.03,0.06,30.56
9309,0.3297,-0.0239,0.8662,-6.69,8.0,-0.02,30.55
9319,0.3309,-0.0264,0.8658,-6.81,7.97,-0.11,30.56
9329,0.3267,-0.0232,0.8688,-6.81,7.89,-0.05,30.52
9339,0.3282,-0.0264,0.8688,-6.85,7.92,-0.08,30.54
9349,0.3297,-0.0254,0.8671,-6.72,7.91,-0.06,30.56
9359,0.3284,-0.0273,0.8707,-6.78,8.02,-0.06,30.57
9369,0.3295,-0.0231,0.8679,-6.85,7.89,0.02,30.55
9379,0.3256,-0.0269,0.8635,-6.87,7.91,-0.05,30.54
9389,0.3303,-0.0262,0.8638,-6.75,8.02,0.02,30.57
9399,0.3322,-0.0273,0.8657,-6.79,8.02,-0.02,30.56
9409,0.3281,-0.0254,0.8665,-6.7,7.97,-0.06,30.54
9419,0.3256,-0.0244,0.8667,-6.84,8.0,-0.06,30.55
9429,0.326,-0.0245,0.8651,-6.76,7.92,-0.08,30.53
9439,0.3276,-0.0276,0.865,-6.72,7.94,-0.06,30.52
9449,0.3264,-0.028,0.8669,-6.79,7.94,0.02,30.55
9459,0.3273,-0.0258,0.8635,-6.72,7.94,-0.08,30.53
9469,0.3301,-0.0256,0.8615,-6.7,7.92,0.03,30.54
9479,0.3291,-0.0245,0.8657,-6.73,8.06,-0.09,30.56
9489,0.3293,-0.0281,0.8647,-6.82,7.94,0.02,30.54
9499,0.3284,-0.0243,0.8674,-6.73,7.91,-0.05,30.53
9509,0.3279,-0.025,0.8677,-6.78,7.92,-0.06,30.55
9519,0.3268,-0.0259,0.8654,-6.9,7.94,-0.05,30.54
9529,0.3273,-0.026,0.8656,-6.84,8.03,0.02,30.54
9539,0.3302,-0.0267,0.8654,-6.72,7.98,0.02,30.55
9549,0.3274,-0.0269,0.8687,-6.76,7.89,-0.05,30.56
9559,0.3265,-0.0253,0.8635,-6.76,7.91,-0.03,30.56
9569,0.3291,-0.0231,0.8618,-6.85,7.94,-0.12,30.56
9579,0.3286,-0.0238,0.8649,-6.76,7.98,-0.03,30.56
9589,0.3279,-0.0286,0.8656,-6.84,7.94,-0.08,30.57
9599,0.3276,-0.0234,0.8657,-6.72,7.92,-0.03,30.52
9609,0.3258,-0.0242,0.8651,-6.72,8.03,0.05,30.54
9619,0.325,-0.0244,0.8612,-6.75,7.98,-0.05,30.53
9629,0.3268,-0.0256,0.8652,-6.7,7.97,0.0,30.55
9639,0.328,-0.0281,0.8615,-6.75,7.94,-0.02,30.54
9649,0.3281,-0.027,0.8625,-6.76,8.03,-0.06,30.56
9659,0.3295,-0.0254,0.8634,-6.76,7.86,0.0,30.55
9669,0.3257,-0.0236,0.863,-6.84,7.92,0.03,30.55
9679,0.3289,-0.025,0.8662,-6.79,7.97,-0.05,30.55
9689,0.3301,-0.0278,0.865,-6.75,7.95,-0.09,30.54
9699,0.3298,-0.027,0.8632,-6.81,8.0,-0.09,30.54
9709,0.3281,-0.0262,0.8658,-6.76,7.98,-0.03,30.55
9719,0.3274,-0.0269,0.8663,-6.78,7.94,-0.05,30.57
9729,0.3279,-0.0288,0.8679,-6.79,7.98,-0.03,30.56
9739,0.3264,-0.0262,0.8662,-6.87,7.92,-0.05,30.55
9749,0.3295,-0.0242,0.8649,-6.75,7.94,-0.06,30.56
9759,0.3273,-0.025,0.8641,-6.73,8.0,-0.09,30.59
9769,0.3296,-0.0254,0.8638,-6.78,7.97,-0.02,30.58
9779,0.3293,-0.0266,0.8639,-6.75,8.03,0.0,30.57
9789,0.3289,-0.0248,0.8662,-6.73,8.03,0.02,30.53
9799,0.3274,-0.0256,0.8671,-6.75,8.0,-0.09,30.54
9809,0.3262,-0.0253,0.8645,-6.73,7.92,-0.08,30.55
9819,0.329,-0.0229,0.8661,-6.67,7.94,-0.09,30.55
9829,0.3264,-0.0262,0.8641,-6.79,7.97,-0.14,30.56
9839,0.329,-0.0215,0.8669,-6.79,7.97,-0.02,30.55
9849,0.3286,-0.0227,0.8658,-6.72,8.02,-0.05,30.56
9859,0.3289,-0.0239,0.8636,-6.78,8.0,0.0,30.57
9869,0.3287,-0.025,0.8624,-6.72,7.89,0.0,30.55
9879,0.328,-0.0256,0.8683,-6.78,7.98,-0.06,30.55
9889,0.3281,-0.0239,0.8667,-6.72,8.0,-0.02,30.56
9899,0.3273,-0.0239,0.865,-6.81,7.94,-0.14,30.56
9909,0.3276,-0.0251,0.8645,-6.81,8.02,-0.06,30.56
9919,0.3247,-0.0231,0.8678,-6.69,7.92,-0.03,30.57
9929,0.3286,-0.0276,0.8656,-6.81,8.03,-0.02,30.57
9939,0.3281,-0.0253,0.8641,-6.87,7.95,-0.03,30.54
9949,0.3259,-0.0242,0.8679,-6.72,7.98,-0.05,30.52
9959,0.33,-0.0258,0.8713,-6.75,7.94,-0.03,30.57
9969,0.3264,-0.0225,0.8666,-6.85,7.92,-0.05,30.55
9979,0.3289,-0.0245,0.8655,-6.7,8.02,0.05,30.56
9989,0.3308,-0.0234,0.8661,-6.7,7.98,-0.06,30.55
9999,0.329,-0.028,0.8655,-6.75,7.97,-0.06,30.58
10009,0.3278,-0.0258,0.8622,-6.75,7.92,-0.02,30.57
10019,0.329,-0.0265,0.8651,-6.81,7.86,0.0,30.57
10029,0.3296,-0.0258,0.8687,-6.7,7.91,-0.09,30.56
10039,0.3279,-0.0255,0.8646,-6.81,8.0,0.0,30.58
10049,0.3282,-0.0251,0.8634,-6.76,7.97,-0.05,30.56
10059,0.3263,-0.0288,0.8673,-6.73,7.91,-0.03,30.58
10069,0.3271,-0.0259,0.8658,-6.75,8.0,-0.03,30.55
10079,0.3296,-0.025,0.8667,-6.84,8.02,-0.02,30.56
10089,0.3296,-0.0281,0.8656,-6.73,8.05,0.02,30.54
10099,0.3259,-0.0277,0.8685,-6.78,7.94,-0.02,30.55
10109,0.326,-0.0249,0.8638,-6.75,7.95,-0.05,30.54
10119,0.3282,-0.0266,0.8647,-6.76,7.95,-0.08,30.58
10129,0.3287,-0.0267,0.8656,-6.85,8.02,-0.03,30.56
10139,0.3264,-0.0243,0.8663,-6.81,7.95,-0.12,30.54
10149,0.3268,-0.0258,0.8658,-6.79,7.92,-0.05,30.56
10159,0.3263,-0.0269,0.8639,-6.72,7.98,0.05,30.58
10169,0.3273,-0.025,0.8654,-6.67,8.06,-0.03,30.56
10179,0.3292,-0.0256,0.865,-6.72,8.03,0.05,30.55
10189,0.326,-0.026,0.8627,-6.78,8.0,0.05,30.59
10199,0.3263,-0.0262,0.8619,-6.82,7.98,-0.08,30.57
10209,0.3296,-0.0251,0.868,-6.78,7.94,-0.09,30.57
10219,0.3278,-0.0238,0.8683,-6.7,7.95,0.02,30.57
10229,0.3258,-0.0226,0.8662,-6.79,7.95,-0.09,30.55
10239,0.3267,-0.0271,0.8649,-6.75,8.06,0.0,30.53
10249,0.328,-0.0271,0.8638,-6.76,8.02,-0.05,30.57
10259,0.3285,-0.0284,0.8701,-6.69,7.98,0.0,30.59
10269,0.3296,-0.0275,0.8651,-6.84,7.95,0.05,30.58
10279,0.3273,-0.0255,0.8649,-6.82,7.88,0.0,30.53
10289,0.3286,-0.0264,0.8667,-6.78,7.88,-0.03,30.57
10299,0.3322,-0.0239,0.8627,-6.7,7.92,-0.06,30.55
10309,0.3303,-0.0239,0.8661,-6.81,7.94,0.0,30.57
10319,0.3254,-0.0245,0.8687,-6.76,7.97,0.0,30.57
10329,0.3256,-0.026,0.869,-6.85,8.0,0.0,30.56
10339,0.3306,-0.0278,0.866,-6.87,8.03,-0.08,30.57
10349,0.3269,-0.027,0.8657,-6.79,7.94,0.0,30.56
10359,0.3258,-0.0247,0.8646,-6.72,7.98,-0.03,30.55
10369,0.3275,-0.0231,0.8667,-6.76,7.97,0.02,30.56
10379,0.3246,-0.025,0.8638,-6.82,7.95,-0.02,30.55
10389,0.3282,-0.0276,0.8615,-6.82,7.97,-0.05,30.57
10399,0.3279,-0.0228,0.866,-6.7,7.94,-0.05,30.54
10409,0.3279,-0.027,0.8657,-6.76,7.95,-0.03,30.56
10419,0.3287,-0.0247,0.8682,-6.82,7.91,-0.05,30.54
10429,0.3265,-0.0259,0.8671,-6.84,7.95,-0.09,30.55
10439,0.3296,-0.0266,0.868,-6.76,7.94,0.0,30.56
10449,0.3307,-0.0273,0.866,-6.85,7.92,-0.06,30.57
10459,0.3322,-0.0262,0.8667,-6.76,7.95,-0.09,30.58
10469,0.3263,-0.025,0.868,-6.76,8.06,-0.09,30.57
10479,0.3268,-0.0249,0.866,-6.73,8.02,-0.05,30.55
10489,0.3259,-0.0245,0.8654,-6.73,7.92,0.05,30.54
10499,0.3279,-0.0249,0.863,-6.78,8.0,-0.02,30.57
10509,0.3301,-0.0254,0.866,-6.64,7.94,-0.03,30.57
10519,0.3292,-0.0242,0.8674,-6.73,7.91,-0.03,30.56
10529,0.3296,-0.0239,0.8671,-6.79,7.97,-0.08,30.56
10539,0.3263,-0.0256,0.8647,-6.81,8.05,-0.06,30.59
10549,0.327,-0.0264,0.8663,-6.7,7.95,-0.09,30.57
10559,0.3278,-0.0254,0.865,-6.85,8.02,-0.06,30.58
10569,0.3263,-0.0269,0.8634,-6.79,8.02,0.06,30.56
10579,0.3293,-0.0239,0.863,-6.79,7.89,-0.06,30.57
10589,0.3307,-0.0248,0.8658,-6.78,8.0,-0.11,30.57
10599,0.3268,-0.0242,0.8641,-6.75,7.95,-0.11,30.59
10609,0.327,-0.0248,0.8678,-6.79,8.0,-0.11,30.57
10619,0.3276,-0.0256,0.8644,-6.76,7.95,-0.06,30.58
10629,0.3258,-0.0254,0.8665,-6.81,7.94,-0.06,30.58
10639,0.3274,-0.0249,0.8682,-6.72,7.95,0.02,30.58
10649,0.3284,-0.0259,0.8639,-6.67,7.94,0.0,30.58
10659,0.3286,-0.025,0.8689,-6.79,7.91,-0.05,30.57
10669,0.3254,-0.0266,0.8654,-6.66,7.97,0.02,30.57
10679,0.3252,-0.0243,0.8622,-6.72,7.98,-0.02,30.58
10689,0.329,-0.0254,0.8628,-6.81,7.83,0.0,30.56
10699,0.3312,-0.0258,0.8661,-6.72,7.98,-0.06,30.59
10709,0.3312,-0.0283,0.8662,-6.82,7.98,-0.03,30.6
10719,0.3298,-0.0262,0.8632,-6.76,7.97,0.05,30.58
10729,0.3291,-0.0234,0.8624,-6.79,7.94,0.0,30.57
10739,0.3304,-0.0253,0.8667,-6.76,7.92,-0.05,30.59
10749,0.3268,-0.026,0.8619,-6.82,7.97,-0.05,30.58
10759,0.3287,-0.0253,0.8633,-6.66,8.05,0.0,30.59
10769,0.3291,-0.0251,0.8655,-6.81,7.98,0.03,30.58
10779,0.3251,-0.0259,0.8661,-6.78,8.02,-0.05,30.59
10789,0.3286,-0.0261,0.868,-6.72,7.92,-0.05,30.56
10799,0.328,-0.0253,0.8657,-6.76,7.98,-0.03,30.58
10809,0.3279,-0.0265,0.8674,-6.64,7.95,-0.05,30.58
10819,0.3306,-0.0249,0.8663,-6.78,8.03,0.02,30.58
10829,0.3293,-0.0256,0.8665,-6.87,7.95,0.06,30.59
10839,0.3287,-0.025,0.8622,-6.72,7.97,-0.09,30.59
10849,0.3286,-0.0271,0.8649,-6.82,7.89,-0.08,30.57
10859,0.3273,-0.0254,0.8654,-6.82,7.92,-0.06,30.58
10869,0.3275,-0.0262,0.8633,-6.84,7.92,0.0,30.57
10879,0.3278,-0.0264,0.8639,-6.79,7.92,-0.05,30.58
10889,0.3269,-0.0267,0.8643,-6.92,7.95,0.0,30.57
10899,0.3267,-0.0277,0.8652,-6.69,7.89,-0.06,30.59
10909,0.3276,-0.0232,0.8636,-6.85,7.94,-0.05,30.59
10919,0.3262,-0.025,0.8634,-6.82,7.92,-0.11,30.6
10929,0.3289,-0.0283,0.8654,-6.76,7.94,-0.11,30.59
10939,0.328,-0.0254,0.8633,-6.81,7.94,0.05,30.59
10949,0.3263,-0.0236,0.8645,-6.78,7.98,-0.02,30.6
10959,0.3262,-0.0283,0.8677,-6.73,7.88,0.03,30.6
10969,0.3304,-0.0283,0.866,-6.78,7.94,0.0,30.57
10979,0.33,-0.0248,0.8666,-6.72,7.82,0.0,30.59
10989,0.3279,-0.0251,0.8655,-6.72,7.88,-0.02,30.6
10999,0.3312,-0.0244,0.8656,-6.7,8.02,-0.08,30.59
11009,0.3289,-0.0247,0.8658,-6.73,7.97,-0.06,30.58
11019,0.3276,-0.0243,0.8643,-6.79,7.91,-0.05,30.59
11029,0.3306,-0.0229,0.8657,-6.9,7.94,-0.03,30.59
11039,0.3276,-0.0264,0.8644,-6.81,8.0,0.03,30.59
11049,0.3298,-0.032,0.8636,-6.76,8.03,-0.02,30.59
11059,0.3282,-0.0306,0.8635,-6.69,7.91,0.0,30.58
11069,0.3334,-0.0291,0.8569,-6.73,7.74,-0.03,30.58
11079,0.3253,-0.0251,0.8657,-6.7,7.92,-0.05,30.56
11089,0.3262,-0.0205,0.8655,-6.78,7.98,-0.12,30.6
11099,0.3258,-0.0187,0.8665,-6.79,8.09,0.03,30.61
11109,0.3267,-0.0199,0.8661,-6.72,8.0,-0.05,30.57
11119,0.3284,-0.0229,0.8624,-6.87,7.89,-0.08,30.59
11129,0.326,-0.0276,0.865,-6.81,7.94,-0.03,30.6
11139,0.3339,-0.0304,0.8638,-6.63,7.97,0.0,30.59
11149,0.3335,-0.0267,0.8611,-6.73,7.98,-0.02,30.57
11159,0.334,-0.0288,0.8698,-6.72,7.98,0.03,30.58
11169,0.3337,-0.0304,0.868,-6.7,8.09,-0.02,30.59
11179,0.321,-0.021,0.8616,-6.79,7.92,-0.05,30.57
11189,0.3148,-0.0237,0.8639,-6.79,7.85,0.02,30.59
11199,0.3237,-0.0259,0.8553,-6.7,7.85,0.02,30.59
11209,0.3262,-0.0214,0.8658,-6.64,7.83,0.06,30.6
11219,0.3297,-0.0195,0.87,-6.78,7.83,-0.12,30.57
11229,0.3289,-0.0195,0.8787,-6.87,8.03,-0.08,30.62
11239,0.3334,-0.0234,0.8739,-6.87,8.02,-0.08,30.59
11249,0.3291,-0.0256,0.8707,-6.78,8.02,-0.11,30.59
11259,0.3295,-0.026,0.8682,-6.67,8.06,-0.11,30.58
11269,0.3248,-0.0239,0.8612,-6.78,8.09,-0.02,30.59
11279,0.327,-0.0309,0.859,-6.84,7.97,-0.08,30.59
11289,0.3271,-0.0295,0.8586,-6.84,8.03,0.03,30.6
11299,0.3263,-0.0222,0.8628,-6.67,7.98,-0.05,30.59
11309,0.324,-0.0192,0.8649,-6.7,7.95,-0.05,30.6
11319,0.3289,-0.0222,0.8761,-6.85,7.97,-0.06,30.6
11329,0.3297,-0.024,0.8687,-6.81,7.98,0.03,30.6
11339,0.3325,-0.0259,0.8718,-6.75,8.03,-0.08,30.59
11349,0.3304,-0.0247,0.8687,-6.79,7.98,-0.08,30.59
11359,0.3273,-0.0304,0.8652,-6.76,8.03,-0.03,30.6
11369,0.3282,-0.0299,0.8597,-6.73,7.95,0.03,30.57
11379,0.3269,-0.0303,0.8563,-6.67,7.94,-0.11,30.58
11389,0.325,-0.026,0.8585,-6.72,7.92,-0.03,30.58
11399,0.3262,-0.0233,0.8649,-6.75,7.98,-0.03,30.59
11409,0.3313,-0.0216,0.8706,-6.82,7.94,0.08,30.59
11419,0.3264,-0.0231,0.871,-6.87,8.05,0.0,30.61
11429,0.3292,-0.0255,0.8706,-6.73,7.95,-0.02,30.59
11439,0.3256,-0.0261,0.8683,-6.75,8.02,0.03,30.59
11449,0.3279,-0.0288,0.8682,-6.79,7.97,-0.05,30.6
11459,0.3278,-0.0284,0.8661,-6.81,8.0,0.03,30.58
11469,0.3298,-0.0282,0.8577,-6.69,8.03,0.0,30.59
11479,0.3276,-0.0275,0.8596,-6.7,8.02,-0.09,30.59
11489,0.3273,-0.0226,0.8601,-6.85,7.91,0.02,30.6
11499,0.3273,-0.0225,0.8661,-6.76,7.97,0.0,30.6
11509,0.328,-0.0228,0.8695,-6.82,8.06,-0.08,30.6
11519,0.3282,-0.0201,0.8656,-6.76,7.95,-0.02,30.6
11529,0.3293,-0.0271,0.869,-6.75,8.0,-0.08,30.61
11539,0.3269,-0.0247,0.8689,-6.92,7.94,0.0,30.58
11549,0.3269,-0.0266,0.8657,-6.81,7.91,-0.06,30.6
11559,0.3303,-0.0303,0.8611,-6.81,7.91,0.03,30.6
11569,0.3274,-0.028,0.8632,-6.84,7.94,-0.03,30.61
11579,0.326,-0.0232,0.8638,-6.72,7.97,-0.05,30.59
11589,0.3284,-0.0234,0.8643,-6.82,7.94,-0.02,30.59
11599,0.3267,-0.0211,0.866,-6.9,7.88,-0.05,30.6
11609,0.3282,-0.0245,0.8654,-6.79,8.0,0.03,30.58
11619,0.3296,-0.0227,0.8693,-6.78,8.05,-0.17,30.59
11629,0.3291,-0.0236,0.8682,-6.73,7.92,-0.06,30.58
11640,0.3278,-0.0254,0.866,-6.72,8.05,-0.05,30.62
11650,0.327,-0.0282,0.863,-6.75,8.02,-0.06,30.59
11660,0.3312,-0.025,0.8634,-6.76,7.97,0.02,30.62
11670,0.3274,-0.0264,0.8645,-6.79,7.91,0.03,30.59
11680,0.3307,-0.0258,0.8599,-6.7,7.92,0.0,30.6
11690,0.3285,-0.0254,0.864,-6.73,7.91,-0.02,30.59
11700,0.3273,-0.0233,0.8679,-6.79,7.95,-0.05,30.6
11710,0.325,-0.026,0.8646,-6.89,7.92,-0.06,30.6
11720,0.328,-0.0232,0.8682,-6.85,7.95,-0.05,30.58
11730,0.3273,-0.0256,0.8649,-6.76,8.0,-0.12,30.58
11740,0.3265,-0.0258,0.8627,-6.72,7.92,0.02,30.61
11750,0.3263,-0.0297,0.8628,-6.84,7.86,-0.03,30.61
11760,0.3275,-0.0286,0.8636,-6.67,7.94,0.0,30.6
11770,0.3298,-0.0272,0.8617,-6.81,8.0,-0.02,30.62
11780,0.33,-0.025,0.8671,-6.78,7.94,0.02,30.6
11790,0.3307,-0.0215,0.8641,-6.64,7.95,-0.08,30.58
11800,0.3281,-0.0231,0.8644,-6.78,7.95,-0.02,30.59
11810,0.3279,-0.0258,0.8672,-6.73,8.0,-0.06,30.57
11820,0.3265,-0.0251,0.8678,-6.76,8.02,-0.02,30.58
11830,0.3271,-0.0261,0.8649,-6.84,7.97,-0.18,30.59
11840,0.3264,-0.0255,0.8646,-6.79,8.02,0.0,30.57
11850,0.3273,-0.0278,0.8651,-6.78,7.98,-0.05,30.61
11860,0.329,-0.0282,0.8658,-6.76,7.95,-0.02,30.58
11870,0.326,-0.0267,0.8693,-6.78,7.95,-0.03,30.59
11880,0.3281,-0.0226,0.8666,-6.72,7.89,-0.03,30.61
11890,0.3276,-0.0214,0.8658,-6.76,7.97,-0.12,30.59
11900,0.3292,-0.0244,0.8668,-6.78,7.95,-0.06,30.58
11910,0.3274,-0.0242,0.8622,-6.81,7.97,0.0,30.59
11920,0.3286,-0.0266,0.8625,-6.73,7.94,-0.03,30.58
11930,0.3289,-0.0254,0.8638,-6.72,8.0,-0.06,30.57
11940,0.3282,-0.0271,0.8634,-6.79,7.94,-0.09,30.58
11950,0.3278,-0.0293,0.8691,-6.67,7.89,-0.05,30.6
11960,0.3289,-0.0245,0.8654,-6.78,8.03,-0.02,30.6
11970,0.3276,-0.027,0.869,-6.69,8.05,0.03,30.59
11981,0.3273,-0.0212,0.8662,-6.76,8.0,-0.08,30.6
11991,0.328,-0.0238,0.865,-6.73,7.94,-0.02,30.6
12001,0.3274,-0.0236,0.8662,-6.78,7.98,0.0,30.6
12011,0.3247,-0.0266,0.8645,-6.73,8.03,-0.05,30.59
12021,0.3243,-0.03,0.8657,-6.72,8.0,-0.03,30.62
12031,0.3271,-0.0289,0.8644,-6.84,7.98,-0.09,30.59
12041,0.3285,-0.0272,0.8621,-6.78,7.97,0.02,30.6
12051,0.3265,-0.0281,0.8658,-6.73,7.94,-0.05,30.57
12061,0.328,-0.0253,0.8666,-6.82,7.85,-0.08,30.63
12071,0.3285,-0.0254,0.8657,-6.78,7.92,-0.03,30.61
12081,0.3295,-0.0254,0.8625,-6.79,7.95,0.02,30.6
12091,0.3252,-0.0217,0.8632,-6.78,7.86,0.03,30.61
12101,0.3258,-0.0266,0.8662,-6.79,7.95,-0.05,30.62
12111,0.3284,-0.0255,0.8665,-6.84,8.03,0.0,30.6
12121,0.3282,-0.026,0.8618,-6.82,7.97,0.02,30.57
12131,0.3279,-0.0269,0.8666,-6.69,7.83,0.0,30.61
12141,0.3304,-0.0277,0.8639,-6.72,7.95,-0.05,30.61
12151,0.3267,-0.0245,0.8683,-6.82,7.98,-0.02,30.58
12161,0.3292,-0.0245,0.866,-6.76,7.98,0.06,30.6
12171,0.3279,-0.025,0.8636,-6.81,8.02,-0.08,30.61
12181,0.3258,-0.0228,0.8618,-6.75,7.95,0.03,30.61
12191,0.3291,-0.0264,0.8636,-6.85,7.91,-0.06,30.59
12201,0.3281,-0.0242,0.8663,-6.76,7.98,0.03,30.6
12211,0.3263,-0.027,0.8673,-6.78,7.98,0.0,30.61
12221,0.3279,-0.0264,0.8629,-6.76,7.94,-0.06,30.62
12231,0.3295,-0.0287,0.8624,-6.85,7.98,-0.06,30.61
12241,0.3291,-0.0256,0.8651,-6.79,7.94,0.05,30.6
12251,0.3289,-0.0256,0.8673,-6.81,7.94,0.0,30.6
12261,0.3281,-0.0265,0.8641,-6.73,8.03,-0.12,30.58
12271,0.3273,-0.0238,0.8662,-6.79,7.97,0.0,30.6
12281,0.3281,-0.0289,0.8627,-6.79,7.98,-0.08,30.62
12291,0.3262,-0.026,0.8655,-6.81,7.94,-0.02,30.6
12301,0.3265,-0.0269,0.8652,-6.72,8.0,0.02,30.59
12311,0.3278,-0.0254,0.8636,-6.72,7.94,0.03,30.59
12321,0.3279,-0.0261,0.8679,-6.66,7.95,-0.06,30.61
12331,0.3292,-0.0226,0.8617,-6.76,7.95,-0.11,30.61
12341,0.3281,-0.0232,0.8646,-6.73,7.88,0.03,30.59
12351,0.3275,-0.0264,0.8655,-6.75,7.94,-0.02,30.59
12361,0.3284,-0.0259,0.8622,-6.79,8.0,-0.06,30.6
12371,0.3287,-0.0249,0.8666,-6.76,7.95,0.02,30.61
12381,0.328,-0.0236,0.8634,-6.78,8.02,-0.02,30.58
12391,0.3287,-0.0248,0.8627,-6.79,8.02,0.02,30.57
12401,0.3268,-0.0287,0.8655,-6.75,7.94,-0.11,30.57
12411,0.3234,-0.0254,0.8685,-6.75,7.92,-0.02,30.59
12421,0.327,-0.0277,0.8684,-6.73,7.94,-0.02,30.59
12431,0.3264,-0.0232,0.8628,-6.73,7.95,-0.09,30.59
12441,0.3263,-0.0234,0.8688,-6.76,7.98,-0.08,30.63
12451,0.328,-0.0228,0.8638,-6.76,7.98,-0.09,30.62
12461,0.3257,-0.025,0.8646,-6.81,7.97,-0.05,30.6
12471,0.3302,-0.026,0.8668,-6.79,7.92,-0.02,30.61
12481,0.3287,-0.0245,0.869,-6.61,7.89,-0.03,30.6
12491,0.3256,-0.0236,0.8676,-6.75,7.95,0.02,30.59
12501,0.3257,-0.0272,0.8632,-6.78,8.02,0.0,30.59
12511,0.3281,-0.0242,0.8651,-6.7,7.97,-0.06,30.59
12521,0.3252,-0.024,0.8657,-6.85,7.92,0.0,30.6
12531,0.3259,-0.0249,0.8627,-6.81,8.0,0.0,30.61
12541,0.3286,-0.0236,0.8657,-6.78,7.89,0.02,30.62
12551,0.3247,-0.0275,0.8663,-6.72,7.95,-0.02,30.62
12561,0.3254,-0.0256,0.8669,-6.72,7.98,0.06,30.57
12571,0.3282,-0.027,0.8604,-6.81,8.02,-0.05,30.59
12581,0.3274,-0.0276,0.8644,-6.75,7.98,-0.08,30.6
12591,0.3298,-0.025,0.8613,-6.84,7.92,-0.03,30.58
12601,0.3287,-0.026,0.8629,-6.82,7.94,-0.12,30.59
12611,0.3263,-0.0243,0.8623,-6.87,7.97,0.02,30.59
12621,0.3286,-0.0287,0.8599,-6.81,7.95,-0.03,30.6
12631,0.3287,-0.0277,0.8633,-6.75,7.86,0.05,30.63
12641,0.3291,-0.026,0.8657,-6.75,7.94,0.0,30.6
12651,0.3302,-0.0255,0.8673,-6.78,8.0,-0.02,30.59
12661,0.3265,-0.0298,0.8645,-6.81,8.02,0.0,30.62
12671,0.3279,-0.0266,0.8647,-6.79,7.97,-0.02,30.61
12681,0.327,-0.0262,0.8651,-6.72,8.0,-0.03,30.6
12691,0.3275,-0.0255,0.8661,-6.82,7.94,0.0,30.6
12701,0.3286,-0.0255,0.8625,-6.76,8.02,-0.09,30.6
12711,0.3265,-0.0258,0.8667,-6.73,7.97,-0.03,30.6
12721,0.3285,-0.0253,0.8663,-6.72,7.89,-0.03,30.62
12731,0.3298,-0.0254,0.8651,-6.75,7.89,-0.02,30.59
12741,0.3253,-0.0255,0.8672,-6.79,7.95,-0.05,30.59
12751,0.3273,-0.0248,0.8604,-6.76,7.97,-0.03,30.61
12761,0.328,-0.0273,0.8673,-6.7,8.03,-0.11,30.62
12771,0.329,-0.0259,0.8655,-6.79,8.0,0.0,30.62
12781,0.328,-0.0242,0.8661,-6.76,8.0,-0.08,30.62
12791,0.3304,-0.0258,0.8616,-6.82,8.0,0.03,30.62
12801,0.3248,-0.0262,0.8616,-6.78,7.97,-0.05,30.6
12811,0.3251,-0.0266,0.8633,-6.78,7.97,0.02,30.61
12821,0.329,-0.024,0.8666,-6.79,7.97,0.06,30.62
12831,0.3257,-0.0261,0.8693,-6.76,7.88,0.05,30.62
12841,0.3271,-0.0261,0.8634,-6.67,8.0,-0.06,30.59
12851,0.3268,-0.028,0.8673,-6.82,8.02,-0.08,30.58
12861,0.3268,-0.0275,0.8661,-6.7,8.0,-0.02,30.59
12871,0.3301,-0.0282,0.8663,-6.75,7.97,-0.02,30.6
12881,0.3259,-0.0233,0.8633,-6.69,7.98,0.02,30.61
12891,0.3274,-0.0244,0.8673,-6.85,7.95,0.02,30.62
12901,0.3295,-0.0258,0.8699,-6.75,7.97,0.03,30.62
12911,0.3258,-0.0243,0.8638,-6.78,7.98,0.05,30.59
12921,0.3267,-0.0264,0.8645,-6.79,7.86,-0.05,30.61
12931,0.3295,-0.0221,0.866,-6.81,7.98,-0.05,30.59
12941,0.328,-0.0251,0.8677,-6.76,8.0,0.05,30.61
12951,0.3295,-0.0243,0.8649,-6.79,7.94,-0.05,30.57
12961,0.3269,-0.0253,0.8667,-6.72,8.03,-0.06,30.61
12971,0.3315,-0.025,0.8632,-6.82,8.0,-0.12,30.61
12981,0.3285,-0.0267,0.8639,-6.75,7.95,0.12,30.62
12991,0.3273,-0.0262,0.8688,-6.67,7.95,-0.06,30.61
13001,0.3284,-0.0238,0.8652,-6.75,7.92,0.02,30.59
13011,0.3295,-0.0243,0.8656,-6.69,8.0,-0.06,30.62
13021,0.3278,-0.0262,0.8677,-6.79,7.95,-0.09,30.6
13031,0.3296,-0.0261,0.8652,-6.67,7.95,-0.02,30.62
13041,0.3268,-0.0237,0.8665,-6.76,7.92,0.05,30.59
13051,0.3264,-0.0278,0.8669,-6.78,8.06,0.05,30.57
13061,0.3253,-0.0249,0.8674,-6.82,7.89,0.03,30.59
13071,0.3258,-0.0238,0.8682,-6.78,7.98,-0.05,30.6
13081,0.3267,-0.0238,0.8656,-6.75,7.94,-0.09,30.58
13091,0.3286,-0.0288,0.8634,-6.78,7.95,-0.05,30.59
13101,0.3291,-0.0251,0.8639,-6.81,7.95,-0.11,30.59
13111,0.3304,-0.0243,0.8688,-6.7,7.94,-0.05,30.58
13121,0.327,-0.0254,0.8656,-6.64,7.97,-0.02,30.61
13131,0.3258,-0.0244,0.8676,-6.72,7.91,0.03,30.58
13142,0.3254,-0.0242,0.8647,-6.78,7.95,-0.03,30.6
13152,0.3285,-0.0249,0.8646,-6.7,7.97,-0.03,30.6
13162,0.3296,-0.0254,0.8673,-6.69,7.95,-0.05,30.61
13172,0.3285,-0.0248,0.8687,-6.72,7.95,0.02,30.59
13182,0.329,-0.0269,0.8647,-6.7,7.91,0.02,30.6
13192,0.3275,-0.0232,0.8671,-6.7,7.95,-0.03,30.57
13202,0.3267,-0.0273,0.8684,-6.76,7.98,-0.03,30.59
13212,0.3251,-0.024,0.864,-6.78,7.94,-0.03,30.6
13222,0.33,-0.0266,0.8666,-6.82,7.98,-0.02,30.61
13232,0.3274,-0.0223,0.8636,-6.81,7.89,0.02,30.59
13242,0.3234,-0.0287,0.8644,-6.78,7.98,-0.06,30.61
13252,0.3251,-0.0254,0.8683,-6.72,8.0,-0.08,30.63
13262,0.327,-0.0234,0.8698,-6.7,7.95,-0.11,30.6
13272,0.327,-0.0255,0.8663,-6.7,7.97,-0.03,30.62
13282,0.3271,-0.0258,0.8652,-6.75,7.95,-0.06,30.57
13292,0.3281,-0.0253,0.859,-6.81,8.03,0.05,30.62
13302,0.3275,-0.0248,0.8657,-6.75,7.98,-0.06,30.59
13312,0.3271,-0.0233,0.8651,-6.78,7.98,-0.05,30.59
13322,0.3273,-0.0266,0.8624,-6.87,7.92,-0.12,30.62
13332,0.3289,-0.0267,0.8651,-6.87,8.02,0.0,30.61
13343,0.3287,-0.0271,0.8638,-6.79,7.97,0.0,30.6
13353,0.3269,-0.0234,0.8687,-6.79,7.98,-0.02,30.59
13363,0.3269,-0.0227,0.8613,-6.79,8.0,-0.08,30.62
13373,0.3281,-0.0251,0.8669,-6.76,7.92,-0.06,30.61
13383,0.327,-0.0249,0.8669,-6.75,7.92,-0.02,30.62
13393,0.3271,-0.0277,0.8662,-6.78,8.0,-0.06,30.61
13403,0.3262,-0.0265,0.8689,-6.76,8.02,-0.02,30.59
13413,0.3297,-0.0271,0.8678,-6.76,8.02,-0.05,30.6
13423,0.3264,-0.0249,0.8632,-6.79,7.98,-0.05,30.6
13433,0.3268,-0.0234,0.8654,-6.69,7.89,-0.03,30.59
13443,0.3289,-0.0243,0.8655,-6.76,8.05,0.02,30.6
13453,0.3256,-0.0225,0.8647,-6.81,8.0,-0.05,30.58
13463,0.3306,-0.0271,0.8663,-6.7,7.98,-0.02,30.62
13473,0.3262,-0.0289,0.8623,-6.78,7.94,-0.05,30.6
13483,0.3285,-0.0245,0.8634,-6.81,7.94,-0.02,30.61
13493,0.3286,-0.0243,0.8639,-6.76,7.94,-0.08,30.58
13503,0.33,-0.0258,0.8645,-6.79,7.91,-0.02,30.61
13513,0.326,-0.0267,0.8641,-6.84,7.98,-0.05,30.6
13523,0.3269,-0.0275,0.8645,-6.7,7.98,-0.05,30.64
13533,0.3284,-0.0248,0.8662,-6.73,7.94,-0.05,30.61
13543,0.3269,-0.0262,0.8643,-6.69,7.94,-0.05,30.62
13553,0.3274,-0.0269,0.865,-6.76,8.0,-0.11,30.6
13563,0.3269,-0.0273,0.8635,-6.79,7.91,-0.02,30.61
13573,0.3273,-0.0287,0.8641,-6.73,7.88,-0.12,30.62
13583,0.3263,-0.0245,0.8679,-6.79,8.02,0.0,30.6
13593,0.3226,-0.0275,0.8618,-6.82,8.06,0.05,30.63
13603,0.3257,-0.0256,0.8654,-6.81,7.95,-0.08,30.61
13613,0.3241,-0.0258,0.8668,-6.81,8.0,-0.05,30.62
13623,0.3256,-0.027,0.8658,-6.82,8.02,-0.17,30.59
13633,0.3282,-0.0283,0.865,-6.76,7.89,-0.11,30.6
13643,0.3275,-0.0237,0.8682,-6.73,7.97,0.03,30.59
13653,0.3262,-0.0276,0.8661,-6.75,7.98,0.06,30.62
13663,0.3296,-0.0244,0.8625,-6.76,7.94,-0.02,30.6
13673,0.3269,-0.0231,0.8639,-6.78,7.98,-0.06,30.61
13683,0.3295,-0.0239,0.8688,-6.78,7.97,-0.05,30.61
13693,0.3274,-0.0266,0.8663,-6.73,7.94,0.0,30.59
13703,0.3295,-0.0244,0.8694,-6.81,7.95,-0.08,30.61
13713,0.3276,-0.024,0.8649,-6.75,7.94,0.0,30.59
13723,0.3286,-0.022,0.8632,-6.75,8.02,-0.06,30.6
13733,0.3285,-0.0262,0.8651,-6.81,7.95,0.0,30.59
13743,0.3281,-0.0269,0.864,-6.67,8.05,-0.05,30.62
13753,0.325,-0.0228,0.8624,-6.75,7.94,-0.05,30.64
13763,0.3254,-0.0264,0.8644,-6.72,7.94,-0.05,30.61
13773,0.3286,-0.027,0.8668,-6.82,7.95,-0.12,30.63
13783,0.3287,-0.0247,0.8644,-6.63,7.91,-0.02,30.61
13793,0.3273,-0.0245,0.865,-6.72,7.86,-0.08,30.63
13803,0.328,-0.0272,0.8682,-6.78,7.94,0.0,30.61
13813,0.3274,-0.0227,0.865,-6.7,7.95,-0.05,30.6
13823,0.3265,-0.0254,0.8633,-6.73,8.0,-0.05,30.63
13833,0.3268,-0.0283,0.8633,-6.67,7.94,-0.05,30.61
13843,0.3275,-0.0256,0.866,-6.78,7.94,0.05,30.62
13853,0.3292,-0.0258,0.8669,-6.76,7.97,-0.06,30.61
13863,0.3282,-0.0251,0.8621,-6.78,7.95,-0.03,30.61
13873,0.3274,-0.0248,0.8655,-6.82,8.08,-0.09,30.62
13883,0.3264,-0.0239,0.866,-6.89,8.0,-0.03,30.6
13893,0.3263,-0.0266,0.865,-6.73,8.02,-0.03,30.63
13903,0.3279,-0.0259,0.8619,-6.79,8.0,-0.03,30.62
13913,0.3306,-0.0271,0.8658,-6.72,7.94,-0.11,30.64
13923,0.3287,-0.0277,0.8641,-6.78,8.0,-0.12,30.63
13933,0.3256,-0.0264,0.8654,-6.7,8.06,-0.06,30.61
13943,0.3293,-0.0281,0.8687,-6.76,8.05,-0.03,30.61
13953,0.3276,-0.0286,0.8656,-6.69,7.94,-0.06,30.62
13963,0.3291,-0.0245,0.8643,-6.76,7.91,0.05,30.61
13973,0.3268,-0.0253,0.8635,-6.79,7.98,0.03,30.61
13983,0.3245,-0.0259,0.8656,-6.67,7.91,-0.03,30.61
13993,0.3275,-0.0272,0.8661,-6.75,7.89,-0.08,30.63
14003,0.3257,-0.0265,0.8655,-6.76,8.0,-0.08,30.61
14013,0.329,-0.027,0.863,-6.81,7.97,0.0,30.61
14023,0.3251,-0.0237,0.8672,-6.79,7.94,0.05,30.62
14033,0.3291,-0.0261,0.8671,-6.78,7.95,0.0,30.62
14043,0.3273,-0.0251,0.8689,-6.78,8.05,-0.03,30.6
14053,0.3276,-0.0255,0.8667,-6.79,7.91,-0.05,30.62
14063,0.3285,-0.0233,0.8645,-6.82,7.98,-0.09,30.62
14073,0.325,-0.0247,0.8628,-6.76,7.98,0.09,30.65
14083,0.3279,-0.0238,0.8657,-6.84,7.91,0.0,30.61
14093,0.3278,-0.0264,0.8696,-6.76,7.98,0.02,30.63
14103,0.3268,-0.0271,0.8683,-6.69,7.95,-0.06,30.61
14113,0.3287,-0.0262,0.8688,-6.66,8.0,-0.05,30.64
14123,0.3253,-0.0239,0.8644,-6.79,7.88,0.0,30.63
14133,0.3254,-0.0254,0.8665,-6.84,7.94,0.03,30.59
14143,0.3287,-0.0234,0.8616,-6.89,7.98,-0.05,30.65
14153,0.3274,-0.0239,0.8615,-6.81,7.97,-0.05,30.62
14163,0.3267,-0.0271,0.8617,-6.75,7.91,-0.05,30.59
14173,0.3264,-0.0245,0.8666,-6.75,7.97,-0.06,30.63
14183,0.3282,-0.0291,0.8673,-6.85,7.95,-0.06,30.64
14193,0.3279,-0.0255,0.8628,-6.76,7.98,0.03,30.61
14203,0.3268,-0.0233,0.8677,-6.76,7.88,0.02,30.62
14213,0.3313,-0.024,0.865,-6.81,7.95,-0.05,30.61
14223,0.3263,-0.0248,0.8661,-6.78,7.91,0.0,30.62
14233,0.3286,-0.0225,0.8647,-6.72,7.89,-0.05,30.62
14243,0.3284,-0.0272,0.8687,-6.81,7.91,-0.09,30.62
14253,0.3301,-0.0245,0.8673,-6.79,7.95,-0.06,30.61
14263,0.3275,-0.0243,0.8672,-6.78,8.0,-0.05,30.63
14273,0.3273,-0.0262,0.8656,-6.79,7.94,0.02,30.63
14283,0.3253,-0.0278,0.8628,-6.78,7.91,-0.06,30.63
14293,0.326,-0.0256,0.8647,-6.72,7.92,0.02,30.6
14303,0.3273,-0.0251,0.8628,-6.75,7.94,0.02,30.62
14313,0.3293,-0.0258,0.868,-6.7,7.94,-0.02,30.61
14323,0.3262,-0.0271,0.861,-6.72,7.97,-0.08,30.59
14333,0.33,-0.0284,0.8627,-6.75,8.0,0.02,30.62
14343,0.3286,-0.0282,0.8639,-6.75,8.0,-0.05,30.6
14353,0.3282,-0.0281,0.8639,-6.87,7.97,-0.05,30.6
14363,0.3293,-0.027,0.8649,-6.81,8.0,0.02,30.61
14373,0.3275,-0.0256,0.866,-6.75,8.02,-0.02,30.61
14383,0.326,-0.0226,0.8605,-6.82,7.91,-0.06,30.62
14393,0.3285,-0.0249,0.8633,-6.79,7.97,-0.02,30.61
14403,0.3276,-0.0228,0.8687,-6.67,7.92,-0.11,30.62
14413,0.3292,-0.0277,0.8665,-6.78,8.05,-0.06,30.62
14423,0.3262,-0.0278,0.8639,-6.78,7.85,0.02,30.61
14433,0.3269,-0.0256,0.8612,-6.69,7.92,-0.09,30.63
14443,0.3291,-0.0281,0.863,-6.81,7.92,-0.02,30.63
14453,0.3285,-0.0264,0.8655,-6.79,7.98,-0.05,30.6
14463,0.329,-0.0267,0.8651,-6.76,8.02,-0.08,30.64
14473,0.3269,-0.0262,0.8638,-6.76,7.92,0.0,30.64
14483,0.3262,-0.0236,0.8654,-6.81,7.94,-0.02,30.62
14493,0.3274,-0.0244,0.8654,-6.79,7.94,-0.12,30.64
14503,0.3289,-0.0243,0.8622,-6.7,7.88,-0.11,30.62
14513,0.3274,-0.027,0.8635,-6.76,7.92,0.05,30.61
14523,0.3284,-0.0266,0.8639,-6.81,8.11,-0.06,30.59
14533,0.3258,-0.0255,0.8643,-6.69,7.88,-0.11,30.64
14543,0.3282,-0.0258,0.8617,-6.73,7.88,-0.09,30.61
14553,0.3281,-0.0245,0.864,-6.78,8.02,-0.08,30.63
14563,0.3289,-0.027,0.8666,-6.89,7.95,-0.02,30.62
14573,0.3262,-0.0223,0.8672,-6.78,7.92,-0.06,30.61
14583,0.3282,-0.0255,0.8645,-6.69,7.92,-0.09,30.62
14593,0.3295,-0.0242,0.8676,-6.82,7.92,-0.06,30.61
14603,0.3279,-0.0261,0.868,-6.82,7.89,-0.09,30.6
14613,0.3274,-0.0245,0.866,-6.66,7.91,-0.03,30.6
14623,0.3293,-0.0276,0.869,-6.85,7.92,-0.02,30.58
14633,0.3304,-0.027,0.8673,-6.84,7.97,-0.08,30.6
14643,0.3254,-0.0265,0.8623,-6.75,7.98,-0.03,30.61
14653,0.3287,-0.0276,0.8666,-6.76,7.97,0.08,30.59
14663,0.3254,-0.0244,0.8645,-6.72,7.88,-0.02,30.6
14673,0.3293,-0.0245,0.8595,-6.75,7.91,0.02,30.61
14683,0.3263,-0.0203,0.8624,-6.84,7.92,0.02,30.61
14693,0.327,-0.0248,0.8682,-6.78,7.98,-0.06,30.62
14703,0.3267,-0.0249,0.8656,-6.81,8.0,0.0,30.63
14713,0.3281,-0.0222,0.8679,-6.76,7.91,-0.08,30.6
14723,0.3241,-0.0248,0.8665,-6.72,7.92,-0.02,30.6
14733,0.3254,-0.0255,0.8654,-6.69,7.92,-0.11,30.63
14743,0.3274,-0.0249,0.8644,-6.82,7.97,0.0,30.62
14753,0.3256,-0.0277,0.8649,-6.81,8.0,0.03,30.62
14763,0.3292,-0.0254,0.8707,-6.69,7.89,-0.06,30.62
14773,0.323,-0.0262,0.8672,-6.79,7.88,-0.05,30.63
14783,0.3278,-0.0277,0.8654,-6.75,7.95,-0.09,30.62
14793,0.3264,-0.0254,0.8639,-6.85,7.94,-0.06,30.6
14803,0.3301,-0.0256,0.8624,-6.73,7.92,0.0,30.62
14813,0.3284,-0.0216,0.8593,-6.81,7.95,0.0,30.63
14823,0.327,-0.0256,0.8663,-6.64,7.97,-0.03,30.62
14833,0.3256,-0.0255,0.8629,-6.79,8.02,-0.06,30.63
14843,0.3276,-0.026,0.8661,-6.81,7.98,-0.02,30.61
14853,0.3275,-0.0259,0.8676,-6.69,7.94,0.0,30.61
14863,0.328,-0.0271,0.8696,-6.82,7.92,0.0,30.59
14873,0.3278,-0.0291,0.865,-6.7,7.92,0.0,30.61
14883,0.3274,-0.0292,0.8666,-6.85,7.95,-0.03,30.62
14893,0.3264,-0.0226,0.8645,-6.67,7.94,-0.05,30.62
14903,0.3311,-0.0231,0.8678,-6.66,7.89,-0.11,30.62
14913,0.3273,-0.0258,0.8645,-6.78,7.91,-0.05,30.6
14923,0.3254,-0.028,0.8638,-6.78,7.98,-0.05,30.63
14933,0.3269,-0.0258,0.8647,-6.67,8.03,0.03,30.64
14943,0.3271,-0.0242,0.8674,-6.76,8.03,0.0,30.6
14953,0.3274,-0.0236,0.8657,-6.76,7.94,-0.05,30.62
14963,0.3298,-0.0245,0.8646,-6.81,7.97,0.0,30.64
14973,0.3295,-0.0273,0.8672,-6.72,7.95,-0.06,30.62
14983,0.3259,-0.0245,0.865,-6.79,7.94,0.03,30.65
14993,0.329,-0.0243,0.8669,-6.81,7.95,0.03,30.64
15003,0.3296,-0.0254,0.8604,-6.84,7.97,-0.08,30.62
15013,0.3264,-0.0245,0.8625,-6.76,7.89,0.02,30.64
15023,0.33,-0.0236,0.8625,-6.7,7.94,-0.05,30.62
15033,0.3276,-0.0245,0.8618,-6.67,7.97,-0.06,30.61
15043,0.3235,-0.0262,0.8652,-6.84,7.95,-0.03,30.62
15053,0.3252,-0.0253,0.8661,-6.81,7.91,-0.08,30.63
15063,0.3273,-0.0258,0.8696,-6.79,8.02,-0.06,30.63
15073,0.3307,-0.0229,0.8674,-6.81,7.95,0.0,30.64
15083,0.3281,-0.0243,0.8641,-6.84,8.0,-0.02,30.62
15093,0.3281,-0.0264,0.8632,-6.76,8.06,0.03,30.62
15103,0.3274,-0.0266,0.8639,-6.87,7.95,-0.06,30.61
15113,0.3308,-0.0248,0.8647,-6.7,7.94,0.02,30.6
15123,0.3295,-0.0232,0.865,-6.7,8.0,-0.03,30.62
15133,0.3284,-0.0234,0.8666,-6.73,7.97,-0.02,30.59
15143,0.329,-0.0226,0.8627,-6.67,8.0,-0.03,30.59
15153,0.3293,-0.0245,0.8645,-6.85,7.95,0.05,30.66
15163,0.3303,-0.0262,0.8638,-6.73,7.98,0.03,30.63
15173,0.3302,-0.0236,0.8639,-6.75,7.98,0.02,30.63
15183,0.3284,-0.0242,0.8654,-6.78,8.02,-0.05,30.63
15193,0.3276,-0.0245,0.8639,-6.73,7.94,0.02,30.62
15203,0.3292,-0.0282,0.8665,-6.66,7.94,-0.08,30.62
15213,0.3286,-0.0275,0.8641,-6.82,7.89,-0.09,30.62
15223,0.3285,-0.0247,0.8643,-6.78,7.92,-0.03,30.61
15233,0.3253,-0.0269,0.8669,-6.82,7.95,-0.03,30.6
15243,0.3271,-0.0264,0.8658,-6.76,7.97,-0.06,30.62
15253,0.3252,-0.0261,0.8649,-6.79,7.97,-0.08,30.62
15263,0.3284,-0.0253,0.8647,-6.75,8.03,-0.05,30.63
15273,0.3267,-0.0262,0.8629,-6.79,7.92,-0.11,30.63
15283,0.3302,-0.0251,0.8671,-6.81,7.97,-0.08,30.62
15293,0.3282,-0.0237,0.8663,-6.84,7.95,-0.09,30.62
15303,0.3275,-0.0267,0.8645,-6.84,8.02,-0.05,30.61
15313,0.3271,-0.0264,0.8656,-6.66,7.94,-0.11,30.64
15323,0.3287,-0.0242,0.8619,-6.66,7.92,-0.05,30.62
15333,0.3279,-0.0249,0.8667,-6.78,7.94,0.02,30.6
15343,0.3262,-0.0256,0.8661,-6.75,7.94,-0.09,30.63
15353,0.3259,-0.0266,0.8684,-6.85,8.02,-0.02,30.65
15363,0.3281,-0.0239,0.8666,-6.81,7.97,-0.02,30.62
15373,0.3293,-0.0277,0.8678,-6.69,7.94,-0.06,30.64
15383,0.3267,-0.0253,0.8623,-6.81,7.97,0.03,30.64
15393,0.329,-0.0264,0.8678,-6.79,8.0,-0.02,30.63
15403,0.3282,-0.0265,0.8641,-6.73,7.92,-0.02,30.64
15413,0.3286,-0.0276,0.8624,-6.72,7.94,-0.02,30.62
15423,0.3273,-0.0281,0.8632,-6.78,7.97,0.08,30.61
15433,0.3254,-0.0238,0.8654,-6.84,8.02,-0.02,30.64
15443,0.3284,-0.0248,0.8646,-6.67,8.02,-0.02,30.62
15453,0.3308,-0.0243,0.8674,-6.69,7.97,0.02,30.62
15463,0.3273,-0.027,0.87,-6.78,7.91,-0.12,30.64
15473,0.3281,-0.0264,0.8647,-6.78,7.97,-0.08,30.62
15483,0.3265,-0.0265,0.8654,-6.75,8.03,-0.05,30.62
15493,0.3286,-0.0239,0.8701,-6.7,8.05,-0.11,30.62
15503,0.3264,-0.025,0.8636,-6.75,8.0,-0.08,30.64
15513,0.3251,-0.0248,0.8649,-6.82,7.95,-0.08,30.62
15523,0.3236,-0.0225,0.8643,-6.78,7.97,-0.08,30.64
15533,0.3262,-0.0248,0.8673,-6.87,7.97,-0.05,30.66
15543,0.3298,-0.0249,0.8638,-6.78,8.06,-0.08,30.64
15553,0.3284,-0.024,0.8657,-6.78,7.94,-0.08,30.65
15563,0.3296,-0.0293,0.8651,-6.79,7.95,-0.11,30.63
15573,0.3295,-0.0261,0.868,-6.79,8.02,0.02,30.64
15583,0.3281,-0.0258,0.8617,-6.85,7.89,-0.08,30.64
15593,0.3286,-0.0234,0.8666,-6.79,8.0,-0.02,30.63
15603,0.3308,-0.0264,0.8639,-6.78,8.02,0.03,30.65
15613,0.3247,-0.0261,0.8649,-6.79,7.91,-0.03,30.63
15623,0.3285,-0.0255,0.8636,-6.7,7.89,0.02,30.63
15633,0.3289,-0.024,0.8656,-6.7,8.02,-0.08,30.62
15643,0.3291,-0.0245,0.8656,-6.78,8.05,-0.02,30.64
15653,0.3273,-0.0266,0.8705,-6.81,7.97,-0.06,30.64
15663,0.3267,-0.0244,0.8687,-6.84,7.89,0.02,30.63
15673,0.3259,-0.0258,0.8694,-6.82,8.03,-0.03,30.65
15683,0.3295,-0.0261,0.8674,-6.7,8.03,-0.02,30.65
15693,0.3328,-0.0247,0.8638,-6.79,7.98,-0.02,30.62
15703,0.3307,-0.0255,0.8689,-6.87,8.02,-0.05,30.62
15713,0.3275,-0.024,0.8677,-6.7,7.97,-0.06,30.64
15723,0.3271,-0.0253,0.8638,-6.67,7.98,-0.03,30.64
15733,0.3284,-0.0251,0.863,-6.7,8.06,-0.03,30.63
15743,0.3267,-0.0249,0.8628,-6.75,8.0,0.0,30.61
15753,0.3275,-0.0232,0.8635,-6.76,7.95,0.02,30.64
15763,0.3274,-0.0243,0.8688,-6.78,7.95,-0.08,30.63
15773,0.3275,-0.0251,0.8657,-6.76,7.94,-0.06,30.64
15783,0.3264,-0.0238,0.8661,-6.81,7.95,0.02,30.62
15793,0.3285,-0.0254,0.8684,-6.81,7.95,-0.05,30.66
15803,0.3302,-0.0251,0.8651,-6.72,7.89,0.0,30.64
15813,0.3279,-0.0258,0.8657,-6.78,7.97,-0.08,30.64
15823,0.3291,-0.0254,0.8618,-6.72,8.05,0.02,30.63
15833,0.3295,-0.0275,0.8646,-6.79,7.97,-0.05,30.62
15843,0.3314,-0.0234,0.8616,-6.76,7.89,0.02,30.64
15853,0.3273,-0.0286,0.8667,-6.73,8.0,-0.02,30.65
15863,0.3296,-0.0251,0.8667,-6.87,8.02,-0.03,30.64
15873,0.3285,-0.0261,0.8666,-6.79,7.94,0.03,30.65
15883,0.3268,-0.0227,0.8678,-6.9,8.03,-0.03,30.64
15893,0.3284,-0.0243,0.8673,-6.75,7.95,-0.08,30.63
15903,0.3278,-0.0266,0.866,-6.7,8.0,0.02,30.65
15913,0.33,-0.0242,0.8691,-6.73,7.89,-0.05,30.64
15923,0.3278,-0.0283,0.8673,-6.75,7.98,0.02,30.65
15933,0.3246,-0.0266,0.8645,-6.81,7.94,-0.03,30.66
15943,0.3293,-0.0249,0.865,-6.76,7.98,-0.05,30.65
15953,0.3284,-0.0247,0.8654,-6.78,7.91,-0.02,30.64
15963,0.3275,-0.0247,0.8643,-6.75,7.98,-0.02,30.65
15973,0.3295,-0.0265,0.8672,-6.85,7.89,-0.02,30.67
15983,0.3292,-0.0236,0.8597,-6.73,7.91,-0.03,30.64
15993,0.3267,-0.027,0.8627,-6.81,7.95,-0.02,30.64
16003,0.3312,-0.0245,0.8612,-6.79,7.92,-0.08,30.64
16013,0.3295,-0.0255,0.8695,-6.75,8.02,-0.09,30.63
16023,0.3274,-0.026,0.8671,-6.79,7.86,-0.11,30.64
16033,0.3274,-0.0249,0.8615,-6.7,7.92,-0.06,30.62
16043,0.3262,-0.0258,0.865,-6.78,7.94,-0.06,30.64
16053,0.3271,-0.0262,0.8698,-6.76,7.97,-0.03,30.64
16063,0.3301,-0.0258,0.8682,-6.78,8.02,-0.02,30.66
16073,0.3268,-0.0253,0.8621,-6.73,8.03,0.0,30.64
16083,0.3259,-0.0247,0.8651,-6.81,7.89,0.0,30.66
16093,0.3279,-0.025,0.8654,-6.79,7.89,-0.09,30.62
16103,0.3268,-0.0262,0.8658,-6.81,7.88,0.0,30.63
16113,0.3303,-0.0277,0.865,-6.84,7.95,-0.02,30.66
16123,0.3297,-0.0253,0.8667,-6.82,8.0,-0.06,30.63
16133,0.3285,-0.0243,0.8644,-6.78,8.05,-0.08,30.63
16143,0.3297,-0.0253,0.8677,-6.87,8.0,-0.08,30.64
16153,0.3275,-0.0272,0.8673,-6.72,7.95,-0.09,30.65
16163,0.328,-0.0244,0.864,-6.78,7.89,-0.02,30.64
16173,0.3274,-0.0273,0.8677,-6.7,7.98,0.06,30.63
16183,0.3271,-0.0256,0.8645,-6.72,8.0,-0.05,30.61
16193,0.3282,-0.0266,0.8695,-6.79,8.0,-0.09,30.62
16203,0.3268,-0.0245,0.8657,-6.69,8.03,-0.09,30.64
16213,0.328,-0.0242,0.8628,-6.64,7.95,-0.02,30.65
16223,0.3286,-0.0234,0.8632,-6.66,8.02,0.02,30.63
16234,0.3245,-0.0247,0.8701,-6.73,7.97,-0.06,30.64
16244,0.329,-0.0228,0.8684,-6.81,8.03,-0.09,30.63
16254,0.3243,-0.0273,0.8612,-6.75,8.09,0.0,30.62
16264,0.3312,-0.0258,0.8643,-6.73,8.03,-0.03,30.63
16274,0.3269,-0.0242,0.8657,-6.82,8.03,-0.02,30.62
16284,0.3303,-0.027,0.8634,-6.85,8.02,-0.08,30.64
16295,0.3276,-0.0244,0.8632,-6.73,8.0,-0.12,30.65
16305,0.327,-0.0222,0.866,-6.73,7.98,-0.06,30.65
16315,0.3279,-0.0236,0.8627,-6.73,7.91,0.02,30.65
16326,0.328,-0.0237,0.8622,-6.76,7.92,-0.02,30.66
16336,0.3253,-0.0255,0.8639,-6.81,7.94,-0.09,30.64
16346,0.328,-0.0238,0.8669,-6.75,7.97,-0.08,30.62
16356,0.3267,-0.0248,0.8672,-6.75,8.0,0.02,30.62
16366,0.3303,-0.0255,0.8657,-6.73,7.95,-0.03,30.64
16376,0.3317,-0.0266,0.8662,-6.81,7.95,0.06,30.65
16386,0.3267,-0.0269,0.8655,-6.78,7.89,-0.03,30.65
16396,0.3297,-0.0258,0.8674,-6.79,7.98,-0.06,30.64
16406,0.3268,-0.0245,0.8607,-6.82,8.0,0.0,30.63
16416,0.3281,-0.0271,0.8704,-6.78,7.89,0.0,30.65
16426,0.3282,-0.0267,0.8667,-6.85,7.94,-0.03,30.65
16436,0.3257,-0.0271,0.8669,-6.76,7.97,-0.06,30.64
16446,0.328,-0.0266,0.8658,-6.75,7.98,0.02,30.64
16456,0.326,-0.0248,0.8628,-6.78,7.95,-0.05,30.64
16466,0.327,-0.0259,0.8671,-6.81,8.0,-0.03,30.64
16476,0.3296,-0.0229,0.8599,-6.75,7.92,-0.05,30.62
16486,0.3273,-0.0261,0.8645,-6.72,7.95,-0.09,30.62
16496,0.3274,-0.0264,0.8629,-6.84,8.02,-0.08,30.66
16506,0.3274,-0.0222,0.8661,-6.79,8.03,0.02,30.67
16516,0.3298,-0.026,0.8646,-6.79,7.98,0.0,30.65
16526,0.325,-0.0247,0.8671,-6.79,8.02,-0.08,30.62
16536,0.3254,-0.0258,0.8666,-6.73,7.91,-0.02,30.62
16547,0.3273,-0.0265,0.8619,-6.79,8.0,-0.05,30.66
16557,0.327,-0.0273,0.865,-6.81,7.97,-0.08,30.65
16567,0.3287,-0.0278,0.8676,-6.73,7.95,0.02,30.65
16577,0.3267,-0.026,0.8611,-6.81,8.03,-0.08,30.65
16587,0.3274,-0.0242,0.8687,-6.82,7.97,0.0,30.65
16597,0.3289,-0.0245,0.8655,-6.73,7.98,-0.02,30.65
16607,0.3253,-0.0238,0.873,-6.84,7.98,0.0,30.65
16617,0.3254,-0.0247,0.8651,-6.81,7.89,-0.11,30.61
16627,0.327,-0.0265,0.8667,-6.84,7.85,-0.08,30.63
16637,0.3251,-0.0262,0.8668,-6.85,7.92,0.02,30.66
16647,0.3252,-0.0275,0.8651,-6.75,7.97,0.03,30.64
16657,0.3257,-0.0232,0.8629,-6.76,7.88,-0.06,30.63
16667,0.3307,-0.0259,0.865,-6.78,7.98,0.02,30.62
16677,0.3296,-0.0242,0.8668,-6.75,8.0,-0.06,30.62
16687,0.3258,-0.0256,0.8666,-6.78,7.83,-0.06,30.64
16697,0.3263,-0.0265,0.8652,-6.7,7.91,-0.06,30.65
16707,0.3253,-0.0261,0.8647,-6.87,8.03,-0.06,30.64
16717,0.3291,-0.0249,0.8633,-6.78,8.0,-0.08,30.65
16727,0.3258,-0.0256,0.8684,-6.72,8.03,-0.12,30.66
16738,0.3264,-0.028,0.8638,-6.84,7.95,-0.03,30.64
16748,0.3289,-0.0259,0.8651,-6.7,7.94,-0.03,30.64
16758,0.329,-0.0259,0.8619,-6.76,7.94,0.02,30.66
16768,0.3264,-0.0245,0.8652,-6.75,7.92,0.03,30.64
16778,0.3256,-0.025,0.8682,-6.78,7.91,-0.05,30.64
16788,0.3289,-0.0261,0.8633,-6.78,7.98,-0.02,30.64
16798,0.3245,-0.0248,0.8643,-6.82,7.97,-0.03,30.65
16808,0.3258,-0.024,0.8669,-6.76,7.98,0.0,30.68
16818,0.3317,-0.0288,0.8596,-6.82,7.77,-0.02,30.66
16828,0.3307,-0.0256,0.8601,-6.79,7.92,0.02,30.64
16838,0.3267,-0.0295,0.8654,-6.78,7.82,0.03,30.65
16848,0.3241,-0.026,0.8644,-6.76,8.09,0.03,30.62
16858,0.3237,-0.024,0.8656,-6.95,7.94,-0.02,30.65
16868,0.3276,-0.0225,0.8623,-6.81,7.97,0.02,30.65
16878,0.3279,-0.0282,0.8655,-6.72,7.91,-0.09,30.63
16888,0.3292,-0.0265,0.8613,-6.75,7.86,0.0,30.64
16898,0.3291,-0.0272,0.8674,-6.72,7.92,-0.03,30.65
16908,0.3292,-0.0227,0.8658,-6.76,7.91,-0.05,30.66
16918,0.3306,-0.0254,0.8676,-6.7,7.97,-0.02,30.65
16928,0.3251,-0.0272,0.8657,-6.76,7.92,-0.03,30.62
16938,0.3256,-0.0251,0.8672,-6.82,7.98,0.05,30.65
16948,0.3263,-0.0249,0.866,-6.79,7.97,-0.05,30.65
16958,0.3298,-0.024,0.8624,-6.79,7.94,-0.12,30.64
16968,0.3303,-0.0273,0.8633,-6.78,7.95,-0.06,30.66
16979,0.3293,-0.0259,0.8608,-6.89,7.95,0.06,30.64
16989,0.3275,-0.0245,0.8658,-6.78,7.95,-0.08,30.65
16999,0.3298,-0.0255,0.8656,-6.78,7.85,-0.02,30.65
17009,0.33,-0.0256,0.8644,-6.69,7.94,-0.02,30.66
17019,0.3281,-0.0272,0.8632,-6.73,8.0,0.0,30.65
17029,0.3285,-0.0261,0.8655,-6.75,7.94,0.03,30.64
17039,0.3273,-0.0248,0.8706,-6.75,7.98,-0.11,30.65
17049,0.3287,-0.0264,0.8676,-6.69,8.0,-0.03,30.66
17059,0.3263,-0.0247,0.8705,-6.87,7.89,-0.03,30.65
17069,0.3289,-0.0259,0.8689,-6.76,8.02,-0.11,30.65
17079,0.3281,-0.0248,0.8655,-6.79,7.92,0.05,30.62
17089,0.3282,-0.0277,0.8645,-6.76,7.97,0.02,30.67
17099,0.3285,-0.0253,0.8633,-6.78,7.95,0.0,30.65
17109,0.3286,-0.025,0.8645,-6.64,7.95,-0.02,30.64
17119,0.3285,-0.027,0.8669,-6.81,7.97,0.0,30.67
17129,0.3285,-0.0245,0.8627,-6.87,7.92,-0.08,30.65
17139,0.3296,-0.0253,0.8665,-6.76,7.97,-0.06,30.63
17149,0.3281,-0.0251,0.8671,-6.81,8.05,0.02,30.66
17159,0.3295,-0.0245,0.8676,-6.67,7.94,-0.11,30.65
17169,0.3302,-0.0266,0.865,-6.87,7.97,0.03,30.64
17179,0.3271,-0.026,0.8656,-6.82,8.0,0.03,30.65
17189,0.326,-0.0238,0.8639,-6.72,7.91,-0.02,30.65
17199,0.3273,-0.0294,0.8672,-6.7,8.0,0.02,30.67
17209,0.3278,-0.0237,0.863,-6.82,7.98,-0.08,30.64
17219,0.3311,-0.0254,0.8643,-6.78,7.92,-0.06,30.65
17229,0.3274,-0.0248,0.8671,-6.81,7.88,0.05,30.68
17239,0.3296,-0.028,0.864,-6.7,7.98,-0.03,30.63
17249,0.3258,-0.0264,0.8615,-6.81,7.98,-0.06,30.62
17259,0.3271,-0.0272,0.8667,-6.78,7.97,-0.06,30.66
17269,0.3293,-0.025,0.8661,-6.73,8.06,0.05,30.65
17279,0.3293,-0.0248,0.8646,-6.87,7.94,-0.03,30.67
17289,0.3291,-0.0259,0.8618,-6.78,7.94,-0.05,30.68
17299,0.3298,-0.0242,0.8635,-6.79,8.02,-0.11,30.67
17317,0.3287,-0.0277,0.8639,-6.7,8.0,-0.06,30.67
17327,0.329,-0.0258,0.8646,-6.76,7.97,-0.03,30.65
17337,0.3273,-0.0251,0.8649,-6.79,7.91,-0.08,30.64
17347,0.3267,-0.0254,0.8644,-6.76,7.94,-0.05,30.63
17357,0.3256,-0.0248,0.8678,-6.73,7.94,-0.06,30.64
17367,0.3278,-0.0258,0.8657,-6.69,7.89,-0.11,30.67
17377,0.3275,-0.0265,0.8649,-6.72,8.0,0.02,30.67
17387,0.3271,-0.0275,0.8645,-6.79,7.89,0.03,30.64
17397,0.328,-0.0237,0.8593,-6.79,8.0,-0.09,30.66
17407,0.329,-0.0258,0.8677,-6.87,8.05,-0.06,30.63
17417,0.3269,-0.0261,0.8655,-6.79,7.98,0.03,30.67
17427,0.3246,-0.0273,0.865,-6.81,7.97,0.02,30.66
17437,0.3307,-0.0243,0.8623,-6.73,7.94,-0.03,30.66
17448,0.3284,-0.0255,0.8635,-6.85,7.92,0.03,30.65
17458,0.3278,-0.0262,0.8635,-6.78,7.95,-0.08,30.66
17468,0.3268,-0.0234,0.8673,-6.81,7.95,-0.06,30.68
17478,0.3296,-0.0249,0.8654,-6.69,7.94,-0.05,30.63
17488,0.3269,-0.025,0.8689,-6.75,7.92,0.02,30.66
17498,0.3281,-0.0228,0.8668,-6.85,7.91,-0.05,30.67
17508,0.3296,-0.0261,0.8666,-6.7,7.97,0.0,30.67
17518,0.3281,-0.027,0.8623,-6.76,7.98,0.02,30.65
17528,0.327,-0.0238,0.8685,-6.84,7.97,-0.02,30.63
17538,0.3279,-0.0248,0.863,-6.73,8.02,-0.09,30.62
17548,0.3271,-0.0248,0.8647,-6.75,7.97,-0.05,30.65
17558,0.3279,-0.0254,0.8679,-6.72,7.98,-0.08,30.68
17568,0.3278,-0.0239,0.8651,-6.69,7.94,-0.05,30.67
17579,0.3287,-0.0272,0.8641,-6.73,7.92,-0.05,30.66
17589,0.3252,-0.0236,0.8676,-6.78,7.95,0.0,30.66
17599,0.3257,-0.0277,0.8639,-6.79,7.92,0.02,30.67
17609,0.3285,-0.027,0.8645,-6.7,7.92,0.0,30.64
17619,0.3285,-0.0259,0.8665,-6.72,7.95,-0.08,30.66
17629,0.3263,-0.0271,0.865,-6.76,7.95,-0.03,30.66
17639,0.3291,-0.0247,0.8658,-6.72,8.05,-0.02,30.65
17649,0.3281,-0.0245,0.861,-6.78,7.92,-0.05,30.67
17659,0.3278,-0.0266,0.8685,-6.76,7.94,-0.08,30.64
17669,0.3279,-0.025,0.8684,-6.75,8.0,-0.03,30.7
17679,0.3296,-0.0233,0.8635,-6.7,7.94,-0.06,30.67
17689,0.3265,-0.0262,0.8655,-6.75,8.02,-0.06,30.64
17699,0.3285,-0.0253,0.864,-6.82,7.95,0.0,30.67
17709,0.3269,-0.0242,0.8695,-6.84,7.85,0.0,30.67
17719,0.3268,-0.0251,0.8644,-6.75,7.98,0.03,30.68
17729,0.3268,-0.0254,0.8649,-6.73,8.03,-0.03,30.67
17739,0.328,-0.0255,0.8663,-6.82,7.94,-0.03,30.66
17749,0.3289,-0.0281,0.869,-6.73,8.0,-0.05,30.66
17759,0.3287,-0.0256,0.8649,-6.81,8.08,0.0,30.65
17769,0.3268,-0.0234,0.8636,-6.84,8.0,0.08,30.67
17779,0.3273,-0.0262,0.861,-6.81,7.91,-0.08,30.66
17789,0.3281,-0.0259,0.8661,-6.85,7.98,0.05,30.66
17799,0.3254,-0.0248,0.8663,-6.84,7.94,-0.02,30.66
17809,0.3292,-0.0272,0.8651,-6.72,7.94,-0.02,30.65
17819,0.3286,-0.0266,0.8668,-6.76,8.03,-0.05,30.68
17829,0.3281,-0.0289,0.8654,-6.76,8.02,-0.06,30.66
17839,0.3273,-0.0269,0.87,-6.78,7.92,-0.05,30.66
17849,0.326,-0.0267,0.8658,-6.85,8.0,-0.03,30.66
17859,0.3298,-0.0219,0.8633,-6.81,7.98,-0.03,30.66
17869,0.3312,-0.0248,0.8645,-6.76,8.0,0.03,30.67
17879,0.3301,-0.0254,0.8646,-6.69,7.94,-0.06,30.65
17889,0.3269,-0.0261,0.8688,-6.73,8.0,-0.05,30.66
17899,0.3257,-0.0258,0.8625,-6.75,7.98,-0.05,30.65
17909,0.3282,-0.0262,0.8671,-6.76,7.97,0.0,30.68
17919,0.3313,-0.0261,0.8641,-6.85,7.92,-0.06,30.67
17929,0.3285,-0.0282,0.8623,-6.7,7.91,-0.06,30.67
17939,0.3271,-0.0264,0.8628,-6.81,7.94,-0.05,30.67
17949,0.328,-0.0258,0.866,-6.73,7.95,-0.08,30.67
17959,0.329,-0.0253,0.8679,-6.84,7.94,0.0,30.66
17969,0.33,-0.0234,0.8656,-6.76,7.98,-0.12,30.66
17979,0.3281,-0.0262,0.8656,-6.82,7.97,-0.06,30.63
17989,0.327,-0.0243,0.865,-6.76,8.02,-0.03,30.65
18000,0.3252,-0.0276,0.8647,-6.84,7.95,-0.06,30.65
18011,0.3246,-0.0242,0.8678,-6.81,8.0,-0.11,30.66
18021,0.3269,-0.0249,0.8661,-6.76,7.95,-0.05,30.66
18031,0.3276,-0.0261,0.8683,-6.79,7.95,0.08,30.68
18041,0.3286,-0.0262,0.8624,-6.84,7.97,-0.05,30.68
18051,0.3295,-0.0251,0.8616,-6.81,8.0,-0.12,30.65
18062,0.3281,-0.0231,0.8633,-6.84,7.92,0.0,30.68
18072,0.3295,-0.024,0.8679,-6.75,8.02,-0.09,30.65
18083,0.3271,-0.0245,0.8672,-6.76,7.92,-0.02,30.67
18093,0.3273,-0.0258,0.8623,-6.79,7.97,-0.05,30.67
18103,0.327,-0.0253,0.8656,-6.87,7.98,-0.09,30.64
18113,0.327,-0.0242,0.8618,-6.73,7.95,-0.14,30.65
18123,0.3298,-0.0255,0.8683,-6.78,7.97,-0.05,30.67
18133,0.3293,-0.027,0.8655,-6.84,7.98,-0.08,30.65
18143,0.3279,-0.0255,0.8611,-6.79,7.88,-0.05,30.65
18153,0.3278,-0.027,0.8671,-6.7,7.86,-0.03,30.68
18163,0.326,-0.0248,0.8667,-6.82,7.97,0.0,30.68
18173,0.3289,-0.0221,0.8615,-6.76,7.95,-0.05,30.66
18183,0.3276,-0.0234,0.8672,-6.75,7.98,-0.02,30.67
18193,0.3282,-0.0254,0.8661,-6.67,8.05,-0.15,30.66
18203,0.3271,-0.0232,0.8652,-6.75,8.02,-0.06,30.67
18213,0.3267,-0.0242,0.8629,-6.73,7.98,-0.03,30.66
18223,0.3304,-0.0262,0.8632,-6.76,7.91,-0.06,30.67
18233,0.3279,-0.0253,0.8628,-6.87,7.92,-0.02,30.67
18243,0.3282,-0.0251,0.8643,-6.79,7.97,0.06,30.67
18253,0.328,-0.0239,0.8599,-6.72,7.95,-0.03,30.67
18263,0.3275,-0.0278,0.8611,-6.75,8.02,-0.03,30.68
18273,0.3284,-0.0265,0.8649,-6.75,7.97,-0.03,30.67
18283,0.3271,-0.027,0.8674,-6.76,7.98,-0.05,30.66
18293,0.3286,-0.024,0.8639,-6.75,7.94,-0.12,30.66
18303,0.3322,-0.0262,0.8684,-6.81,8.02,-0.06,30.67
18313,0.3295,-0.0271,0.8657,-6.82,7.94,-0.05,30.65
18323,0.3271,-0.0258,0.8646,-6.76,7.98,-0.03,30.66
18333,0.3286,-0.0242,0.8679,-6.69,7.98,0.0,30.66
18343,0.3291,-0.0293,0.8666,-6.75,7.91,-0.05,30.64
18353,0.328,-0.0275,0.8676,-6.81,7.95,-0.09,30.67
18364,0.3262,-0.0237,0.8666,-6.73,7.97,-0.09,30.67
18374,0.3282,-0.0245,0.8638,-6.78,8.05,-0.02,30.64
18384,0.326,-0.0247,0.8641,-6.81,8.06,-0.05,30.66
18395,0.3269,-0.0259,0.868,-6.7,7.86,-0.06,30.65
18405,0.3278,-0.0248,0.8636,-6.72,7.91,-0.17,30.65
18415,0.3282,-0.0273,0.8658,-6.85,8.05,-0.05,30.67
18425,0.326,-0.0271,0.8665,-6.72,7.98,0.06,30.68
18435,0.3276,-0.027,0.8684,-6.72,8.05,0.02,30.69
18445,0.3237,-0.0262,0.8654,-6.81,7.95,-0.05,30.67
18455,0.329,-0.0243,0.8667,-6.84,7.83,0.02,30.69
18465,0.3256,-0.0239,0.8656,-6.9,7.98,0.0,30.66
18475,0.3275,-0.0256,0.8639,-6.85,7.98,0.0,30.66
18485,0.3242,-0.027,0.8687,-6.73,8.02,-0.06,30.68
18495,0.3263,-0.0237,0.8632,-6.75,7.98,-0.09,30.67
18505,0.3276,-0.0271,0.8673,-6.82,7.95,-0.05,30.67
18515,0.33,-0.0289,0.865,-6.81,7.97,-0.03,30.65
18525,0.3268,-0.0269,0.8627,-6.82,7.94,-0.03,30.66
18535,0.3264,-0.0238,0.8668,-6.76,7.91,-0.02,30.65
18545,0.3273,-0.0226,0.8655,-6.81,7.95,-0.09,30.66
18555,0.3287,-0.0247,0.8634,-6.76,7.92,-0.05,30.68
18565,0.3273,-0.0256,0.8629,-6.69,7.94,-0.02,30.68
18575,0.3273,-0.0236,0.8634,-6.72,7.94,-0.02,30.65
18585,0.3281,-0.028,0.8621,-6.67,7.97,-0.11,30.68
18595,0.3306,-0.026,0.8661,-6.81,7.98,-0.14,30.65
18605,0.3258,-0.0239,0.8649,-6.78,7.94,-0.02,30.65
18615,0.3278,-0.0244,0.8691,-6.85,8.0,-0.11,30.66
18625,0.3263,-0.0242,0.8676,-6.82,7.97,0.03,30.64
18635,0.3281,-0.0244,0.866,-6.64,8.02,-0.03,30.66
18645,0.3271,-0.0255,0.864,-6.79,7.94,0.02,30.67
18655,0.3252,-0.0254,0.8661,-6.75,8.06,0.03,30.66
18665,0.3281,-0.0256,0.8672,-6.76,7.95,0.02,30.63
18675,0.3278,-0.0248,0.8657,-6.79,7.91,-0.02,30.66
18685,0.3264,-0.0282,0.8625,-6.7,8.03,-0.05,30.65
18695,0.33,-0.0273,0.8677,-6.78,7.98,0.0,30.64
18705,0.3293,-0.0253,0.868,-6.7,7.92,-0.02,30.65
18715,0.3291,-0.0251,0.8655,-6.73,8.02,-0.08,30.68
18725,0.3291,-0.0265,0.8655,-6.7,7.95,-0.15,30.67
18735,0.3301,-0.0247,0.8633,-6.81,7.95,-0.05,30.67
18745,0.3289,-0.0247,0.8688,-6.84,7.98,-0.08,30.65
18755,0.3295,-0.0276,0.8644,-6.81,7.98,0.05,30.67
18765,0.3268,-0.0234,0.8656,-6.79,7.97,0.05,30.64
18775,0.3279,-0.0236,0.8694,-6.78,7.98,-0.03,30.63
18785,0.3278,-0.0255,0.8654,-6.76,7.97,-0.08,30.66
18795,0.3302,-0.0262,0.8668,-6.82,8.0,-0.06,30.68
18805,0.3295,-0.0261,0.8672,-6.81,8.08,-0.11,30.63
18815,0.3268,-0.0292,0.8611,-6.78,7.92,-0.08,30.65
18825,0.3292,-0.0243,0.8645,-6.75,7.95,-0.02,30.67
18835,0.3279,-0.0262,0.865,-6.79,7.95,-0.05,30.68
18845,0.3267,-0.0244,0.8634,-6.75,7.94,-0.05,30.67
18855,0.3264,-0.0247,0.8633,-6.61,7.97,-0.03,30.65
18865,0.3259,-0.0239,0.8673,-6.81,7.95,-0.06,30.67
18875,0.3279,-0.0234,0.8668,-6.81,7.89,0.0,30.67
18885,0.3285,-0.0259,0.8635,-6.85,8.0,0.0,30.65
18895,0.3269,-0.0248,0.8699,-6.78,7.92,-0.11,30.68
18905,0.3289,-0.0247,0.8647,-6.73,7.97,0.0,30.67
18915,0.3271,-0.0265,0.8624,-6.76,7.98,-0.06,30.65
18925,0.3298,-0.028,0.8622,-6.69,8.02,-0.08,30.66
18935,0.3265,-0.0277,0.8652,-6.73,7.98,-0.02,30.67
18945,0.3273,-0.0238,0.8656,-6.67,7.97,-0.02,30.65
18955,0.3258,-0.0273,0.8678,-6.75,7.95,0.03,30.67
18965,0.3273,-0.0269,0.8627,-6.73,7.88,0.05,30.65
18975,0.3285,-0.0269,0.8638,-6.72,7.91,-0.08,30.68
18985,0.3291,-0.0271,0.8667,-6.76,7.89,-0.09,30.69
18995,0.3264,-0.0255,0.8665,-6.76,8.03,-0.03,30.66
19005,0.3265,-0.025,0.8641,-6.72,7.95,0.0,30.68
19015,0.3273,-0.0272,0.8666,-6.78,7.89,0.03,30.68
19025,0.3275,-0.0232,0.8629,-6.87,7.89,-0.08,30.67
19035,0.3264,-0.0267,0.8665,-6.7,7.95,-0.06,30.66
19045,0.3252,-0.0266,0.8636,-6.76,7.94,-0.05,30.66
19055,0.3263,-0.0286,0.8695,-6.76,7.92,0.02,30.68
19065,0.327,-0.0247,0.869,-6.75,7.97,-0.03,30.65
19075,0.3258,-0.0256,0.8645,-6.75,7.94,0.0,30.66
19085,0.3258,-0.0255,0.864,-6.72,7.94,-0.05,30.66
19095,0.3252,-0.0254,0.8673,-6.76,7.91,-0.06,30.7
19105,0.3287,-0.0256,0.8679,-6.76,7.95,-0.06,30.66
19115,0.3296,-0.0243,0.8662,-6.75,8.02,0.02,30.66
19125,0.3273,-0.0258,0.8682,-6.75,8.0,-0.05,30.64
19135,0.3295,-0.0245,0.8649,-6.87,8.05,0.06,30.67
19145,0.327,-0.0254,0.8678,-6.69,8.0,0.06,30.66
19155,0.3279,-0.0264,0.8663,-6.76,7.89,0.0,30.64
19165,0.3278,-0.0244,0.8685,-6.81,7.88,0.02,30.65
19175,0.3274,-0.0255,0.8641,-6.79,8.08,-0.08,30.68
19185,0.3295,-0.0261,0.8665,-6.7,7.98,0.0,30.65
19195,0.3281,-0.0243,0.868,-6.81,7.95,-0.06,30.69
19205,0.3271,-0.0278,0.8628,-6.81,8.02,-0.05,30.69
19215,0.3248,-0.0264,0.8667,-6.79,8.0,-0.02,30.68
19225,0.3282,-0.0289,0.8662,-6.81,8.03,0.05,30.69
19235,0.3292,-0.0231,0.8672,-6.81,8.0,-0.11,30.66
19245,0.3292,-0.024,0.8669,-6.82,7.98,-0.02,30.69
19255,0.33,-0.0255,0.8687,-6.81,7.95,-0.03,30.68
19265,0.3248,-0.027,0.8622,-6.66,7.98,-0.05,30.69
19275,0.3275,-0.0225,0.8639,-6.72,8.05,0.02,30.66
19285,0.3259,-0.0251,0.8633,-6.79,8.05,-0.02,30.68
19295,0.326,-0.0275,0.8658,-6.85,7.92,0.06,30.68
19305,0.3262,-0.0249,0.8679,-6.78,7.92,-0.05,30.69
19316,0.3265,-0.0259,0.87,-6.76,7.98,-0.09,30.66
19326,0.3289,-0.0247,0.8687,-6.78,7.98,-0.05,30.67
19336,0.3258,-0.0256,0.8638,-6.79,7.94,0.02,30.63
19346,0.3274,-0.0256,0.8656,-6.81,8.05,-0.03,30.68
19356,0.327,-0.0269,0.8643,-6.64,7.97,-0.02,30.68
19366,0.3273,-0.0272,0.866,-6.81,7.94,-0.05,30.68
19376,0.3246,-0.0265,0.8677,-6.69,7.95,-0.08,30.68
19386,0.3275,-0.0232,0.8665,-6.75,7.95,-0.06,30.67
19396,0.3282,-0.0256,0.864,-6.75,7.98,-0.06,30.65
19406,0.3298,-0.0236,0.8672,-6.75,7.92,0.02,30.64
19416,0.3273,-0.0267,0.8694,-6.76,8.0,-0.06,30.67
19426,0.3246,-0.0248,0.8672,-6.73,7.91,-0.03,30.68
19436,0.3279,-0.0292,0.8656,-6.81,7.98,0.03,30.66
19446,0.3282,-0.0287,0.8712,-6.75,7.95,-0.08,30.66
19456,0.3303,-0.0265,0.8633,-6.69,7.94,-0.05,30.67
19466,0.3268,-0.0233,0.865,-6.79,8.03,-0.06,30.69
19476,0.3263,-0.0267,0.8651,-6.87,7.98,-0.02,30.68
19486,0.327,-0.0256,0.8663,-6.81,7.88,-0.03,30.67
19496,0.3265,-0.0272,0.8665,-6.79,7.97,-0.09,30.67
19506,0.3268,-0.027,0.869,-6.72,8.02,0.0,30.65
19517,0.3279,-0.026,0.8667,-6.79,7.97,-0.08,30.69
19527,0.3287,-0.0251,0.8629,-6.76,7.97,0.03,30.67
19537,0.3306,-0.0266,0.8676,-6.79,7.89,-0.02,30.69
19547,0.3292,-0.025,0.868,-6.67,7.94,0.03,30.67
19557,0.3253,-0.0269,0.8673,-6.7,7.97,-0.09,30.67
19567,0.3293,-0.0251,0.8685,-6.76,7.91,0.09,30.66
19577,0.3292,-0.0245,0.8646,-6.85,7.89,-0.05,30.67
19587,0.3271,-0.0251,0.87,-6.81,7.97,0.0,30.66
19597,0.3264,-0.0261,0.8689,-6.79,8.03,-0.03,30.66
19607,0.3275,-0.0259,0.8638,-6.73,7.94,-0.09,30.69
19617,0.3275,-0.0269,0.8667,-6.75,8.03,-0.08,30.67
19627,0.3257,-0.0243,0.8643,-6.75,7.97,-0.12,30.65
19637,0.3297,-0.0264,0.8651,-6.79,8.05,-0.05,30.65
19647,0.3292,-0.0258,0.8625,-6.84,7.98,-0.05,30.67
19657,0.3271,-0.0277,0.8622,-6.87,7.94,-0.14,30.66
19667,0.3276,-0.0238,0.8662,-6.76,7.95,-0.06,30.67
19677,0.3276,-0.0262,0.8599,-6.85,7.91,-0.11,30.66
19689,0.3278,-0.0259,0.8665,-6.81,8.05,-0.09,30.67
19699,0.3285,-0.0237,0.8645,-6.76,7.98,-0.03,30.69
19709,0.3282,-0.0262,0.8652,-6.84,7.94,-0.05,30.67
19719,0.3273,-0.0272,0.8663,-6.82,8.0,-0.05,30.67
19729,0.3264,-0.0286,0.8668,-6.78,7.92,-0.06,30.67
19739,0.3273,-0.0239,0.866,-6.76,7.98,-0.08,30.67
19749,0.3267,-0.0269,0.8617,-6.76,7.95,-0.08,30.68
19759,0.328,-0.027,0.8628,-6.72,7.98,0.0,30.7
19769,0.3314,-0.025,0.8667,-6.82,7.88,-0.06,30.67
19779,0.3291,-0.0265,0.8654,-6.7,7.89,0.05,30.68
19789,0.3267,-0.0234,0.8597,-6.76,7.95,-0.02,30.67
19799,0.3254,-0.0259,0.8628,-6.82,8.02,-0.02,30.69
19809,0.3236,-0.0265,0.8667,-6.81,7.92,-0.08,30.69
19819,0.3269,-0.0277,0.8668,-6.81,7.95,-0.05,30.68
19829,0.3273,-0.0237,0.8674,-6.72,8.0,-0.06,30.69
19839,0.3275,-0.0264,0.8684,-6.7,7.94,-0.05,30.65
19849,0.3284,-0.0269,0.8702,-6.84,7.97,0.0,30.68
19859,0.3298,-0.0267,0.8665,-6.78,8.02,-0.05,30.69
19869,0.3269,-0.0254,0.8644,-6.76,8.0,-0.02,30.69
19879,0.3295,-0.0248,0.8682,-6.85,8.06,-0.08,30.68
19889,0.3267,-0.0251,0.8669,-6.72,8.02,-0.11,30.65
19899,0.3263,-0.0245,0.8632,-6.73,7.97,-0.09,30.66
19909,0.3285,-0.0272,0.8654,-6.82,8.0,0.0,30.67
19919,0.3271,-0.0234,0.8649,-6.72,8.05,-0.03,30.67
19929,0.3262,-0.0243,0.8658,-6.78,7.95,-0.08,30.68
19939,0.3295,-0.0262,0.8674,-6.78,8.06,-0.11,30.69
19949,0.329,-0.0308,0.8668,-6.7,7.92,-0.03,30.7
19959,0.3284,-0.0267,0.8608,-6.92,8.0,-0.02,30.68
19969,0.3304,-0.0245,0.8665,-6.81,8.03,0.02,30.68
19979,0.328,-0.0261,0.8646,-6.87,8.02,0.0,30.69
19989,0.3265,-0.0271,0.8662,-6.75,7.97,0.03,30.69
19999,0.3293,-0.0259,0.8613,-6.78,7.95,0.05,30.7
20009,0.3264,-0.0245,0.8649,-6.73,7.91,-0.03,30.68
20019,0.3279,-0.0245,0.8647,-6.72,7.94,-0.08,30.68
20029,0.3275,-0.0266,0.866,-6.87,7.97,-0.08,30.69
20039,0.3297,-0.0253,0.8657,-6.75,7.92,0.0,30.69
20049,0.3323,-0.027,0.8657,-6.79,7.89,-0.05,30.7
20059,0.329,-0.0267,0.8656,-6.76,7.98,-0.06,30.69
20069,0.3275,-0.0256,0.8654,-6.78,7.97,-0.06,30.69
20079,0.328,-0.0271,0.8616,-6.75,7.97,-0.06,30.67
20089,0.3286,-0.0258,0.8652,-6.69,7.98,-0.09,30.68
20099,0.33,-0.0247,0.8669,-6.75,7.98,0.03,30.67
20109,0.3318,-0.0248,0.8665,-6.76,8.0,-0.02,30.69
20119,0.3306,-0.0232,0.8667,-6.78,8.09,-0.05,30.69
20129,0.3269,-0.0249,0.8658,-6.85,8.0,0.05,30.67
20139,0.3278,-0.0233,0.8628,-6.75,8.02,-0.06,30.67
20149,0.3289,-0.0231,0.8651,-6.78,7.95,-0.05,30.68
20159,0.3292,-0.0245,0.8643,-6.84,7.97,-0.05,30.67
20169,0.3265,-0.0253,0.8676,-6.78,8.05,-0.11,30.68
20179,0.3292,-0.0226,0.8672,-6.84,7.89,-0.09,30.68
20189,0.3245,-0.0256,0.8668,-6.73,8.02,-0.08,30.69
20199,0.3276,-0.0249,0.8676,-6.82,7.94,-0.02,30.7
20209,0.329,-0.0238,0.8654,-6.78,7.94,0.02,30.69
20219,0.3278,-0.0239,0.8666,-6.75,7.92,-0.03,30.67
20229,0.3273,-0.0289,0.8619,-6.76,8.03,0.03,30.71
20239,0.3254,-0.0244,0.8696,-6.69,8.0,0.03,30.7
20249,0.3271,-0.0245,0.866,-6.81,7.92,0.02,30.7
20259,0.3287,-0.0262,0.8704,-6.73,7.97,0.08,30.67
20269,0.3281,-0.0282,0.8654,-6.73,8.0,-0.02,30.69
20279,0.3273,-0.0275,0.868,-6.85,7.91,0.0,30.66
20289,0.3297,-0.0294,0.8679,-6.72,7.88,0.0,30.68
20299,0.3291,-0.0249,0.8662,-6.7,7.97,0.0,30.69
20309,0.3276,-0.0251,0.8655,-6.72,8.03,-0.02,30.65
20319,0.328,-0.0258,0.8612,-6.75,8.05,0.02,30.68
20329,0.3263,-0.0275,0.8643,-6.78,7.98,-0.05,30.67
20339,0.3275,-0.0259,0.865,-6.78,7.94,0.02,30.69
20349,0.3264,-0.0256,0.8655,-6.81,7.98,-0.05,30.67
20359,0.3262,-0.0229,0.8619,-6.7,7.92,0.06,30.68
20369,0.3267,-0.0272,0.8694,-6.85,8.02,-0.08,30.67
20379,0.3274,-0.0255,0.8639,-6.85,7.94,-0.05,30.69
20389,0.3285,-0.0262,0.8654,-6.92,7.92,-0.06,30.67
20399,0.328,-0.0282,0.8683,-6.72,7.98,-0.03,30.66
20409,0.3286,-0.0237,0.8663,-6.78,7.95,0.0,30.67
20419,0.3269,-0.022,0.8676,-6.75,7.91,-0.06,30.69
20429,0.3269,-0.0248,0.8684,-6.79,7.97,-0.05,30.69
20439,0.3291,-0.0237,0.8673,-6.79,7.98,-0.02,30.68
20449,0.3265,-0.024,0.861,-6.75,7.98,-0.06,30.69
20459,0.3251,-0.0277,0.8645,-6.76,7.95,-0.03,30.68
20469,0.3274,-0.0261,0.865,-6.82,7.98,-0.05,30.67
20479,0.328,-0.0256,0.8633,-6.79,7.94,-0.09,30.7
20489,0.3265,-0.0283,0.8634,-6.82,8.06,0.03,30.67
20499,0.3282,-0.0251,0.8629,-6.81,7.98,-0.05,30.68
20509,0.3282,-0.0264,0.8639,-6.78,7.95,0.02,30.68
20519,0.3275,-0.0251,0.866,-6.78,7.95,-0.09,30.7
20529,0.327,-0.0277,0.8641,-6.78,7.95,-0.02,30.68
20539,0.3281,-0.024,0.8663,-6.73,7.91,-0.09,30.69
20549,0.3264,-0.0269,0.8669,-6.69,7.98,-0.05,30.7
20559,0.3285,-0.0247,0.8632,-6.72,7.97,0.0,30.68
20569,0.3259,-0.0253,0.8634,-6.72,7.94,-0.09,30.68
20579,0.3286,-0.0247,0.8646,-6.81,7.94,-0.06,30.68
20589,0.3308,-0.024,0.8636,-6.81,7.97,-0.09,30.71
20599,0.328,-0.0255,0.8652,-6.76,8.06,-0.09,30.68
20609,0.3282,-0.0231,0.8624,-6.81,7.94,0.08,30.66
20619,0.3281,-0.0229,0.8636,-6.85,8.0,-0.09,30.67
20629,0.328,-0.0266,0.8644,-6.78,7.97,-0.06,30.71
20639,0.3291,-0.0249,0.8645,-6.81,8.0,-0.05,30.69
20649,0.3256,-0.0251,0.8634,-6.81,8.05,-0.06,30.69
20659,0.3293,-0.0277,0.869,-6.76,7.86,-0.05,30.69
20669,0.3292,-0.0234,0.8644,-6.82,7.91,0.03,30.66
20679,0.3258,-0.0269,0.8633,-6.72,7.98,-0.06,30.64
20689,0.3287,-0.0243,0.8672,-6.85,7.97,0.02,30.67
20699,0.3273,-0.0259,0.8644,-6.75,8.02,0.03,30.68
20709,0.3267,-0.0289,0.8649,-6.78,7.98,-0.03,30.7
20719,0.3285,-0.0251,0.8646,-6.75,7.91,-0.06,30.69
20729,0.3292,-0.0256,0.8668,-6.78,7.94,-0.05,30.69
20739,0.3302,-0.0265,0.8647,-6.79,7.97,-0.12,30.69
20749,0.3281,-0.0258,0.8698,-6.87,7.88,-0.09,30.69
20759,0.328,-0.0234,0.8641,-6.78,7.95,-0.03,30.67
20769,0.3264,-0.0261,0.8632,-6.78,8.05,-0.05,30.68
20779,0.3296,-0.0281,0.8644,-6.79,7.97,-0.08,30.7
20789,0.3254,-0.028,0.8695,-6.81,7.98,-0.03,30.69
20799,0.3256,-0.0248,0.8657,-6.79,7.95,-0.05,30.71
20809,0.3278,-0.0271,0.8611,-6.75,7.95,-0.05,30.67
20819,0.3264,-0.0239,0.8625,-6.82,8.03,0.0,30.7
20829,0.3297,-0.0251,0.8647,-6.79,8.02,-0.02,30.69
20839,0.3306,-0.0247,0.8634,-6.84,7.98,-0.06,30.71
20849,0.3286,-0.025,0.8622,-6.75,7.91,-0.14,30.69
20859,0.3275,-0.0253,0.8674,-6.79,8.0,-0.08,30.7
20869,0.3263,-0.0267,0.8643,-6.79,8.02,-0.05,30.68
20879,0.3267,-0.0249,0.8658,-6.79,7.97,-0.06,30.7
20889,0.3279,-0.0242,0.8674,-6.76,7.95,-0.06,30.69
20899,0.3275,-0.0254,0.8636,-6.78,7.91,-0.06,30.7
20909,0.3293,-0.0271,0.8657,-6.81,7.98,-0.08,30.69
20919,0.3263,-0.026,0.8646,-6.76,7.91,-0.03,30.7
20929,0.328,-0.0275,0.8633,-6.73,8.03,0.03,30.72
20939,0.328,-0.0236,0.8676,-6.92,8.05,-0.09,30.7
20949,0.3264,-0.025,0.8641,-6.79,7.98,-0.11,30.69
20959,0.3287,-0.024,0.8671,-6.73,7.97,-0.02,30.71
20969,0.3274,-0.0261,0.8682,-6.72,7.91,-0.08,30.7
20979,0.33,-0.0265,0.8651,-6.79,7.98,0.03,30.71
20989,0.3274,-0.028,0.8663,-6.72,7.97,0.02,30.7
20999,0.3247,-0.0265,0.8678,-6.76,8.0,-0.02,30.69
21009,0.3258,-0.0262,0.8672,-6.7,7.98,-0.06,30.7
21019,0.3275,-0.0261,0.8655,-6.79,7.97,-0.02,30.67
21029,0.3279,-0.0249,0.8677,-6.82,7.97,-0.11,30.7
21039,0.3291,-0.0244,0.8657,-6.75,7.94,-0.06,30.68
21049,0.3292,-0.025,0.8649,-6.79,8.0,0.02,30.67
21059,0.326,-0.0254,0.8627,-6.75,8.0,-0.02,30.68
21069,0.3281,-0.0271,0.8638,-6.78,7.92,-0.09,30.69
21079,0.3309,-0.0261,0.8635,-6.72,7.94,0.06,30.71
21089,0.3243,-0.0266,0.8601,-6.7,8.08,-0.06,30.69
21099,0.3281,-0.0244,0.8624,-6.82,8.02,-0.05,30.71
21109,0.3291,-0.0264,0.863,-6.75,7.94,0.0,30.69
21119,0.3279,-0.0273,0.8679,-6.82,7.95,0.0,30.69
21129,0.33,-0.0269,0.8685,-6.75,7.92,-0.03,30.7
21139,0.3289,-0.0258,0.8657,-6.81,7.92,0.02,30.69
21149,0.3268,-0.0233,0.869,-6.75,7.95,-0.03,30.68
21159,0.3278,-0.0245,0.8688,-6.78,7.94,-0.09,30.68
21169,0.3291,-0.0271,0.8685,-6.72,7.94,-0.05,30.68
21179,0.3304,-0.0267,0.8649,-6.7,7.98,-0.06,30.69
21189,0.3318,-0.0259,0.8644,-6.78,7.92,-0.09,30.69
21199,0.3268,-0.0272,0.8658,-6.81,7.94,-0.08,30.69
21209,0.3278,-0.0264,0.8657,-6.84,7.89,-0.02,30.7
21219,0.3285,-0.0219,0.866,-6.7,7.92,-0.06,30.68
21229,0.3307,-0.0278,0.8665,-6.81,7.94,-0.06,30.7
21239,0.3265,-0.0249,0.8623,-6.75,8.02,-0.06,30.69
21249,0.3286,-0.0269,0.8647,-6.85,7.94,-0.06,30.7
21259,0.3252,-0.0251,0.8639,-6.81,7.92,0.03,30.69
21269,0.3265,-0.0271,0.8634,-6.72,8.02,-0.06,30.71
21279,0.3292,-0.026,0.8641,-6.78,7.92,-0.05,30.7
21289,0.328,-0.0234,0.8672,-6.72,7.97,-0.05,30.73
21299,0.3296,-0.0227,0.8683,-6.73,7.95,-0.06,30.71
21309,0.3271,-0.027,0.8644,-6.7,8.05,-0.06,30.69
21319,0.3276,-0.0258,0.8647,-6.73,7.92,-0.08,30.68
21329,0.3286,-0.0253,0.864,-6.87,7.95,-0.06,30.67
21339,0.3303,-0.0233,0.8641,-6.76,8.0,-0.08,30.69
21349,0.3273,-0.0283,0.8649,-6.72,7.98,0.0,30.68
21359,0.3317,-0.0286,0.8622,-6.63,7.91,-0.02,30.71
21369,0.3308,-0.025,0.8688,-6.75,7.97,-0.08,30.72
21379,0.327,-0.0242,0.8639,-6.82,8.03,-0.05,30.72
21389,0.329,-0.0267,0.8667,-6.78,8.03,-0.03,30.7
21399,0.3269,-0.0273,0.8668,-6.78,8.03,0.05,30.72
21409,0.3291,-0.0289,0.8671,-6.82,8.05,-0.05,30.71
21419,0.325,-0.0288,0.8668,-6.73,7.97,-0.03,30.69
21429,0.3264,-0.0231,0.866,-6.78,8.02,0.02,30.7
21439,0.3284,-0.0223,0.8656,-6.76,8.0,-0.06,30.69
21449,0.3273,-0.0248,0.8638,-6.79,7.95,0.06,30.72
21459,0.3286,-0.0251,0.8634,-6.78,7.94,-0.06,30.71
21469,0.3257,-0.026,0.8635,-6.66,7.95,0.0,30.69
21479,0.3304,-0.0245,0.8643,-6.75,7.98,-0.08,30.71
21489,0.329,-0.0237,0.8662,-6.81,7.92,0.08,30.7
21499,0.3267,-0.0282,0.8665,-6.73,8.06,0.06,30.7
21509,0.3296,-0.0262,0.8663,-6.69,7.97,-0.06,30.69
21519,0.3286,-0.0215,0.8673,-6.75,8.0,-0.02,30.68
21529,0.3265,-0.024,0.8617,-6.75,7.88,-0.06,30.69
21539,0.3259,-0.0236,0.8643,-6.84,8.0,-0.05,30.7
21549,0.3265,-0.0269,0.8651,-6.79,7.97,-0.03,30.72
21559,0.326,-0.0281,0.8651,-6.78,7.97,-0.02,30.71
21569,0.3285,-0.0261,0.8628,-6.76,8.05,0.02,30.7
21579,0.33,-0.0273,0.8663,-6.82,7.98,0.08,30.7
21589,0.3292,-0.028,0.865,-6.78,7.97,-0.06,30.68
21599,0.3284,-0.0229,0.8623,-6.69,7.97,-0.02,30.67
21609,0.329,-0.0256,0.8663,-6.76,7.97,-0.09,30.72
21619,0.3263,-0.0248,0.8669,-6.76,7.97,-0.17,30.69
21629,0.3298,-0.026,0.8643,-6.79,7.94,-0.02,30.68
21639,0.3281,-0.0236,0.8671,-6.79,7.97,-0.02,30.67
21649,0.3254,-0.0232,0.8644,-6.76,8.03,-0.03,30.69
21659,0.3282,-0.0255,0.863,-6.75,7.98,-0.05,30.71
21669,0.3312,-0.0254,0.8649,-6.84,7.92,-0.02,30.71
21679,0.3265,-0.0238,0.8695,-6.81,7.95,-0.05,30.67
21689,0.3276,-0.0259,0.8666,-6.87,8.02,-0.05,30.69
21699,0.3276,-0.0255,0.8665,-6.79,8.05,-0.03,30.72
21709,0.3278,-0.0234,0.8643,-6.81,7.98,-0.03,30.67
21719,0.3264,-0.0232,0.8618,-6.81,7.92,0.0,30.7
21729,0.3286,-0.0261,0.8656,-6.72,7.97,-0.08,30.67
21739,0.3282,-0.0266,0.8643,-6.79,8.0,-0.02,30.7
21749,0.3293,-0.0251,0.869,-6.7,7.92,-0.05,30.66
21759,0.3287,-0.0249,0.8643,-6.75,7.95,-0.06,30.69
21769,0.3295,-0.0251,0.8645,-6.79,7.98,0.03,30.72
21779,0.3284,-0.0273,0.8618,-6.84,7.95,-0.05,30.71
21789,0.3289,-0.0288,0.8639,-6.81,7.89,-0.03,30.71
21799,0.3246,-0.0259,0.864,-6.87,7.95,0.03,30.7
21809,0.3262,-0.0258,0.8658,-6.78,7.95,0.03,30.7
21819,0.3274,-0.0232,0.8693,-6.73,7.89,-0.02,30.68
21829,0.329,-0.0249,0.8669,-6.76,7.95,-0.09,30.69
21839,0.3296,-0.0275,0.8663,-6.85,7.98,0.02,30.69
21849,0.3278,-0.0284,0.8656,-6.87,7.95,0.12,30.7
21859,0.3286,-0.0254,0.8673,-6.81,8.02,-0.06,30.69
21869,0.3274,-0.0259,0.8645,-6.81,7.91,-0.06,30.71
21879,0.3273,-0.0269,0.865,-6.81,7.94,-0.05,30.71
21889,0.3292,-0.0243,0.8674,-6.82,8.03,-0.03,30.71
21899,0.3257,-0.0272,0.8641,-6.82,7.92,-0.03,30.7
21909,0.3271,-0.0262,0.8649,-6.76,7.97,-0.05,30.69
21919,0.3256,-0.0248,0.8633,-6.72,7.94,0.03,30.67
21929,0.3273,-0.0231,0.8658,-6.75,7.97,-0.03,30.71
21940,0.3284,-0.0225,0.8639,-6.73,7.92,-0.09,30.7
21950,0.3308,-0.0271,0.8604,-6.79,8.02,-0.02,30.69
21960,0.3256,-0.0259,0.8634,-6.87,8.03,-0.02,30.7
21970,0.3257,-0.026,0.8641,-6.76,8.0,-0.05,30.73
21980,0.3269,-0.0247,0.863,-6.73,7.89,-0.03,30.7
21990,0.3248,-0.0237,0.8611,-6.78,8.02,-0.06,30.68
22001,0.3258,-0.0262,0.8638,-6.81,7.95,0.0,30.68
22011,0.3279,-0.0249,0.8636,-6.84,7.97,0.02,30.7
22021,0.3284,-0.0291,0.865,-6.81,7.98,-0.12,30.7
22032,0.328,-0.0255,0.8665,-6.78,7.98,-0.03,30.7
22042,0.3278,-0.0228,0.8679,-6.84,7.97,-0.02,30.71
22052,0.3286,-0.025,0.8677,-6.84,8.06,-0.06,30.72
22062,0.3259,-0.0254,0.8668,-6.76,8.02,-0.03,30.7
22072,0.3292,-0.026,0.8602,-6.7,7.95,0.02,30.67
22082,0.3275,-0.0258,0.8585,-6.73,7.95,-0.09,30.7
22092,0.3298,-0.0254,0.8656,-6.72,7.95,-0.02,30.69
22102,0.3276,-0.0259,0.8645,-6.78,7.92,-0.08,30.68
22112,0.3279,-0.0237,0.8652,-6.84,7.98,-0.02,30.73
22122,0.3274,-0.0239,0.8683,-6.75,8.0,-0.09,30.68
22132,0.3293,-0.0281,0.866,-6.7,8.03,-0.14,30.69
22142,0.3275,-0.0244,0.8704,-6.75,7.98,-0.08,30.72
22152,0.3309,-0.0266,0.8705,-6.75,8.03,-0.02,30.72
22162,0.3268,-0.0258,0.8647,-6.87,7.97,-0.05,30.69
22172,0.3303,-0.0244,0.8684,-6.85,7.97,-0.02,30.67
22182,0.3271,-0.0262,0.864,-6.75,7.97,-0.02,30.7
22193,0.3295,-0.0251,0.8669,-6.84,7.98,-0.02,30.72
22203,0.3289,-0.0264,0.8656,-6.87,7.97,-0.03,30.72
22213,0.3267,-0.0261,0.8623,-6.78,7.95,-0.06,30.67
22223,0.3257,-0.0253,0.8627,-6.76,7.98,0.05,30.7
22233,0.3296,-0.0229,0.8689,-6.78,8.0,-0.03,30.7
22243,0.3281,-0.0243,0.8665,-6.73,8.0,-0.03,30.69
22253,0.3275,-0.0248,0.8655,-6.75,7.94,-0.02,30.7
22263,0.3262,-0.0269,0.8643,-6.69,7.95,-0.09,30.71
22273,0.3303,-0.0244,0.8662,-6.87,7.97,0.03,30.72
22283,0.3297,-0.0281,0.8656,-6.84,7.97,-0.06,30.7
22293,0.3289,-0.0259,0.8673,-6.78,8.08,-0.02,30.71
22303,0.3304,-0.0261,0.8679,-6.73,7.94,-0.08,30.67
22313,0.3278,-0.0244,0.8635,-6.84,7.94,0.05,30.72
22323,0.3263,-0.028,0.864,-6.73,7.98,0.09,30.71
22333,0.3279,-0.0286,0.8678,-6.72,7.92,-0.02,30.69
22343,0.3291,-0.0254,0.8657,-6.79,8.0,-0.09,30.72
22353,0.328,-0.0256,0.8657,-6.84,8.0,-0.05,30.69
22363,0.3259,-0.0244,0.8651,-6.75,7.98,0.0,30.68
22373,0.3302,-0.0258,0.8651,-6.84,7.94,0.0,30.71
22383,0.3306,-0.0223,0.8665,-6.82,7.97,0.02,30.7
22393,0.3275,-0.0245,0.8685,-6.79,7.98,-0.05,30.72
22403,0.3251,-0.0234,0.8644,-6.78,7.92,-0.06,30.71
22413,0.3284,-0.0275,0.8652,-6.79,7.95,0.0,30.67
22423,0.3258,-0.0269,0.8683,-6.76,7.98,0.05,30.71
22433,0.327,-0.0245,0.8661,-6.75,7.95,-0.02,30.72
22443,0.3279,-0.0248,0.868,-6.79,7.95,-0.02,30.71
22453,0.3285,-0.0284,0.8667,-6.76,7.95,0.05,30.72
22463,0.33,-0.026,0.8656,-6.81,8.05,-0.06,30.72
22473,0.3271,-0.0243,0.8668,-6.76,7.89,-0.09,30.69
22483,0.3285,-0.0269,0.8663,-6.76,8.02,0.08,30.69
22493,0.3273,-0.0239,0.8655,-6.84,7.98,-0.05,30.68
22503,0.328,-0.0271,0.8636,-6.73,7.94,-0.06,30.69
22513,0.3276,-0.026,0.8657,-6.72,8.02,-0.03,30.7
22523,0.3301,-0.0251,0.8649,-6.69,7.92,-0.08,30.69
22533,0.3291,-0.0262,0.8673,-6.73,7.91,-0.06,30.72
22543,0.3281,-0.0282,0.8682,-6.75,7.92,-0.06,30.73
22553,0.3273,-0.0248,0.8639,-6.79,7.98,-0.08,30.7
22563,0.3271,-0.0264,0.8647,-6.87,7.95,-0.12,30.7
22573,0.3253,-0.0267,0.8678,-6.82,7.95,-0.08,30.7
22583,0.3278,-0.0261,0.8667,-6.82,7.95,-0.06,30.7
22593,0.3267,-0.0245,0.8633,-6.89,7.92,-0.09,30.71
22603,0.3259,-0.0272,0.8662,-6.69,8.02,0.02,30.71
22613,0.3274,-0.0254,0.8618,-6.72,7.95,-0.02,30.73
22623,0.3287,-0.0251,0.8656,-6.85,8.02,0.03,30.68
22633,0.3269,-0.0259,0.8632,-6.84,7.98,-0.03,30.69
22643,0.3292,-0.0245,0.8601,-6.87,8.06,-0.08,30.72
22653,0.3296,-0.0266,0.8629,-6.78,7.98,0.02,30.7
22663,0.3271,-0.0266,0.8654,-6.78,7.95,-0.03,30.72
22673,0.3287,-0.0269,0.8628,-6.85,7.98,-0.05,30.71
22683,0.3303,-0.0277,0.8644,-6.73,8.05,-0.06,30.7
22693,0.3304,-0.027,0.8657,-6.82,7.97,-0.05,30.67
22703,0.3279,-0.0242,0.8674,-6.87,7.94,-0.08,30.69
22713,0.3282,-0.0245,0.8666,-6.75,7.92,0.02,30.73
22723,0.3274,-0.0244,0.8656,-6.76,7.91,-0.08,30.68
22733,0.3256,-0.0276,0.8628,-6.79,8.02,0.09,30.7
22743,0.329,-0.0265,0.8656,-6.81,7.97,-0.06,30.71
22753,0.3287,-0.0275,0.8672,-6.78,7.94,-0.05,30.71
22763,0.326,-0.0234,0.8652,-6.75,8.0,-0.03,30.69
22773,0.3274,-0.0265,0.8658,-6.67,7.97,-0.02,30.71
22783,0.3293,-0.0256,0.8628,-6.79,7.95,-0.09,30.7
22793,0.3287,-0.0247,0.8695,-6.75,7.95,-0.12,30.69
22803,0.3268,-0.026,0.8658,-6.85,7.98,0.06,30.71
22813,0.3251,-0.0282,0.8701,-6.84,8.02,-0.05,30.72
22823,0.3318,-0.0254,0.8646,-6.84,7.98,0.06,30.7
22833,0.3284,-0.0269,0.8672,-6.82,7.97,-0.02,30.71
22843,0.326,-0.0259,0.8641,-6.76,7.97,0.02,30.73
22853,0.3289,-0.0231,0.8673,-6.82,7.95,-0.05,30.74
22863,0.3279,-0.0286,0.864,-6.76,8.03,-0.09,30.73
22873,0.3259,-0.0264,0.8663,-6.73,8.0,0.0,30.73
22883,0.3263,-0.0233,0.8635,-6.81,8.05,0.06,30.71
22893,0.3262,-0.0254,0.8639,-6.76,8.0,-0.09,30.72
22903,0.3292,-0.0262,0.8666,-6.73,8.02,-0.03,30.73
22913,0.3325,-0.0256,0.8644,-6.85,8.0,-0.05,30.7
22923,0.3296,-0.0272,0.8646,-6.75,7.97,0.09,30.72
22933,0.3286,-0.0269,0.8652,-6.76,7.92,-0.02,30.71
22943,0.3262,-0.0248,0.8604,-6.82,7.92,-0.08,30.71
22953,0.3287,-0.0265,0.8629,-6.73,7.92,0.0,30.71
22963,0.33,-0.0264,0.8663,-6.79,7.94,-0.05,30.72
22973,0.3254,-0.0271,0.8635,-6.89,7.95,-0.06,30.7
22983,0.328,-0.0236,0.8632,-6.79,7.92,-0.06,30.73
22993,0.3263,-0.0264,0.8623,-6.72,7.95,-0.06,30.73
23003,0.3248,-0.025,0.8665,-6.79,7.94,-0.08,30.72
23013,0.3268,-0.0273,0.8656,-6.75,7.91,0.0,30.72
23023,0.3267,-0.0249,0.8663,-6.72,7.91,0.0,30.72
23033,0.328,-0.0271,0.8611,-6.64,8.0,0.02,30.72
23043,0.3284,-0.0256,0.8646,-6.72,7.97,-0.09,30.72
23053,0.3275,-0.0254,0.8605,-6.79,7.95,-0.06,30.74
23063,0.3278,-0.0255,0.8656,-6.81,7.97,-0.08,30.68
23073,0.328,-0.0256,0.8654,-6.7,8.0,0.0,30.72
23083,0.3278,-0.0248,0.8636,-6.72,7.94,-0.03,30.71
23093,0.3284,-0.0245,0.8647,-6.73,7.91,0.11,30.71
23103,0.332,-0.0262,0.8654,-6.79,7.95,0.03,30.73
23113,0.3286,-0.0254,0.8661,-6.76,7.98,-0.02,30.72
23123,0.3237,-0.026,0.863,-6.81,7.98,-0.03,30.73
23133,0.3289,-0.0242,0.8673,-6.85,8.08,-0.15,30.71
23143,0.3298,-0.0261,0.8641,-6.82,7.94,0.02,30.72
23153,0.3296,-0.0232,0.8645,-6.7,7.97,-0.08,30.72
23163,0.3291,-0.0249,0.8623,-6.82,7.94,0.05,30.72
23173,0.328,-0.0265,0.8652,-6.75,7.89,0.02,30.72
23183,0.3301,-0.0253,0.8658,-6.78,7.95,0.05,30.71
23193,0.3291,-0.026,0.8639,-6.79,8.0,0.03,30.69
23203,0.3295,-0.0282,0.8654,-6.78,8.05,-0.03,30.73
23213,0.3282,-0.0271,0.8666,-6.76,7.92,0.03,30.76
23223,0.3264,-0.0271,0.8622,-6.78,7.89,-0.02,30.74
23233,0.3282,-0.0253,0.8619,-6.75,8.0,-0.05,30.73
23243,0.3259,-0.0249,0.8662,-6.73,7.92,0.03,30.72
23253,0.3254,-0.0255,0.8662,-6.79,7.92,-0.05,30.72
23263,0.3258,-0.0251,0.8629,-6.81,7.94,-0.02,30.73
23273,0.3279,-0.0264,0.8661,-6.81,7.91,0.03,30.74
23283,0.3289,-0.027,0.8633,-6.82,7.95,0.02,30.7
23293,0.3276,-0.021,0.8699,-6.67,7.95,0.02,30.71
23303,0.329,-0.025,0.8657,-6.73,7.97,0.0,30.72
23313,0.3268,-0.0227,0.8682,-6.81,7.95,-0.08,30.72
23323,0.3269,-0.024,0.8671,-6.76,8.0,-0.05,30.71
23333,0.3263,-0.0251,0.8612,-6.82,8.0,-0.03,30.71
23343,0.3292,-0.0262,0.8635,-6.81,8.0,0.02,30.72
23353,0.3246,-0.0261,0.8649,-6.75,8.03,-0.05,30.74
23363,0.3279,-0.0244,0.8693,-6.79,7.98,-0.02,30.7
23373,0.3262,-0.0281,0.866,-6.81,7.91,0.0,30.71
23383,0.3252,-0.0269,0.8702,-6.76,7.89,-0.02,30.73
23393,0.3254,-0.0275,0.8641,-6.78,7.86,-0.02,30.71
23403,0.325,-0.0254,0.8667,-6.87,7.86,0.05,30.69
23413,0.329,-0.0262,0.8633,-6.75,7.98,-0.09,30.73
23423,0.3269,-0.0236,0.8655,-6.81,8.03,-0.08,30.73
23433,0.3269,-0.025,0.8654,-6.89,7.97,-0.08,30.72
23443,0.3257,-0.0287,0.8667,-6.82,7.98,-0.02,30.71
23453,0.3265,-0.0243,0.8667,-6.76,7.97,-0.09,30.71
23464,0.3267,-0.0251,0.8673,-6.84,7.92,-0.03,30.73
23474,0.3302,-0.0275,0.8656,-6.73,7.98,-0.11,30.73
23484,0.3265,-0.0234,0.8633,-6.9,8.0,-0.02,30.7
23494,0.3232,-0.026,0.864,-6.82,8.0,-0.03,30.71
23504,0.3259,-0.0255,0.8616,-6.82,8.03,0.0,30.71
23514,0.3285,-0.0262,0.861,-6.79,7.97,-0.06,30.72
23525,0.3295,-0.0245,0.8696,-6.73,8.0,0.08,30.74
23535,0.33,-0.0262,0.8623,-6.67,7.92,-0.06,30.7
23545,0.3285,-0.0249,0.8621,-6.78,7.98,-0.03,30.69
23555,0.3329,-0.0244,0.8647,-6.81,7.95,-0.02,30.72
23565,0.3291,-0.0242,0.863,-6.79,7.91,-0.05,30.7
23575,0.3297,-0.025,0.8629,-6.89,7.97,-0.12,30.71
23585,0.327,-0.0237,0.8647,-6.78,7.98,-0.03,30.69
23595,0.3269,-0.0264,0.8643,-6.82,7.98,-0.06,30.72
23605,0.3289,-0.0277,0.8658,-6.81,7.98,-0.03,30.74
23615,0.3293,-0.0239,0.8635,-6.73,7.91,-0.02,30.72
23625,0.3279,-0.0259,0.8649,-6.72,7.88,-0.03,30.71
23635,0.328,-0.0269,0.8668,-6.87,8.03,0.08,30.74
23645,0.326,-0.0269,0.8669,-6.79,8.0,-0.03,30.74
23655,0.3285,-0.0253,0.8658,-6.73,7.97,-0.03,30.75
23665,0.3273,-0.0258,0.8649,-6.84,8.05,-0.03,30.71
23675,0.3279,-0.0265,0.8643,-6.79,7.95,0.02,30.68
23685,0.3296,-0.0269,0.866,-6.78,7.98,-0.03,30.72
23695,0.3269,-0.0278,0.8671,-6.76,7.92,0.05,30.72
23705,0.3301,-0.0249,0.8676,-6.85,7.98,0.0,30.72
23715,0.329,-0.0247,0.8636,-6.72,7.94,-0.02,30.72
23725,0.3286,-0.027,0.8624,-6.81,7.97,-0.02,30.72
23735,0.3245,-0.024,0.8663,-6.75,7.97,-0.05,30.72
23745,0.3281,-0.0237,0.8672,-6.87,8.02,-0.02,30.72
23755,0.3286,-0.0271,0.8639,-6.89,7.92,0.03,30.72
23765,0.3291,-0.0251,0.8611,-6.76,8.02,-0.03,30.72
23775,0.3264,-0.0259,0.8628,-6.76,7.97,-0.02,30.74
23785,0.3268,-0.0249,0.8646,-6.75,7.92,-0.02,30.75
23795,0.3276,-0.0234,0.863,-6.75,7.98,0.0,30.71
23805,0.3274,-0.0242,0.8625,-6.82,8.03,-0.05,30.73
23815,0.3252,-0.026,0.8622,-6.81,8.02,0.02,30.71
23825,0.3257,-0.0247,0.8647,-6.85,8.08,-0.08,30.7
23835,0.3257,-0.0248,0.8707,-6.73,7.95,0.02,30.7
23845,0.328,-0.026,0.8618,-6.84,7.91,0.0,30.71
23855,0.3251,-0.0281,0.8666,-6.75,7.98,-0.08,30.71
23865,0.328,-0.0255,0.8647,-6.81,7.89,-0.09,30.72
23875,0.3269,-0.0237,0.8622,-6.9,7.91,-0.05,30.7
23885,0.326,-0.0255,0.8668,-6.73,7.92,0.02,30.71
23895,0.3291,-0.0303,0.8663,-6.7,7.97,0.02,30.7
23905,0.328,-0.025,0.8638,-6.79,8.03,-0.03,30.72
23915,0.3293,-0.0255,0.8655,-6.82,8.06,-0.02,30.7
23925,0.3296,-0.0251,0.8655,-6.82,7.97,-0.09,30.72
23935,0.3274,-0.0238,0.8678,-6.84,7.95,-0.06,30.74
23945,0.3281,-0.0256,0.864,-6.9,7.94,-0.02,30.72
23955,0.3256,-0.0259,0.8639,-6.85,7.95,0.06,30.74
23965,0.3256,-0.0264,0.8623,-6.82,8.0,0.03,30.74
23975,0.3275,-0.0228,0.858,-6.85,7.91,0.03,30.74
23985,0.3273,-0.0259,0.8652,-6.75,8.0,-0.03,30.69
23995,0.328,-0.0258,0.8658,-6.85,7.92,0.02,30.73
24005,0.3276,-0.0262,0.8663,-6.87,7.95,0.0,30.73
24015,0.3276,-0.0251,0.8677,-6.79,7.95,-0.05,30.72
24025,0.3224,-0.0281,0.8647,-6.72,7.94,-0.03,30.68
24035,0.3274,-0.0254,0.8655,-6.76,7.98,-0.05,30.71
24045,0.3282,-0.0262,0.8683,-6.79,7.89,-0.03,30.72
24055,0.3274,-0.0236,0.8628,-6.76,7.98,-0.05,30.72
24065,0.3284,-0.0265,0.8647,-6.92,7.94,-0.06,30.72
24075,0.3263,-0.0267,0.8674,-6.79,7.98,0.06,30.72
24085,0.3278,-0.024,0.8707,-6.72,7.94,0.0,30.74
24095,0.3258,-0.0273,0.8641,-6.82,7.91,-0.06,30.72
24105,0.3264,-0.0239,0.8632,-6.78,8.0,-0.06,30.73
24115,0.3276,-0.0247,0.8652,-6.82,7.95,-0.03,30.72
24125,0.328,-0.0253,0.8662,-6.76,7.97,-0.14,30.75
24135,0.3306,-0.0258,0.8652,-6.84,7.97,-0.06,30.73
24145,0.3289,-0.0278,0.8621,-6.82,8.0,-0.06,30.69
24155,0.3262,-0.0247,0.8666,-6.85,8.0,-0.08,30.73
24165,0.3284,-0.0243,0.8663,-6.69,7.95,-0.11,30.73
24175,0.3297,-0.0229,0.8638,-6.69,8.0,0.06,30.72
24185,0.3304,-0.0247,0.8677,-6.81,8.03,-0.08,30.72
24195,0.3304,-0.0243,0.8644,-6.73,7.98,0.05,30.69
24205,0.3291,-0.0243,0.8661,-6.76,7.95,-0.02,30.73
24215,0.3282,-0.0275,0.8676,-6.72,8.0,-0.03,30.72
24225,0.3274,-0.0233,0.8665,-6.79,8.06,-0.05,30.73
24235,0.3282,-0.0272,0.8669,-6.78,7.95,-0.05,30.71
24245,0.3271,-0.0275,0.8649,-6.84,7.94,0.05,30.72
24255,0.3267,-0.0264,0.8688,-6.76,7.92,-0.03,30.72
24265,0.3263,-0.0247,0.8654,-6.87,7.94,-0.11,30.72
24275,0.3269,-0.0265,0.8652,-6.75,7.92,-0.03,30.71
24285,0.329,-0.0248,0.8656,-6.79,7.97,-0.08,30.73
24295,0.3273,-0.0251,0.8674,-6.82,7.97,0.06,30.7
24306,0.3275,-0.0261,0.8647,-6.73,7.86,-0.03,30.73
24317,0.3254,-0.0294,0.8688,-6.76,7.95,-0.02,30.71
24327,0.3264,-0.0276,0.8646,-6.73,7.91,-0.11,30.7
24337,0.3295,-0.0266,0.8629,-6.72,7.98,-0.05,30.72
24347,0.3263,-0.0239,0.8624,-6.84,7.92,-0.06,30.7
24357,0.3287,-0.0248,0.863,-6.73,7.92,-0.06,30.72
24367,0.3293,-0.0239,0.8654,-6.75,8.0,-0.12,30.72
24377,0.3275,-0.0276,0.8689,-6.7,8.08,0.02,30.72
24387,0.3284,-0.0256,0.8649,-6.81,7.97,0.05,30.72
24397,0.3275,-0.0283,0.8677,-6.73,7.94,-0.03,30.72
24407,0.3269,-0.0278,0.8667,-6.79,7.97,-0.02,30.74
24417,0.3286,-0.0236,0.864,-6.82,7.89,0.02,30.72
24427,0.3271,-0.0234,0.8661,-6.72,7.97,0.0,30.71
24437,0.3276,-0.0256,0.8668,-6.79,7.95,0.03,30.73
24447,0.3237,-0.0239,0.8647,-6.78,8.06,-0.02,30.71
24457,0.3292,-0.0261,0.8645,-6.78,8.06,-0.03,30.71
24467,0.3274,-0.0247,0.8647,-6.85,8.03,0.02,30.72
24477,0.3267,-0.0266,0.8629,-6.79,8.09,-0.02,30.72
24487,0.3269,-0.0216,0.8654,-6.78,8.03,0.0,30.73
24497,0.3298,-0.0264,0.8649,-6.9,7.95,-0.03,30.73
24507,0.3284,-0.0278,0.8655,-6.84,8.03,-0.03,30.73
24517,0.3303,-0.027,0.8639,-6.78,7.94,-0.05,30.74
24527,0.3279,-0.0278,0.8616,-6.82,7.94,0.0,30.73
24537,0.3271,-0.0255,0.8661,-6.7,7.95,0.02,30.72
24547,0.3267,-0.0265,0.8634,-6.81,8.0,0.0,30.73
24557,0.3273,-0.0254,0.8644,-6.85,7.92,-0.03,30.73
24567,0.3292,-0.0266,0.8683,-6.69,7.88,-0.05,30.71
24577,0.3298,-0.0266,0.8633,-6.76,7.86,-0.05,30.71
24587,0.33,-0.0284,0.8649,-6.81,7.94,-0.05,30.73
24597,0.3276,-0.0261,0.8647,-6.75,8.03,0.06,30.73
24607,0.324,-0.0262,0.8652,-6.76,7.98,-0.02,30.73
24617,0.3268,-0.024,0.8663,-6.81,7.91,0.06,30.74
24627,0.3251,-0.026,0.8652,-6.84,7.98,0.03,30.74
24637,0.328,-0.025,0.8651,-6.76,7.89,0.02,30.73
24647,0.3284,-0.0277,0.8632,-6.69,8.03,-0.09,30.71
24657,0.3282,-0.0247,0.8655,-6.81,7.97,-0.05,30.71
24667,0.3298,-0.0234,0.8633,-6.82,7.92,0.0,30.72
24677,0.3276,-0.0254,0.8641,-6.84,8.06,-0.05,30.71
24688,0.3291,-0.0271,0.8667,-6.82,7.97,0.02,30.73
24698,0.3275,-0.026,0.8656,-6.81,7.94,-0.11,30.72
24708,0.3306,-0.0262,0.8677,-6.72,7.97,-0.02,30.72
24718,0.3281,-0.0264,0.864,-6.78,8.0,-0.08,30.72
24728,0.3278,-0.0287,0.8644,-6.81,7.92,0.03,30.72
24738,0.3278,-0.0261,0.8666,-6.82,7.94,-0.03,30.73
24748,0.3296,-0.0242,0.8655,-6.76,7.95,-0.02,30.73
24758,0.3308,-0.0264,0.8665,-6.85,8.0,-0.06,30.73
24768,0.3285,-0.026,0.8654,-6.92,7.95,-0.05,30.74
24778,0.3263,-0.0234,0.8677,-6.76,7.98,-0.03,30.71
24788,0.3257,-0.0269,0.8645,-6.78,7.91,-0.06,30.69
24798,0.3265,-0.0251,0.8612,-6.87,7.97,-0.02,30.73
24809,0.3273,-0.0264,0.8658,-6.82,8.0,-0.03,30.71
24819,0.3301,-0.0278,0.8632,-6.78,8.02,-0.03,30.75
24829,0.3291,-0.026,0.8668,-6.79,8.11,-0.05,30.71
24839,0.327,-0.0259,0.8669,-6.72,8.03,0.02,30.73
24849,0.3287,-0.0258,0.8635,-6.73,7.94,-0.03,30.74
24859,0.3276,-0.0264,0.8678,-6.73,8.05,0.02,30.75
24869,0.3267,-0.0266,0.8638,-6.81,8.0,-0.05,30.72
24879,0.3282,-0.0256,0.8673,-6.75,7.88,-0.03,30.7
24889,0.3263,-0.0276,0.8666,-6.76,7.92,-0.05,30.74
24899,0.3276,-0.0255,0.8655,-6.81,7.94,0.0,30.73
24909,0.3279,-0.0267,0.8654,-6.79,7.91,-0.02,30.72
24919,0.3303,-0.0228,0.8658,-6.81,7.98,-0.15,30.72
24929,0.3291,-0.0243,0.8645,-6.72,7.95,-0.11,30.71
24939,0.326,-0.0269,0.8633,-6.76,7.95,-0.15,30.72
24949,0.3274,-0.0249,0.8669,-6.73,7.98,0.0,30.73
24959,0.3281,-0.0256,0.8621,-6.75,8.02,0.02,30.73
24969,0.3271,-0.0242,0.8624,-6.72,8.09,0.0,30.72
24979,0.3275,-0.0266,0.864,-6.81,8.0,-0.03,30.72
24989,0.3271,-0.0242,0.866,-6.87,7.88,-0.02,30.72
24999,0.3271,-0.0237,0.8657,-6.87,8.02,-0.06,30.71
25009,0.3285,-0.0234,0.865,-6.85,7.94,-0.03,30.69
25019,0.3275,-0.0249,0.8657,-6.84,7.83,-0.02,30.71
25029,0.3286,-0.0262,0.8674,-6.75,7.94,0.0,30.71
25039,0.3275,-0.0208,0.8666,-6.73,7.97,-0.02,30.73
25049,0.3262,-0.0243,0.8661,-6.85,7.97,0.09,30.74
25059,0.329,-0.0237,0.8641,-6.81,7.94,-0.09,30.74
25069,0.33,-0.0255,0.8632,-6.81,7.97,-0.05,30.72
25079,0.324,-0.0261,0.8613,-6.82,7.97,0.02,30.71
25089,0.3289,-0.0228,0.8662,-6.9,7.94,-0.03,30.72
25099,0.3297,-0.0251,0.8645,-6.87,7.95,-0.02,30.73
25109,0.3279,-0.0228,0.8645,-6.81,7.97,0.02,30.72
25119,0.3267,-0.0236,0.8645,-6.73,8.06,-0.03,30.74
25129,0.3276,-0.0231,0.8689,-6.79,7.97,-0.06,30.72
25139,0.3256,-0.0232,0.8662,-6.76,7.98,-0.05,30.7
25149,0.3312,-0.0253,0.8687,-6.82,8.02,-0.14,30.7
25159,0.3271,-0.0267,0.8679,-6.76,8.05,-0.03,30.7
25169,0.3286,-0.0245,0.8666,-6.82,8.0,-0.03,30.74
25179,0.3268,-0.0255,0.8679,-6.73,8.03,-0.08,30.73
25189,0.3234,-0.0265,0.8702,-6.78,8.02,0.0,30.73
25199,0.3275,-0.0275,0.8682,-6.78,7.97,-0.03,30.74
25209,0.3252,-0.0226,0.8624,-6.67,7.94,-0.08,30.74
25219,0.3298,-0.0256,0.8639,-6.69,8.02,-0.05,30.73
25229,0.332,-0.0265,0.8632,-6.73,8.03,-0.02,30.73
25239,0.3275,-0.0269,0.8639,-6.73,7.98,-0.11,30.73
25249,0.3285,-0.0269,0.8661,-6.85,7.97,-0.06,30.74
25259,0.3276,-0.0264,0.8654,-6.85,7.98,-0.11,30.75
25269,0.3289,-0.0262,0.8624,-6.75,7.88,-0.14,30.74
25279,0.3274,-0.0267,0.8656,-6.79,7.94,0.0,30.74
25289,0.3253,-0.0231,0.8655,-6.73,7.97,-0.06,30.74
25299,0.325,-0.0259,0.8662,-6.79,7.98,0.0,30.72
25309,0.3267,-0.0282,0.8678,-6.84,7.95,0.03,30.72
25319,0.3275,-0.0234,0.8634,-6.79,7.94,-0.09,30.72
25329,0.329,-0.0253,0.8621,-6.82,7.94,-0.11,30.72
25339,0.3264,-0.0242,0.8683,-6.81,8.02,0.03,30.72
25349,0.3247,-0.0267,0.8652,-6.76,7.97,-0.09,30.72
25359,0.3265,-0.0236,0.8678,-6.87,7.98,-0.03,30.72
25369,0.3273,-0.0265,0.8652,-6.81,7.97,-0.06,30.74
25379,0.3276,-0.0245,0.8657,-6.66,8.0,0.02,30.73
25389,0.3281,-0.0267,0.8668,-6.85,8.09,-0.05,30.73
25399,0.3278,-0.0245,0.8617,-6.87,8.0,0.03,30.72
25409,0.3279,-0.0232,0.8654,-6.75,7.92,0.02,30.71
25419,0.3315,-0.0265,0.8613,-6.84,7.97,-0.06,30.74
25429,0.3267,-0.0282,0.8666,-6.79,7.92,-0.03,30.75
25439,0.3271,-0.0262,0.8656,-6.75,7.98,-0.06,30.71
25449,0.33,-0.0254,0.8632,-6.82,7.94,-0.09,30.71
25459,0.3287,-0.0249,0.8662,-6.79,7.98,-0.06,30.73
25469,0.3279,-0.0275,0.8654,-6.78,8.03,-0.09,30.73
25479,0.329,-0.0264,0.8673,-6.82,7.98,-0.03,30.71
25490,0.3271,-0.0249,0.8678,-6.79,7.91,-0.05,30.72
25500,0.3269,-0.0254,0.8632,-6.82,7.97,-0.11,30.74
25510,0.327,-0.0282,0.8683,-6.79,8.0,-0.09,30.71
25520,0.3278,-0.0237,0.8685,-6.79,8.0,0.03,30.72
25530,0.3278,-0.0258,0.868,-6.82,7.94,-0.02,30.73
25540,0.326,-0.0239,0.8643,-6.73,7.98,-0.03,30.71
25550,0.3254,-0.0223,0.8683,-6.82,8.05,-0.05,30.73
25560,0.3268,-0.026,0.8655,-6.78,8.0,-0.06,30.72
25570,0.325,-0.0242,0.8646,-6.76,7.95,-0.05,30.72
25580,0.3285,-0.0236,0.863,-6.79,7.98,-0.06,30.71
25590,0.3243,-0.0244,0.8651,-6.79,7.92,-0.06,30.73
25600,0.3268,-0.0258,0.8646,-6.81,8.02,-0.06,30.75
25610,0.3269,-0.0255,0.8636,-6.72,8.05,-0.09,30.75
25620,0.3271,-0.025,0.8663,-6.79,8.03,-0.06,30.75
25630,0.3298,-0.0221,0.8643,-6.73,8.0,-0.03,30.71
25640,0.3262,-0.0248,0.8656,-6.79,7.88,-0.06,30.71
25650,0.326,-0.0259,0.8647,-6.81,7.95,0.0,30.74
25660,0.3258,-0.0276,0.8671,-6.79,7.92,-0.05,30.72
25670,0.327,-0.0256,0.8669,-6.75,7.94,-0.05,30.73
25680,0.326,-0.0217,0.8665,-6.78,8.02,-0.05,30.74
25691,0.329,-0.0271,0.8633,-6.73,7.94,0.0,30.72
25701,0.3285,-0.0231,0.8638,-6.81,8.0,0.0,30.73
25711,0.3273,-0.0266,0.8676,-6.78,8.0,-0.05,30.75
25721,0.3307,-0.024,0.8706,-6.73,7.97,-0.02,30.74
25731,0.3292,-0.0248,0.8634,-6.82,7.98,-0.12,30.73
25741,0.3281,-0.0245,0.8657,-6.89,7.98,0.03,30.74
25751,0.3271,-0.0243,0.8638,-6.78,8.02,-0.08,30.72
25761,0.3295,-0.0256,0.8665,-6.75,7.91,0.02,30.74
25771,0.3269,-0.0245,0.8634,-6.78,7.97,0.0,30.72
25781,0.3295,-0.0258,0.8625,-6.73,7.97,-0.03,30.75
25791,0.3289,-0.0236,0.8667,-6.78,7.95,0.02,30.73
25802,0.3274,-0.0272,0.864,-6.73,7.98,-0.02,30.72
25812,0.3269,-0.0248,0.8628,-6.85,7.97,-0.06,30.74
25823,0.3284,-0.0271,0.8667,-6.84,8.06,0.02,30.75
25833,0.3271,-0.0259,0.8619,-6.85,7.98,-0.03,30.74
25843,0.3324,-0.0249,0.8655,-6.79,7.97,0.03,30.76
25853,0.3315,-0.0243,0.8672,-6.87,7.95,-0.03,30.74
25863,0.3303,-0.0273,0.8651,-6.81,7.98,0.0,30.74
25873,0.3274,-0.0237,0.8682,-6.76,7.95,-0.05,30.74
25883,0.3285,-0.0272,0.8684,-6.78,7.95,-0.08,30.74
25893,0.3309,-0.025,0.8655,-6.84,7.94,-0.05,30.73
25903,0.327,-0.0233,0.8672,-6.85,8.0,0.05,30.75
25913,0.326,-0.0261,0.8672,-6.73,7.92,-0.08,30.72
25923,0.3248,-0.0249,0.8652,-6.78,8.0,-0.03,30.76
25933,0.3262,-0.0244,0.8645,-6.79,7.92,-0.05,30.76
25943,0.3279,-0.026,0.8627,-6.73,8.0,0.02,30.73
25953,0.3285,-0.0248,0.8666,-6.78,7.97,0.03,30.72
25963,0.3251,-0.0243,0.8672,-6.73,7.97,0.0,30.75
25973,0.3267,-0.0253,0.8662,-6.81,7.94,-0.02,30.72
25983,0.326,-0.0273,0.866,-6.7,7.97,-0.09,30.75
25993,0.3262,-0.0269,0.8611,-6.75,8.02,0.0,30.76
26003,0.3259,-0.0258,0.8655,-6.78,7.98,-0.03,30.76
26013,0.3287,-0.0259,0.861,-6.78,7.92,-0.02,30.73
26023,0.3256,-0.0239,0.866,-6.7,8.02,-0.02,30.74
26033,0.3264,-0.0278,0.865,-6.73,7.95,0.05,30.76
26043,0.3302,-0.0236,0.8656,-6.78,7.98,-0.05,30.74
26053,0.326,-0.0258,0.8649,-6.75,8.0,-0.02,30.74
26063,0.3247,-0.0251,0.8676,-6.69,7.97,0.02,30.75
26073,0.3296,-0.0272,0.8655,-6.78,7.89,-0.12,30.74
26083,0.3241,-0.0261,0.8619,-6.85,8.0,-0.02,30.75
26093,0.3267,-0.0266,0.869,-6.78,8.0,-0.06,30.75
26103,0.3295,-0.0249,0.8656,-6.85,7.95,0.0,30.77
26113,0.329,-0.0271,0.8628,-6.82,8.02,-0.02,30.74
26123,0.3293,-0.0271,0.8669,-6.85,7.98,0.05,30.72
26133,0.3301,-0.0262,0.8627,-6.84,7.95,-0.08,30.74
26143,0.3291,-0.0239,0.8672,-6.79,7.98,-0.14,30.74
26153,0.3273,-0.0258,0.8662,-6.73,7.97,0.06,30.74
26163,0.3239,-0.0244,0.863,-6.76,8.0,-0.03,30.76
26173,0.3301,-0.0243,0.8619,-6.82,8.0,-0.09,30.74
26183,0.3291,-0.0242,0.8616,-6.76,8.0,-0.09,30.75
26193,0.328,-0.0266,0.863,-6.84,8.0,0.0,30.73
26203,0.3286,-0.0253,0.8621,-6.85,7.95,-0.15,30.72
26213,0.3263,-0.027,0.8669,-6.81,7.97,-0.05,30.72
26223,0.329,-0.024,0.865,-6.81,7.97,-0.03,30.73
26233,0.3291,-0.0271,0.865,-6.84,7.95,-0.03,30.74
26243,0.3281,-0.0226,0.8658,-6.72,7.98,-0.05,30.75
26253,0.328,-0.0264,0.8683,-6.81,8.02,-0.05,30.75
26263,0.3271,-0.025,0.8673,-6.72,8.0,0.0,30.74
26273,0.3279,-0.026,0.866,-6.81,7.88,-0.06,30.72
26283,0.3247,-0.0232,0.8704,-6.89,7.97,-0.06,30.75
26293,0.3309,-0.0262,0.868,-6.78,8.03,-0.05,30.75
26303,0.3262,-0.0284,0.8641,-6.79,7.91,0.0,30.74
26313,0.3268,-0.0254,0.8658,-6.82,7.98,-0.06,30.74
26323,0.3275,-0.025,0.8667,-6.85,7.98,-0.06,30.75
26333,0.3289,-0.0248,0.8634,-6.87,8.05,-0.03,30.74
26343,0.3281,-0.0244,0.8641,-6.84,8.06,-0.05,30.72
26353,0.3275,-0.0247,0.8652,-6.82,8.0,-0.06,30.74
26363,0.3258,-0.0234,0.8643,-6.81,7.95,0.0,30.76
26373,0.3275,-0.0243,0.8677,-6.7,7.95,-0.05,30.74
26383,0.3275,-0.0234,0.8605,-6.78,7.91,-0.03,30.74
26393,0.3285,-0.0237,0.864,-6.75,8.03,-0.05,30.73
26403,0.3273,-0.0259,0.8677,-6.82,7.98,-0.03,30.74
26414,0.3269,-0.0251,0.8634,-6.79,8.03,0.0,30.75
26424,0.328,-0.0256,0.8635,-6.82,8.0,0.06,30.75
26434,0.3286,-0.0237,0.8657,-6.78,8.0,0.05,30.74
26444,0.3312,-0.0275,0.8635,-6.76,7.88,0.0,30.76
26454,0.3268,-0.0254,0.8667,-6.78,7.91,-0.02,30.77
26464,0.3289,-0.0228,0.8691,-6.81,8.0,-0.02,30.75
26474,0.3254,-0.0258,0.8635,-6.81,8.03,-0.12,30.74
26484,0.3279,-0.0258,0.8649,-6.78,7.95,0.02,30.77
26495,0.3286,-0.0258,0.8667,-6.76,7.97,0.02,30.74
26505,0.3263,-0.0265,0.8628,-6.78,7.98,0.03,30.75
26515,0.3291,-0.0259,0.8641,-6.84,8.05,-0.05,30.74
26525,0.3259,-0.0275,0.8684,-6.85,7.95,0.03,30.77
26535,0.329,-0.0248,0.8679,-6.78,8.0,0.0,30.76
26545,0.33,-0.0277,0.8628,-6.75,7.97,-0.09,30.75
26555,0.3278,-0.0286,0.8643,-6.81,7.98,-0.12,30.76
26565,0.3295,-0.0266,0.8662,-6.76,7.89,-0.02,30.73
26575,0.328,-0.0251,0.8639,-6.79,7.98,0.03,30.74
26585,0.33,-0.0267,0.8638,-6.82,7.97,-0.03,30.76
26595,0.329,-0.0264,0.8657,-6.72,7.95,-0.08,30.74
26605,0.3312,-0.0244,0.8633,-6.81,8.05,-0.03,30.75
26615,0.3285,-0.0289,0.8635,-6.84,7.98,-0.05,30.76
26626,0.3279,-0.026,0.8652,-6.73,8.0,0.05,30.75
26636,0.3295,-0.0254,0.8666,-6.82,8.0,0.0,30.74
26646,0.3308,-0.0247,0.8651,-6.81,7.92,-0.05,30.73
26656,0.3274,-0.0258,0.8684,-6.81,8.0,0.03,30.75
26666,0.3301,-0.0255,0.8654,-6.82,8.0,-0.03,30.75
26676,0.3291,-0.0256,0.864,-6.72,7.95,0.02,30.75
26686,0.3275,-0.0245,0.8676,-6.79,7.98,-0.09,30.76
26696,0.3269,-0.0261,0.8684,-6.76,8.03,-0.09,30.75
26706,0.3285,-0.026,0.8678,-6.89,7.95,-0.08,30.73
26716,0.3275,-0.0254,0.8685,-6.84,7.92,-0.09,30.76
26726,0.3276,-0.0262,0.8666,-6.81,7.97,0.02,30.75
26736,0.3273,-0.028,0.8667,-6.82,7.97,-0.02,30.74
26747,0.3284,-0.0271,0.8668,-6.81,8.03,0.02,30.75
26757,0.3295,-0.026,0.8658,-6.73,8.03,0.02,30.72
26767,0.3268,-0.0275,0.8706,-6.7,8.0,-0.02,30.75
26777,0.3278,-0.0283,0.8652,-6.84,8.03,-0.08,30.74
26787,0.3269,-0.0258,0.8611,-6.73,8.05,0.0,30.73
26797,0.327,-0.0275,0.8633,-6.75,8.02,-0.05,30.74
26807,0.3257,-0.0282,0.8644,-6.76,7.94,-0.15,30.73
26817,0.3292,-0.0237,0.8658,-6.79,7.92,-0.06,30.75
26827,0.3302,-0.025,0.8658,-6.89,7.95,0.0,30.75
26837,0.33,-0.0272,0.8623,-6.78,7.95,0.03,30.77
26847,0.3292,-0.0253,0.8635,-6.79,8.06,0.02,30.75
26857,0.3279,-0.0242,0.8625,-6.79,7.95,0.09,30.74
26867,0.3248,-0.0267,0.8649,-6.73,8.0,0.05,30.75
26877,0.3253,-0.0254,0.8674,-6.72,8.02,-0.08,30.74
26887,0.3291,-0.0255,0.8643,-6.82,7.94,0.0,30.73
26897,0.3258,-0.0256,0.8666,-6.75,7.94,-0.11,30.76
26907,0.3284,-0.0248,0.8669,-6.78,7.94,0.03,30.74
26917,0.3279,-0.0267,0.8668,-6.79,7.89,-0.02,30.72
26927,0.3303,-0.0281,0.868,-6.72,7.97,0.03,30.72
26937,0.325,-0.0277,0.8685,-6.78,8.03,-0.02,30.75
26947,0.3279,-0.0265,0.8677,-6.76,7.98,-0.05,30.75
26957,0.3269,-0.0261,0.8627,-6.82,7.92,0.02,30.77
26967,0.33,-0.0244,0.8651,-6.82,7.92,-0.11,30.77
26977,0.3292,-0.0269,0.8651,-6.79,7.95,-0.14,30.77
26987,0.3306,-0.0248,0.8667,-6.81,7.94,-0.02,30.76
26997,0.3328,-0.0271,0.8679,-6.92,7.98,0.06,30.74
27007,0.3307,-0.0259,0.8654,-6.82,7.91,-0.03,30.75
27017,0.3289,-0.0266,0.8655,-6.81,7.98,0.02,30.74
27027,0.3268,-0.0255,0.8633,-6.72,7.95,-0.09,30.72
27037,0.3263,-0.0247,0.864,-6.78,8.0,-0.08,30.76
27047,0.3278,-0.0239,0.8685,-6.72,7.88,-0.02,30.78
27057,0.3292,-0.0248,0.8663,-6.73,8.03,0.05,30.73
27067,0.3252,-0.0271,0.8636,-6.76,7.94,0.02,30.74
27077,0.3307,-0.0239,0.8688,-6.84,7.94,-0.05,30.78
27087,0.3271,-0.0242,0.8695,-6.76,8.05,-0.09,30.75
27097,0.3248,-0.0267,0.8643,-6.73,7.98,0.0,30.76
27107,0.3274,-0.0245,0.8677,-6.76,7.98,0.02,30.75
27117,0.3264,-0.0253,0.8707,-6.75,8.0,0.0,30.77
27127,0.3268,-0.0255,0.8634,-6.73,8.06,0.02,30.76
27137,0.3287,-0.0267,0.8649,-6.72,7.97,0.08,30.73
27147,0.3282,-0.0261,0.869,-6.76,8.06,0.08,30.74
27157,0.326,-0.0288,0.8646,-6.82,7.97,0.0,30.74
27167,0.3285,-0.0255,0.8674,-6.76,7.91,0.02,30.76
27177,0.3263,-0.0244,0.8639,-6.72,7.89,-0.06,30.74
27187,0.3293,-0.0251,0.8625,-6.84,7.92,0.02,30.73
27197,0.3251,-0.0258,0.8627,-6.81,8.02,-0.09,30.73
27207,0.3252,-0.0255,0.8652,-6.79,7.95,-0.02,30.74
27217,0.325,-0.0271,0.8669,-6.82,8.0,-0.09,30.76
27227,0.3275,-0.0261,0.8671,-6.66,8.02,-0.02,30.77
27237,0.327,-0.0272,0.8666,-6.81,7.89,-0.02,30.74
27247,0.3271,-0.0273,0.8645,-6.69,7.98,-0.09,30.77
27257,0.3257,-0.0256,0.8663,-6.72,8.03,-0.09,30.73
27267,0.3285,-0.025,0.8636,-6.85,7.98,0.06,30.74
27277,0.3267,-0.0226,0.8676,-6.84,8.02,-0.05,30.77
27287,0.3265,-0.0266,0.8655,-6.7,8.11,-0.02,30.77
27297,0.3292,-0.0248,0.8667,-6.78,7.95,-0.05,30.76
27307,0.3259,-0.0258,0.8632,-6.84,7.95,0.03,30.75
27317,0.3275,-0.0255,0.865,-6.79,7.95,0.0,30.76
27327,0.3287,-0.025,0.8663,-6.82,8.05,-0.09,30.76
27337,0.33,-0.0271,0.8618,-6.81,7.98,-0.02,30.75
27347,0.329,-0.0273,0.8635,-6.79,8.0,-0.05,30.75
27357,0.3289,-0.0249,0.8608,-6.82,7.94,-0.06,30.74
27367,0.326,-0.0251,0.8663,-6.79,7.95,-0.05,30.74
27377,0.3262,-0.026,0.8662,-6.81,7.98,-0.08,30.71
27387,0.3265,-0.0277,0.863,-6.73,7.95,-0.11,30.75
27397,0.3282,-0.0253,0.8661,-6.81,8.02,-0.02,30.74
27407,0.3258,-0.0259,0.8661,-6.85,8.06,-0.11,30.77
27417,0.3276,-0.0261,0.8657,-6.81,7.92,0.0,30.75
27427,0.3298,-0.0243,0.8628,-6.79,7.95,0.05,30.74
27437,0.3292,-0.0255,0.8684,-6.82,7.95,-0.09,30.76
27447,0.3276,-0.0226,0.8672,-6.73,8.05,-0.05,30.75
27457,0.3279,-0.0262,0.8656,-6.82,8.0,-0.08,30.77
