t_ms,accel_x_g,accel_y_g,accel_z_g,gyro_x_dps,gyro_y_dps,gyro_z_dps,imu_temp_c
2356,0.0745,-0.2745,0.851,-5.83,7.86,-0.06,19.13
2366,0.0791,-0.2732,0.8566,-5.59,8.21,0.03,19.12
2377,0.0759,-0.2671,0.8584,-5.8,9.05,0.18,19.13
2387,0.0706,-0.2728,0.8612,-5.88,8.9,0.15,19.15
2397,0.0687,-0.2706,0.8647,-6.03,8.41,0.0,19.15
2407,0.0719,-0.2756,0.8665,-6.18,7.95,-0.08,19.14
2417,0.0734,-0.275,0.8599,-6.14,7.57,-0.2,19.12
2427,0.074,-0.2736,0.8556,-6.2,7.08,-0.24,19.14
2437,0.0779,-0.2733,0.8488,-6.05,7.05,-0.15,19.15
2447,0.0819,-0.2704,0.8547,-6.05,7.8,0.05,19.14
2457,0.0773,-0.2694,0.8527,-6.2,8.72,0.21,19.13
2467,0.0741,-0.2729,0.8556,-5.91,8.93,0.38,19.12
2477,0.0708,-0.2739,0.8625,-5.36,8.34,0.26,19.14
2487,0.0692,-0.272,0.8634,-5.62,7.8,0.05,19.13
2497,0.0728,-0.2698,0.8638,-6.12,7.65,0.0,19.14
2507,0.0741,-0.2728,0.8611,-6.64,7.28,-0.2,19.14
2517,0.075,-0.277,0.8602,-6.56,7.42,-0.32,19.14
2527,0.0779,-0.277,0.8481,-6.6,7.51,-0.32,19.14
2537,0.0779,-0.2809,0.8467,-6.2,7.66,-0.17,19.14
2547,0.0778,-0.2841,0.8436,-5.71,8.15,0.03,19.18
2557,0.0764,-0.276,0.8546,-5.51,8.18,0.14,19.17
2567,0.0668,-0.2761,0.8589,-5.15,8.08,0.15,19.17
2577,0.0695,-0.2738,0.8661,-5.45,7.69,0.05,19.16
2587,0.0758,-0.2751,0.8684,-6.23,8.29,0.08,19.15
2597,0.0699,-0.2733,0.8616,-6.87,8.31,0.06,19.17
2607,0.0698,-0.2805,0.8628,-6.41,7.1,-0.05,19.15
2617,0.0718,-0.269,0.8503,-5.4,6.46,-0.17,19.18
2627,0.0804,-0.266,0.859,-5.05,5.82,-0.11,19.16
2637,0.0834,-0.2648,0.8583,-5.22,7.05,-0.09,19.16
2647,0.0845,-0.264,0.8575,-6.02,8.24,0.05,19.15
2657,0.0762,-0.2643,0.856,-6.38,9.4,0.12,19.17
2667,0.0673,-0.2753,0.8517,-6.73,9.44,0.14,19.14
2677,0.069,-0.2739,0.8634,-6.43,9.24,0.12,19.18
2687,0.067,-0.2726,0.8645,-6.09,8.26,0.05,19.17
2697,0.0751,-0.2831,0.8677,-6.05,7.31,-0.11,19.16
2707,0.0782,-0.2761,0.8615,-6.4,7.21,-0.21,19.13
2717,0.079,-0.2803,0.853,-6.81,7.08,-0.27,19.19
2727,0.0791,-0.2809,0.8494,-6.67,7.65,-0.15,19.16
2737,0.0774,-0.2778,0.8459,-6.63,8.26,0.03,19.18
2747,0.0778,-0.2721,0.8501,-6.2,9.16,0.21,19.17
2757,0.0724,-0.2751,0.8528,-5.94,9.54,0.35,19.16
2767,0.0695,-0.2759,0.8625,-6.11,9.39,0.35,19.19
2777,0.0652,-0.2767,0.868,-6.09,8.9,0.03,19.18
2787,0.0658,-0.2769,0.8649,-6.34,7.34,-0.21,19.17
2797,0.069,-0.2767,0.865,-6.27,6.37,-0.4,19.16
2807,0.0746,-0.2697,0.8553,-6.15,6.12,-0.44,19.17
2817,0.0741,-0.2749,0.8534,-6.2,6.37,-0.29,19.16
2827,0.0803,-0.2719,0.8459,-5.94,7.22,-0.12,19.17
2837,0.0807,-0.2687,0.85,-5.82,8.2,0.09,19.17
2847,0.0739,-0.2759,0.8558,-5.62,8.98,0.41,19.16
2857,0.0696,-0.2753,0.8645,-5.68,8.73,0.29,19.16
2867,0.0717,-0.2747,0.8649,-5.71,8.11,0.17,19.17
2877,0.0676,-0.274,0.8699,-5.86,7.25,-0.11,19.17
2887,0.067,-0.2729,0.8643,-6.09,6.2,-0.24,19.17
2897,0.0732,-0.2738,0.859,-6.15,5.83,-0.41,19.17
2907,0.076,-0.2738,0.8514,-6.27,6.37,-0.26,19.17
2917,0.0819,-0.2714,0.8429,-6.38,7.66,-0.09,19.16
2927,0.0802,-0.2764,0.8419,-6.29,8.69,0.14,19.17
2937,0.0773,-0.2767,0.8516,-5.89,8.96,0.31,19.2
2947,0.0699,-0.2766,0.859,-5.36,8.5,0.24,19.18
2957,0.0679,-0.2789,0.8636,-5.05,7.39,0.14,19.17
2967,0.0707,-0.2778,0.8682,-5.44,6.81,-0.06,19.19
2977,0.0695,-0.2721,0.8623,-6.21,6.55,-0.34,19.17
2987,0.0743,-0.2769,0.8536,-6.67,6.46,-0.4,19.17
2997,0.079,-0.2731,0.8489,-6.79,7.27,-0.32,19.18
3007,0.0771,-0.2723,0.844,-6.58,8.38,-0.06,19.21
3017,0.0798,-0.2717,0.8466,-6.32,9.04,0.26,19.17
3027,0.0771,-0.2784,0.8567,-5.98,9.3,0.35,19.19
3037,0.0686,-0.2789,0.8605,-5.54,8.78,0.32,19.19
3047,0.0652,-0.2762,0.8661,-5.24,7.54,0.02,19.21
3057,0.0673,-0.2725,0.8695,-5.59,6.72,-0.18,19.17
3067,0.0695,-0.2657,0.8597,-6.08,6.5,-0.27,19.17
3077,0.0703,-0.2695,0.8544,-6.44,6.46,-0.41,19.18
3087,0.083,-0.271,0.8545,-6.63,6.84,-0.23,19.19
3097,0.0833,-0.272,0.8446,-6.47,8.23,-0.08,19.18
3107,0.0765,-0.2766,0.843,-6.34,8.9,0.18,19.2
3117,0.0756,-0.2803,0.8561,-5.85,9.3,0.34,19.2
3127,0.0717,-0.2755,0.8616,-5.82,9.22,0.27,19.19
3137,0.0693,-0.2783,0.8625,-6.17,8.96,0.21,19.17
3147,0.0706,-0.277,0.8641,-6.81,8.49,-0.05,19.21
3157,0.0719,-0.28,0.863,-7.25,7.77,-0.09,19.21
3167,0.0713,-0.2825,0.8586,-7.34,7.74,-0.23,19.22
3177,0.0691,-0.2811,0.8536,-6.96,7.39,-0.26,19.19
3187,0.0699,-0.2804,0.8477,-6.03,7.11,-0.23,19.2
3197,0.0797,-0.2797,0.8446,-5.42,6.93,-0.06,19.21
3207,0.0795,-0.2736,0.8518,-5.33,7.98,0.08,19.19
3217,0.077,-0.2723,0.8556,-5.86,8.9,0.17,19.18
3227,0.0726,-0.2759,0.8611,-6.24,9.19,0.15,19.19
3237,0.0669,-0.2753,0.8607,-6.15,8.7,0.11,19.22
3247,0.0649,-0.2755,0.8647,-6.11,7.57,-0.09,19.18
3257,0.0647,-0.2721,0.8624,-6.06,7.11,-0.15,19.2
3267,0.0709,-0.2758,0.8596,-6.29,6.92,-0.35,19.2
3277,0.0771,-0.2717,0.8585,-6.26,7.44,-0.18,19.22
3287,0.0806,-0.272,0.8494,-6.6,8.15,-0.11,19.19
3297,0.0791,-0.2783,0.8501,-6.69,8.87,0.05,19.21
3307,0.0746,-0.2769,0.8472,-6.08,8.69,0.12,19.19
3317,0.0665,-0.2775,0.8564,-5.39,8.17,0.12,19.19
3327,0.0684,-0.2787,0.8593,-5.47,7.95,0.09,19.21
3337,0.0662,-0.2743,0.8647,-5.94,7.82,0.06,19.21
3347,0.0671,-0.2765,0.86,-6.44,7.74,0.03,19.18
3358,0.0667,-0.2753,0.855,-6.81,7.56,-0.08,19.17
3368,0.0757,-0.2904,0.8484,-6.53,7.48,-0.11,19.2
3378,0.0759,-0.2646,0.8525,-6.05,7.15,-0.15,19.2
3388,0.0803,-0.2755,0.8567,-5.95,7.15,0.02,19.2
3398,0.0779,-0.2748,0.847,-5.76,7.95,0.08,19.23
3408,0.0776,-0.2738,0.8579,-6.41,8.82,0.18,19.22
3418,0.0675,-0.2794,0.8536,-6.58,9.77,0.23,19.21
3428,0.0613,-0.2794,0.8501,-6.38,8.18,0.17,19.21
3438,0.0643,-0.2849,0.8627,-5.3,6.98,0.0,19.22
3448,0.0746,-0.2716,0.8623,-5.4,6.81,-0.14,19.19
3458,0.0789,-0.2695,0.8635,-6.2,7.08,-0.23,19.22
3468,0.0782,-0.2725,0.8531,-6.61,7.4,-0.21,19.2
3478,0.0773,-0.2826,0.8529,-6.9,8.18,-0.08,19.2
3488,0.0702,-0.2778,0.8411,-6.5,9.24,0.08,19.21
3498,0.0647,-0.2812,0.8461,-5.85,8.17,0.03,19.2
3508,0.0673,-0.286,0.8586,-5.05,7.51,0.09,19.21
3518,0.0712,-0.2819,0.8646,-5.04,7.66,0.02,19.22
3528,0.0709,-0.2804,0.8634,-5.98,8.11,-0.09,19.21
3538,0.0668,-0.2847,0.8558,-6.67,7.91,-0.09,19.22
3548,0.0675,-0.2837,0.8541,-6.52,7.34,-0.21,19.21
3558,0.068,-0.2792,0.8545,-5.95,7.18,-0.24,19.22
3568,0.0743,-0.2766,0.8488,-5.59,7.16,-0.2,19.22
3578,0.0776,-0.2715,0.8511,-5.62,7.62,-0.11,19.21
3588,0.0734,-0.2687,0.8561,-5.53,8.18,0.21,19.2
3598,0.0658,-0.2727,0.8562,-5.51,8.29,0.14,19.21
3608,0.0675,-0.2703,0.8621,-5.5,7.66,0.11,19.19
3618,0.0709,-0.2726,0.863,-5.51,7.24,-0.08,19.23
3628,0.0699,-0.2671,0.8615,-5.88,7.13,-0.06,19.23
3638,0.0726,-0.2694,0.8566,-6.14,6.99,-0.2,19.22
3648,0.0746,-0.2693,0.8595,-6.15,7.24,-0.05,19.24
3658,0.0723,-0.2748,0.8539,-6.15,7.66,0.0,19.23
3668,0.0735,-0.2783,0.8523,-5.98,8.02,0.03,19.21
3678,0.0724,-0.2833,0.8553,-6.14,8.24,0.11,19.22
3688,0.0703,-0.2839,0.8549,-6.06,8.34,0.17,19.26
3698,0.0673,-0.2842,0.853,-6.11,8.24,0.12,19.23
3708,0.0688,-0.2847,0.8594,-6.14,8.02,-0.02,19.22
3718,0.0669,-0.2845,0.8572,-6.18,7.69,-0.09,19.24
3728,0.0707,-0.2866,0.8523,-6.26,7.37,-0.14,19.24
3738,0.0742,-0.2848,0.8503,-6.17,7.4,-0.11,19.26
3748,0.0736,-0.2811,0.8518,-6.15,7.53,-0.12,19.23
3758,0.0775,-0.278,0.8513,-5.94,7.82,0.0,19.23
3768,0.0715,-0.278,0.8539,-5.68,8.06,-0.08,19.24
3778,0.068,-0.2758,0.858,-5.3,7.76,-0.02,19.22
3788,0.0682,-0.2745,0.8616,-5.22,7.39,-0.06,19.23
3798,0.0708,-0.2723,0.8638,-5.56,7.65,-0.12,19.25
3808,0.0698,-0.2731,0.86,-6.12,7.45,0.0,19.22
3818,0.0714,-0.2761,0.8558,-6.11,7.36,-0.21,19.24
3828,0.075,-0.2721,0.856,-5.89,7.24,-0.2,19.23
3838,0.0724,-0.2703,0.8555,-5.68,7.15,-0.05,19.23
3848,0.0715,-0.2737,0.8514,-5.5,7.27,-0.02,19.25
3858,0.0704,-0.2734,0.8512,-5.47,7.36,0.02,19.26
3868,0.0709,-0.2736,0.8605,-5.5,7.34,0.06,19.24
3878,0.0715,-0.2754,0.8622,-6.02,7.79,0.02,19.24
3888,0.0741,-0.2737,0.8566,-6.61,8.5,0.15,19.25
3898,0.069,-0.2775,0.8534,-6.66,8.53,0.08,19.23
3908,0.0696,-0.2816,0.854,-6.43,7.98,0.0,19.24
3918,0.0718,-0.2821,0.8582,-6.27,7.69,-0.09,19.24
3928,0.0704,-0.2827,0.8571,-6.29,7.79,-0.09,19.23
3938,0.071,-0.2841,0.8568,-6.34,7.86,-0.05,19.24
3948,0.0684,-0.2842,0.8496,-6.0,7.48,-0.05,19.22
3958,0.074,-0.2861,0.8524,-5.69,7.3,-0.09,19.24
3968,0.0719,-0.2816,0.8536,-5.73,7.48,-0.05,19.23
3978,0.0745,-0.2812,0.8557,-5.8,7.34,-0.05,19.23
3988,0.0737,-0.2794,0.8546,-6.02,7.68,-0.15,19.23
3998,0.0725,-0.2788,0.8557,-6.23,8.27,-0.03,19.23
4008,0.069,-0.2791,0.853,-6.32,8.4,0.02,19.25
4018,0.069,-0.2739,0.8573,-6.15,8.14,-0.06,19.27
4028,0.072,-0.2733,0.8588,-6.18,8.17,0.08,19.24
4038,0.0674,-0.2733,0.8602,-6.4,8.32,-0.05,19.24
4048,0.0693,-0.2745,0.8571,-6.35,8.03,-0.06,19.24
4058,0.073,-0.2693,0.8582,-6.26,7.51,-0.05,19.26
4068,0.0712,-0.2715,0.8619,-6.06,7.18,-0.06,19.24
4078,0.0715,-0.2649,0.8621,-5.95,7.39,0.0,19.23
4088,0.0712,-0.2683,0.8555,-6.06,7.59,0.06,19.25
4098,0.0704,-0.2709,0.8534,-6.11,7.71,0.09,19.25
4108,0.0723,-0.2744,0.8563,-6.09,7.89,0.09,19.25
4118,0.067,-0.2756,0.8571,-6.06,7.88,0.11,19.25
4128,0.069,-0.2794,0.8585,-6.0,7.62,-0.02,19.25
4138,0.0725,-0.281,0.8608,-6.46,7.97,-0.08,19.25
4148,0.0739,-0.281,0.8557,-6.98,8.75,-0.08,19.26
4158,0.0746,-0.286,0.8545,-7.51,9.22,-0.05,19.26
4168,0.0682,-0.2902,0.8501,-7.31,9.04,-0.06,19.24
4178,0.0686,-0.29,0.847,-6.79,8.43,-0.05,19.25
4188,0.0702,-0.2888,0.856,-6.26,7.97,-0.08,19.25
4198,0.0668,-0.2922,0.849,-6.06,7.66,0.0,19.26
4208,0.0671,-0.2866,0.8518,-5.97,7.63,-0.06,19.26
4218,0.0682,-0.2821,0.8529,-5.92,7.54,-0.11,19.25
4228,0.068,-0.2811,0.8553,-5.71,7.21,-0.14,19.24
4238,0.0693,-0.2789,0.8566,-5.68,7.07,-0.11,19.25
4248,0.0688,-0.2739,0.8562,-5.71,7.01,-0.09,19.25
4258,0.0735,-0.2694,0.8583,-5.82,7.36,-0.17,19.25
4268,0.0718,-0.2638,0.8579,-6.02,8.09,0.02,19.26
4278,0.0709,-0.2667,0.8577,-6.38,8.5,0.02,19.22
4288,0.0688,-0.2694,0.8572,-6.37,8.58,0.12,19.25
4298,0.0667,-0.2711,0.8629,-6.24,8.32,0.11,19.27
4308,0.0665,-0.2731,0.8607,-6.08,7.73,-0.05,19.25
4318,0.0658,-0.2787,0.8623,-5.95,7.3,-0.12,19.24
4328,0.0724,-0.2772,0.8633,-6.09,7.1,-0.12,19.25
4338,0.0715,-0.28,0.8534,-6.37,7.25,-0.08,19.25
4348,0.0725,-0.2845,0.853,-6.44,7.25,-0.21,19.24
4358,0.0707,-0.287,0.8488,-6.09,7.59,-0.08,19.27
4368,0.068,-0.2849,0.8518,-6.0,7.95,-0.06,19.27
4378,0.0728,-0.286,0.853,-5.89,8.2,0.0,19.25
4388,0.0676,-0.2861,0.8538,-5.88,8.2,0.11,19.25
4398,0.0667,-0.2871,0.8606,-5.79,7.8,0.14,19.26
4408,0.0625,-0.2795,0.8622,-5.77,7.33,-0.02,19.23
4418,0.0697,-0.2784,0.8607,-5.94,7.02,-0.17,19.24
4428,0.0719,-0.2764,0.8575,-6.17,7.47,-0.12,19.27
4438,0.0715,-0.2753,0.8516,-6.44,7.8,-0.12,19.26
4448,0.0723,-0.2756,0.8547,-6.29,8.11,0.0,19.26
4458,0.0691,-0.2782,0.8522,-5.83,8.0,0.03,19.28
4468,0.0706,-0.2764,0.8644,-5.59,7.98,0.03,19.28
4478,0.068,-0.2754,0.8585,-5.71,8.05,-0.02,19.27
4488,0.0662,-0.2766,0.8608,-5.89,7.76,-0.06,19.28
4498,0.0702,-0.2784,0.8618,-6.24,7.74,-0.21,19.27
4508,0.0708,-0.2819,0.859,-6.69,7.8,-0.06,19.25
4518,0.068,-0.2853,0.8516,-6.47,7.71,-0.08,19.26
4528,0.0668,-0.2856,0.8473,-5.92,7.28,-0.08,19.26
4538,0.0756,-0.2822,0.8542,-5.65,7.08,-0.08,19.27
4548,0.0748,-0.281,0.8496,-5.68,7.73,-0.03,19.26
4558,0.0726,-0.2809,0.8563,-6.23,8.37,0.24,19.26
4568,0.0652,-0.2837,0.8531,-6.27,8.5,0.14,19.26
4578,0.0647,-0.286,0.8593,-6.08,8.21,0.09,19.27
4588,0.0646,-0.2812,0.8561,-5.89,7.65,-0.05,19.27
4598,0.0653,-0.2788,0.8558,-5.65,7.01,-0.2,19.26
4608,0.0701,-0.2756,0.8561,-5.71,6.89,-0.21,19.27
4618,0.0718,-0.278,0.8519,-6.0,6.96,-0.24,19.26
4628,0.0732,-0.2791,0.8514,-6.55,8.21,-0.15,19.27
4638,0.0724,-0.2816,0.8512,-6.69,8.81,0.0,19.28
4648,0.0659,-0.281,0.8502,-6.31,8.72,0.08,19.29
4658,0.0676,-0.2826,0.8574,-5.74,7.86,0.05,19.27
4668,0.0703,-0.2769,0.8617,-5.54,7.69,0.06,19.27
4678,0.0676,-0.277,0.8627,-5.76,7.68,0.05,19.27
4688,0.0702,-0.277,0.8652,-6.05,7.47,-0.02,19.26
4698,0.0659,-0.277,0.8606,-6.06,7.28,-0.11,19.27
4708,0.0641,-0.276,0.8569,-5.88,6.93,-0.05,19.29
4718,0.0696,-0.2761,0.8513,-5.34,6.58,-0.14,19.28
4728,0.072,-0.2719,0.8588,-5.22,6.55,-0.08,19.26
4738,0.0786,-0.2709,0.8585,-5.36,6.96,0.02,19.27
4748,0.0758,-0.2695,0.8552,-5.69,7.42,-0.06,19.27
4758,0.0697,-0.2728,0.8601,-5.92,7.95,0.09,19.27
4768,0.0668,-0.2791,0.8539,-6.37,8.66,0.17,19.27
4778,0.0642,-0.2825,0.855,-6.56,8.96,0.12,19.27
4788,0.0625,-0.2897,0.853,-6.35,8.08,-0.06,19.28
4798,0.0624,-0.2861,0.8584,-5.63,7.04,-0.15,19.25
4808,0.0751,-0.283,0.86,-5.24,6.21,-0.15,19.27
4818,0.0757,-0.2825,0.8564,-5.48,6.76,-0.14,19.27
4828,0.0724,-0.2823,0.8528,-6.05,7.5,0.02,19.29
4838,0.0691,-0.2883,0.8518,-6.46,7.92,0.08,19.27
4848,0.0723,-0.2837,0.8485,-6.27,8.5,0.06,19.29
4858,0.066,-0.2827,0.8501,-6.02,8.58,0.18,19.27
4868,0.0667,-0.2822,0.858,-5.77,8.5,0.12,19.28
4878,0.066,-0.281,0.859,-5.71,8.12,0.2,19.28
4888,0.0665,-0.2867,0.8621,-5.95,7.57,-0.02,19.28
4898,0.0671,-0.2859,0.8591,-6.31,7.13,-0.21,19.26
4908,0.0701,-0.2886,0.8546,-6.52,6.67,-0.38,19.28
4918,0.0774,-0.2906,0.8502,-6.35,7.11,-0.44,19.28
4928,0.0814,-0.281,0.848,-6.14,7.76,-0.15,19.28
4938,0.0736,-0.2753,0.8419,-6.06,8.52,-0.05,19.29
4948,0.0696,-0.2736,0.853,-5.76,8.64,0.09,19.27
4958,0.0653,-0.2758,0.8564,-5.76,9.18,0.38,19.3
4968,0.0596,-0.2751,0.8632,-5.77,8.76,0.37,19.28
4978,0.0592,-0.2748,0.8621,-5.63,7.53,-0.03,19.29
4988,0.0614,-0.2677,0.8661,-5.71,5.97,-0.27,19.28
4998,0.0708,-0.2687,0.8669,-6.15,6.2,-0.29,19.27
5008,0.0726,-0.2666,0.8553,-6.82,7.22,-0.18,19.28
5018,0.0746,-0.2725,0.8479,-6.78,7.82,-0.08,19.27
5028,0.0768,-0.2776,0.8463,-6.38,8.58,0.12,19.28
5038,0.0713,-0.2809,0.8492,-6.23,9.18,0.21,19.28
5048,0.0636,-0.2789,0.855,-5.97,9.36,0.29,19.27
5058,0.0652,-0.2836,0.86,-5.94,8.53,0.15,19.26
5068,0.0664,-0.2889,0.8669,-6.15,7.82,0.05,19.25
5078,0.0643,-0.2871,0.8622,-6.46,7.3,-0.27,19.27
5088,0.0714,-0.2897,0.8551,-6.63,6.92,-0.29,19.27
5098,0.071,-0.2915,0.8444,-6.52,6.78,-0.31,19.29
5108,0.0785,-0.2894,0.8448,-6.21,6.95,-0.26,19.26
5118,0.0787,-0.2828,0.8427,-5.71,7.8,-0.02,19.27
5128,0.0717,-0.2827,0.8457,-5.48,8.66,0.23,19.28
5138,0.0613,-0.2773,0.856,-5.62,9.02,0.24,19.3
5148,0.0638,-0.28,0.8662,-5.47,8.81,0.26,19.28
5158,0.0591,-0.2792,0.8615,-5.69,8.03,0.0,19.3
5168,0.0667,-0.2787,0.8682,-5.86,6.64,-0.24,19.28
5178,0.0663,-0.2776,0.866,-5.91,6.17,-0.44,19.27
5188,0.0748,-0.2787,0.8549,-6.32,6.37,-0.41,19.28
5198,0.0785,-0.2761,0.8466,-6.56,7.39,-0.35,19.27
5208,0.0769,-0.2755,0.8456,-6.34,8.26,0.0,19.27
5218,0.072,-0.2786,0.8474,-5.73,8.56,0.26,19.27
5228,0.0696,-0.2772,0.8562,-5.24,8.6,0.27,19.3
5238,0.0682,-0.2771,0.8635,-5.37,8.55,0.23,19.29
5248,0.0636,-0.2767,0.8654,-5.92,8.32,0.2,19.3
5258,0.0624,-0.283,0.8632,-6.64,7.62,-0.09,19.29
5269,0.0656,-0.2841,0.86,-6.7,7.02,-0.23,19.3
5279,0.0673,-0.2845,0.8496,-6.47,6.43,-0.31,19.27
5289,0.0757,-0.2808,0.8485,-6.17,6.49,-0.29,19.3
5299,0.079,-0.2791,0.8442,-5.94,7.47,-0.15,19.29
5309,0.0784,-0.2819,0.8475,-5.79,8.46,0.15,19.29
5319,0.0696,-0.2842,0.8511,-5.83,9.11,0.24,19.28
5329,0.0673,-0.2842,0.8557,-5.68,8.96,0.21,19.31
5339,0.0601,-0.282,0.8618,-5.39,8.02,0.11,19.29
5349,0.0608,-0.2812,0.8679,-5.44,6.6,-0.11,19.27
5359,0.0667,-0.2769,0.8667,-5.76,6.26,-0.38,19.29
5369,0.0721,-0.2744,0.86,-6.6,7.11,-0.31,19.29
5379,0.0684,-0.2771,0.8491,-7.04,7.83,-0.11,19.28
5389,0.0663,-0.2832,0.84,-6.27,7.57,-0.11,19.31
5399,0.0736,-0.2792,0.849,-5.47,7.54,0.05,19.29
5409,0.0747,-0.28,0.8573,-5.39,8.12,0.15,19.29
5419,0.0718,-0.2776,0.8585,-5.76,8.49,0.23,19.28
5429,0.0681,-0.2811,0.8612,-5.83,7.98,0.17,19.31
5439,0.0643,-0.2819,0.8649,-6.11,7.56,-0.06,19.31
5449,0.0625,-0.2808,0.8594,-6.31,7.48,-0.15,19.31
5459,0.0645,-0.2833,0.8534,-6.43,7.19,-0.18,19.31
5469,0.0723,-0.2823,0.851,-6.31,7.18,-0.11,19.3
5479,0.0668,-0.2822,0.8472,-6.18,7.69,-0.11,19.3
5489,0.0717,-0.2883,0.8542,-6.06,8.12,-0.02,19.29
5499,0.072,-0.2821,0.858,-5.45,8.09,0.17,19.28
5509,0.0652,-0.2809,0.8546,-5.45,7.71,0.05,19.3
5519,0.0732,-0.2822,0.8669,-5.86,7.68,0.05,19.29
5529,0.0647,-0.2788,0.86,-6.44,8.7,0.05,19.27
5539,0.0601,-0.2797,0.8553,-6.58,8.27,0.03,19.26
5549,0.0629,-0.2805,0.8518,-6.15,7.68,-0.11,19.28
5559,0.0691,-0.281,0.8613,-6.03,7.47,-0.05,19.29
5569,0.0682,-0.2814,0.8562,-5.91,8.14,-0.06,19.26
5579,0.0662,-0.2804,0.8495,-5.92,7.59,-0.14,19.28
5589,0.0693,-0.2871,0.8615,-5.57,6.95,-0.18,19.24
5599,0.0685,-0.2828,0.8568,-5.53,7.02,-0.23,19.28
5609,0.0741,-0.2816,0.8615,-5.98,7.56,-0.2,19.29
5619,0.0713,-0.283,0.8564,-6.4,8.24,-0.06,19.28
5629,0.0697,-0.2861,0.8541,-6.53,8.32,0.0,19.3
5639,0.0663,-0.2834,0.8483,-5.92,8.34,0.0,19.31
5649,0.0638,-0.2849,0.8568,-5.74,7.91,-0.06,19.3
5659,0.0693,-0.2827,0.8618,-5.51,7.77,-0.08,19.31
5669,0.0679,-0.2781,0.8574,-5.83,7.8,-0.2,19.29
5679,0.0667,-0.281,0.8612,-6.24,7.82,-0.18,19.29
5689,0.067,-0.2781,0.8552,-6.41,7.92,-0.21,19.3
5699,0.0676,-0.2788,0.8562,-6.44,8.03,-0.24,19.31
5709,0.0654,-0.2776,0.848,-6.11,7.89,-0.24,19.3
5719,0.0677,-0.2765,0.8566,-5.69,7.45,-0.17,19.32
5729,0.0712,-0.2764,0.8613,-5.76,7.6,-0.21,19.29
5739,0.069,-0.2742,0.8574,-6.03,8.11,-0.18,19.3
5749,0.0685,-0.2831,0.8555,-6.05,7.82,-0.05,19.29
5759,0.0669,-0.2761,0.8563,-5.69,7.16,-0.12,19.28
5769,0.0665,-0.281,0.8605,-5.36,6.64,-0.08,19.32
5779,0.0671,-0.2759,0.8549,-5.71,6.82,-0.27,19.33
5789,0.0747,-0.2814,0.8561,-6.21,7.45,-0.18,19.32
5799,0.0728,-0.2823,0.8499,-7.04,8.93,-0.08,19.31
5809,0.0662,-0.2867,0.8531,-6.84,9.21,0.11,19.31
5819,0.0656,-0.2905,0.8507,-6.05,8.31,0.05,19.31
5829,0.0691,-0.2888,0.854,-5.08,6.99,0.08,19.31
5839,0.0664,-0.2823,0.8599,-5.05,6.85,-0.09,19.3
5849,0.0699,-0.2809,0.8628,-5.88,7.31,-0.14,19.3
5859,0.0662,-0.2883,0.8571,-6.82,8.29,-0.05,19.3
5869,0.0608,-0.2861,0.8497,-6.99,8.5,-0.03,19.31
5879,0.0636,-0.2899,0.8455,-6.35,7.76,-0.11,19.32
5889,0.0686,-0.2869,0.8491,-5.34,6.64,-0.17,19.29
5899,0.076,-0.285,0.8571,-5.16,6.55,-0.17,19.31
5909,0.0743,-0.2797,0.8625,-5.44,7.73,-0.05,19.31
5919,0.0667,-0.2791,0.8586,-6.29,8.49,-0.02,19.31
5929,0.0654,-0.2777,0.8553,-6.43,8.49,-0.11,19.3
5939,0.0656,-0.2804,0.8544,-6.11,7.85,-0.05,19.3
5949,0.0669,-0.2786,0.858,-5.74,7.66,-0.09,19.31
5959,0.068,-0.2725,0.8622,-5.79,7.48,-0.15,19.33
5969,0.0695,-0.2737,0.8562,-5.86,7.57,-0.09,19.31
5979,0.0675,-0.2794,0.8579,-6.27,7.74,-0.08,19.3
5989,0.0647,-0.2812,0.8514,-6.49,8.08,-0.17,19.32
5999,0.0651,-0.2797,0.8514,-6.32,7.95,-0.15,19.33
6009,0.0695,-0.2767,0.8511,-6.02,7.65,-0.06,19.32
6019,0.0729,-0.2765,0.8566,-5.74,7.65,0.05,19.32
6029,0.0734,-0.2656,0.8617,-5.6,7.6,0.02,19.32
6039,0.0638,-0.2697,0.8574,-5.69,7.3,0.12,19.33
6049,0.0706,-0.2736,0.8677,-5.73,7.13,0.08,19.33
6059,0.0654,-0.2788,0.8562,-5.8,7.39,0.09,19.31
6069,0.0674,-0.2791,0.8552,-6.53,7.69,0.06,19.34
6079,0.0627,-0.2848,0.8485,-6.4,7.85,-0.02,19.32
6089,0.0667,-0.2853,0.85,-6.23,7.53,-0.14,19.33
6099,0.0741,-0.2921,0.8522,-5.85,7.45,-0.17,19.33
6109,0.0696,-0.2972,0.8502,-6.02,7.79,-0.12,19.31
6119,0.0719,-0.302,0.8512,-6.14,7.83,-0.18,19.33
6129,0.0713,-0.3031,0.8513,-6.21,7.91,-0.18,19.31
6139,0.068,-0.3,0.849,-5.97,7.8,-0.18,19.31
6149,0.0713,-0.2902,0.853,-5.88,7.77,-0.17,19.33
6159,0.0675,-0.2834,0.8517,-5.59,7.53,0.03,19.36
6169,0.0703,-0.2778,0.8535,-5.39,7.77,0.23,19.32
6179,0.0652,-0.2675,0.8605,-5.62,7.83,0.17,19.3
6189,0.0623,-0.2665,0.8625,-5.6,7.56,0.18,19.33
6199,0.0669,-0.2628,0.8651,-5.65,7.13,0.05,19.34
6209,0.0706,-0.2627,0.8619,-5.85,7.18,-0.08,19.34
6219,0.067,-0.2627,0.8591,-6.11,7.5,-0.12,19.33
6229,0.0712,-0.2621,0.8606,-6.32,7.66,-0.14,19.33
6239,0.0685,-0.2717,0.8544,-6.26,8.0,-0.08,19.36
6249,0.0657,-0.2754,0.8542,-6.29,8.09,-0.11,19.33
6259,0.0679,-0.2841,0.8561,-6.18,8.02,-0.02,19.34
6269,0.0653,-0.2844,0.8574,-6.08,7.82,0.02,19.34
6279,0.0688,-0.2891,0.8611,-6.05,7.47,0.08,19.32
6289,0.0664,-0.2921,0.8542,-5.97,7.56,0.09,19.34
6299,0.0662,-0.2939,0.8497,-6.03,7.24,0.0,19.36
6309,0.0676,-0.2933,0.8519,-5.95,6.96,0.0,19.35
6319,0.0736,-0.29,0.8513,-5.88,7.11,-0.08,19.33
6329,0.0729,-0.2867,0.8525,-5.95,7.76,0.09,19.35
6339,0.0719,-0.2845,0.8485,-6.02,8.23,0.0,19.31
6349,0.0704,-0.2842,0.8557,-5.86,8.35,0.15,19.33
6359,0.0624,-0.2842,0.8568,-5.6,8.26,0.06,19.37
6369,0.0626,-0.285,0.8623,-5.39,7.66,-0.02,19.35
6379,0.0646,-0.2859,0.8613,-5.37,6.96,-0.18,19.33
6389,0.0662,-0.2845,0.8564,-5.56,6.44,-0.35,19.32
6399,0.0688,-0.2792,0.8551,-5.85,6.81,-0.37,19.33
6409,0.074,-0.2778,0.8519,-6.21,7.21,-0.26,19.31
6419,0.0736,-0.2789,0.85,-6.27,8.08,-0.05,19.32
6429,0.0728,-0.2794,0.8492,-5.95,8.44,0.18,19.33
6446,0.0669,-0.2772,0.8588,-5.98,8.72,-0.61,19.34
6456,0.0632,-0.2754,0.8583,-6.2,8.76,0.24,19.31
6466,0.0654,-0.274,0.8658,-6.63,8.69,0.05,19.33
6476,0.0608,-0.2756,0.8641,-6.87,8.11,-0.03,19.34
6486,0.0641,-0.2784,0.8574,-6.96,7.82,-0.21,19.33
6496,0.0701,-0.2795,0.8529,-6.98,7.83,-0.29,19.33
6506,0.0719,-0.2821,0.8495,-6.67,7.79,-0.18,19.32
6516,0.069,-0.2865,0.8481,-6.06,7.66,-0.2,19.32
6526,0.0664,-0.2848,0.8494,-5.57,7.62,-0.08,19.32
6536,0.0682,-0.2887,0.8547,-5.59,7.82,0.09,19.32
6546,0.069,-0.2864,0.8549,-5.63,8.06,0.14,19.32
6556,0.0677,-0.2885,0.8566,-5.97,8.06,0.03,19.34
6566,0.0659,-0.2858,0.8563,-6.05,7.76,0.08,19.33
6576,0.0636,-0.2828,0.8527,-6.02,7.18,-0.12,19.34
6586,0.0681,-0.28,0.8536,-5.63,6.84,-0.14,19.33
6596,0.0698,-0.2764,0.8529,-5.36,6.75,-0.11,19.33
6606,0.0701,-0.276,0.8566,-5.73,7.07,-0.17,19.33
6616,0.0726,-0.275,0.854,-6.09,8.08,-0.05,19.35
6626,0.0668,-0.2739,0.8521,-6.29,8.56,0.11,19.32
6636,0.0648,-0.2766,0.8573,-6.17,8.58,0.09,19.31
6646,0.062,-0.2767,0.8601,-6.0,8.26,0.03,19.33
6656,0.0645,-0.2743,0.8622,-5.91,7.48,-0.08,19.32
6666,0.0651,-0.2762,0.8643,-5.98,7.01,-0.12,19.35
6676,0.0658,-0.2805,0.8596,-5.97,6.43,-0.34,19.32
6686,0.0717,-0.2791,0.8539,-6.14,6.75,-0.21,19.35
6696,0.0746,-0.2784,0.847,-6.46,7.53,-0.12,19.35
6706,0.0731,-0.2848,0.8474,-6.46,8.29,-0.02,19.35
6716,0.0659,-0.2906,0.8444,-5.74,8.43,0.23,19.32
6726,0.0608,-0.2888,0.8535,-4.84,7.4,0.2,19.33
6736,0.062,-0.2883,0.8584,-4.44,6.55,-0.02,19.33
6746,0.0663,-0.2852,0.8652,-4.98,6.37,-0.06,19.32
6756,0.0698,-0.2827,0.8635,-6.08,6.78,-0.26,19.33
6766,0.0729,-0.2863,0.8577,-6.95,7.57,-0.34,19.3
6776,0.0754,-0.2853,0.8422,-7.24,8.27,-0.18,19.32
6786,0.0736,-0.2866,0.8398,-6.64,8.82,0.05,19.34
6796,0.0658,-0.2914,0.8425,-5.56,8.76,0.18,19.32
6806,0.0612,-0.287,0.8521,-4.67,8.12,0.32,19.3
6816,0.0605,-0.288,0.8608,-4.52,7.4,0.2,19.34
6826,0.0632,-0.2849,0.8721,-4.66,6.52,-0.05,19.34
6836,0.067,-0.2805,0.866,-5.22,5.73,-0.35,19.35
6846,0.0725,-0.2767,0.8632,-6.0,5.92,-0.5,19.32
6856,0.0762,-0.2742,0.8547,-6.73,6.98,-0.38,19.34
6866,0.0774,-0.2751,0.8359,-7.1,8.47,-0.08,19.33
6876,0.0765,-0.2783,0.8403,-6.9,9.65,0.24,19.33
6886,0.0643,-0.2827,0.8502,-5.91,9.71,0.4,19.34
6896,0.058,-0.2819,0.8585,-4.84,8.38,0.4,19.33
6906,0.0658,-0.285,0.8733,-4.64,7.4,0.0,19.31
6916,0.0658,-0.2793,0.8748,-5.86,7.36,-0.02,19.33
6926,0.0665,-0.2823,0.8674,-7.13,7.16,-0.27,19.32
6936,0.0669,-0.2853,0.8525,-7.48,7.07,-0.38,19.33
6946,0.0695,-0.2891,0.845,-6.98,7.13,-0.32,19.32
6956,0.075,-0.2877,0.8379,-6.46,7.71,-0.08,19.34
6966,0.0742,-0.2847,0.8412,-5.88,8.84,0.24,19.34
6976,0.0657,-0.2909,0.8455,-5.48,9.1,0.38,19.34
6986,0.064,-0.2849,0.8636,-5.01,8.38,0.27,19.33
6996,0.0603,-0.2773,0.8698,-4.85,7.33,0.15,19.35
7006,0.0632,-0.2848,0.8689,-5.59,6.35,-0.14,19.33
7016,0.066,-0.2776,0.8619,-6.5,6.67,-0.37,19.33
7026,0.0665,-0.2717,0.8502,-7.33,7.1,-0.47,19.33
7036,0.0695,-0.2788,0.8445,-7.07,7.65,-0.32,19.35
7046,0.0677,-0.2784,0.8435,-6.24,7.85,-0.14,19.34
7056,0.0729,-0.2776,0.8506,-5.19,8.09,0.17,19.31
7066,0.067,-0.2793,0.8535,-4.69,8.43,0.41,19.34
7076,0.0637,-0.28,0.863,-4.85,7.74,0.2,19.32
7086,0.0653,-0.281,0.8719,-5.36,7.39,0.03,19.33
7096,0.0637,-0.2778,0.8672,-6.47,7.45,-0.18,19.33
7106,0.0677,-0.2765,0.8627,-7.05,7.51,-0.31,19.34
7116,0.0669,-0.2772,0.8499,-6.95,7.51,-0.17,19.33
7126,0.0679,-0.2852,0.8416,-6.18,7.27,-0.09,19.34
7136,0.0718,-0.2869,0.8451,-5.4,7.42,0.06,19.34
7146,0.0751,-0.2827,0.8523,-5.15,7.76,0.26,19.3
7156,0.0739,-0.2805,0.8608,-5.22,8.24,0.29,19.37
7166,0.0718,-0.2816,0.8643,-5.68,8.08,0.17,19.33
7176,0.067,-0.2838,0.863,-5.8,7.85,0.05,19.36
7186,0.0651,-0.2856,0.854,-6.18,8.17,-0.2,19.34
7196,0.0587,-0.2871,0.8529,-6.2,8.26,-0.08,19.34
7206,0.0549,-0.2876,0.8444,-5.37,6.81,-0.08,19.32
7216,0.0618,-0.2904,0.8506,-4.21,5.56,-0.12,19.33
7226,0.0739,-0.2841,0.8579,-3.62,5.57,-0.12,19.33
7236,0.0813,-0.2745,0.8672,-4.27,6.08,-0.06,19.37
7246,0.0762,-0.2759,0.8533,-5.47,7.18,0.02,19.35
7256,0.0629,-0.288,0.8394,-5.91,6.23,0.05,19.35
7267,0.0775,-0.2754,0.8546,-5.94,6.69,0.03,19.34
7277,0.0776,-0.2692,0.8552,-6.98,9.1,-0.17,19.31
7287,0.0679,-0.2828,0.8384,-7.76,9.69,-0.06,19.32
7297,0.0675,-0.2876,0.8489,-7.88,9.97,0.32,19.33
7307,0.059,-0.2876,0.8551,-6.85,9.3,0.32,19.34
7317,0.0522,-0.2908,0.8615,-5.34,7.01,-0.03,19.34
7327,0.062,-0.2834,0.8677,-4.92,5.04,-0.41,19.36
7337,0.0845,-0.275,0.8654,-5.85,5.5,-0.44,19.34
7347,0.0867,-0.2661,0.8525,-8.15,8.14,-0.2,19.34
7357,0.0692,-0.2798,0.8433,-9.31,10.52,0.03,19.36
7367,0.0598,-0.2896,0.8325,-8.95,11.71,0.31,19.35
7377,0.0569,-0.2952,0.8392,-7.65,11.11,0.49,19.33
7387,0.061,-0.2942,0.8596,-6.29,10.17,0.43,19.36
7397,0.0594,-0.2913,0.8682,-5.89,7.76,0.0,19.35
7407,0.0671,-0.2861,0.8774,-5.04,5.11,-0.41,19.33
7417,0.0764,-0.2673,0.8701,-5.37,4.08,-0.75,19.35
7427,0.078,-0.272,0.8608,-6.46,5.36,-0.53,19.37
7437,0.0712,-0.2683,0.8368,-7.48,8.23,-0.18,19.34
7447,0.0635,-0.2749,0.8314,-7.39,9.34,0.09,19.34
7457,0.0621,-0.2826,0.8386,-6.0,10.37,0.53,19.34
7467,0.056,-0.2843,0.8511,-4.81,9.6,0.49,19.34
7477,0.0569,-0.2811,0.8724,-3.65,7.68,0.35,19.35
7487,0.0641,-0.2791,0.882,-3.82,5.15,-0.11,19.34
7497,0.0769,-0.278,0.8827,-4.87,4.24,-0.5,19.33
7507,0.0774,-0.2684,0.8608,-6.75,5.5,-0.69,19.33
7517,0.0771,-0.282,0.8369,-8.02,6.73,-0.56,19.34
7527,0.0706,-0.2849,0.8264,-7.56,8.76,-0.15,19.34
7537,0.068,-0.2903,0.8293,-6.29,9.88,0.32,19.35
7547,0.0607,-0.2915,0.8395,-4.72,10.09,0.6,19.36
7557,0.0609,-0.2938,0.8573,-3.89,8.81,0.6,19.36
7567,0.0587,-0.296,0.8787,-3.71,6.9,0.27,19.33
7577,0.0662,-0.2886,0.8832,-4.9,5.83,-0.29,19.35
7587,0.0663,-0.2848,0.8708,-6.75,5.59,-0.64,19.36
7597,0.0729,-0.2834,0.8484,-7.59,5.91,-0.75,19.34
7607,0.0748,-0.2864,0.8319,-7.31,6.78,-0.43,19.36
7617,0.0732,-0.2843,0.8292,-6.2,8.0,0.03,19.33
7627,0.0753,-0.2803,0.8358,-4.84,8.73,0.46,19.35
7637,0.0701,-0.2827,0.8539,-4.18,9.19,0.66,19.37
7647,0.0629,-0.2758,0.8698,-4.64,9.36,0.55,19.35
7657,0.0591,-0.2767,0.8796,-5.83,8.61,0.23,19.35
7667,0.0604,-0.2781,0.8843,-6.81,7.44,-0.24,19.35
7677,0.061,-0.2756,0.866,-7.44,6.49,-0.47,19.37
7687,0.0675,-0.2773,0.8507,-7.28,5.8,-0.69,19.34
7697,0.0745,-0.2786,0.8439,-6.52,5.92,-0.47,19.34
7707,0.077,-0.2747,0.8369,-5.79,6.99,-0.17,19.35
7717,0.0786,-0.2759,0.8376,-5.31,8.85,0.24,19.33
7727,0.0724,-0.2781,0.8511,-5.42,10.53,0.58,19.35
7737,0.0629,-0.286,0.86,-5.8,10.61,0.56,19.36
7747,0.0536,-0.2902,0.8702,-5.73,9.13,0.34,19.41
7757,0.0533,-0.2905,0.8722,-5.62,7.01,-0.14,19.35
7767,0.0596,-0.2885,0.864,-5.74,5.25,-0.61,19.37
7777,0.0696,-0.2891,0.8542,-6.14,4.93,-0.69,19.35
7787,0.0746,-0.2822,0.8418,-6.18,5.92,-0.52,19.36
7797,0.0817,-0.2855,0.8295,-6.0,7.05,-0.23,19.36
7807,0.0869,-0.282,0.8385,-5.51,8.7,0.24,19.37
7817,0.0786,-0.283,0.847,-5.51,10.15,0.53,19.37
7827,0.0687,-0.2927,0.8585,-5.36,10.58,0.66,19.36
7837,0.0522,-0.2874,0.8704,-5.62,9.94,0.47,19.38
7847,0.0494,-0.2828,0.874,-5.91,8.35,0.02,19.37
7857,0.0593,-0.2837,0.8726,-6.73,7.13,-0.38,19.37
7868,0.0708,-0.2831,0.8593,-7.22,6.81,-0.61,19.36
7878,0.0625,-0.2844,0.845,-6.7,6.05,-0.31,19.38
7888,0.0748,-0.2753,0.8398,-5.42,5.42,-0.56,19.37
7898,0.0889,-0.2687,0.848,-5.79,7.71,-0.09,19.38
7908,0.0732,-0.2645,0.8398,-6.37,10.44,0.55,19.34
7918,0.0603,-0.2711,0.8596,-6.15,10.41,0.82,19.37
7928,0.0558,-0.2817,0.8722,-5.44,9.74,0.58,19.35
7938,0.0518,-0.2819,0.8755,-5.56,7.76,0.08,19.38
7948,0.0607,-0.2767,0.8773,-5.77,6.11,-0.31,19.37
7958,0.0664,-0.2792,0.8655,-6.44,5.36,-0.43,19.34
7968,0.0715,-0.281,0.8523,-6.98,6.18,-0.58,19.35
7978,0.0708,-0.282,0.8373,-6.85,7.08,-0.38,19.37
7988,0.0726,-0.2931,0.8303,-5.88,7.73,-0.06,19.34
7998,0.0718,-0.2947,0.8414,-4.87,8.24,0.18,19.38
8008,0.0684,-0.2935,0.8539,-4.32,8.26,0.32,19.35
8018,0.064,-0.2925,0.8652,-4.31,7.88,0.15,19.36
8028,0.0569,-0.2902,0.868,-4.96,6.96,0.0,19.38
8038,0.0647,-0.2856,0.8665,-5.89,6.44,-0.27,19.36
8048,0.0657,-0.2855,0.8597,-6.58,6.24,-0.38,19.33
8058,0.0692,-0.2822,0.8503,-6.6,6.35,-0.34,19.36
8068,0.0745,-0.2786,0.8411,-6.02,6.82,-0.18,19.37
8078,0.0675,-0.2776,0.8411,-4.64,6.69,0.21,19.37
8088,0.0715,-0.2743,0.8491,-2.52,5.11,-0.15,19.35
8098,0.0696,-0.2648,0.8722,-2.78,5.92,0.12,19.38
8108,0.0668,-0.2622,0.8699,-4.56,7.42,0.11,19.39
8118,0.0699,-0.2721,0.869,-6.63,7.85,-0.09,19.38
8128,0.0684,-0.2804,0.8621,-7.27,8.14,-0.21,19.36
8138,0.0706,-0.2845,0.8535,-7.65,8.03,-0.18,19.37
8148,0.0679,-0.2886,0.8475,-7.19,7.92,-0.27,19.37
8158,0.0677,-0.2942,0.84,-6.21,7.13,-0.09,19.35
8168,0.0664,-0.2914,0.8489,-5.05,6.81,0.03,19.38
8178,0.0693,-0.2871,0.8499,-4.6,6.53,0.14,19.38
8188,0.072,-0.2816,0.8558,-4.81,6.52,-0.02,19.35
8198,0.0724,-0.275,0.8586,-5.48,7.07,-0.03,19.39
8208,0.0719,-0.2787,0.8594,-6.61,8.06,0.06,19.39
8218,0.0688,-0.28,0.8538,-7.28,8.89,0.08,19.35
8228,0.0642,-0.2834,0.8502,-6.96,8.37,0.08,19.38
8238,0.0657,-0.2859,0.8541,-6.02,7.4,0.03,19.39
8248,0.0685,-0.2838,0.8551,-5.08,6.61,-0.14,19.39
8258,0.0723,-0.2787,0.8628,-5.01,6.49,-0.26,19.39
8268,0.0736,-0.2804,0.8632,-5.57,6.96,-0.15,19.37
8278,0.0714,-0.2789,0.8569,-6.08,7.39,-0.09,19.37
8288,0.0679,-0.2828,0.8545,-6.27,7.69,-0.17,19.37
8298,0.0653,-0.2833,0.849,-5.94,7.57,-0.03,19.36
8308,0.0701,-0.2798,0.8524,-5.71,7.44,0.02,19.36
8318,0.0739,-0.2776,0.8563,-5.79,7.77,0.0,19.38
8328,0.069,-0.2784,0.8557,-6.03,8.23,0.21,19.39
8338,0.0624,-0.2802,0.8589,-5.68,7.76,0.08,19.37
8348,0.0667,-0.2809,0.8608,-5.42,7.02,-0.05,19.38
8358,0.0717,-0.2738,0.8646,-5.71,7.04,-0.06,19.39
8368,0.0708,-0.274,0.854,-6.24,7.53,-0.15,19.36
8378,0.071,-0.2759,0.855,-6.75,8.09,-0.12,19.39
8388,0.0707,-0.28,0.8505,-6.95,8.69,0.05,19.39
8398,0.0665,-0.2808,0.8506,-6.76,8.9,0.05,19.37
8408,0.0664,-0.2861,0.8494,-6.32,8.85,0.0,19.38
8418,0.0712,-0.2853,0.8573,-6.23,8.78,0.15,19.39
8428,0.068,-0.2892,0.8579,-6.15,8.58,0.18,19.37
8438,0.0624,-0.2888,0.8585,-6.2,8.03,0.0,19.38
8448,0.0653,-0.2877,0.856,-5.73,6.84,-0.17,19.39
8458,0.0669,-0.2837,0.8618,-5.68,6.46,-0.24,19.38
8468,0.0745,-0.2791,0.8536,-6.27,7.18,-0.21,19.37
8479,0.074,-0.2794,0.8472,-6.34,8.26,-0.03,19.39
8489,0.0691,-0.2791,0.85,-6.26,8.44,0.14,19.39
8499,0.0692,-0.2806,0.8501,-5.48,8.4,0.18,19.4
8509,0.0647,-0.2802,0.8568,-5.04,7.73,0.08,19.41
8519,0.0699,-0.2755,0.8679,-5.15,7.56,0.03,19.4
8529,0.0675,-0.2748,0.8619,-5.83,7.69,-0.15,19.4
8539,0.0657,-0.2761,0.8647,-6.47,7.71,-0.11,19.4
8549,0.0558,-0.2855,0.8527,-6.03,6.5,-0.21,19.38
8559,0.0745,-0.2721,0.8555,-5.79,5.83,-0.27,19.39
8569,0.0863,-0.2809,0.849,-5.94,7.63,-0.15,19.39
8579,0.0736,-0.2782,0.8313,-6.43,8.17,0.08,19.37
8589,0.0703,-0.2849,0.8496,-5.92,8.31,0.24,19.38
8599,0.064,-0.2836,0.8557,-5.59,8.56,0.18,19.37
8609,0.0673,-0.2831,0.8584,-5.54,7.77,0.0,19.38
8619,0.0691,-0.2784,0.8628,-5.79,7.89,0.03,19.38
8629,0.067,-0.2799,0.8636,-6.56,7.76,-0.08,19.38
8639,0.0676,-0.2827,0.8571,-6.92,7.91,-0.12,19.38
8649,0.0682,-0.2858,0.8481,-6.89,7.92,-0.12,19.4
8659,0.0697,-0.2839,0.8478,-6.46,8.02,-0.06,19.36
8669,0.0697,-0.2827,0.8446,-5.91,7.91,-0.02,19.39
8679,0.0679,-0.2815,0.8563,-5.66,7.94,0.11,19.37
8689,0.0652,-0.2786,0.8536,-5.4,7.83,0.12,19.39
8699,0.0654,-0.2821,0.8616,-5.45,7.15,-0.03,19.38
8709,0.0707,-0.2815,0.8616,-5.85,7.34,-0.09,19.38
8719,0.0718,-0.2792,0.855,-6.26,7.5,-0.05,19.38
8729,0.0686,-0.278,0.8531,-6.55,7.56,-0.18,19.39
8739,0.0706,-0.2814,0.8464,-6.23,7.73,-0.08,19.4
8749,0.0745,-0.2794,0.8513,-6.02,7.97,-0.06,19.39
8759,0.0702,-0.2828,0.8573,-5.89,8.29,0.18,19.4
8769,0.0649,-0.2802,0.853,-5.73,8.23,0.18,19.39
8779,0.0671,-0.2822,0.8618,-5.53,7.77,0.14,19.39
8789,0.0671,-0.2842,0.8617,-5.83,7.59,-0.06,19.39
8799,0.0676,-0.2834,0.8605,-6.14,7.13,-0.2,19.39
8809,0.0707,-0.2832,0.8533,-6.15,7.27,-0.09,19.37
8819,0.0696,-0.2859,0.8517,-6.15,7.28,-0.14,19.41
8829,0.0691,-0.2867,0.8481,-5.92,7.45,-0.12,19.39
8839,0.073,-0.2805,0.8488,-5.74,7.6,-0.11,19.39
8849,0.0721,-0.2837,0.8588,-5.88,8.23,0.09,19.38
8859,0.0667,-0.2845,0.8539,-5.94,8.69,0.18,19.4
8869,0.0638,-0.2828,0.8594,-5.88,8.06,0.09,19.38
8879,0.0685,-0.2832,0.8632,-5.69,7.47,0.03,19.4
8889,0.0698,-0.2871,0.8445,-5.22,6.21,-0.29,19.4
8899,0.0695,-0.2783,0.8615,-5.86,5.8,-0.23,19.4
8909,0.0685,-0.2747,0.8635,-6.47,8.15,-0.24,19.4
8919,0.0629,-0.2754,0.8441,-6.79,8.4,-0.03,19.39
8929,0.0728,-0.278,0.851,-6.14,8.46,0.14,19.42
8939,0.0668,-0.274,0.8486,-5.31,8.15,0.26,19.42
8949,0.0648,-0.2819,0.8613,-4.82,7.25,0.14,19.4
8959,0.0663,-0.2776,0.8684,-4.98,7.24,0.03,19.41
8969,0.0671,-0.2755,0.8702,-6.2,7.56,0.0,19.39
8979,0.0729,-0.2759,0.861,-6.98,8.08,-0.24,19.4
8989,0.0708,-0.2823,0.8517,-7.3,8.14,-0.21,19.4
8999,0.0708,-0.2842,0.8481,-6.64,8.06,-0.18,19.41
9009,0.0677,-0.2845,0.8436,-5.88,7.89,0.03,19.39
9019,0.0648,-0.2853,0.8492,-5.4,7.82,0.14,19.4
9029,0.0659,-0.2849,0.8534,-5.22,7.76,0.14,19.4
9039,0.0697,-0.2845,0.8662,-5.76,8.24,0.17,19.43
9049,0.0659,-0.288,0.8568,-6.17,8.34,0.08,19.37
9059,0.0597,-0.2856,0.8512,-6.08,7.25,-0.12,19.4
9069,0.0715,-0.2848,0.8566,-5.92,6.72,-0.15,19.39
9079,0.0734,-0.2799,0.8552,-6.05,7.25,-0.12,19.41
9089,0.0728,-0.2816,0.849,-6.17,7.77,-0.11,19.41
9099,0.0669,-0.2806,0.8491,-6.15,8.17,0.05,19.39
9109,0.0664,-0.2859,0.8506,-5.82,8.02,0.09,19.4
9119,0.0668,-0.2788,0.8556,-5.36,7.88,-0.03,19.42
9129,0.0679,-0.2751,0.8615,-5.39,7.62,-0.05,19.39
9139,0.0681,-0.2815,0.8616,-6.17,7.97,-0.08,19.38
9149,0.0677,-0.2805,0.8604,-6.81,8.38,-0.03,19.42
9159,0.0673,-0.2842,0.8503,-6.84,8.29,-0.17,19.4
9169,0.0676,-0.2821,0.8533,-6.31,7.92,-0.11,19.42
9179,0.0688,-0.277,0.8484,-5.56,7.21,0.0,19.41
9189,0.0677,-0.2755,0.8531,-5.01,6.7,0.05,19.4
9199,0.0698,-0.2717,0.8645,-5.13,6.9,0.06,19.39
9209,0.0737,-0.2675,0.8657,-5.86,7.89,0.15,19.41
9219,0.0631,-0.2678,0.8638,-6.43,8.26,0.12,19.42
9229,0.0596,-0.2742,0.8573,-6.23,7.97,0.03,19.4
9239,0.0608,-0.2761,0.8595,-5.83,7.07,-0.12,19.41
9249,0.0691,-0.2771,0.8593,-5.76,6.85,-0.18,19.39
9259,0.0735,-0.2817,0.8528,-6.08,7.39,-0.18,19.39
9269,0.0708,-0.2881,0.8502,-6.31,7.94,-0.15,19.42
9279,0.0676,-0.2887,0.848,-6.08,7.91,-0.06,19.41
9289,0.0647,-0.2888,0.8505,-5.71,7.4,-0.05,19.42
9299,0.0676,-0.2874,0.8489,-5.53,7.3,-0.05,19.44
9309,0.073,-0.287,0.8547,-5.89,7.48,0.06,19.4
9319,0.0674,-0.2885,0.8535,-6.21,8.31,0.09,19.42
9329,0.0637,-0.291,0.8561,-6.37,8.15,0.17,19.41
9339,0.066,-0.2902,0.8529,-6.09,7.69,0.06,19.4
9349,0.0673,-0.2839,0.8518,-5.82,7.28,-0.06,19.39
9403,0.0646,-0.286,0.8512,-6.23,8.29,-0.03,19.38
9413,0.0646,-0.2888,0.8544,-5.89,7.74,-0.03,19.39
9423,0.0676,-0.2858,0.8519,-5.5,6.84,-0.08,19.41
9433,0.0753,-0.2804,0.8615,-5.71,7.01,-0.17,19.42
9443,0.0723,-0.2827,0.8607,-6.18,7.51,-0.14,19.42
9453,0.0698,-0.2814,0.851,-6.66,8.15,-0.06,19.37
9463,0.0671,-0.282,0.8484,-6.58,8.47,0.11,19.41
9473,0.0649,-0.2821,0.8516,-6.14,8.46,0.15,19.43
9483,0.0629,-0.2831,0.8545,-5.53,8.11,0.15,19.41
9493,0.064,-0.2789,0.8622,-5.31,7.69,-0.03,19.41
9503,0.0685,-0.2791,0.8669,-5.68,7.56,0.05,19.39
9513,0.0645,-0.2795,0.8616,-5.95,7.42,-0.06,19.42
9523,0.0667,-0.2798,0.8595,-5.97,6.72,-0.2,19.42
9533,0.0729,-0.2797,0.8555,-6.05,6.73,-0.24,19.43
9543,0.0731,-0.2754,0.8499,-6.34,7.6,-0.17,19.42
9553,0.0715,-0.2805,0.8486,-6.52,8.52,0.0,19.41
9563,0.0696,-0.2817,0.8481,-6.31,8.98,0.17,19.39
9573,0.0642,-0.2847,0.8534,-5.8,8.82,0.24,19.41
9583,0.0602,-0.2855,0.8586,-5.33,8.15,0.15,19.42
9593,0.0613,-0.2845,0.8655,-5.3,7.15,0.06,19.42
9603,0.0623,-0.2838,0.8607,-5.59,6.34,-0.17,19.42
9613,0.0696,-0.2832,0.8616,-5.97,5.98,-0.31,19.4
9623,0.0753,-0.2828,0.8553,-6.41,6.55,-0.32,19.42
9633,0.0751,-0.2811,0.8467,-6.5,7.48,-0.17,19.4
9643,0.0763,-0.2816,0.8439,-6.15,8.34,0.03,19.41
9653,0.0709,-0.2837,0.8486,-5.74,9.02,0.26,19.43
9663,0.0647,-0.283,0.8527,-5.37,8.73,0.37,19.42
9673,0.0624,-0.2803,0.8654,-5.18,8.09,0.12,19.42
9683,0.0637,-0.2809,0.8679,-5.59,7.57,0.02,19.44
9693,0.0643,-0.281,0.8678,-6.32,7.1,-0.21,19.41
9703,0.0662,-0.2839,0.8588,-7.01,7.04,-0.26,19.41
9713,0.0662,-0.2838,0.8481,-6.78,6.9,-0.38,19.41
9723,0.0718,-0.2834,0.8446,-6.24,6.93,-0.23,19.42
9733,0.0758,-0.281,0.8439,-5.68,7.69,0.08,19.4
9743,0.0725,-0.2783,0.8489,-5.57,8.5,0.18,19.42
9753,0.0684,-0.2794,0.8585,-5.56,9.04,0.34,19.42
9763,0.0662,-0.2822,0.8618,-5.85,8.72,0.18,19.42
9773,0.0612,-0.2787,0.8695,-6.08,8.26,0.06,19.43
9783,0.061,-0.2808,0.8639,-6.46,7.65,-0.12,19.41
9793,0.0674,-0.2819,0.8588,-6.53,6.89,-0.26,19.43
9803,0.0708,-0.2799,0.8501,-6.41,6.7,-0.29,19.39
9813,0.0717,-0.2799,0.845,-6.4,7.04,-0.24,19.41
9823,0.0737,-0.2808,0.8442,-6.09,7.73,-0.02,19.42
9833,0.0723,-0.2817,0.8473,-5.76,8.2,0.06,19.41
9843,0.0691,-0.282,0.8586,-5.63,8.67,0.18,19.42
9853,0.0641,-0.2853,0.8593,-5.77,8.52,0.09,19.42
9863,0.0634,-0.2875,0.8632,-5.85,7.83,0.0,19.43
9873,0.0658,-0.2859,0.8624,-6.06,7.19,-0.09,19.42
9883,0.0663,-0.2834,0.8591,-6.32,6.72,-0.24,19.42
9893,0.0699,-0.2842,0.8483,-6.52,6.96,-0.32,19.41
9903,0.0713,-0.281,0.8477,-6.55,7.5,-0.17,19.42
9913,0.0756,-0.2792,0.8469,-6.24,7.98,-0.08,19.41
9923,0.0659,-0.2737,0.8503,-5.82,8.38,-0.03,19.41
9933,0.0602,-0.2733,0.8455,-4.64,7.89,0.12,19.42
9943,0.0785,-0.2916,0.8644,-5.3,7.11,0.06,19.42
9953,0.0751,-0.2935,0.8685,-5.94,8.81,0.03,19.44
9963,0.0668,-0.2855,0.8672,-7.62,8.98,-0.12,19.43
9973,0.0562,-0.3019,0.8523,-7.36,8.44,-0.14,19.42
9983,0.0627,-0.3049,0.8435,-7.15,6.41,-0.31,19.4
9993,0.076,-0.2999,0.8511,-5.51,6.73,-0.14,19.4
10003,0.0764,-0.2791,0.8427,-5.15,6.98,0.08,19.42
10013,0.0786,-0.2804,0.8534,-5.02,8.31,0.29,19.41
10023,0.067,-0.2678,0.8632,-5.59,9.48,0.47,19.42
10033,0.0677,-0.2722,0.8683,-5.92,9.44,0.46,19.42
10043,0.0587,-0.2732,0.8636,-6.2,8.81,0.21,19.45
10053,0.0593,-0.2751,0.8716,-6.02,7.04,-0.08,19.43
10063,0.0659,-0.2679,0.868,-5.62,6.11,-0.37,19.43
10073,0.074,-0.2693,0.8624,-6.29,6.26,-0.43,19.43
10083,0.0736,-0.2771,0.8485,-6.73,7.73,-0.29,19.43
10093,0.074,-0.2883,0.8427,-6.92,8.15,-0.14,19.42
10103,0.0706,-0.2974,0.8409,-6.21,8.98,0.02,19.41
10113,0.0624,-0.2974,0.8441,-5.63,8.52,0.14,19.44
10123,0.0542,-0.3025,0.8442,-4.29,6.52,0.14,19.44
10133,0.0715,-0.2833,0.869,-4.7,5.59,0.17,19.42
10143,0.077,-0.2809,0.8749,-6.29,8.24,-0.21,19.42
10153,0.0638,-0.2908,0.8468,-7.63,8.73,-0.29,19.43
10163,0.0632,-0.286,0.8459,-7.04,8.0,-0.08,19.43
10173,0.0659,-0.2843,0.8405,-5.92,7.22,-0.12,19.43
10183,0.0677,-0.2788,0.854,-4.7,6.99,0.0,19.42
10193,0.0664,-0.2698,0.8552,-4.38,7.34,0.11,19.44
10203,0.0692,-0.2711,0.8666,-5.22,7.79,0.17,19.39
10213,0.0682,-0.2725,0.8679,-6.12,8.35,0.08,19.43
10223,0.066,-0.2819,0.8657,-6.64,8.02,-0.12,19.43
10233,0.0636,-0.2799,0.8553,-6.55,7.59,-0.23,19.45
10243,0.0637,-0.2839,0.851,-5.98,6.43,-0.34,19.47
10253,0.0731,-0.2802,0.8534,-5.59,6.52,-0.21,19.42
10263,0.0701,-0.283,0.8489,-5.69,7.25,-0.02,19.42
10273,0.0692,-0.2864,0.8497,-5.68,8.14,0.12,19.42
10283,0.0664,-0.2856,0.8483,-5.82,8.23,0.12,19.44
10293,0.0649,-0.2887,0.8599,-5.69,8.06,0.26,19.44
10303,0.0652,-0.287,0.8578,-5.71,7.66,0.17,19.44
10313,0.068,-0.2865,0.8627,-5.66,7.11,0.0,19.44
10323,0.067,-0.2819,0.8586,-5.83,6.82,-0.14,19.43
10333,0.0679,-0.2827,0.8574,-6.05,7.07,-0.18,19.44
10343,0.0724,-0.2834,0.8523,-6.23,7.57,-0.14,19.44
10353,0.0679,-0.2823,0.8492,-6.11,7.77,-0.05,19.41
10363,0.0669,-0.2854,0.8486,-5.54,7.83,-0.05,19.41
10373,0.0684,-0.2803,0.8534,-4.98,7.76,0.08,19.43
10383,0.0679,-0.2816,0.8588,-4.96,7.45,-0.02,19.43
10393,0.0686,-0.2833,0.8619,-5.36,7.31,-0.08,19.41
10403,0.0695,-0.2795,0.8583,-5.73,7.19,-0.15,19.42
10413,0.0673,-0.2797,0.8588,-5.97,6.85,-0.2,19.44
10423,0.0673,-0.2759,0.8517,-6.18,7.01,-0.29,19.41
10433,0.0699,-0.2758,0.8495,-6.2,7.53,-0.14,19.42
10443,0.0708,-0.2761,0.8496,-6.09,8.08,0.02,19.44
10453,0.068,-0.2802,0.8506,-5.97,8.38,0.12,19.44
10463,0.0668,-0.2823,0.8589,-5.74,8.43,0.14,19.41
10473,0.0656,-0.2821,0.8589,-5.51,7.91,0.05,19.43
10483,0.0673,-0.2822,0.8665,-5.71,7.37,-0.06,19.41
10493,0.0704,-0.282,0.8617,-6.15,7.33,-0.15,19.44
10503,0.0709,-0.2814,0.8568,-6.63,7.63,-0.17,19.47
10513,0.069,-0.2866,0.8499,-6.67,7.89,-0.11,19.44
10523,0.0692,-0.2887,0.8451,-6.37,7.86,0.03,19.43
10533,0.0665,-0.2844,0.8452,-5.71,7.8,0.06,19.44
10543,0.068,-0.2831,0.8485,-5.57,7.94,0.15,19.41
10553,0.0697,-0.28,0.8562,-5.86,8.5,0.09,19.42
10563,0.0654,-0.2869,0.8586,-6.34,8.64,0.15,19.45
10573,0.0624,-0.2872,0.8595,-6.09,7.79,0.09,19.45
10583,0.0663,-0.2874,0.8579,-5.74,6.69,-0.24,19.46
10593,0.072,-0.2832,0.8573,-5.62,6.47,-0.27,19.43
10603,0.0703,-0.2778,0.855,-5.92,6.72,-0.23,19.42
10613,0.0753,-0.2781,0.856,-6.61,8.0,0.0,19.43
10623,0.0741,-0.2794,0.8519,-6.84,9.39,0.15,19.45
10633,0.0631,-0.2848,0.845,-6.21,9.05,0.2,19.43
10643,0.062,-0.2876,0.8573,-5.01,7.59,0.17,19.42
10653,0.0636,-0.2773,0.8688,-4.61,6.72,-0.05,19.43
10663,0.0667,-0.2719,0.869,-5.47,6.81,-0.17,19.46
10673,0.0702,-0.2733,0.8621,-6.41,7.22,-0.15,19.45
10683,0.0685,-0.2793,0.8547,-6.92,7.54,-0.14,19.42
10693,0.0714,-0.2811,0.8514,-6.72,7.79,-0.15,19.42
10703,0.0681,-0.2822,0.8466,-6.18,7.98,-0.17,19.43
10713,0.0699,-0.2843,0.8446,-5.76,8.27,0.12,19.42
10723,0.0677,-0.2817,0.8553,-5.36,8.44,0.23,19.44
10733,0.0643,-0.2827,0.8612,-5.31,7.95,0.23,19.44
10743,0.0637,-0.2834,0.8668,-5.42,7.45,0.05,19.43
10753,0.0604,-0.2861,0.8632,-5.88,6.92,0.03,19.43
10763,0.0641,-0.282,0.8552,-4.89,4.64,-0.92,19.43
10773,0.0663,-0.2786,0.8699,-6.09,5.54,-0.47,19.44
10783,0.0756,-0.2747,0.8481,-7.34,8.32,-0.15,19.44
10793,0.0765,-0.2778,0.8423,-7.48,9.21,0.08,19.42
10803,0.0695,-0.2914,0.8354,-5.74,9.13,0.29,19.41
10813,0.0626,-0.2839,0.8473,-4.32,7.4,0.41,19.42
10823,0.0659,-0.282,0.8713,-3.95,7.07,0.21,19.44
10833,0.0663,-0.2778,0.8719,-5.22,7.42,0.02,19.43
10843,0.0649,-0.2799,0.8688,-6.85,7.73,-0.18,19.46
10853,0.0656,-0.2809,0.8597,-7.74,7.77,-0.35,19.44
10863,0.0686,-0.288,0.8489,-7.34,7.36,-0.34,19.46
10873,0.0692,-0.2822,0.8394,-6.18,7.02,-0.12,19.44
10883,0.0709,-0.2837,0.8422,-5.02,6.87,-0.08,19.44
10893,0.0708,-0.2812,0.8542,-4.76,7.62,0.18,19.45
10903,0.0686,-0.2776,0.8547,-4.95,8.06,0.37,19.45
10913,0.0667,-0.2808,0.8611,-5.36,8.12,0.26,19.44
10923,0.0641,-0.2826,0.8651,-5.88,7.83,0.0,19.45
10933,0.0635,-0.2816,0.8636,-6.47,7.44,-0.15,19.44
10943,0.0687,-0.2825,0.8583,-6.58,7.27,-0.32,19.44
10953,0.0677,-0.2816,0.8518,-6.66,7.31,-0.26,19.45
10963,0.0704,-0.2817,0.8453,-6.09,7.37,-0.14,19.46
10973,0.0731,-0.28,0.8428,-5.62,7.63,0.05,19.44
10983,0.0671,-0.28,0.8517,-5.31,8.05,0.17,19.45
10993,0.0685,-0.2831,0.8594,-5.34,8.18,0.2,19.45
11003,0.0699,-0.278,0.861,-5.74,8.09,0.06,19.44
11013,0.0651,-0.2802,0.8639,-6.23,8.03,0.02,19.46
11023,0.0636,-0.2847,0.8608,-6.55,7.53,-0.08,19.45
11033,0.0657,-0.2814,0.854,-6.35,7.04,-0.21,19.42
11043,0.0686,-0.2819,0.8508,-6.08,6.93,-0.26,19.44
11053,0.0723,-0.2795,0.8513,-5.89,7.24,-0.09,19.44
11063,0.0719,-0.276,0.8467,-5.8,7.89,0.08,19.46
11073,0.0726,-0.2802,0.8534,-5.89,8.44,0.2,19.44
11083,0.0669,-0.2802,0.8524,-5.91,8.56,0.23,19.43
11093,0.0625,-0.2838,0.8579,-5.73,8.02,0.14,19.47
11103,0.0664,-0.2816,0.8617,-5.65,7.3,-0.05,19.44
11113,0.0669,-0.2776,0.8632,-5.91,6.82,-0.2,19.46
11123,0.0713,-0.2795,0.8579,-6.38,7.18,-0.23,19.46
11133,0.0703,-0.2826,0.8492,-6.64,7.63,-0.11,19.48
11143,0.0695,-0.2821,0.8486,-6.37,7.59,-0.03,19.44
11153,0.0692,-0.283,0.8481,-5.74,7.65,-0.06,19.46
11163,0.0669,-0.2861,0.8512,-5.34,7.71,0.05,19.45
11173,0.0721,-0.2817,0.8589,-5.57,8.05,0.09,19.43
11183,0.0667,-0.2815,0.8586,-6.11,8.44,0.08,19.43
11193,0.0638,-0.2819,0.859,-6.5,8.41,0.05,19.44
11203,0.0665,-0.2845,0.8593,-6.5,7.94,-0.05,19.45
11213,0.0673,-0.2784,0.8535,-6.14,7.33,-0.17,19.46
11223,0.0702,-0.2823,0.8536,-6.23,7.3,-0.21,19.43
11233,0.0703,-0.277,0.8481,-6.43,7.73,-0.03,19.47
11243,0.0681,-0.2773,0.8501,-6.47,8.0,0.08,19.45
11253,0.0653,-0.2794,0.851,-6.14,7.94,0.12,19.47
11263,0.0699,-0.2755,0.8534,-6.06,7.85,-0.03,19.46
11273,0.0681,-0.2793,0.8596,-6.44,8.41,0.11,19.42
11283,0.0657,-0.2784,0.8563,-6.96,8.5,0.02,19.44
11293,0.0679,-0.2843,0.8562,-7.04,8.44,0.11,19.46
11303,0.0625,-0.2859,0.8502,-6.63,8.0,-0.03,19.46
11313,0.0658,-0.2861,0.8546,-5.76,6.84,-0.12,19.48
11323,0.0691,-0.282,0.8555,-5.21,6.49,-0.08,19.45
11333,0.0743,-0.2867,0.8555,-5.4,7.16,-0.03,19.45
11343,0.068,-0.2839,0.8503,-5.73,7.5,0.03,19.46
11353,0.0641,-0.2852,0.8545,-5.56,7.16,-0.03,19.46
11363,0.068,-0.286,0.8568,-5.3,6.82,-0.03,19.45
11373,0.0713,-0.2795,0.8566,-5.24,7.11,-0.02,19.44
11383,0.0699,-0.2822,0.8547,-5.54,7.24,0.0,19.45
11393,0.0699,-0.2842,0.8546,-5.74,7.22,-0.03,19.48
11403,0.0679,-0.2871,0.8556,-5.73,7.24,-0.02,19.46
11413,0.071,-0.2834,0.8555,-5.76,7.24,-0.12,19.47
11423,0.0709,-0.2833,0.8516,-5.85,7.71,-0.02,19.47
11433,0.0665,-0.2854,0.853,-5.83,7.62,-0.12,19.47
11443,0.0654,-0.2861,0.8551,-5.39,7.4,0.0,19.47
11453,0.0659,-0.2849,0.8563,-5.24,7.1,-0.06,19.45
11463,0.0697,-0.2822,0.8571,-5.34,6.84,-0.14,19.44
11473,0.0719,-0.2762,0.8584,-5.47,6.95,-0.18,19.46
11483,0.074,-0.2766,0.8556,-5.86,7.45,-0.12,19.44
11493,0.0703,-0.2732,0.8542,-6.12,7.85,-0.06,19.46
11503,0.0682,-0.2742,0.8571,-6.09,8.05,-0.05,19.44
11513,0.0687,-0.2744,0.8606,-6.06,8.03,0.0,19.44
11523,0.0688,-0.2758,0.8575,-6.02,7.98,0.03,19.44
11533,0.0709,-0.2761,0.8632,-6.05,7.8,0.0,19.47
11543,0.068,-0.2761,0.8625,-6.09,7.63,-0.03,19.46
11553,0.0643,-0.2766,0.8577,-6.09,7.39,-0.06,19.46
11563,0.068,-0.2797,0.8557,-6.18,7.34,-0.12,19.48
11573,0.069,-0.2797,0.8562,-6.12,7.45,-0.08,19.46
11583,0.0693,-0.2812,0.8527,-6.12,7.68,0.0,19.46
11593,0.0692,-0.2816,0.8524,-6.0,7.89,0.11,19.46
11603,0.0682,-0.2849,0.8538,-5.94,8.06,0.15,19.46
11613,0.0701,-0.2828,0.8578,-5.83,8.21,0.2,19.44
11623,0.0676,-0.2854,0.856,-5.6,8.02,0.12,19.46
11633,0.066,-0.2872,0.8551,-5.57,7.4,-0.02,19.46
11643,0.0708,-0.2855,0.863,-5.77,7.15,-0.15,19.47
11653,0.0714,-0.2844,0.8513,-6.15,7.37,-0.17,19.45
11663,0.0699,-0.2878,0.8475,-6.34,7.37,-0.06,19.45
11673,0.0701,-0.2861,0.8513,-5.92,7.11,-0.09,19.47
11683,0.0734,-0.2827,0.8558,-5.71,7.4,-0.06,19.47
11693,0.0673,-0.2791,0.858,-5.59,7.57,0.0,19.45
11703,0.0656,-0.2805,0.8547,-5.74,7.59,0.08,19.47
11713,0.0706,-0.281,0.8605,-6.0,7.89,0.05,19.44
11723,0.0679,-0.2788,0.8615,-6.02,7.97,0.06,19.46
11733,0.0656,-0.2804,0.8573,-5.85,7.37,-0.03,19.46
11743,0.0707,-0.2806,0.8551,-5.73,6.84,-0.14,19.49
11753,0.0723,-0.2776,0.8583,-5.83,6.95,-0.14,19.45
11763,0.073,-0.2761,0.8555,-6.09,7.71,0.02,19.47
11773,0.0671,-0.2808,0.8472,-6.18,8.0,0.11,19.44
11783,0.0699,-0.281,0.8508,-5.85,7.88,0.03,19.47
11793,0.0695,-0.2797,0.8538,-5.83,8.17,0.12,19.47
11803,0.0682,-0.2847,0.8555,-5.82,8.15,0.08,19.46
11813,0.0634,-0.2823,0.8618,-5.85,7.66,-0.02,19.47
11823,0.0687,-0.2833,0.8616,-6.0,7.62,-0.08,19.48
11833,0.0671,-0.2783,0.8585,-6.46,7.63,-0.08,19.46
11843,0.0699,-0.2819,0.8545,-6.29,7.22,-0.05,19.45
11853,0.0706,-0.2826,0.8503,-6.05,7.16,-0.14,19.45
11863,0.0697,-0.2817,0.8542,-6.02,7.42,-0.18,19.47
11873,0.0686,-0.2841,0.8468,-6.0,7.66,-0.03,19.48
11883,0.0713,-0.2812,0.8547,-5.92,7.91,0.05,19.48
11893,0.0688,-0.28,0.856,-5.97,8.12,0.17,19.5
11903,0.0681,-0.2838,0.8606,-6.0,7.97,0.02,19.47
11913,0.069,-0.283,0.861,-6.09,7.79,-0.06,19.45
11923,0.0696,-0.2838,0.8558,-6.23,7.68,-0.05,19.48
11933,0.0677,-0.2831,0.8523,-6.27,7.59,-0.17,19.45
11943,0.0697,-0.281,0.8525,-5.97,7.39,-0.15,19.47
11953,0.0684,-0.2788,0.8514,-5.69,7.19,-0.06,19.44
11963,0.069,-0.2786,0.8514,-5.53,7.31,-0.08,19.46
11973,0.0725,-0.2764,0.8511,-5.6,7.66,-0.05,19.47
11983,0.0699,-0.2776,0.8629,-5.76,7.97,0.08,19.45
11993,0.067,-0.2791,0.8624,-6.0,8.14,0.15,19.45
12003,0.0668,-0.2797,0.8593,-5.97,7.77,-0.02,19.45
12013,0.0704,-0.2791,0.8588,-5.8,7.31,-0.11,19.47
12023,0.0708,-0.2794,0.8541,-6.0,7.31,-0.14,19.47
12033,0.0746,-0.2799,0.8583,-6.18,7.51,-0.09,19.47
12043,0.0706,-0.2815,0.8588,-6.23,7.91,-0.02,19.49
12053,0.0684,-0.2834,0.8538,-6.14,8.09,0.11,19.46
12063,0.066,-0.2848,0.8542,-5.86,7.92,0.0,19.47
12073,0.0674,-0.2839,0.8528,-5.68,7.88,-0.02,19.48
12083,0.0721,-0.2836,0.8555,-5.89,7.65,0.05,19.47
12093,0.0687,-0.2811,0.8575,-6.12,7.89,-0.09,19.46
12103,0.0684,-0.2821,0.8568,-6.26,7.97,-0.15,19.47
12113,0.0659,-0.2822,0.8534,-6.15,7.83,-0.08,19.47
12123,0.0688,-0.2845,0.856,-6.03,7.76,0.0,19.45
12133,0.0706,-0.2828,0.8583,-6.03,8.09,0.0,19.47
12143,0.0699,-0.2811,0.8553,-5.95,8.34,0.15,19.48
12153,0.0663,-0.2805,0.8557,-5.82,8.15,0.05,19.47
12163,0.0659,-0.2789,0.8594,-5.71,7.66,-0.06,19.46
12173,0.0717,-0.2772,0.8586,-5.89,7.62,-0.15,19.47
12183,0.0703,-0.2775,0.8615,-6.34,7.94,-0.06,19.46
12193,0.069,-0.2805,0.8552,-6.64,8.17,-0.06,19.48
12203,0.0686,-0.2816,0.8507,-6.43,7.92,-0.08,19.48
12213,0.0677,-0.282,0.8563,-5.86,7.62,-0.05,19.49
12223,0.0686,-0.2815,0.8542,-5.53,7.6,0.05,19.48
12233,0.0688,-0.2809,0.8557,-5.71,7.77,0.02,19.48
12243,0.0664,-0.2804,0.8572,-6.02,8.29,0.11,19.45
12253,0.0665,-0.2821,0.8583,-6.24,8.2,0.08,19.45
12263,0.0634,-0.2844,0.8574,-6.06,7.8,-0.03,19.45
12273,0.0637,-0.2806,0.8597,-5.86,7.18,-0.09,19.47
12283,0.0707,-0.2798,0.8558,-5.92,7.19,-0.15,19.49
12293,0.0695,-0.2789,0.8531,-6.14,7.54,-0.06,19.48
12303,0.0712,-0.2828,0.8519,-6.34,7.95,-0.03,19.47
12313,0.0686,-0.2814,0.8519,-6.02,8.06,0.0,19.48
12323,0.0673,-0.2823,0.8546,-5.83,7.82,0.06,19.49
12333,0.0673,-0.2793,0.8544,-5.82,7.89,0.0,19.47
12343,0.0693,-0.2788,0.8582,-6.06,7.85,-0.09,19.47
12353,0.0675,-0.2819,0.861,-6.29,7.95,-0.03,19.48
12363,0.067,-0.28,0.8591,-6.24,7.59,-0.15,19.47
12373,0.0702,-0.2842,0.8549,-5.91,7.21,-0.12,19.47
12383,0.0718,-0.2834,0.8546,-5.79,7.08,-0.12,19.45
12393,0.0739,-0.2822,0.8546,-5.76,7.27,-0.03,19.44
12403,0.0681,-0.2814,0.8466,-5.54,7.42,-0.06,19.48
12413,0.0693,-0.2792,0.8547,-5.54,7.21,-0.05,19.48
12423,0.0719,-0.28,0.8562,-5.54,7.48,-0.03,19.48
12433,0.0669,-0.2804,0.8612,-5.8,7.92,-0.03,19.46
12443,0.0656,-0.2828,0.8529,-6.08,7.89,0.08,19.46
12453,0.0685,-0.2804,0.8533,-5.94,7.53,-0.14,19.46
12463,0.0668,-0.2866,0.8582,-5.82,7.44,-0.02,19.46
12473,0.0656,-0.2841,0.8507,-5.71,7.34,-0.06,19.47
12483,0.0696,-0.286,0.854,-5.82,7.39,-0.09,19.46
12493,0.0696,-0.2839,0.856,-5.94,7.85,0.03,19.49
12503,0.0681,-0.2845,0.8524,-6.05,8.11,0.0,19.47
12513,0.0677,-0.2833,0.8484,-5.77,7.94,0.0,19.46
12523,0.0707,-0.2792,0.8569,-5.62,7.42,-0.08,19.47
12533,0.074,-0.2782,0.8608,-5.88,7.77,-0.02,19.46
12543,0.0752,-0.2815,0.8556,-6.29,8.4,0.09,19.47
12553,0.0631,-0.2841,0.8547,-6.49,8.72,0.12,19.47
12563,0.0607,-0.2843,0.8479,-6.35,8.11,-0.12,19.48
12573,0.0613,-0.2843,0.8546,-5.88,7.54,-0.15,19.47
12583,0.0673,-0.2809,0.8613,-5.5,7.62,-0.05,19.47
12593,0.0658,-0.2786,0.8622,-5.79,7.82,-0.06,19.49
12603,0.0677,-0.2742,0.8577,-5.89,7.48,-0.15,19.5
12613,0.0726,-0.2748,0.8638,-6.08,7.33,-0.05,19.47
12623,0.0773,-0.2697,0.8579,-6.34,8.2,-0.05,19.47
12633,0.0659,-0.2686,0.8535,-6.27,8.15,0.12,19.47
12643,0.0659,-0.2723,0.8552,-5.77,7.25,-0.03,19.48
12653,0.0714,-0.2694,0.8662,-5.65,7.42,0.15,19.49
12663,0.0714,-0.2733,0.8595,-6.23,8.37,0.18,19.49
12673,0.062,-0.2773,0.8536,-6.21,8.38,0.14,19.5
12683,0.0609,-0.2821,0.8569,-6.23,7.74,-0.06,19.46
12693,0.0693,-0.2865,0.8604,-6.11,7.24,-0.15,19.47
12703,0.0714,-0.2861,0.8569,-6.17,7.27,-0.17,19.49
12713,0.0707,-0.2892,0.8514,-6.26,7.22,-0.31,19.5
12723,0.0752,-0.2935,0.8523,-6.41,7.62,-0.23,19.47
12733,0.0746,-0.2914,0.851,-6.73,8.34,-0.03,19.49
12743,0.0685,-0.2952,0.8445,-6.47,8.85,0.12,19.49
12753,0.0603,-0.2927,0.8452,-5.97,8.47,0.08,19.49
12763,0.0609,-0.2931,0.8561,-5.47,7.83,0.09,19.47
12773,0.0634,-0.2842,0.861,-5.33,7.6,-0.03,19.51
12783,0.0663,-0.278,0.864,-5.74,7.44,0.0,19.51
12793,0.0693,-0.2728,0.8634,-6.11,7.42,-0.2,19.48
12803,0.0687,-0.2729,0.8585,-6.52,7.48,-0.17,19.49
12813,0.0732,-0.2682,0.8563,-6.47,7.88,-0.12,19.49
12823,0.0702,-0.2715,0.8534,-6.23,8.32,0.05,19.48
12833,0.0679,-0.2742,0.8546,-5.95,8.47,0.12,19.51
12843,0.0344,-0.2871,0.8463,-4.46,6.24,0.35,19.47
12853,0.0579,-0.2645,0.8862,-5.08,5.63,0.08,19.51
12863,0.0701,-0.2739,0.8761,-7.07,9.76,0.02,19.49
12873,0.072,-0.2878,0.8298,-7.89,8.26,-0.08,19.49
12883,0.0718,-0.3052,0.8439,-6.35,6.75,-0.17,19.47
12893,0.0621,-0.2982,0.8489,-5.45,6.53,-0.27,19.5
12903,0.0732,-0.3065,0.8457,-5.16,5.95,-0.35,19.49
12913,0.0763,-0.297,0.8566,-5.3,6.84,-0.17,19.46
12923,0.0785,-0.2991,0.8436,-5.92,7.89,0.03,19.49
12933,0.072,-0.2936,0.8495,-6.11,8.66,0.11,19.49
12943,0.0621,-0.2883,0.8445,-5.92,8.08,0.15,19.49
12953,0.062,-0.2894,0.8521,-4.98,7.04,0.06,19.49
12963,0.0645,-0.2769,0.8644,-4.82,6.56,0.06,19.5
12973,0.0635,-0.2772,0.8586,-5.4,6.98,-0.03,19.49
12983,0.0631,-0.2841,0.8571,-6.14,6.76,-0.12,19.51
12993,0.0657,-0.2834,0.8573,-5.53,6.61,-0.23,19.52
13003,0.0736,-0.2765,0.8552,-5.54,6.75,-0.12,19.5
13013,0.0787,-0.2792,0.8485,-5.44,7.89,-0.12,19.5
13023,0.0739,-0.277,0.8444,-5.25,8.18,0.12,19.49
13033,0.0734,-0.2791,0.8555,-4.79,8.47,0.24,19.49
13043,0.0677,-0.2715,0.8566,-4.27,8.41,0.31,19.49
13053,0.0536,-0.266,0.8636,-3.65,6.53,0.44,19.48
13063,0.0579,-0.2579,0.881,-2.61,4.56,-0.12,19.49
13073,0.069,-0.2427,0.8807,-3.51,4.35,-0.38,19.49
13083,0.0779,-0.243,0.8689,-5.62,5.56,-0.29,19.51
13093,0.0809,-0.2435,0.8628,-7.07,7.3,-0.31,19.51
13103,0.0762,-0.255,0.8552,-7.53,8.72,-0.11,19.51
13113,0.069,-0.2632,0.8464,-6.85,8.78,0.0,19.52
13123,0.0706,-0.2742,0.8514,-5.76,8.08,-0.05,19.5
13133,0.073,-0.2827,0.8523,-5.31,7.74,0.0,19.51
13143,0.0699,-0.286,0.8585,-5.89,7.98,0.06,19.51
13153,0.0679,-0.2885,0.8633,-6.98,8.15,-0.08,19.5
13163,0.0647,-0.2998,0.853,-7.57,8.02,-0.09,19.5
13173,0.0663,-0.3037,0.8458,-7.3,7.5,-0.14,19.5
13183,0.0665,-0.3086,0.8433,-6.44,7.21,-0.03,19.47
13193,0.0723,-0.3042,0.8381,-5.76,7.02,-0.02,19.5
13203,0.0756,-0.3021,0.8406,-5.31,7.39,0.08,19.5
13213,0.0748,-0.2975,0.8446,-5.24,7.98,0.18,19.49
13223,0.0725,-0.2931,0.8546,-5.4,8.29,0.17,19.52
13233,0.069,-0.2941,0.8616,-5.5,8.06,0.08,19.49
13243,0.0663,-0.2886,0.8586,-5.48,7.51,-0.11,19.52
13253,0.0646,-0.2838,0.8584,-5.39,6.87,-0.29,19.51
13263,0.0665,-0.2803,0.8586,-5.56,6.2,-0.31,19.5
13273,0.0665,-0.2775,0.8563,-5.54,5.94,-0.37,19.51
13283,0.069,-0.2733,0.8544,-5.37,6.32,-0.32,19.49
13293,0.0724,-0.2684,0.8555,-5.48,6.76,-0.15,19.51
13303,0.072,-0.2698,0.8518,-5.22,7.13,-0.15,19.52
13313,0.0732,-0.2693,0.8567,-5.11,7.11,-0.03,19.51
13323,0.0741,-0.2704,0.8569,-4.96,7.36,0.06,19.5
13333,0.0699,-0.2659,0.8649,-5.18,7.16,0.11,19.49
13343,0.0723,-0.2628,0.8689,-5.51,7.33,0.03,19.49
13353,0.0708,-0.2714,0.8585,-6.15,7.59,0.03,19.51
13363,0.0715,-0.2733,0.8594,-6.43,7.8,0.02,19.5
13373,0.0706,-0.2699,0.859,-6.35,7.88,0.05,19.5
13383,0.0725,-0.2733,0.858,-6.27,7.5,0.05,19.52
13393,0.0718,-0.2795,0.8547,-5.89,7.59,-0.06,19.51
13403,0.075,-0.2804,0.8518,-5.88,7.39,-0.11,19.49
13413,0.0728,-0.2871,0.8522,-5.92,7.95,0.02,19.48
13423,0.0662,-0.2915,0.8501,-6.27,7.97,0.09,19.51
13433,0.067,-0.2944,0.853,-6.02,7.6,-0.05,19.5
13443,0.0697,-0.2932,0.8516,-5.79,7.07,-0.11,19.5
13453,0.0712,-0.2926,0.8523,-5.73,6.85,-0.15,19.52
13463,0.0732,-0.2888,0.85,-5.51,6.89,-0.11,19.49
13473,0.0782,-0.2849,0.8514,-5.68,7.07,-0.08,19.49
13483,0.0786,-0.2802,0.8531,-5.86,7.62,-0.02,19.49
13493,0.0713,-0.2802,0.8519,-5.91,7.95,0.02,19.49
13503,0.0707,-0.277,0.854,-5.85,8.0,-0.06,19.5
13513,0.0723,-0.2728,0.8571,-5.63,7.88,-0.03,19.54
13523,0.0721,-0.2705,0.861,-6.03,8.17,-0.03,19.51
13533,0.0704,-0.2708,0.856,-6.49,8.64,-0.14,19.5
13543,0.072,-0.2744,0.8522,-6.64,8.61,-0.05,19.52
13553,0.0745,-0.2731,0.8546,-6.46,8.66,-0.03,19.52
13563,0.0682,-0.2755,0.8602,-6.17,8.44,0.02,19.48
13573,0.0673,-0.2754,0.8582,-5.92,8.17,0.11,19.52
13583,0.0677,-0.2758,0.8597,-5.89,7.83,0.08,19.52
13593,0.0684,-0.2742,0.8584,-5.82,7.6,0.08,19.52
13603,0.0698,-0.274,0.8599,-5.88,7.34,-0.03,19.51
13613,0.0703,-0.2765,0.86,-6.05,7.18,-0.02,19.51
13623,0.074,-0.2737,0.8583,-6.02,7.22,-0.02,19.5
13633,0.075,-0.2759,0.8544,-6.02,7.36,-0.03,19.51
13643,0.074,-0.2755,0.8539,-6.17,7.66,-0.08,19.49
13653,0.0718,-0.2793,0.8563,-5.97,7.86,0.03,19.5
13663,0.073,-0.2852,0.8534,-5.89,8.0,0.06,19.49
13673,0.0685,-0.2845,0.8547,-5.91,8.23,0.02,19.51
13683,0.0698,-0.286,0.8531,-5.94,8.02,-0.09,19.51
13693,0.0701,-0.2904,0.856,-6.11,7.83,-0.15,19.51
13703,0.0698,-0.2896,0.8568,-6.02,7.76,-0.09,19.51
13713,0.072,-0.2882,0.8558,-6.05,7.6,-0.17,19.5
13723,0.0757,-0.283,0.8507,-5.97,7.68,0.02,19.53
13733,0.0713,-0.2788,0.8524,-5.91,7.91,0.0,19.53
13743,0.0696,-0.2823,0.8527,-5.86,8.2,0.08,19.53
13753,0.0691,-0.2775,0.8591,-5.95,8.26,0.12,19.5
13763,0.0688,-0.2765,0.8584,-5.89,8.18,0.09,19.52
13773,0.0719,-0.2747,0.8613,-5.94,8.02,0.11,19.52
13783,0.0665,-0.2743,0.8623,-6.21,7.83,-0.14,19.5
13793,0.069,-0.274,0.8643,-6.34,7.62,-0.08,19.52
13803,0.0703,-0.2743,0.8602,-6.2,7.36,-0.18,19.54
13813,0.0699,-0.2749,0.859,-6.32,7.69,-0.02,19.52
13823,0.0684,-0.2791,0.8533,-6.18,7.82,-0.09,19.52
13833,0.0696,-0.2837,0.8528,-6.15,7.86,0.0,19.52
13843,0.0696,-0.2866,0.8539,-6.03,7.91,0.02,19.51
13853,0.0668,-0.2877,0.8536,-5.8,7.57,-0.02,19.51
13863,0.071,-0.2852,0.856,-5.5,6.93,-0.05,19.52
13873,0.0697,-0.2819,0.8574,-5.47,6.63,-0.09,19.54
13883,0.0684,-0.276,0.8586,-5.6,6.66,-0.11,19.5
13893,0.0752,-0.2759,0.8538,-5.73,6.81,-0.14,19.5
13903,0.0701,-0.2754,0.853,-5.79,6.84,-0.05,19.51
13913,0.0707,-0.2756,0.8522,-5.86,7.08,-0.11,19.51
13923,0.0715,-0.274,0.8612,-5.65,6.84,-0.11,19.51
13933,0.0725,-0.2719,0.8584,-5.36,6.96,-0.08,19.52
13943,0.0728,-0.2737,0.8586,-5.4,7.33,-0.08,19.52
13953,0.0745,-0.2758,0.8599,-5.82,7.65,-0.02,19.53
13963,0.0703,-0.2803,0.8612,-6.21,8.0,0.03,19.53
13973,0.0703,-0.2849,0.858,-6.34,8.08,-0.09,19.5
13983,0.0681,-0.2869,0.851,-6.14,7.74,-0.08,19.52
13993,0.0707,-0.2845,0.8535,-5.8,7.24,-0.06,19.52
14003,0.072,-0.2793,0.8575,-5.66,7.36,0.0,19.54
14013,0.0752,-0.2743,0.8527,-5.82,7.92,0.05,19.52
14023,0.0734,-0.2792,0.8566,-6.27,8.44,0.18,19.5
14033,0.0697,-0.2805,0.8578,-6.21,8.72,0.24,19.5
14043,0.0696,-0.2776,0.856,-6.06,8.52,0.17,19.54
14053,0.0673,-0.2792,0.8553,-5.94,7.95,0.03,19.54
14063,0.0662,-0.2764,0.86,-5.68,7.4,-0.11,19.54
14073,0.0693,-0.2765,0.8608,-5.91,7.25,-0.06,19.53
14083,0.0685,-0.2772,0.8567,-6.24,7.53,-0.2,19.52
14093,0.0682,-0.2771,0.8534,-6.52,7.73,-0.08,19.5
14103,0.0707,-0.2838,0.8556,-6.32,7.77,-0.11,19.53
14113,0.0709,-0.2841,0.8519,-6.02,7.73,-0.02,19.54
14123,0.0734,-0.2837,0.8528,-5.89,7.83,0.05,19.52
14133,0.0756,-0.2806,0.8536,-5.76,7.94,0.05,19.51
14143,0.0771,-0.2777,0.8566,-5.8,8.09,0.12,19.53
14153,0.0729,-0.2772,0.8568,-5.95,8.27,0.14,19.52
14163,0.0681,-0.2784,0.8575,-6.09,8.26,0.11,19.55
14173,0.0674,-0.2799,0.8633,-6.29,8.09,0.05,19.54
14183,0.0652,-0.2822,0.8573,-6.14,7.53,-0.06,19.52
14193,0.0697,-0.2775,0.855,-5.89,7.01,-0.17,19.56
14203,0.0735,-0.2748,0.8552,-5.57,6.9,-0.17,19.55
14213,0.0742,-0.2756,0.8594,-5.5,7.02,-0.08,19.54
14223,0.0731,-0.2783,0.8573,-5.66,7.44,-0.02,19.54
14233,0.0707,-0.2802,0.8568,-6.11,7.8,-0.02,19.54
14243,0.0708,-0.282,0.8546,-6.2,7.88,-0.02,19.53
14253,0.0718,-0.2806,0.8514,-6.06,7.63,-0.24,19.53
14263,0.0729,-0.2795,0.856,-5.76,7.13,-0.14,19.5
14273,0.0753,-0.2758,0.8585,-5.74,7.47,0.02,19.52
14283,0.0737,-0.276,0.859,-6.0,7.97,0.02,19.51
14293,0.0715,-0.2793,0.8539,-6.34,8.47,0.05,19.52
14303,0.0714,-0.2826,0.8569,-6.5,8.52,0.06,19.53
14313,0.0671,-0.2817,0.8579,-6.17,8.12,0.0,19.53
14323,0.0663,-0.28,0.8573,-5.69,7.57,-0.05,19.53
14333,0.0673,-0.2795,0.856,-5.44,6.93,-0.06,19.53
14343,0.0728,-0.2804,0.8589,-5.48,6.89,-0.11,19.52
14353,0.0708,-0.2773,0.8577,-5.88,7.15,-0.17,19.52
