t_ms,accel_x_g,accel_y_g,accel_z_g,gyro_x_dps,gyro_y_dps,gyro_z_dps,imu_temp_c
3294,0.2046,-0.0217,0.8887,-6.78,6.93,-0.08,31.42
3304,0.1855,-0.0226,0.9008,-6.79,8.89,0.02,31.45
3321,0.183,-0.0208,0.9039,-6.82,8.21,-0.11,31.44
3331,0.2096,-0.0194,0.8866,-6.76,8.38,-0.08,31.44
3341,0.2095,-0.0182,0.8823,-6.73,6.92,0.0,31.45
3351,0.1853,-0.0198,0.8986,-6.79,8.09,-0.09,31.46
3366,0.1967,-0.0198,0.8912,-6.76,8.23,-0.09,31.46
3378,0.1964,-0.0195,0.8934,-6.81,7.73,0.0,31.46
3388,0.1952,-0.022,0.8889,-6.78,8.72,-0.06,31.46
3398,0.2128,-0.0227,0.8745,-6.84,6.99,-0.06,31.46
3408,0.1901,-0.0225,0.9017,-6.79,7.73,0.02,31.49
3418,0.1862,-0.0194,0.8981,-6.76,9.33,-0.05,31.47
3428,0.2124,-0.0175,0.8774,-6.85,8.0,-0.05,31.47
3438,0.2128,-0.0176,0.8813,-6.82,7.21,-0.11,31.44
3450,0.21,-0.0223,0.8834,-6.82,7.66,0.0,31.48
3460,0.1906,-0.0225,0.9011,-6.78,7.86,-0.05,31.47
3470,0.1902,-0.0242,0.8999,-6.72,8.64,-0.03,31.46
3480,0.1979,-0.0244,0.8838,-6.85,8.02,0.0,31.46
3492,0.2012,-0.0227,0.8899,-6.81,7.69,-0.11,31.43
3502,0.1888,-0.0229,0.8978,-6.89,8.41,-0.05,31.44
3512,0.2028,-0.0227,0.8871,-6.82,8.17,-0.09,31.49
3522,0.2012,-0.0234,0.8956,-6.76,7.97,-0.03,31.45
3532,0.199,-0.0232,0.8844,-6.81,7.83,-0.03,31.49
3542,0.1896,-0.0236,0.8931,-6.79,7.39,-0.06,31.48
3552,0.1816,-0.0236,0.9067,-6.79,9.01,-0.05,31.46
3562,0.2112,-0.0175,0.8777,-6.81,8.23,-0.05,31.49
3572,0.2059,-0.0183,0.8881,-6.81,7.01,-0.03,31.48
3582,0.197,-0.0197,0.8932,-6.75,7.08,-0.08,31.44
3592,0.1842,-0.0178,0.9094,-6.85,8.61,-0.05,31.44
3606,0.2115,-0.0205,0.8767,-6.75,6.56,-0.03,31.49
3618,0.2089,-0.0194,0.8745,-6.85,7.1,0.02,31.45
3630,0.2112,-0.022,0.8718,-6.78,7.01,0.03,31.48
3642,0.2021,-0.0204,0.8781,-6.79,7.66,-0.03,31.46
3652,0.1953,-0.02,0.8862,-6.9,7.39,0.02,31.48
3662,0.1932,-0.0197,0.8994,-6.78,8.03,-0.05,31.47
3678,0.1937,-0.0226,0.8938,-6.85,7.95,-0.05,31.49
3689,0.1903,-0.0209,0.8982,-6.78,8.18,-0.09,31.48
3699,0.1975,-0.0187,0.8877,-6.79,8.34,-0.09,31.45
3714,0.2014,-0.0236,0.8898,-6.87,7.8,-0.08,31.5
3726,0.2115,-0.0214,0.8789,-6.82,7.28,0.0,31.49
3736,0.192,-0.0204,0.8944,-6.84,7.4,-0.12,31.47
3746,0.1936,-0.0282,0.8883,-6.79,8.53,-0.06,31.49
3756,0.2006,-0.019,0.8856,-6.76,7.63,-0.14,31.5
3766,0.1842,-0.0226,0.8962,-6.79,8.21,-0.05,31.49
3776,0.1907,-0.0234,0.8907,-6.78,8.69,-0.03,31.47
3786,0.2026,-0.0177,0.885,-6.76,7.77,-0.06,31.5
3796,0.1907,-0.0221,0.8896,-6.79,7.85,0.03,31.48
3806,0.2007,-0.0192,0.8906,-6.75,8.14,-0.08,31.47
3816,0.1921,-0.0198,0.8917,-6.87,7.97,-0.02,31.49
3826,0.191,-0.0188,0.8959,-6.79,8.61,0.0,31.5
3836,0.2115,-0.022,0.8842,-6.84,7.19,-0.05,31.49
3846,0.1898,-0.0229,0.9004,-6.87,7.85,-0.08,31.49
3856,0.1925,-0.0189,0.8995,-6.85,9.13,-0.08,31.49
3866,0.2084,-0.0237,0.8882,-6.87,8.05,-0.08,31.48
3876,0.1997,-0.0244,0.8895,-6.79,7.79,0.05,31.48
3886,0.1859,-0.0229,0.886,-6.78,8.09,-0.05,31.47
3896,0.1888,-0.0205,0.8879,-6.72,8.34,-0.03,31.49
3908,0.1975,-0.0211,0.8916,-6.81,8.2,-0.08,31.49
3918,0.1838,-0.0243,0.8799,-6.67,8.08,-0.06,31.49
3928,0.1917,-0.0193,0.8849,-6.85,7.76,-0.05,31.49
3938,0.2148,-0.0204,0.9052,-6.84,7.51,-0.03,31.51
3955,0.2062,-0.0211,0.8879,-6.84,7.76,-0.03,31.49
3966,0.2076,-0.0222,0.895,-6.87,7.89,-0.11,31.51
3976,0.1885,-0.0215,0.881,-6.78,7.63,-0.02,31.51
3986,0.1877,-0.0239,0.8888,-6.82,8.15,-0.03,31.51
3996,0.1964,-0.0181,0.8976,-6.84,8.72,0.03,31.5
4006,0.205,-0.0178,0.8833,-6.96,7.82,-0.08,31.5
4016,0.1982,-0.0212,0.8896,-6.84,7.02,-0.14,31.49
4026,0.1851,-0.0209,0.9056,-6.85,7.54,-0.02,31.47
4036,0.2046,-0.0188,0.8916,-6.89,8.58,-0.03,31.51
4046,0.2119,-0.0205,0.9042,-6.85,7.66,-0.02,31.49
4062,0.1957,-0.0164,0.8862,-6.84,7.1,0.0,31.51
4074,0.2101,-0.0125,0.8942,-6.78,7.74,-0.02,31.49
4084,0.2013,-0.0188,0.8984,-6.92,8.11,-0.03,31.49
4094,0.1853,-0.0232,0.8795,-6.92,7.88,-0.05,31.49
4105,0.1885,-0.0205,0.8781,-6.81,7.54,-0.03,31.52
4116,0.2096,-0.014,0.9221,-6.84,7.42,-0.03,31.52
4126,0.2019,-0.0167,0.9269,-6.84,8.95,-0.12,31.5
4136,0.1981,-0.0316,0.8878,-7.05,8.95,-0.08,31.52
4146,0.1904,-0.024,0.8756,-6.89,8.43,-0.02,31.51
4156,0.205,-0.0189,0.8739,-6.79,7.47,-0.02,31.53
4166,0.1902,-0.0264,0.8772,-6.84,7.18,0.05,31.53
4176,0.1832,-0.0179,0.8966,-6.84,7.88,0.08,31.52
4186,0.2024,-0.0073,0.9103,-6.92,8.85,-0.08,31.52
4196,0.2102,-0.0182,0.8872,-6.87,7.91,-0.06,31.54
4208,0.1941,-0.02,0.8934,-6.92,8.92,-0.09,31.55
4218,0.1898,-0.0288,0.8644,-6.78,6.93,-0.05,31.54
4228,0.1917,-0.0117,0.9108,-6.81,7.92,-0.06,31.54
4238,0.2155,-0.0172,0.9268,-6.81,9.11,-0.08,31.53
4248,0.2037,-0.027,0.8879,-6.95,8.44,-0.11,31.54
4258,0.1783,-0.0315,0.8595,-6.79,8.46,-0.06,31.52
4268,0.1917,-0.0256,0.8745,-6.72,7.79,-0.03,31.54
4278,0.2004,-0.0182,0.9034,-6.78,8.03,0.02,31.51
4288,0.1962,-0.0155,0.8992,-6.87,8.29,0.05,31.54
4298,0.2051,-0.0187,0.8956,-6.82,8.26,-0.08,31.52
4308,0.2146,-0.0178,0.9043,-6.9,8.02,-0.09,31.53
4318,0.1969,-0.0248,0.8882,-6.87,8.5,-0.05,31.53
4328,0.1837,-0.0272,0.8674,-6.92,7.59,-0.11,31.56
4338,0.178,-0.0212,0.8811,-6.69,8.84,-0.05,31.52
4350,0.1617,-0.0242,0.8953,-6.78,8.31,0.0,31.51
4362,0.1787,-0.0217,0.9023,-6.79,8.11,0.0,31.53
4372,0.2158,-0.0103,0.9233,-6.89,8.29,-0.02,31.5
4382,0.2135,-0.0143,0.9176,-6.87,8.95,-0.11,31.52
4392,0.1991,-0.0249,0.8583,-6.84,8.14,-0.08,31.53
4402,0.1792,-0.028,0.8627,-6.84,7.53,-0.05,31.55
4412,0.1825,-0.0161,0.881,-6.79,8.12,0.02,31.54
4422,0.2073,-0.0138,0.89,-6.89,7.48,-0.06,31.52
4432,0.1876,-0.0161,0.9052,-6.89,7.24,-0.09,31.53
4442,0.1912,-0.0214,0.9331,-6.82,9.16,-0.05,31.56
4452,0.2244,-0.0146,0.9059,-6.85,8.9,-0.12,31.53
4462,0.2094,-0.02,0.8915,-6.87,8.18,-0.05,31.53
4472,0.181,-0.0298,0.8488,-6.87,8.89,-0.03,31.53
4482,0.1842,-0.03,0.847,-6.75,7.1,0.0,31.54
4492,0.1967,-0.0168,0.8969,-6.78,7.22,0.05,31.54
4506,0.1765,-0.0298,0.8638,-6.73,7.68,-0.05,31.54
4518,0.1853,-0.0239,0.8755,-6.75,7.66,-0.03,31.52
4530,0.1936,-0.0234,0.8677,-6.76,7.91,0.02,31.53
4542,0.2074,-0.0231,0.8746,-6.82,6.98,-0.06,31.55
4552,0.1757,-0.0153,0.901,-6.95,8.75,-1.25,31.54
4562,0.2034,-0.0236,0.8724,-6.78,8.26,-0.03,31.53
4572,0.1924,-0.0205,0.8781,-6.79,6.17,-0.06,31.54
4582,0.1927,-0.0209,0.9279,-6.82,8.81,0.02,31.53
4592,0.2172,-0.0127,0.9022,-6.81,8.87,-0.06,31.55
4602,0.2155,-0.0256,0.8677,-6.9,6.93,-0.09,31.55
4612,0.1685,-0.0289,0.8745,-6.93,7.65,-0.11,31.57
4622,0.1881,-0.0277,0.8844,-6.81,9.1,-0.03,31.55
4638,0.1924,-0.0311,0.8657,-6.9,7.5,0.0,31.54
4650,0.1903,-0.0281,0.8652,-6.79,6.78,-0.11,31.55
4660,0.1913,-0.0229,0.8972,-6.7,8.14,-0.03,31.54
4674,0.2014,-0.0242,0.8724,-6.81,7.47,-0.02,31.54
4686,0.1952,-0.0216,0.8879,-6.79,7.66,-0.09,31.54
4696,0.1991,-0.0175,0.9187,-6.81,9.05,-0.03,31.54
4706,0.2085,-0.0227,0.8771,-6.81,8.5,-0.11,31.54
4717,0.2197,-0.0234,0.8656,-6.9,7.82,-0.09,31.53
4727,0.1613,-0.0291,0.8871,-6.81,7.71,-0.06,31.53
4737,0.1998,-0.0215,0.8883,-6.78,8.69,0.02,31.57
4747,0.2231,-0.0104,0.897,-6.82,6.98,-0.08,31.54
4757,0.1978,-0.0192,0.9027,-6.96,8.47,-0.11,31.56
4771,0.2169,-0.0109,0.9055,-6.84,7.56,-0.11,31.57
4782,0.1969,-0.0179,0.895,-6.9,8.24,-0.03,31.54
4792,0.1892,-0.0276,0.8843,-6.89,7.88,-0.08,31.54
4802,0.181,-0.0204,0.9015,-6.87,8.44,-0.03,31.55
4812,0.203,-0.0186,0.915,-6.82,8.47,-0.02,31.57
4822,0.2103,-0.0166,0.8853,-6.9,7.71,-0.08,31.54
4832,0.1869,-0.0283,0.8788,-6.84,7.37,-0.03,31.55
4842,0.1725,-0.0281,0.8696,-6.78,8.24,-0.08,31.54
4852,0.2136,-0.0216,0.8881,-6.82,6.81,-0.05,31.54
4862,0.2081,-0.0076,0.9286,-6.92,7.73,-0.06,31.53
4872,0.2078,-0.019,0.9054,-6.92,8.85,-0.11,31.54
4882,0.1896,-0.0244,0.8761,-6.82,8.27,-0.05,31.57
4892,0.1901,-0.0253,0.8774,-6.76,8.43,0.03,31.56
4902,0.2058,-0.0131,0.8854,-6.81,7.92,-0.08,31.54
4913,0.208,-0.0167,0.8857,-6.76,7.82,-0.03,31.57
4923,0.194,-0.0209,0.8838,-6.92,7.5,-0.06,31.56
4933,0.172,-0.0243,0.8835,-6.89,7.83,-0.03,31.56
4943,0.2021,-0.0194,0.9078,-6.76,8.58,-0.03,31.54
4953,0.2224,-0.0162,0.9082,-6.79,7.01,-0.06,31.56
4963,0.1924,-0.0172,0.923,-6.9,9.15,-0.06,31.57
4973,0.1888,-0.025,0.8558,-6.93,9.59,-0.11,31.53
4983,0.1949,-0.0308,0.8424,-6.78,6.84,-0.03,31.56
4993,0.1802,-0.0217,0.8918,-6.87,6.98,0.02,31.58
5003,0.194,-0.0134,0.9401,-6.89,8.85,-0.09,31.55
5013,0.2162,-0.0187,0.8976,-6.87,8.43,-0.02,31.56
5023,0.1986,-0.031,0.8867,-6.84,6.49,-0.11,31.56
5033,0.1681,-0.0253,0.901,-6.78,9.27,-0.12,31.57
5043,0.2173,-0.0171,0.8829,-6.82,9.07,-0.05,31.57
5058,0.2107,-0.0256,0.8888,-6.84,6.92,-0.05,31.57
5070,0.2117,-0.0203,0.8785,-6.72,6.87,-0.08,31.57
5080,0.2014,-0.0179,0.9264,-6.89,7.28,-0.15,31.57
5090,0.1967,-0.0139,0.921,-6.93,10.4,0.02,31.58
5100,0.2162,-0.027,0.8462,-6.92,8.0,-0.06,31.58
5110,0.1842,-0.0262,0.8584,-6.82,6.76,-0.06,31.58
5125,0.1792,-0.0284,0.8842,-6.95,9.62,-0.11,31.59
5136,0.1866,-0.0326,0.8739,-6.81,8.9,0.0,31.58
5146,0.2048,-0.0215,0.8591,-6.87,7.53,0.02,31.55
5156,0.2123,-0.0118,0.8949,-6.92,6.61,-0.02,31.58
5166,0.1973,-0.0133,0.8955,-6.89,8.52,-0.09,31.57
5176,0.2062,-0.0272,0.877,-6.98,7.24,-0.12,31.57
5190,0.1985,-0.0194,0.8784,-6.85,8.08,-0.05,31.59
5200,0.1771,-0.0267,0.8777,-6.89,7.92,0.02,31.57
5214,0.1882,-0.0262,0.8577,-6.9,6.61,-0.08,31.57
5224,0.178,-0.0228,0.8944,-6.79,8.6,-0.09,31.58
5234,0.2192,-0.0165,0.8972,-6.78,6.99,-0.08,31.59
5244,0.1888,-0.0133,0.9406,-6.96,8.64,-0.05,31.58
5254,0.1974,-0.0284,0.8756,-6.85,9.34,0.06,31.57
5264,0.1879,-0.0304,0.8628,-6.81,6.89,-0.05,31.55
5274,0.1793,-0.0253,0.8773,-6.79,8.14,-0.02,31.58
5284,0.2124,-0.009,0.9087,-6.9,7.47,-0.03,31.59
5298,0.2188,-0.0178,0.865,-6.76,6.38,0.05,31.6
5310,0.2208,-0.0244,0.8684,-6.73,7.73,0.0,31.58
5327,0.1981,-0.0254,0.869,-6.95,6.7,-0.05,31.58
5337,0.1987,-0.0219,0.9012,-6.78,8.55,0.03,31.6
5347,0.2021,-0.0103,0.9095,-6.9,8.08,0.05,31.59
5358,0.1886,-0.0171,0.916,-6.92,9.48,-0.06,31.57
5368,0.2003,-0.0253,0.8524,-6.89,8.27,0.0,31.59
5378,0.1858,-0.0275,0.8706,-6.76,6.63,0.0,31.58
5388,0.1891,-0.0161,0.8932,-6.67,7.86,0.0,31.59
5398,0.215,-0.0085,0.9185,-6.92,7.85,-0.08,31.58
5408,0.2023,-0.0182,0.8955,-6.9,9.3,-0.06,31.58
5418,0.2017,-0.0299,0.8691,-6.85,7.19,-0.06,31.6
5431,0.2145,-0.0204,0.8547,-6.92,6.84,-0.09,31.6
5444,0.2043,-0.0273,0.8654,-6.92,7.83,-0.09,31.6
5454,0.1866,-0.0234,0.8898,-6.84,7.65,-0.02,31.59
5464,0.2068,-0.0208,0.8835,-6.81,8.2,0.03,31.61
5474,0.2115,-0.0133,0.9086,-6.98,7.21,0.05,31.59
5484,0.1901,-0.0228,0.8895,-6.81,9.16,-0.09,31.62
5494,0.1985,-0.027,0.8655,-6.82,7.54,-0.02,31.59
5504,0.174,-0.0236,0.8845,-6.76,8.03,-0.02,31.59
5514,0.2195,-0.0155,0.8984,-6.79,7.86,-0.02,31.6
5525,0.2183,-0.0094,0.8998,-6.89,7.01,-0.06,31.59
5538,0.2056,-0.0117,0.8923,-6.82,7.97,-0.03,31.57
5548,0.2076,-0.0159,0.9022,-6.84,8.23,-0.06,31.6
5558,0.1941,-0.0265,0.8646,-6.93,7.53,-0.06,31.63
5574,0.1992,-0.0168,0.9056,-6.84,8.4,-0.06,31.57
5586,0.2008,-0.0153,0.9114,-6.93,8.37,-0.03,31.62
5596,0.1969,-0.027,0.8535,-6.87,7.56,-0.03,31.61
5610,0.1935,-0.0216,0.8973,-6.87,8.67,0.0,31.61
5620,0.1901,-0.0243,0.863,-6.81,7.39,0.0,31.59
5636,0.1891,-0.0227,0.8884,-6.93,8.31,-0.03,31.57
5646,0.1854,-0.0321,0.8848,-6.87,7.79,-0.02,31.58
5656,0.1869,-0.0239,0.8934,-6.75,8.55,-0.06,31.61
5666,0.2213,-0.0118,0.9103,-6.79,7.6,0.03,31.61
5676,0.2054,-0.0166,0.892,-6.9,7.79,-0.06,31.59
5686,0.1874,-0.0236,0.8667,-6.95,8.14,-0.06,31.59
5696,0.1862,-0.022,0.8611,-6.81,8.2,-0.05,31.59
5706,0.2214,-0.0159,0.8781,-6.76,6.78,-0.08,31.61
5716,0.207,-0.011,0.9153,-6.84,6.87,-0.03,31.58
5726,0.1864,-0.0223,0.9159,-6.95,8.92,-0.03,31.6
5736,0.1831,-0.0295,0.8938,-6.84,9.18,-0.05,31.61
5746,0.1953,-0.0298,0.8815,-6.72,8.41,-0.03,31.61
5756,0.2115,-0.0134,0.8972,-6.78,7.28,-0.08,31.61
5766,0.1984,-0.015,0.8969,-6.87,7.86,-0.05,31.58
5776,0.2079,-0.0232,0.8546,-6.93,7.91,-0.12,31.6
5786,0.1821,-0.027,0.8616,-6.75,6.47,-0.02,31.59
5796,0.1959,-0.0183,0.905,-6.69,7.69,0.03,31.61
5806,0.2008,-0.0112,0.933,-6.87,8.05,-0.11,31.62
5816,0.1934,-0.0193,0.9495,-6.89,9.3,-0.05,31.63
5826,0.2012,-0.0271,0.8872,-6.99,9.01,-0.05,31.62
5836,0.1946,-0.0323,0.8752,-6.87,7.4,-0.03,31.61
5846,0.1852,-0.0223,0.8893,-6.82,8.53,-0.06,31.6
5856,0.212,-0.0148,0.8842,-6.92,8.34,-0.05,31.59
5866,0.208,-0.016,0.8575,-6.92,7.42,-0.09,31.59
5876,0.1918,-0.0288,0.8647,-6.82,6.17,-0.06,31.6
5886,0.1714,-0.0184,0.9166,-6.81,8.44,0.02,31.62
5896,0.2195,-0.0125,0.9231,-6.73,9.3,0.05,31.62
5910,0.1841,-0.0192,0.9175,-6.64,7.21,-0.03,31.63
5920,0.1943,-0.0078,0.937,-6.81,9.34,0.02,31.62
5934,0.2028,-0.0148,0.8929,-6.81,6.09,-0.05,31.59
5944,0.1798,-0.0117,0.9371,-6.89,9.5,-0.02,31.6
5954,0.2028,-0.0221,0.8911,-6.93,8.79,-0.08,31.63
5970,0.2115,-0.0177,0.8767,-6.87,6.99,-0.11,31.62
5982,0.2032,-0.0146,0.8746,-6.84,8.66,-0.03,31.62
5992,0.1904,-0.0267,0.8525,-6.85,6.72,-0.09,31.63
6002,0.1685,-0.0211,0.8953,-6.82,7.5,-0.03,31.61
6018,0.1902,-0.0267,0.877,-6.87,8.26,-0.15,31.62
6028,0.1814,-0.0321,0.8713,-6.84,8.26,0.03,31.6
6044,0.2178,-0.0262,0.8767,-6.92,7.89,-0.14,31.64
6055,0.1964,-0.0275,0.8707,-6.95,6.84,-0.06,31.62
6066,0.1992,-0.0311,0.8917,-6.84,7.11,0.0,31.62
6078,0.1996,-0.0193,0.8909,-6.87,8.24,0.05,31.64
6091,0.1887,-0.0215,0.9015,-6.81,8.99,0.02,31.61
6101,0.2249,-0.0148,0.9048,-6.92,8.02,-0.03,31.63
6111,0.2012,-0.0211,0.8857,-6.87,7.57,-0.08,31.62
6121,0.1681,-0.0289,0.8927,-6.93,8.56,-0.05,31.63
6131,0.179,-0.0249,0.8757,-6.85,9.04,0.02,31.64
6141,0.223,-0.0179,0.894,-6.79,7.15,-0.08,31.63
6151,0.2004,-0.0101,0.9081,-6.89,7.59,-0.03,31.59
6162,0.2135,-0.0149,0.8979,-6.92,7.97,-0.11,31.6
6172,0.1909,-0.024,0.8622,-6.93,8.26,-0.11,31.61
6182,0.2031,-0.026,0.8763,-6.82,7.53,-0.02,31.62
6198,0.2054,-0.0293,0.858,-6.9,7.15,0.0,31.59
6208,0.177,-0.0287,0.8837,-6.73,7.31,-0.03,31.64
6218,0.1935,-0.022,0.9072,-6.85,8.89,0.0,31.65
6228,0.2097,-0.0157,0.8901,-6.81,8.05,-0.05,31.61
6238,0.2023,-0.0236,0.8822,-6.89,6.29,-0.08,31.62
6248,0.1667,-0.0264,0.9071,-6.87,8.27,-0.09,31.65
6258,0.2058,-0.0157,0.9001,-6.84,9.22,0.02,31.63
6268,0.2289,-0.0114,0.8839,-6.87,7.8,0.05,31.64
6282,0.1907,-0.0143,0.9247,-6.79,7.85,0.02,31.62
6294,0.1974,-0.0125,0.9335,-6.85,7.27,-0.08,31.63
6304,0.2052,-0.0199,0.8778,-6.79,9.19,-0.02,31.63
6318,0.1909,-0.0143,0.918,-6.79,7.6,-0.03,31.64
6330,0.1959,-0.0165,0.915,-6.85,7.73,-0.06,31.63
6342,0.1788,-0.0234,0.8962,-6.87,7.65,-0.09,31.61
6354,0.1835,-0.0189,0.8862,-6.9,7.45,-0.06,31.63
6366,0.1685,-0.0242,0.8938,-6.89,7.56,-0.03,31.64
6376,0.208,-0.0242,0.8881,-6.78,8.44,-0.06,31.64
6386,0.2155,-0.0129,0.9227,-6.82,6.78,-0.08,31.63
6402,0.1686,-0.0247,0.8828,-6.76,7.73,0.0,31.63
6412,0.2264,-0.0139,0.9033,-6.84,7.36,0.0,31.62
6422,0.205,-0.0128,0.9204,-6.78,7.82,-0.03,31.63
6432,0.1932,-0.0281,0.885,-6.85,9.18,0.0,31.65
6455,0.192,-0.024,0.8893,-6.89,9.3,0.03,31.64
6465,0.2085,-0.0211,0.8865,-6.78,6.66,-0.02,31.62
6475,0.1768,-0.0208,0.8939,-6.85,8.9,0.0,31.62
6486,0.1774,-0.0209,0.8961,-6.98,9.19,-0.03,31.63
6498,0.1727,-0.0254,0.8851,-6.89,9.1,-0.09,31.65
6508,0.2035,-0.0295,0.8541,-6.82,6.31,0.0,31.64
6522,0.1743,-0.0253,0.8683,-6.89,7.97,-0.06,31.62
6532,0.2,-0.026,0.8639,-6.78,7.07,0.03,31.64
6546,0.1683,-0.0273,0.868,-6.81,8.27,-0.02,31.63
6556,0.2191,-0.0167,0.8643,-6.76,6.23,0.02,31.63
6570,0.1698,-0.025,0.8804,-6.78,9.37,0.02,31.64
6580,0.2239,-0.016,0.8696,-6.78,5.39,-0.02,31.64
6590,0.1915,-0.0178,0.8892,-6.84,6.27,-0.12,31.64
6600,0.177,-0.0204,0.9133,-6.81,9.5,-0.08,31.66
6610,0.2103,-0.0216,0.894,-6.84,7.89,-0.05,31.64
6620,0.2013,-0.0177,0.9326,-6.82,7.98,-0.08,31.66
6630,0.1946,-0.0187,0.8988,-6.95,10.95,-0.06,31.66
6642,0.2074,-0.0199,0.8898,-6.89,10.7,0.03,31.63
6652,0.2172,-0.0291,0.8169,-6.81,5.5,0.06,31.65
6662,0.1576,-0.0287,0.8932,-6.84,7.5,-0.03,31.68
6672,0.2122,-0.0133,0.9026,-6.72,9.04,-0.06,31.66
6682,0.2335,-0.0162,0.9124,-6.76,6.29,0.0,31.66
6692,0.173,-0.0201,0.9271,-6.95,9.82,-0.02,31.67
6702,0.201,-0.0259,0.8636,-6.82,9.83,0.0,31.65
6714,0.201,-0.022,0.8792,-6.79,9.74,0.03,31.67
6724,0.2228,-0.0212,0.8594,-6.79,6.09,-0.05,31.62
6734,0.1792,-0.0201,0.8932,-6.89,7.95,-0.03,31.62
6744,0.1825,-0.021,0.8732,-6.89,9.19,0.0,31.65
6754,0.2108,-0.0244,0.88,-6.73,5.59,0.05,31.67
6764,0.1826,-0.0143,0.9454,-6.82,8.5,-0.11,31.65
6774,0.2216,-0.0153,0.9091,-6.9,10.53,-0.06,31.67
6787,0.198,-0.0123,0.9374,-6.84,10.47,-0.08,31.66
6798,0.2155,-0.0181,0.8901,-6.92,10.08,-0.12,31.65
6808,0.2039,-0.027,0.8488,-6.84,6.61,0.0,31.65
6818,0.1735,-0.0288,0.8818,-6.9,8.11,0.02,31.65
6828,0.2101,-0.0162,0.8866,-6.89,8.7,0.02,31.63
6838,0.2101,-0.0215,0.8898,-6.92,6.84,-0.17,31.67
6848,0.1671,-0.0236,0.9187,-6.85,8.96,-0.03,31.65
6858,0.203,-0.0238,0.8931,-6.82,8.89,0.0,31.67
6870,0.1975,-0.022,0.9136,-6.76,9.24,0.08,31.67
6882,0.2114,-0.0186,0.9076,-6.79,8.47,-0.06,31.66
6892,0.2102,-0.0187,0.9152,-6.93,8.26,-0.08,31.64
6906,0.2139,-0.0128,0.9258,-6.82,8.76,-0.05,31.65
6916,0.1984,-0.024,0.8972,-6.93,8.63,-0.08,31.68
6930,0.2203,-0.0198,0.9077,-6.81,8.17,0.02,31.69
6942,0.2111,-0.0156,0.8961,-6.87,8.75,-0.11,31.66
6956,0.1829,-0.0216,0.9082,-6.89,9.68,-0.06,31.66
6966,0.2145,-0.0233,0.8722,-6.85,7.15,-0.05,31.65
6976,0.1849,-0.0206,0.9113,-6.84,7.39,-0.09,31.67
6988,0.1919,-0.0181,0.9309,-6.81,7.77,-0.06,31.65
6998,0.2094,-0.0139,0.9077,-6.87,9.88,-0.05,31.65
7011,0.2039,-0.0125,0.9353,-6.85,9.79,-0.08,31.66
7021,0.2266,-0.02,0.8573,-6.92,7.5,0.03,31.63
7031,0.1696,-0.0286,0.8674,-6.87,7.34,0.05,31.67
7041,0.1868,-0.0181,0.8726,-6.79,9.07,-0.02,31.66
7051,0.2256,-0.0164,0.8879,-6.72,6.17,-0.03,31.67
7061,0.1973,-0.0104,0.9219,-6.84,6.87,-0.11,31.67
7071,0.1826,-0.0233,0.9098,-6.82,10.18,-0.08,31.66
7081,0.2065,-0.0222,0.881,-6.79,6.99,-0.06,31.67
7091,0.1852,-0.0228,0.901,-6.84,8.92,-0.08,31.65
7101,0.2023,-0.0225,0.8708,-6.93,8.4,0.02,31.66
7111,0.183,-0.0281,0.8705,-6.85,6.9,-0.05,31.67
7121,0.1859,-0.0212,0.9117,-6.76,8.23,0.0,31.67
7131,0.2157,-0.0178,0.9208,-6.79,8.32,-0.05,31.67
7141,0.196,-0.0177,0.9214,-6.93,8.43,-0.11,31.67
7155,0.2302,-0.0135,0.9213,-6.84,8.5,-0.06,31.67
7168,0.234,-0.0157,0.9185,-6.84,8.79,-0.03,31.67
7178,0.1986,-0.0176,0.9041,-6.95,7.6,-0.14,31.67
7188,0.1735,-0.0258,0.8796,-6.84,10.29,0.02,31.66
7198,0.2153,-0.0231,0.8387,-6.81,7.25,-0.06,31.66
7208,0.1841,-0.0205,0.8921,-6.79,7.19,-0.06,31.67
7218,0.1844,-0.0201,0.8972,-6.87,9.01,-0.02,31.67
7228,0.2047,-0.0227,0.8936,-6.79,7.16,0.02,31.67
7238,0.1897,-0.0197,0.9355,-6.84,8.5,-0.03,31.65
7248,0.2087,-0.0242,0.9066,-6.85,9.73,-0.03,31.67
7258,0.2026,-0.0266,0.854,-6.87,7.57,0.0,31.66
7274,0.2142,-0.0045,0.9458,-6.85,7.65,-0.05,31.67
7285,0.1975,-0.0153,0.9441,-6.87,9.85,-0.08,31.65
7295,0.2092,-0.0302,0.8346,-6.87,7.31,0.05,31.66
7305,0.1691,-0.0309,0.8688,-6.89,7.51,0.03,31.71
7315,0.2061,-0.0183,0.889,-6.75,8.64,-0.02,31.68
7325,0.2233,-0.0198,0.8828,-6.81,6.67,-0.09,31.67
7335,0.1698,-0.0181,0.9231,-6.87,9.8,-0.02,31.64
7345,0.1909,-0.0214,0.8979,-6.76,9.82,-0.03,31.67
7355,0.2238,-0.0177,0.8833,-6.81,6.78,0.02,31.67
7365,0.1843,-0.0232,0.8971,-6.89,8.52,0.03,31.68
7375,0.1969,-0.0265,0.8545,-6.81,8.18,-0.06,31.69
7385,0.189,-0.0269,0.8633,-6.73,5.66,0.03,31.68
7395,0.1868,-0.0126,0.9384,-6.72,8.0,-0.03,31.67
7405,0.2262,-0.0125,0.9214,-6.82,8.99,-0.05,31.67
7415,0.2122,-0.0201,0.8917,-6.89,7.53,-0.02,31.67
7425,0.1705,-0.0244,0.8741,-6.99,8.73,-0.05,31.69
7435,0.207,-0.0225,0.8588,-6.82,7.5,-0.02,31.66
7445,0.2014,-0.0122,0.9039,-6.95,6.9,-0.05,31.68
7455,0.1934,-0.0182,0.9191,-6.85,9.54,-0.05,31.7
7465,0.203,-0.0242,0.8756,-6.95,7.51,-0.02,31.69
7475,0.1808,-0.0231,0.9172,-6.79,8.58,-0.03,31.68
7485,0.2097,-0.0188,0.8936,-6.85,9.47,-0.03,31.68
7495,0.2134,-0.0266,0.8674,-6.85,6.72,-0.05,31.66
7512,0.203,-0.0133,0.9366,-6.9,7.16,-0.03,31.68
7524,0.1875,-0.0139,0.9463,-6.98,7.85,-0.17,31.68
7534,0.208,-0.021,0.9127,-6.9,10.58,-0.06,31.68
7548,0.1898,-0.0118,0.9529,-6.92,8.98,-0.05,31.69
7558,0.203,-0.0259,0.885,-6.89,10.03,0.03,31.7
7568,0.196,-0.0267,0.8569,-6.85,6.6,0.02,31.66
7584,0.174,-0.0188,0.9176,-6.89,8.82,-0.03,31.68
7596,0.1755,-0.0234,0.9144,-6.81,8.21,-0.15,31.7
7608,0.1831,-0.0225,0.9152,-6.81,9.44,-0.06,31.69
7618,0.2253,-0.017,0.9004,-6.82,6.99,-0.03,31.68
7628,0.1896,-0.0181,0.9227,-6.95,9.07,0.02,31.68
7644,0.1885,-0.0107,0.9302,-6.79,9.36,-0.05,31.69
7654,0.2301,-0.0177,0.9185,-6.95,7.42,-0.06,31.65
7665,0.1938,-0.0149,0.9105,-6.96,8.44,0.02,31.68
7680,0.2247,-0.0087,0.9259,-6.84,9.28,0.02,31.69
7690,0.2156,-0.0219,0.8939,-6.95,7.22,-0.05,31.67
7700,0.1594,-0.0278,0.8876,-6.99,9.6,-0.09,31.7
7710,0.2104,-0.0264,0.8551,-6.89,8.37,0.02,31.66
7720,0.2008,-0.0208,0.8756,-6.87,6.11,0.0,31.68
7730,0.1819,-0.0249,0.9115,-6.85,8.47,-0.02,31.69
7740,0.2126,-0.0171,0.8893,-6.76,7.22,-0.09,31.69
7750,0.2195,0.002,0.9449,-6.76,7.25,-0.06,31.68
7760,0.2574,-0.0175,0.8383,-6.58,2.99,0.06,31.71
7770,0.1342,-0.0347,0.9026,-7.13,13.02,-0.05,31.69
7780,0.2227,-0.0251,0.804,-6.63,3.65,0.03,31.68
7790,0.1792,-0.028,0.9294,-6.82,6.64,-0.03,31.68
7800,0.1903,-0.0127,0.96,-6.85,8.58,-0.09,31.68
7812,0.1956,-0.0189,0.9551,-6.78,8.17,-0.06,31.68
7822,0.2075,-0.0205,0.8903,-6.95,9.47,-0.02,31.68
7832,0.1942,-0.0336,0.8516,-6.84,7.36,0.03,31.69
7842,0.1702,-0.0254,0.8888,-6.93,8.23,-0.06,31.67
7852,0.203,-0.0247,0.8795,-6.76,8.27,0.0,31.69
7862,0.1921,-0.0234,0.8934,-6.87,6.31,-0.02,31.7
7874,0.1948,-0.0247,0.8656,-6.85,6.63,-0.06,31.69
7884,0.1798,-0.0154,0.9182,-6.78,7.85,-0.03,31.7
7896,0.1755,-0.0142,0.9221,-6.95,7.56,-0.06,31.71
7906,0.2332,-0.0134,0.9174,-6.96,8.75,-0.14,31.7
7916,0.2079,-0.0211,0.8779,-6.95,7.68,-0.12,31.69
7932,0.2129,-0.0121,0.9297,-6.9,7.24,-0.08,31.69
7942,0.2074,-0.0227,0.9026,-6.96,8.95,-0.11,31.69
7956,0.2097,-0.0101,0.9122,-6.89,7.5,-0.14,31.68
7967,0.2061,-0.006,0.8938,-7.02,8.26,-0.05,31.69
7977,0.2169,-0.027,0.8582,-6.69,6.14,0.02,31.69
7987,0.1617,-0.0438,0.9302,-7.04,9.37,-0.05,31.69
7997,0.2015,-0.0228,0.8883,-6.96,11.44,-0.06,31.67
8007,0.2146,-0.0201,0.8485,-6.69,4.7,-0.05,31.7
8017,0.1671,-0.0211,0.9077,-6.87,7.79,0.02,31.69
8027,0.199,-0.015,0.9222,-6.85,9.71,-0.03,31.7
8037,0.2307,-0.009,0.9,-6.92,8.35,-0.03,31.71
8047,0.2017,-0.0239,0.8738,-6.82,7.39,-0.08,31.71
8064,0.2247,-0.0162,0.9115,-6.89,6.27,-0.02,31.7
8074,0.2034,-0.0153,0.9131,-6.95,10.41,-0.05,31.69
8089,0.2275,-0.0121,0.8785,-6.81,5.71,0.06,31.69
8099,0.1793,-0.0193,0.9298,-6.93,8.18,-0.05,31.68
8112,0.1853,-0.0193,0.8953,-6.92,6.6,-0.02,31.7
8124,0.1837,-0.0261,0.8914,-6.84,7.05,-0.06,31.71
8136,0.1964,-0.0233,0.865,-6.79,6.17,-0.06,31.7
8148,0.1827,-0.0234,0.8881,-6.73,6.78,-0.09,31.71
8158,0.1946,-0.0162,0.9509,-6.79,9.27,0.03,31.72
8168,0.2212,-0.0157,0.9158,-6.92,9.34,-0.11,31.69
8184,0.2073,-0.0165,0.9227,-6.82,6.98,-0.03,31.69
8196,0.2218,-0.0084,0.9287,-6.89,7.1,-0.03,31.72
8206,0.2168,-0.0139,0.9301,-6.85,8.58,-0.05,31.69
8220,0.2015,-0.0129,0.9218,-6.85,7.71,-0.06,31.69
8230,0.2104,-0.0193,0.8983,-6.95,7.73,-0.08,31.71
8244,0.189,-0.0198,0.9164,-6.89,8.63,-0.03,31.7
8254,0.2087,-0.019,0.9006,-6.81,7.51,-0.06,31.73
8268,0.1764,-0.0192,0.8885,-6.9,7.62,0.0,31.7
8280,0.168,-0.0254,0.8975,-6.81,8.4,-0.02,31.7
8290,0.2246,-0.0112,0.9183,-6.78,7.3,-0.08,31.71
8300,0.2012,-0.0172,0.9288,-6.87,9.57,-0.03,31.72
8316,0.1974,-0.0256,0.899,-6.81,7.95,0.0,31.71
8328,0.2251,-0.0105,0.911,-6.73,6.73,0.0,31.69
8338,0.2,-0.0148,0.9532,-6.9,9.22,0.0,31.69
8348,0.2103,-0.0223,0.8669,-6.85,9.27,0.0,31.69
8358,0.1914,-0.0299,0.8564,-6.93,7.28,0.05,31.73
8368,0.189,-0.0198,0.8768,-6.85,8.12,0.02,31.69
8378,0.201,-0.0206,0.8976,-6.81,7.63,-0.06,31.71
8388,0.1787,-0.0132,0.9159,-6.9,9.57,-0.08,31.69
8400,0.1562,-0.0236,0.9159,-6.98,8.5,-0.12,31.72
8412,0.1748,-0.0222,0.9137,-6.84,10.53,0.03,31.69
8422,0.2319,-0.0148,0.8936,-6.76,6.49,0.0,31.71
8432,0.1974,-0.0122,0.9343,-6.9,8.46,-0.05,31.71
8442,0.1947,-0.0198,0.8732,-6.96,10.64,-0.09,31.7
8452,0.2119,-0.0302,0.8306,-6.84,7.94,0.0,31.69
8462,0.1544,-0.0203,0.8965,-6.85,7.27,-0.06,31.72
8473,0.181,-0.0179,0.9258,-6.84,8.98,-0.05,31.7
8485,0.1879,-0.0111,0.9207,-6.9,8.76,0.02,31.72
8495,0.2177,-0.0177,0.8994,-6.92,8.64,0.0,31.74
8505,0.1979,-0.0236,0.8937,-6.93,7.37,-0.05,31.7
8515,0.1827,-0.0217,0.9064,-6.84,9.22,-0.03,31.72
8525,0.2122,-0.02,0.8787,-6.72,9.05,-0.05,31.72
8535,0.2035,-0.0264,0.8652,-6.95,6.58,-0.06,31.72
8545,0.1638,-0.0201,0.8903,-6.84,8.61,0.06,31.7
8555,0.1932,-0.0271,0.8927,-6.79,8.34,0.02,31.72
8565,0.2122,-0.0177,0.9296,-6.89,7.79,-0.05,31.71
8575,0.2074,-0.0209,0.921,-6.89,9.24,-0.09,31.73
8585,0.1981,-0.0293,0.859,-6.84,7.86,-0.08,31.7
8595,0.1562,-0.0304,0.8658,-6.89,8.52,-0.03,31.71
8605,0.2141,-0.0203,0.8713,-6.72,7.22,-0.05,31.73
8616,0.222,-0.0164,0.8727,-6.81,6.6,0.0,31.7
8628,0.223,-0.0178,0.881,-6.79,6.15,-0.03,31.76
8638,0.1757,-0.0128,0.932,-6.93,9.8,-0.06,31.7
8648,0.2214,-0.0242,0.8823,-6.89,7.94,-0.06,31.7
8658,0.1862,-0.02,0.9075,-6.98,7.45,-0.06,31.72
8668,0.1935,-0.0231,0.8885,-6.93,10.34,-0.05,31.69
8678,0.2083,-0.0265,0.8414,-6.84,6.21,0.0,31.71
8688,0.1724,-0.0259,0.8953,-6.78,6.95,0.03,31.72
8698,0.1981,-0.017,0.9344,-6.78,8.6,-0.12,31.72
8712,0.1768,-0.0253,0.87,-6.82,5.79,-0.15,31.69
8724,0.1823,-0.0253,0.8862,-6.87,5.92,-0.03,31.73
8734,0.2244,-0.0137,0.9365,-6.79,8.96,-0.03,31.74
8744,0.222,-0.0199,0.9043,-6.95,7.68,-0.11,31.71
8760,0.1906,-0.0162,0.9163,-6.79,7.37,-0.06,31.74
8772,0.2008,-0.0166,0.9008,-6.75,7.3,0.0,31.72
8783,0.2115,-0.0157,0.9061,-6.79,7.91,0.02,31.71
8793,0.1855,-0.0173,0.911,-6.85,8.31,0.03,31.72
8803,0.186,-0.0179,0.9259,-6.93,9.89,-0.03,31.73
8820,0.1759,-0.0244,0.8821,-6.79,8.7,-0.05,31.71
8830,0.2134,-0.0179,0.897,-6.82,6.35,-0.06,31.74
8844,0.1854,-0.0297,0.8832,-6.7,8.27,-0.02,31.71
8856,0.2025,-0.0189,0.8807,-6.79,7.45,-0.02,31.73
8868,0.209,-0.0189,0.8954,-6.69,7.56,-0.03,31.72
8880,0.2253,-0.0145,0.8979,-6.64,7.01,-0.08,31.7
8894,0.1788,-0.0192,0.8905,-6.72,8.43,-0.05,31.72
8904,0.2336,-0.0151,0.8951,-6.84,6.79,-0.08,31.7
8914,0.1857,-0.0184,0.9264,-6.95,7.63,-0.08,31.7
8924,0.1951,-0.0253,0.8988,-6.81,9.88,0.02,31.72
8940,0.2136,-0.0211,0.8741,-6.81,7.34,0.0,31.72
8952,0.1927,-0.0219,0.885,-6.82,6.56,-0.05,31.72
8964,0.2023,-0.0208,0.8861,-6.81,6.21,-0.09,31.74
8976,0.205,-0.0159,0.8926,-6.81,6.85,-0.06,31.72
8988,0.2113,-0.0161,0.8955,-6.79,6.4,-0.03,31.72
8999,0.2191,-0.0087,0.9331,-6.79,6.92,-0.03,31.74
9012,0.2135,-0.0068,0.9194,-6.81,7.48,-0.03,31.72
9022,0.2174,-0.0159,0.925,-6.93,8.43,-0.08,31.73
9036,0.204,-0.0148,0.9221,-6.82,7.68,0.0,31.73
9048,0.1885,-0.0194,0.9254,-6.95,8.2,-0.08,31.73
9058,0.2034,-0.0238,0.8878,-6.75,8.79,-0.06,31.72
9068,0.2034,-0.028,0.8763,-6.89,7.1,-0.03,31.73
9084,0.1779,-0.0178,0.9031,-6.92,7.86,-0.03,31.72
9096,0.1721,-0.0179,0.9109,-6.81,8.08,-0.06,31.72
9106,0.2267,-0.0182,0.8998,-6.92,7.97,0.0,31.73
9116,0.1915,-0.0237,0.9053,-6.84,8.95,-0.05,31.73
9126,0.1846,-0.0352,0.8508,-6.84,8.34,-0.02,31.73
9136,0.1831,-0.0234,0.871,-6.85,6.37,0.0,31.75
9146,0.1871,-0.0109,0.9387,-6.85,8.69,-0.09,31.74
9156,0.2228,-0.0155,0.9113,-6.9,8.79,-0.08,31.74
9166,0.1957,-0.0264,0.8802,-6.92,7.51,-0.08,31.72
9176,0.1736,-0.0287,0.8735,-6.87,8.55,-0.05,31.72
9186,0.1979,-0.0222,0.8817,-6.82,7.47,0.02,31.73
9196,0.1951,-0.0125,0.9163,-6.89,7.83,-0.03,31.73
9206,0.1958,-0.0217,0.8969,-6.9,8.81,-0.05,31.73
9216,0.2112,-0.0214,0.8801,-6.85,7.18,0.0,31.74
9226,0.1885,-0.0216,0.912,-6.85,8.06,-0.02,31.72
9236,0.1926,-0.0256,0.8859,-6.82,9.27,-0.09,31.74
9252,0.2223,-0.0099,0.9058,-6.84,8.38,-0.09,31.72
9262,0.1956,-0.027,0.8915,-6.92,8.75,-0.05,31.73
9276,0.2278,-0.0183,0.9127,-6.92,7.02,0.0,31.74
9286,0.1764,-0.0314,0.8668,-6.9,9.51,-0.08,31.74
9296,0.2053,-0.0248,0.845,-6.76,6.31,-0.05,31.73
9306,0.1888,-0.0109,0.9187,-6.79,7.37,-0.11,31.75
9316,0.2098,-0.0122,0.9141,-6.84,9.24,-0.06,31.73
9326,0.2075,-0.0223,0.8772,-6.98,7.3,-0.06,31.72
9336,0.1913,-0.0238,0.8857,-6.92,7.47,-0.02,31.71
9346,0.2025,-0.0239,0.8781,-6.82,7.85,0.08,31.75
9360,0.1957,-0.0238,0.9043,-6.85,8.37,-0.03,31.73
9370,0.2015,-0.0234,0.876,-6.9,7.51,-0.09,31.74
9380,0.1787,-0.0276,0.8748,-6.87,7.76,-0.09,31.74
9390,0.1913,-0.016,0.8826,-6.81,7.89,-0.03,31.73
9403,0.183,-0.02,0.8877,-6.87,8.35,-0.02,31.75
9414,0.1951,-0.0154,0.8932,-6.73,7.62,-0.08,31.74
9424,0.2098,-0.0149,0.9359,-6.89,8.31,-0.11,31.72
9434,0.1995,-0.0249,0.8888,-6.92,9.28,-0.03,31.72
9444,0.1923,-0.031,0.8459,-6.87,7.01,0.0,31.75
9454,0.1674,-0.0188,0.8953,-6.82,8.02,0.02,31.74
9464,0.2178,-0.0134,0.8984,-6.87,8.15,-0.02,31.75
9474,0.2065,-0.019,0.9041,-6.85,6.9,0.0,31.75
9484,0.1826,-0.0244,0.8983,-6.89,8.6,-0.09,31.74
9494,0.2067,-0.0231,0.8785,-6.87,8.03,-0.05,31.73
9504,0.1912,-0.0222,0.887,-6.85,7.73,-0.03,31.73
9514,0.1869,-0.0203,0.8751,-6.89,8.34,-0.11,31.74
9524,0.1954,-0.0227,0.8788,-6.82,6.7,-0.02,31.73
9534,0.2001,-0.0154,0.9315,-6.76,8.17,-0.09,31.74
9544,0.2242,-0.0192,0.8997,-6.9,8.56,-0.06,31.73
9554,0.1938,-0.0289,0.8663,-6.95,6.93,-0.02,31.75
9564,0.1649,-0.0304,0.8572,-6.9,7.92,0.02,31.75
9576,0.1626,-0.0295,0.8701,-6.93,8.24,0.02,31.74
9588,0.1603,-0.0278,0.8721,-6.87,7.98,0.02,31.73
9605,0.1836,-0.024,0.9027,-6.96,9.62,-0.06,31.73
9615,0.2006,-0.0264,0.865,-6.84,7.95,0.0,31.73
9625,0.1838,-0.017,0.8864,-6.85,7.98,-0.08,31.77
9637,0.1892,-0.0217,0.8846,-6.73,8.31,-0.06,31.77
9647,0.1925,-0.0223,0.8707,-6.87,7.16,-0.02,31.76
9660,0.1973,-0.0272,0.8514,-6.89,7.53,-0.05,31.73
9670,0.1823,-0.019,0.8953,-6.73,7.11,-0.03,31.74
9680,0.2012,-0.0172,0.9353,-6.84,8.98,-0.08,31.74
9696,0.1776,-0.0253,0.8608,-6.81,7.71,-0.02,31.73
9708,0.1903,-0.0175,0.8611,-6.89,7.13,0.03,31.75
9718,0.219,-0.0111,0.9321,-6.79,8.12,-0.09,31.75
9728,0.2223,-0.0181,0.9019,-6.93,7.91,-0.11,31.75
9738,0.1862,-0.0334,0.8752,-6.84,7.92,-0.02,31.77
9748,0.1842,-0.0209,0.8604,-6.82,8.21,0.02,31.79
9758,0.2183,-0.0212,0.8828,-6.85,7.19,0.08,31.74
9768,0.1954,-0.0154,0.9008,-6.84,7.01,-0.03,31.76
9778,0.1851,-0.0245,0.9094,-6.92,9.01,-0.03,31.76
9788,0.2186,-0.0192,0.8857,-6.81,8.26,0.02,31.75
9798,0.2039,-0.0217,0.8871,-6.98,7.53,0.0,31.77
9808,0.1919,-0.0256,0.8578,-6.84,7.95,-0.12,31.76
9818,0.1794,-0.0236,0.8738,-6.96,6.85,0.02,31.76
9828,0.203,-0.0145,0.9178,-6.84,8.7,0.02,31.74
9838,0.2332,-0.0134,0.9119,-6.96,7.91,-0.08,31.75
9852,0.2094,-0.0096,0.9347,-6.75,8.79,-0.06,31.74
9864,0.2086,-0.0052,0.9393,-6.81,9.34,-0.02,31.75
9874,0.2118,-0.0217,0.896,-6.89,7.79,-0.05,31.78
9884,0.1655,-0.0278,0.8676,-6.89,9.22,-0.05,31.76
9894,0.2026,-0.021,0.8647,-6.81,7.92,-0.03,31.78
9904,0.1953,-0.0173,0.9012,-6.78,7.27,-0.03,31.77
9914,0.1963,-0.0177,0.915,-6.9,8.47,-0.11,31.77
9924,0.1931,-0.0222,0.9023,-6.73,8.79,-0.12,31.77
9934,0.203,-0.0222,0.8978,-6.96,8.32,-0.03,31.75
9944,0.1975,-0.0212,0.8784,-6.9,8.63,-0.08,31.77
9956,0.203,-0.0208,0.8914,-6.9,9.34,-0.05,31.76
9966,0.1833,-0.0287,0.847,-6.96,5.71,-0.08,31.75
9976,0.1768,-0.0222,0.9127,-6.79,8.49,-0.06,31.76
9986,0.2321,-0.0117,0.9127,-6.79,7.79,-0.08,31.74
9996,0.2054,-0.0186,0.9303,-6.99,8.11,-0.09,31.76
10013,0.1665,-0.0173,0.9116,-6.79,7.8,-0.06,31.74
10023,0.2318,-0.0138,0.9091,-6.85,8.11,-0.09,31.76
10033,0.1937,-0.0237,0.9044,-6.95,8.23,-0.06,31.75
10043,0.1741,-0.0264,0.877,-6.89,9.83,0.02,31.74
10053,0.2135,-0.0269,0.86,-6.81,7.02,0.08,31.75
10063,0.1879,-0.0211,0.9025,-6.89,7.34,-0.06,31.74
10073,0.1901,-0.022,0.903,-6.84,8.56,-0.09,31.75
10083,0.1898,-0.017,0.9073,-6.85,8.69,-0.06,31.75
10093,0.2179,-0.0194,0.9027,-6.95,8.9,-0.05,31.75
10103,0.2041,-0.0242,0.8776,-6.92,7.1,-0.05,31.75
10113,0.1619,-0.0305,0.8788,-6.95,8.27,-0.06,31.75
10123,0.1793,-0.0216,0.8748,-6.81,8.27,-0.08,31.75
10140,0.2015,-0.0255,0.8893,-6.89,9.15,-0.09,31.75
10152,0.1991,-0.0328,0.8771,-6.95,8.49,-0.11,31.77
10162,0.1744,-0.0236,0.8685,-6.84,7.88,-0.09,31.75
10172,0.2075,-0.017,0.8964,-6.78,7.77,-0.05,31.74
10182,0.2084,-0.0114,0.9169,-6.89,7.82,-0.09,31.78
10192,0.1956,-0.0217,0.8958,-6.92,8.93,-0.02,31.79
10202,0.1976,-0.0284,0.8708,-6.85,7.8,-0.03,31.77
10212,0.1802,-0.0217,0.8983,-6.85,8.69,-0.05,31.76
10222,0.1982,-0.0204,0.8712,-6.85,8.61,-0.02,31.75
10232,0.1952,-0.0225,0.8778,-6.85,6.43,-0.03,31.77
10242,0.1827,-0.0133,0.9255,-6.87,8.92,0.02,31.77
10252,0.2233,-0.0165,0.9127,-6.96,8.9,0.0,31.78
10262,0.1934,-0.0258,0.8804,-6.98,8.21,-0.08,31.76
10272,0.1835,-0.0348,0.8625,-6.85,8.11,-0.03,31.76
10282,0.1873,-0.0166,0.8936,-6.72,7.42,-0.03,31.78
10292,0.213,-0.0084,0.9333,-6.84,8.82,-0.02,31.8
10308,0.187,-0.0225,0.866,-6.84,8.09,-0.06,31.75
10318,0.2104,-0.0154,0.9149,-6.85,6.79,-0.03,31.77
10332,0.1908,-0.0212,0.8997,-6.79,9.1,-0.05,31.75
10344,0.1958,-0.0192,0.8934,-6.81,8.56,0.0,31.77
10356,0.1913,-0.0262,0.8904,-6.81,8.67,0.02,31.76
10368,0.1914,-0.025,0.8776,-6.78,7.63,-0.05,31.76
10380,0.1901,-0.0273,0.8595,-6.79,6.56,0.03,31.77
10392,0.1912,-0.0284,0.8615,-6.76,6.02,-0.03,31.77
10405,0.202,-0.03,0.8324,-6.79,6.31,-0.03,31.77
10416,0.193,-0.0214,0.8782,-6.7,5.79,0.03,31.74
10427,0.1852,-0.0123,0.9385,-6.89,7.85,-0.08,31.79
10437,0.2198,-0.0153,0.9205,-6.98,9.77,-0.11,31.77
10452,0.21,-0.0137,0.921,-6.84,6.96,-0.06,31.77
10464,0.2042,-0.012,0.9189,-6.79,7.45,-0.09,31.79
10474,0.2017,-0.0237,0.8945,-6.93,8.61,-0.02,31.79
10488,0.202,-0.0175,0.8975,-6.84,7.3,-0.11,31.78
10500,0.1881,-0.0161,0.8922,-6.96,8.34,-0.02,31.77
10512,0.1903,-0.0243,0.9049,-6.89,8.38,-0.05,31.78
10526,0.1794,-0.0172,0.8942,-6.76,8.37,0.03,31.76
10536,0.1985,-0.0172,0.9036,-6.87,8.63,-0.02,31.76
10548,0.2268,-0.0126,0.907,-6.84,8.05,-0.09,31.79
10560,0.2319,-0.0131,0.9124,-6.81,8.34,-0.06,31.78
10572,0.2296,-0.0164,0.9099,-6.82,8.41,-0.09,31.81
10582,0.1915,-0.0267,0.8744,-6.93,7.33,-0.08,31.79
10596,0.2108,-0.02,0.9099,-6.98,9.1,-0.03,31.8
10608,0.2097,-0.021,0.8905,-6.93,8.81,0.0,31.78
10620,0.1931,-0.0256,0.8868,-6.92,8.75,-0.05,31.79
10634,0.1991,-0.0254,0.8955,-6.89,8.46,-0.11,31.77
10644,0.2024,-0.0194,0.8903,-6.85,8.37,0.02,31.76
10656,0.2057,-0.0192,0.8992,-6.9,8.15,-0.05,31.77
10666,0.197,-0.0217,0.8892,-6.87,8.61,-0.02,31.78
10676,0.1891,-0.0314,0.8591,-6.87,7.56,-0.12,31.79
10686,0.176,-0.0177,0.8948,-6.93,7.83,-0.06,31.78
10696,0.2197,-0.0156,0.9181,-6.81,8.64,-0.03,31.78
10706,0.2141,-0.0172,0.9186,-6.98,7.53,-0.11,31.77
10716,0.184,-0.026,0.9039,-7.04,8.15,-0.11,31.78
10730,0.2052,-0.0264,0.8899,-6.96,7.31,-0.05,31.77
10740,0.1678,-0.0302,0.8729,-6.87,9.01,-0.05,31.8
10750,0.1998,-0.0204,0.8774,-6.81,8.05,0.02,31.78
10760,0.2006,-0.011,0.9037,-6.85,8.05,0.0,31.78
10770,0.2107,-0.016,0.8928,-6.84,7.94,-0.03,31.78
10780,0.188,-0.0201,0.8948,-6.85,7.66,0.0,31.76
10790,0.1888,-0.0222,0.9071,-6.87,9.45,-0.05,31.74
10800,0.1976,-0.0203,0.892,-6.93,9.24,-0.05,31.77
10812,0.2028,-0.0223,0.8853,-6.85,8.82,-0.05,31.78
10829,0.2218,-0.0146,0.915,-6.9,7.82,0.0,31.81
10839,0.1938,-0.0212,0.9012,-6.92,9.53,-0.09,31.79
10849,0.1907,-0.0311,0.8433,-6.85,7.82,0.0,31.79
10859,0.1782,-0.0229,0.8722,-6.79,7.07,0.03,31.78
10872,0.1847,-0.03,0.8557,-6.78,7.3,-0.05,31.78
10884,0.1833,-0.0227,0.8673,-6.87,7.48,-0.08,31.78
10894,0.2136,-0.015,0.9082,-6.78,8.56,-0.05,31.79
10908,0.1998,-0.0166,0.8927,-6.87,7.57,-0.05,31.79
10920,0.1857,-0.0188,0.8896,-6.9,7.86,-0.03,31.81
10934,0.2014,-0.0228,0.8832,-6.79,7.74,-0.09,31.78
10944,0.1855,-0.0194,0.8728,-6.82,8.06,-0.06,31.81
10954,0.1925,-0.0182,0.8909,-6.84,7.37,0.02,31.77
10968,0.1794,-0.0275,0.8625,-6.82,8.35,0.02,31.8
10978,0.2029,-0.0122,0.9119,-6.87,6.82,-0.06,31.79
10988,0.2065,-0.0138,0.9385,-6.82,9.54,-0.03,31.78
10998,0.2089,-0.0283,0.8639,-6.95,8.6,-0.02,31.79
11008,0.1833,-0.03,0.8491,-6.87,6.92,-0.09,31.79
11018,0.181,-0.0171,0.8916,-6.75,7.92,-0.06,31.79
11035,0.188,-0.0266,0.8806,-6.95,8.58,-0.15,31.79
11045,0.1827,-0.0255,0.8733,-6.9,8.02,-0.03,31.77
11055,0.2064,-0.0188,0.8927,-6.82,7.82,-0.08,31.78
11065,0.192,-0.0197,0.9028,-6.79,7.11,-0.03,31.78
11076,0.1906,-0.0231,0.8938,-6.92,6.61,-0.06,31.77
11088,0.186,-0.0206,0.8987,-6.79,7.27,-0.03,31.77
11098,0.2009,-0.0128,0.9235,-6.82,9.21,0.02,31.77
11112,0.2057,-0.0133,0.9102,-6.87,7.48,-0.06,31.79
11122,0.2206,-0.0122,0.9181,-6.85,8.7,-0.12,31.8
11137,0.1993,-0.0074,0.9298,-6.89,7.95,-0.05,31.77
11149,0.1969,-0.0129,0.9487,-6.89,8.64,-0.12,31.8
11159,0.2087,-0.0179,0.9045,-6.95,9.6,-0.05,31.79
11172,0.2009,-0.019,0.9197,-6.84,10.18,-0.09,31.79
11184,0.1935,-0.0173,0.9087,-6.92,10.23,-0.02,31.77
11194,0.2068,-0.028,0.8629,-6.92,7.3,-0.06,31.79
11204,0.1792,-0.0176,0.8926,-6.92,7.54,0.0,31.8
11214,0.2035,-0.0238,0.8871,-6.81,8.37,-0.14,31.81
11224,0.1891,-0.0226,0.8942,-6.87,7.04,-0.09,31.8
11234,0.1938,-0.0189,0.9091,-6.84,8.75,-0.12,31.79
11246,0.2147,-0.0175,0.9139,-6.73,8.02,-0.03,31.79
11256,0.2218,-0.0157,0.9069,-6.93,7.82,-0.12,31.82
11266,0.191,-0.0269,0.877,-6.9,8.14,-0.03,31.79
11276,0.1714,-0.0284,0.8475,-6.81,8.15,-0.02,31.79
11286,0.198,-0.0166,0.8855,-6.81,6.98,0.02,31.77
11296,0.2231,-0.007,0.9216,-6.85,7.71,-0.08,31.79
11309,0.2167,-0.0116,0.926,-6.87,8.27,-0.02,31.81
11319,0.2202,-0.0183,0.8932,-6.9,7.25,-0.09,31.78
11329,0.1742,-0.0278,0.8939,-6.96,8.15,-0.09,31.79
11343,0.21,-0.0228,0.8767,-6.87,7.19,-0.14,31.79
11354,0.1951,-0.0269,0.8923,-6.95,7.02,-0.03,31.79
11364,0.1912,-0.0233,0.9009,-6.84,9.1,-0.08,31.81
11376,0.1951,-0.0193,0.895,-6.85,9.62,-0.05,31.8
11386,0.2061,-0.0258,0.855,-6.9,7.16,0.03,31.8
11396,0.1685,-0.024,0.8828,-6.81,7.57,-0.09,31.8
11406,0.2036,-0.0146,0.9127,-6.69,8.21,0.05,31.8
11416,0.2098,-0.0103,0.9338,-6.95,8.76,-0.11,31.77
11426,0.2074,-0.0266,0.8867,-6.96,9.34,-0.08,31.82
11443,0.2286,-0.0078,0.9125,-6.78,7.02,0.03,31.79
11453,0.2018,-0.0167,0.9229,-6.9,7.82,-0.06,31.79
11463,0.1769,-0.0278,0.8827,-6.93,9.33,-0.06,31.81
11473,0.1967,-0.0304,0.8527,-6.85,7.27,-0.05,31.81
11483,0.1857,-0.0194,0.903,-6.79,7.44,-0.02,31.8
11496,0.1949,-0.0247,0.8746,-6.9,7.21,-0.02,31.79
11509,0.2007,-0.0234,0.8826,-6.85,7.69,-0.03,31.77
11519,0.1986,-0.0206,0.8618,-6.92,7.69,-0.02,31.81
11532,0.1768,-0.0264,0.8826,-6.93,8.69,-0.12,31.79
11547,0.2222,-0.0261,0.8868,-6.87,7.42,0.0,31.82
11557,0.1631,-0.0272,0.8655,-6.82,8.44,-0.05,31.78
11567,0.1962,-0.022,0.8806,-6.73,7.5,0.0,31.78
11577,0.2064,-0.0118,0.9329,-6.85,7.97,-0.06,31.79
11587,0.2146,-0.0188,0.9167,-6.87,9.16,-0.09,31.77
11597,0.1929,-0.0282,0.8623,-6.9,7.48,-0.08,31.81
11607,0.1653,-0.0305,0.8749,-6.87,8.29,-0.06,31.8
11617,0.2023,-0.0181,0.8932,-6.76,8.23,-0.03,31.81
11627,0.2162,-0.0151,0.9037,-6.85,6.85,0.0,31.81
11640,0.1895,-0.0188,0.9004,-6.92,8.7,-0.05,31.8
11651,0.189,-0.0183,0.8925,-6.84,8.12,-0.09,31.82
11661,0.2017,-0.0204,0.8945,-6.89,7.92,-0.06,31.81
11671,0.198,-0.0214,0.917,-6.92,8.08,-0.11,31.79
11688,0.177,-0.0242,0.8842,-6.82,6.55,-0.02,31.8
11700,0.1771,-0.0212,0.8932,-6.82,6.63,0.03,31.79
11712,0.1935,-0.014,0.8948,-6.82,7.22,-0.03,31.81
11724,0.1949,-0.0123,0.9196,-6.81,8.41,-0.05,31.8
11734,0.2201,-0.0142,0.9115,-6.9,7.69,-0.02,31.82
11750,0.1952,-0.0192,0.9009,-6.73,6.44,0.03,31.81
11760,0.2047,-0.0129,0.9246,-6.85,9.65,0.05,31.82
11770,0.2065,-0.0236,0.8943,-6.84,8.61,-0.09,31.81
11780,0.1819,-0.022,0.8871,-6.84,8.27,-0.05,31.8
11790,0.1903,-0.0244,0.8943,-6.89,8.34,-0.11,31.8
11800,0.197,-0.0181,0.8802,-6.82,7.86,-0.09,31.79
11810,0.1884,-0.0229,0.8862,-6.85,7.63,-0.06,31.79
11820,0.2015,-0.017,0.9152,-6.82,8.02,0.06,31.81
11832,0.2172,-0.0121,0.908,-6.81,7.28,-0.06,31.82
11843,0.2157,-0.0146,0.9326,-6.85,7.89,0.02,31.81
11856,0.233,-0.0092,0.9146,-6.87,6.75,-0.11,31.8
11866,0.1962,-0.0239,0.9111,-6.95,8.81,-0.09,31.8
11876,0.177,-0.0334,0.848,-6.78,8.43,0.0,31.82
11892,0.1962,-0.0161,0.9098,-6.85,9.19,-0.06,31.83
11902,0.2047,-0.0278,0.8531,-6.79,8.2,-0.05,31.81
11916,0.1766,-0.0234,0.8958,-6.96,9.45,-0.03,31.79
11928,0.1777,-0.0276,0.9093,-6.92,8.23,-0.09,31.78
11940,0.183,-0.0233,0.9012,-6.84,8.44,-0.03,31.79
11955,0.1904,-0.02,0.8977,-6.81,8.43,0.0,31.8
11965,0.2192,-0.0204,0.9059,-6.82,8.05,-0.08,31.8
11975,0.2037,-0.022,0.8828,-6.93,7.02,-0.02,31.8
11985,0.1719,-0.0333,0.8809,-6.96,8.41,-0.03,31.78
11995,0.183,-0.0206,0.8707,-6.9,7.98,0.0,31.81
12005,0.2157,-0.0146,0.9188,-6.81,7.36,-0.05,31.82
12015,0.2091,-0.0143,0.915,-6.87,8.4,-0.08,31.82
12025,0.1888,-0.0348,0.8694,-6.93,7.48,-0.09,31.81
12036,0.1886,-0.0323,0.8521,-6.87,6.73,-0.15,31.84
12048,0.1683,-0.0322,0.8741,-6.89,7.39,-0.08,31.84
12060,0.1914,-0.0293,0.86,-6.73,6.35,0.02,31.8
12070,0.1965,-0.0168,0.903,-6.93,8.69,-0.08,31.81
12080,0.2189,-0.0186,0.892,-6.79,6.61,-0.14,31.83
12096,0.1965,-0.0187,0.8898,-6.84,7.27,-0.03,31.83
12106,0.1934,-0.0217,0.885,-6.93,7.76,0.02,31.81
12116,0.1838,-0.0179,0.8986,-6.82,8.17,0.02,31.83
12132,0.1775,-0.0258,0.871,-6.87,9.44,0.03,31.82
12145,0.1791,-0.0345,0.8591,-6.89,8.79,-0.06,31.79
12155,0.2003,-0.0184,0.8472,-6.75,6.29,-0.06,31.82
12165,0.2051,-0.0117,0.9224,-6.76,6.93,-0.02,31.81
12180,0.1917,-0.0243,0.8553,-6.78,7.1,0.0,31.81
12190,0.1984,-0.0079,0.9276,-6.73,8.29,-0.08,31.83
12205,0.2125,-0.0262,0.8728,-6.81,6.18,0.02,31.82
12215,0.198,-0.012,0.9204,-6.84,7.6,-0.05,31.83
12225,0.2021,-0.0181,0.9059,-6.95,9.42,-0.06,31.84
12235,0.2113,-0.021,0.8679,-6.85,7.45,-0.06,31.82
12245,0.2008,-0.021,0.8939,-6.89,7.86,-0.05,31.82
12255,0.2074,-0.0187,0.8784,-6.85,7.98,-0.03,31.82
12265,0.1887,-0.025,0.875,-6.84,7.37,-0.12,31.82
12275,0.1931,-0.0179,0.8899,-6.76,8.12,-0.08,31.82
12288,0.1693,-0.0225,0.8767,-6.89,7.66,-0.03,31.82
12298,0.2214,-0.0146,0.9086,-6.76,7.22,-0.02,31.82
12310,0.2081,-0.0151,0.9146,-6.75,8.34,-0.03,31.84
12324,0.1959,-0.0181,0.8975,-6.84,7.98,-0.03,31.81
12336,0.2026,-0.0142,0.9093,-6.76,8.5,0.02,31.81
12346,0.1997,-0.0178,0.9308,-6.98,7.94,-0.06,31.82
12362,0.1871,-0.0183,0.9033,-6.82,7.85,-0.02,31.84
12372,0.2153,-0.0144,0.894,-6.85,7.73,-0.03,31.8
12382,0.1925,-0.0223,0.9034,-6.89,8.34,-0.02,31.82
12392,0.2006,-0.0197,0.8823,-6.84,8.18,-0.03,31.84
12402,0.197,-0.0233,0.8916,-6.79,7.63,-0.05,31.84
12412,0.1838,-0.0226,0.8777,-6.89,8.11,0.0,31.86
12422,0.1893,-0.0227,0.8782,-6.78,7.48,-0.02,31.83
12432,0.192,-0.0112,0.8969,-6.79,7.69,0.0,31.83
12442,0.2274,-0.0171,0.9209,-6.79,8.24,-0.08,31.83
12452,0.1974,-0.025,0.8784,-6.9,7.73,-0.11,31.84
12463,0.1979,-0.0286,0.8647,-6.93,7.86,-0.09,31.82
12473,0.1826,-0.0251,0.8483,-6.75,7.15,-0.06,31.82
12483,0.1949,-0.0165,0.9161,-6.84,7.15,-0.03,31.84
12493,0.2128,-0.0092,0.9298,-6.87,9.48,-0.08,31.85
12503,0.2212,-0.0266,0.87,-6.96,7.22,-0.05,31.84
12516,0.2029,-0.0178,0.9062,-6.82,9.51,-0.14,31.81
12528,0.2047,-0.0188,0.8956,-6.92,9.63,-0.02,31.8
12541,0.1879,-0.0206,0.9092,-6.84,9.54,0.0,31.82
12552,0.22,-0.0167,0.8796,-6.79,8.34,0.03,31.81
12562,0.1846,-0.0192,0.9153,-6.95,8.31,0.05,31.83
12577,0.2179,-0.0135,0.9069,-6.78,8.6,0.02,31.83
12587,0.2166,-0.0127,0.911,-6.9,7.45,-0.05,31.85
12600,0.2236,-0.0176,0.9204,-6.92,7.74,-0.12,31.86
12610,0.1904,-0.0255,0.8801,-6.9,8.84,-0.14,31.83
12620,0.1831,-0.0348,0.844,-6.9,7.01,-0.03,31.82
12636,0.1814,-0.0245,0.9053,-6.89,8.79,-0.09,31.82
12646,0.1862,-0.0267,0.8525,-6.81,8.73,-0.03,31.84
12660,0.1819,-0.0325,0.8864,-6.93,8.26,-0.08,31.85
12670,0.1899,-0.0261,0.8735,-6.85,8.03,-0.02,31.85
12680,0.1873,-0.0232,0.9091,-6.84,8.43,-0.08,31.84
12690,0.2153,-0.0184,0.8774,-6.82,7.89,-0.06,31.83
12700,0.2036,-0.0229,0.8947,-6.87,5.95,-0.03,31.85
12710,0.1841,-0.0182,0.9241,-6.9,9.42,-0.11,31.84
12720,0.2158,-0.0249,0.8806,-6.93,8.85,-0.09,31.83
12730,0.189,-0.0264,0.8561,-6.95,6.63,-0.11,31.84
12740,0.1735,-0.0261,0.8853,-6.89,7.97,-0.06,31.83
12756,0.1898,-0.0321,0.8519,-6.81,7.76,-0.05,31.8
12768,0.183,-0.035,0.859,-6.85,8.06,0.0,31.82
12780,0.1841,-0.0352,0.8468,-6.85,6.7,0.0,31.84
12792,0.1699,-0.0223,0.8683,-6.82,6.78,-0.02,31.83
12805,0.1906,-0.0291,0.856,-6.84,6.34,-0.09,31.84
12816,0.1808,-0.0228,0.9036,-6.84,7.22,0.03,31.82
12828,0.1914,-0.0154,0.8914,-6.82,7.24,0.06,31.82
12840,0.1926,-0.0217,0.9019,-6.81,8.18,-0.06,31.83
12850,0.1963,-0.0177,0.8904,-6.85,7.48,-0.05,31.83
12860,0.1838,-0.0227,0.9165,-6.93,8.81,0.0,31.82
12871,0.1901,-0.0135,0.9194,-6.93,8.92,-0.02,31.85
12881,0.2321,-0.0227,0.8728,-6.95,7.18,-0.05,31.84
12891,0.1741,-0.0271,0.8682,-6.92,6.99,-0.09,31.82
12901,0.1741,-0.0238,0.879,-6.84,8.37,0.03,31.83
12912,0.1971,-0.01,0.8993,-6.75,7.79,-0.02,31.84
12922,0.2219,-0.014,0.9247,-6.9,8.02,-0.06,31.85
12932,0.2059,-0.0236,0.8842,-6.9,7.92,-0.05,31.83
12948,0.2152,-0.0083,0.918,-6.76,7.44,-0.05,31.84
12960,0.2152,-0.0159,0.9183,-6.75,7.19,0.02,31.84
12970,0.182,-0.025,0.8917,-6.9,9.89,-0.12,31.82
12980,0.2059,-0.0305,0.8655,-6.81,7.48,-0.05,31.83
12996,0.1937,-0.0182,0.8905,-6.81,7.4,0.0,31.84
13006,0.2061,-0.0238,0.8833,-6.84,8.49,-0.03,31.83
13020,0.1854,-0.0205,0.9174,-6.89,8.5,-0.05,31.85
13030,0.2181,-0.0203,0.8827,-6.9,7.86,-0.08,31.85
13044,0.2035,-0.0135,0.9344,-6.89,9.1,-0.03,31.83
13054,0.2062,-0.0228,0.8708,-6.93,7.94,-0.03,31.85
13068,0.2069,-0.0123,0.9255,-6.99,9.13,-0.06,31.84
13080,0.2046,-0.0231,0.9121,-6.92,9.04,-0.08,31.86
13092,0.2061,-0.0221,0.8755,-6.9,8.05,-0.12,31.87
13105,0.2085,-0.0311,0.8608,-6.85,8.12,-0.15,31.85
13116,0.204,-0.0305,0.8517,-6.81,7.54,0.0,31.84
13126,0.1719,-0.0237,0.8994,-6.93,8.08,-0.02,31.85
13136,0.2094,-0.0186,0.9016,-6.87,8.87,0.03,31.81
13149,0.186,-0.0181,0.9016,-6.81,8.15,0.0,31.85
13161,0.1968,-0.0229,0.8901,-6.82,7.82,-0.09,31.87
13176,0.1791,-0.0223,0.894,-6.9,9.13,-0.11,31.83
13187,0.1864,-0.03,0.8737,-6.9,8.98,-0.05,31.84
13197,0.1997,-0.022,0.8704,-6.82,6.21,0.0,31.84
13209,0.1974,-0.0244,0.8586,-6.78,7.31,0.03,31.83
13221,0.2035,-0.0229,0.8727,-6.78,6.87,0.0,31.85
13233,0.2087,-0.0139,0.8835,-6.75,6.78,0.0,31.84
13243,0.2173,-0.015,0.9302,-6.84,8.9,-0.05,31.86
13253,0.2084,-0.0288,0.8696,-6.98,7.79,-0.02,31.88
13263,0.1708,-0.0347,0.8661,-6.96,7.69,0.02,31.87
13273,0.1947,-0.0215,0.8824,-6.9,7.82,-0.03,31.87
13283,0.2142,-0.0149,0.9091,-6.89,7.21,-0.08,31.84
13293,0.2039,-0.0123,0.8994,-6.9,7.82,-0.08,31.83
13303,0.201,-0.0255,0.8804,-6.84,8.11,0.03,31.87
13313,0.1901,-0.0186,0.89,-6.92,7.92,-0.09,31.85
13329,0.202,-0.0155,0.8905,-6.82,8.85,-0.06,31.83
13339,0.2225,-0.0165,0.8992,-6.78,6.85,-0.03,31.87
13349,0.1792,-0.0232,0.9043,-7.07,9.28,-0.05,31.84
13362,0.1871,-0.0239,0.9094,-6.92,7.82,-0.15,31.84
13374,0.184,-0.02,0.8864,-6.9,7.86,-0.06,31.87
13384,0.1765,-0.0317,0.8632,-6.73,8.75,-0.05,31.87
13394,0.204,-0.0149,0.8792,-6.78,7.05,-0.05,31.87
13404,0.2164,-0.0109,0.9342,-6.85,7.88,0.02,31.84
13414,0.2047,-0.021,0.894,-6.92,8.56,0.03,31.84
13424,0.188,-0.0319,0.8546,-6.92,7.59,-0.03,31.86
13434,0.1953,-0.02,0.8682,-6.79,7.3,-0.02,31.85
13444,0.2081,-0.0176,0.9054,-6.85,7.13,0.02,31.85
13454,0.1925,-0.0146,0.908,-6.93,8.53,-0.02,31.86
13470,0.208,-0.0187,0.8864,-6.76,7.74,-0.05,31.87
13481,0.2021,-0.0201,0.884,-6.84,7.19,0.03,31.86
13491,0.1897,-0.0172,0.9054,-6.85,8.82,-0.02,31.83
13501,0.2218,-0.0186,0.895,-6.81,8.06,-0.06,31.85
13511,0.1958,-0.0171,0.892,-6.92,7.77,-0.09,31.84
13521,0.1869,-0.0304,0.8682,-6.85,8.27,0.0,31.84
13531,0.1958,-0.0176,0.8765,-6.84,7.24,0.05,31.85
13542,0.1869,-0.0205,0.9111,-6.84,7.86,0.05,31.86
13555,0.1873,-0.0087,0.9214,-6.81,7.34,0.02,31.84
13565,0.21,-0.0129,0.9266,-6.85,9.79,-0.11,31.86
13580,0.213,-0.0104,0.9172,-6.87,6.53,-0.09,31.87
13590,0.1927,-0.0172,0.9192,-6.92,9.18,-0.12,31.87
13600,0.1885,-0.0294,0.8636,-6.85,7.98,-0.06,31.84
13610,0.1852,-0.0227,0.8772,-6.87,7.34,-0.05,31.85
13626,0.2059,-0.0219,0.8845,-6.89,8.47,-0.06,31.86
13638,0.2086,-0.0212,0.8757,-6.87,7.85,-0.05,31.85
13648,0.198,-0.0244,0.9009,-6.93,7.94,-0.08,31.87
13658,0.1925,-0.0212,0.8767,-6.85,8.56,-0.06,31.87
13668,0.1963,-0.0264,0.8788,-6.85,7.42,0.03,31.87
13679,0.1886,-0.0217,0.8926,-6.82,7.74,0.0,31.88
13689,0.2172,-0.0132,0.9203,-6.89,8.61,-0.02,31.88
13699,0.1993,-0.0222,0.8909,-6.96,8.64,-0.02,31.87
13710,0.1884,-0.0291,0.8755,-7.02,8.12,-0.09,31.85
13722,0.1803,-0.0316,0.8649,-6.92,8.2,0.02,31.86
13732,0.1948,-0.0226,0.8684,-6.81,7.02,-0.12,31.85
13746,0.1721,-0.0327,0.863,-6.87,7.62,-0.05,31.85
13758,0.1732,-0.0249,0.8724,-6.92,8.29,0.02,31.86
13770,0.1805,-0.0237,0.8868,-6.82,8.21,-0.06,31.85
13780,0.2058,-0.0145,0.9073,-6.84,7.57,-0.06,31.85
13790,0.1863,-0.0214,0.9049,-6.87,9.1,-0.05,31.83
13800,0.208,-0.0226,0.8824,-6.79,8.31,-0.06,31.84
13810,0.1948,-0.0212,0.8973,-6.96,7.76,-0.05,31.86
13820,0.1846,-0.0245,0.8915,-6.89,9.59,0.0,31.86
13830,0.1942,-0.0289,0.8667,-6.87,8.31,0.0,31.86
13842,0.189,-0.0255,0.8643,-6.79,7.73,-0.02,31.86
13855,0.1698,-0.0266,0.8711,-6.78,7.92,0.02,31.89
13866,0.1917,-0.0211,0.8931,-6.75,7.34,0.0,31.86
13878,0.1945,-0.0156,0.9031,-6.73,7.44,-0.02,31.84
13890,0.2074,-0.0159,0.9172,-6.82,7.79,-0.09,31.85
13900,0.2074,-0.0142,0.9016,-6.99,8.96,-0.12,31.84
13910,0.1884,-0.0311,0.8595,-6.9,8.15,-0.03,31.87
13920,0.1855,-0.0217,0.879,-6.85,8.18,0.03,31.87
13930,0.2128,-0.0178,0.9053,-6.79,7.8,-0.02,31.88
13940,0.2002,-0.0133,0.9109,-6.96,8.2,0.0,31.87
13950,0.1936,-0.0236,0.9009,-6.95,9.24,-0.03,31.86
13962,0.1932,-0.021,0.8983,-6.84,9.4,-0.11,31.87
13974,0.2004,-0.016,0.8859,-6.79,9.54,-0.05,31.87
13988,0.1852,-0.0189,0.9132,-6.89,7.89,-0.03,31.87
13999,0.2,-0.0151,0.9171,-6.76,8.87,-0.05,31.85
14009,0.2053,-0.022,0.8828,-6.96,7.85,-0.08,31.85
14019,0.1818,-0.0304,0.8524,-6.82,7.69,-0.03,31.83
14034,0.2007,-0.022,0.8914,-6.92,7.53,-0.06,31.85
14044,0.179,-0.0283,0.8575,-6.84,8.35,-0.11,31.84
14058,0.1859,-0.0308,0.8641,-6.87,6.84,-0.02,31.86
14068,0.1691,-0.0293,0.8787,-6.9,8.38,-0.03,31.88
14078,0.2054,-0.0131,0.9008,-6.89,7.92,-0.02,31.86
14088,0.2177,-0.0172,0.9147,-6.9,7.44,-0.08,31.82
14098,0.1895,-0.0233,0.8839,-6.89,8.21,-0.12,31.85
14108,0.1814,-0.0298,0.8738,-6.9,8.08,-0.08,31.86
14118,0.1962,-0.0171,0.8854,-6.84,8.15,-0.06,31.88
14130,0.2061,-0.0222,0.8871,-6.84,8.58,-0.09,31.87
14142,0.1963,-0.0254,0.8837,-6.89,8.78,-0.06,31.86
14155,0.1891,-0.0215,0.8826,-6.92,9.27,0.02,31.84
14165,0.2046,-0.0236,0.8547,-6.82,6.63,-0.09,31.86
14175,0.1843,-0.0155,0.9121,-6.85,7.97,-0.02,31.87
14192,0.1814,-0.0343,0.8599,-6.82,8.35,0.0,31.85
14202,0.1818,-0.0219,0.8799,-6.87,7.05,0.03,31.86
14214,0.1837,-0.0193,0.8953,-6.81,6.84,-0.08,31.88
14226,0.1985,-0.0166,0.9124,-6.73,7.02,-0.05,31.86
14236,0.2083,-0.0095,0.927,-6.89,9.11,-0.02,31.84
14246,0.2065,-0.0237,0.8843,-7.08,8.37,-0.08,31.84
14262,0.2083,-0.0105,0.9161,-6.84,8.21,-0.08,31.84
14272,0.2007,-0.0215,0.8962,-6.96,7.65,-0.12,31.84
14282,0.1699,-0.0266,0.8992,-6.84,8.81,-0.05,31.86
14293,0.1854,-0.0233,0.8905,-6.99,8.92,-0.02,31.84
14303,0.2094,-0.024,0.8798,-6.89,7.5,-0.08,31.87
14313,0.1888,-0.0244,0.885,-6.92,7.18,-0.11,31.85
14323,0.1862,-0.0199,0.9053,-6.82,8.15,0.03,31.87
14333,0.2112,-0.0176,0.9036,-6.87,8.03,0.02,31.88
14346,0.2021,-0.0198,0.9104,-6.81,7.86,-0.02,31.87
14358,0.2129,-0.0118,0.9241,-6.82,7.45,-0.09,31.87
14371,0.2312,-0.0099,0.9143,-6.82,7.56,0.02,31.87
14382,0.2186,-0.0153,0.9259,-6.92,7.53,-0.05,31.88
14396,0.2002,-0.0116,0.9346,-6.89,8.75,0.0,31.9
14406,0.2095,-0.0222,0.8945,-6.95,8.66,-0.03,31.87
14416,0.1796,-0.0305,0.8573,-6.96,7.44,-0.05,31.89
14426,0.1681,-0.0297,0.8925,-6.81,7.94,-0.03,31.86
14436,0.1984,-0.0127,0.9114,-6.9,9.25,-0.03,31.88
14446,0.2235,-0.0181,0.8972,-6.84,7.86,-0.02,31.87
14456,0.1877,-0.0205,0.892,-7.01,8.03,0.0,31.88
14466,0.1931,-0.024,0.8887,-6.9,8.82,0.03,31.87
14476,0.1981,-0.0214,0.8866,-6.95,8.03,0.05,31.87
14491,0.2036,-0.0197,0.9043,-6.95,8.66,-0.14,31.86
14504,0.2156,-0.0172,0.9022,-6.9,8.2,-0.05,31.88
14514,0.1982,-0.0254,0.8771,-6.93,8.0,0.02,31.86
14524,0.179,-0.0289,0.8589,-6.9,7.65,-0.05,31.86
14534,0.1929,-0.0195,0.8756,-6.82,7.34,-0.11,31.84
14544,0.2179,-0.0089,0.9213,-6.89,7.3,-0.05,31.87
14554,0.2098,-0.017,0.9075,-6.96,8.55,-0.15,31.88
14564,0.1855,-0.031,0.8627,-6.87,7.5,-0.02,31.9
14574,0.1632,-0.0249,0.8682,-6.85,8.29,0.0,31.89
14587,0.1635,-0.0331,0.8783,-6.9,7.56,-0.03,31.87
14599,0.1794,-0.0237,0.8798,-6.81,7.04,-0.06,31.89
14609,0.2054,-0.0181,0.9149,-6.89,8.4,0.14,31.88
14619,0.2098,-0.0125,0.8983,-6.89,7.77,-0.15,31.86
14634,0.2023,-0.0164,0.8877,-6.85,8.23,-0.05,31.87
14644,0.199,-0.0203,0.8932,-6.82,6.81,-0.03,31.89
14658,0.1876,-0.0206,0.8827,-6.84,8.78,-0.05,31.86
14668,0.202,-0.0214,0.8986,-6.89,6.75,-0.02,31.87
14678,0.1938,-0.0127,0.9209,-6.93,8.4,-0.11,31.87
14688,0.1998,-0.024,0.8905,-6.99,8.81,-0.08,31.87
14698,0.1797,-0.0308,0.8557,-6.99,7.98,-0.02,31.89
14708,0.1874,-0.0266,0.8853,-6.79,7.47,-0.06,31.87
14718,0.1981,-0.0128,0.929,-6.76,8.32,-0.02,31.89
14730,0.2166,-0.0128,0.9279,-6.81,7.39,0.02,31.9
14742,0.2112,-0.0103,0.934,-6.84,8.02,-0.05,31.88
14755,0.2152,-0.0094,0.9238,-6.89,7.95,-0.08,31.88
14765,0.199,-0.0165,0.9114,-6.92,8.69,-0.03,31.87
14775,0.1925,-0.03,0.8549,-6.95,7.83,-0.03,31.88
14785,0.2012,-0.0178,0.8809,-6.87,6.9,-0.03,31.89
14796,0.1948,-0.0143,0.8928,-6.87,8.12,0.03,31.89
14806,0.2074,-0.0168,0.8951,-6.84,7.37,-0.03,31.84
14816,0.1858,-0.0172,0.8964,-6.9,7.95,-0.06,31.88
14826,0.2021,-0.0201,0.8945,-6.85,9.08,-0.05,31.88
14836,0.2096,-0.0182,0.8773,-6.9,7.77,0.02,31.89
14846,0.1912,-0.0229,0.8752,-6.89,8.12,-0.02,31.89
14856,0.1909,-0.021,0.8691,-6.82,7.62,-0.06,31.89
14866,0.2067,-0.0137,0.9086,-6.92,7.34,0.02,31.89
14876,0.2124,-0.01,0.9227,-6.89,9.22,-0.03,31.87
14886,0.2096,-0.0247,0.864,-6.87,7.97,-0.02,31.91
14896,0.1628,-0.0302,0.8605,-6.85,7.95,-0.05,31.88
14910,0.1851,-0.0382,0.8578,-6.95,6.41,-0.03,31.89
14920,0.1621,-0.0219,0.8894,-6.84,8.76,-0.06,31.87
14930,0.235,-0.016,0.8977,-6.78,7.92,-0.02,31.88
14946,0.1882,-0.0227,0.8717,-6.75,5.94,-0.02,31.89
14958,0.1893,-0.0223,0.8815,-6.93,6.49,-0.05,31.89
14968,0.1904,-0.0209,0.9252,-6.79,9.24,0.05,31.88
14978,0.2001,-0.0214,0.895,-6.9,8.99,-0.12,31.88
14988,0.2043,-0.0206,0.8846,-6.93,8.15,-0.06,31.88
14998,0.2002,-0.016,0.89,-6.82,7.62,-0.05,31.9
15008,0.1793,-0.0238,0.9011,-6.81,8.6,0.02,31.87
15018,0.1882,-0.021,0.8868,-6.87,8.6,-0.03,31.89
15028,0.214,-0.0184,0.8914,-6.76,7.3,-0.03,31.88
15038,0.2107,-0.0081,0.9186,-6.92,8.12,-0.08,31.88
15048,0.2045,-0.0228,0.8925,-6.92,8.66,-0.03,31.89
15058,0.1702,-0.0283,0.8611,-6.98,8.21,0.02,31.89
15068,0.1934,-0.0179,0.8735,-6.84,8.09,0.02,31.91
15078,0.2235,-0.0098,0.9049,-6.75,6.93,-0.06,31.89
15090,0.2325,-0.0157,0.9044,-6.85,7.68,-0.02,31.89
15101,0.2028,-0.0128,0.9088,-6.93,7.66,-0.12,31.89
15114,0.2172,-0.0173,0.9026,-6.95,7.71,-0.12,31.89
15124,0.1837,-0.0236,0.882,-6.95,8.81,-0.06,31.89
15134,0.1973,-0.0282,0.8726,-6.85,8.02,-0.02,31.89
15144,0.2039,-0.0127,0.8995,-6.87,7.66,0.02,31.88
15154,0.2133,-0.0175,0.8998,-6.9,7.65,0.0,31.85
15164,0.1898,-0.02,0.8953,-6.85,8.29,-0.06,31.89
15174,0.1919,-0.0197,0.905,-6.89,9.18,-0.09,31.91
15186,0.1949,-0.0209,0.9136,-6.9,8.79,-0.03,31.87
15196,0.197,-0.0308,0.8813,-6.87,7.62,-0.05,31.91
15206,0.1658,-0.0282,0.8796,-6.85,7.66,-0.03,31.89
15222,0.1963,-0.0211,0.8795,-6.96,9.5,0.02,31.89
15232,0.1688,-0.0308,0.8665,-6.89,6.43,0.03,31.9
15246,0.1826,-0.0315,0.8578,-6.92,9.02,-0.08,31.89
15258,0.1812,-0.0317,0.8495,-6.93,8.38,-0.05,31.9
15270,0.1798,-0.0325,0.8639,-6.78,8.47,-0.02,31.89
15282,0.181,-0.0291,0.8766,-6.79,7.34,-0.05,31.89
15294,0.1965,-0.0261,0.8868,-6.82,6.79,-0.02,31.89
15306,0.1887,-0.0186,0.9076,-6.79,7.54,0.03,31.89
15317,0.1886,-0.0164,0.9224,-6.92,8.32,-0.05,31.88
15327,0.2064,-0.0244,0.8824,-6.89,8.58,-0.08,31.89
15337,0.2031,-0.0266,0.8794,-6.84,7.24,-0.06,31.91
15347,0.1948,-0.0209,0.8855,-6.81,8.06,-0.08,31.9
15357,0.187,-0.0256,0.891,-6.89,8.26,0.05,31.89
15367,0.1893,-0.0186,0.8866,-6.78,8.61,0.05,31.87
15377,0.2155,-0.0131,0.9015,-6.76,7.68,-0.03,31.9
15387,0.2009,-0.0132,0.9143,-6.96,8.52,-0.08,31.88
15397,0.1946,-0.0325,0.8749,-6.99,8.99,0.0,31.89
15407,0.1782,-0.0273,0.8568,-6.76,7.18,-0.03,31.91
15424,0.2057,-0.0171,0.9081,-7.01,7.66,-0.08,31.89
15434,0.1768,-0.0361,0.861,-6.85,8.99,-0.08,31.89
15444,0.1909,-0.0178,0.8733,-6.78,6.79,-0.06,31.89
15454,0.2059,-0.0145,0.9332,-6.85,8.5,-0.05,31.87
15464,0.2125,-0.017,0.8959,-6.99,8.31,-0.12,31.88
15474,0.1785,-0.0289,0.8866,-6.9,8.58,-0.06,31.9
15484,0.1893,-0.0294,0.8663,-6.85,8.52,-0.05,31.9
15494,0.2043,-0.0244,0.8911,-6.89,7.07,0.0,31.91
15504,0.1802,-0.0171,0.9114,-6.87,9.07,-0.06,31.89
15514,0.209,-0.0239,0.8806,-6.87,8.35,0.02,31.92
15524,0.1962,-0.0198,0.896,-6.9,7.39,-0.05,31.89
15534,0.194,-0.0233,0.9056,-6.9,9.34,-0.03,31.89
15546,0.1886,-0.0195,0.9028,-6.93,8.63,-0.17,31.89
15556,0.2,-0.0319,0.8628,-6.87,8.06,-0.03,31.88
15566,0.1851,-0.0165,0.902,-6.82,8.02,0.03,31.92
15576,0.218,-0.0101,0.9156,-6.75,8.67,0.0,31.86
15586,0.2262,-0.0182,0.9026,-6.96,7.22,-0.06,31.89
15596,0.1844,-0.032,0.8739,-6.99,7.82,-0.06,31.89
15606,0.1765,-0.0316,0.8569,-6.82,7.82,-0.03,31.89
15616,0.2009,-0.0195,0.9122,-6.78,7.62,-0.03,31.91
15626,0.2184,-0.0112,0.9182,-6.78,8.52,-0.02,31.89
15636,0.2048,-0.0281,0.8839,-6.87,7.51,-0.06,31.91
15646,0.1696,-0.0245,0.8799,-6.87,8.17,-0.09,31.9
15656,0.2061,-0.0249,0.8832,-6.75,7.94,-0.02,31.91
15666,0.1951,-0.0127,0.912,-6.95,7.25,-0.03,31.9
15676,0.1965,-0.0188,0.901,-6.87,8.85,-0.09,31.9
15690,0.1747,-0.0149,0.9114,-6.89,8.09,-0.02,31.89
15702,0.1688,-0.021,0.9088,-6.92,8.26,-0.05,31.88
15713,0.1923,-0.0167,0.9155,-6.85,9.44,-0.05,31.92
15723,0.2296,-0.0167,0.8857,-6.98,7.83,-0.08,31.89
15733,0.1934,-0.0238,0.8848,-6.99,7.22,0.03,31.89
15743,0.172,-0.0337,0.8661,-6.81,8.5,0.02,31.89
15753,0.2051,-0.0131,0.8804,-6.79,6.75,-0.05,31.88
15763,0.2122,-0.0037,0.9302,-6.85,8.35,-0.08,31.88
15774,0.2189,-0.0131,0.929,-6.89,8.61,-0.05,31.89
15784,0.1865,-0.0247,0.8733,-6.99,8.11,-0.03,31.91
15794,0.1832,-0.0302,0.86,-6.78,8.29,-0.02,31.91
15804,0.2172,-0.0144,0.8824,-6.89,6.32,0.0,31.91
15814,0.1956,-0.0143,0.9309,-6.9,7.74,-0.08,31.9
15824,0.1876,-0.0214,0.8955,-6.93,9.53,0.08,31.9
15834,0.1987,-0.022,0.8676,-6.87,8.09,0.0,31.92
15844,0.2216,-0.0203,0.8685,-6.76,6.89,-0.05,31.9
15854,0.1985,-0.0179,0.8926,-6.87,6.03,-0.03,31.91
15864,0.1671,-0.0201,0.9152,-6.85,9.69,-0.09,31.91
15874,0.2271,-0.0143,0.8815,-6.75,8.24,0.02,31.91
15884,0.2139,-0.0193,0.8893,-6.84,6.53,-0.09,31.92
15894,0.1682,-0.0247,0.8838,-6.98,8.55,0.02,31.92
15904,0.1853,-0.0303,0.8542,-6.75,8.38,-0.03,31.92
15918,0.1689,-0.0322,0.8666,-6.99,7.3,-0.11,31.9
15930,0.1692,-0.0295,0.8542,-6.93,7.24,-0.06,31.89
15940,0.2021,-0.0154,0.9056,-6.84,7.88,-0.05,31.91
15955,0.1925,-0.0195,0.8685,-6.82,6.72,-0.03,31.91
15966,0.1958,-0.0192,0.887,-6.85,7.19,-0.06,31.9
15976,0.2179,-0.0129,0.913,-6.9,8.5,-0.09,31.9
15986,0.2081,-0.0212,0.8761,-6.99,7.53,-0.06,31.91
16002,0.204,-0.0215,0.908,-6.82,7.53,-0.02,31.93
16014,0.1902,-0.0226,0.9044,-6.89,6.98,-0.05,31.91
16024,0.2006,-0.0189,0.8916,-6.93,9.31,-0.05,31.91
16034,0.2119,-0.021,0.8839,-6.85,7.6,-0.03,31.91
16050,0.1959,-0.017,0.8953,-6.81,7.13,0.0,31.92
16060,0.2119,-0.021,0.9164,-6.89,8.92,-0.05,31.91
16070,0.1923,-0.0275,0.8756,-6.99,7.92,-0.12,31.9
16086,0.2164,-0.0071,0.9193,-6.84,7.94,-0.09,31.9
16096,0.1946,-0.0311,0.881,-6.85,8.03,-0.06,31.92
16106,0.1711,-0.0286,0.8611,-6.95,7.85,-0.06,31.91
16123,0.2067,-0.0232,0.8984,-6.99,8.87,0.03,31.92
16134,0.191,-0.0228,0.8857,-6.95,9.48,-0.08,31.95
16147,0.1917,-0.024,0.8871,-6.93,8.52,-0.09,31.91
16158,0.2014,-0.0298,0.8615,-6.85,7.69,-0.15,31.9
16168,0.1847,-0.0184,0.8994,-6.96,8.41,-0.06,31.91
16178,0.2067,-0.0146,0.8855,-6.79,8.02,-0.03,31.92
16188,0.1946,-0.0197,0.8876,-6.89,7.28,-0.03,31.92
16198,0.2009,-0.0164,0.9086,-6.87,8.24,-0.05,31.92
16208,0.2098,-0.0209,0.8903,-6.92,7.79,-0.03,31.92
16218,0.1818,-0.0269,0.8723,-6.96,7.82,0.0,31.92
16228,0.1958,-0.0237,0.8729,-6.82,7.3,-0.06,31.9
16242,0.1572,-0.0341,0.8777,-6.85,8.38,0.03,31.91
16255,0.1683,-0.0321,0.8615,-6.92,7.5,-0.05,31.92
16265,0.2102,-0.0139,0.8981,-6.75,7.79,0.06,31.91
16275,0.2119,-0.0083,0.9236,-6.87,7.56,-0.08,31.91
16285,0.1908,-0.022,0.9132,-6.96,9.3,-0.06,31.9
16295,0.1991,-0.0294,0.8381,-6.79,6.81,-0.12,31.93
16305,0.1926,-0.0239,0.8715,-6.81,6.56,-0.08,31.94
16315,0.1956,-0.0131,0.9131,-6.81,8.44,-0.05,31.92
16325,0.2114,-0.0173,0.8962,-6.89,8.31,-0.09,31.92
16335,0.1998,-0.0206,0.8778,-6.9,7.91,-0.05,31.92
16345,0.2087,-0.0238,0.8856,-6.89,7.6,-0.05,31.92
16355,0.1896,-0.0223,0.8878,-6.93,7.69,0.11,31.91
16365,0.1929,-0.0253,0.8809,-6.84,7.88,0.03,31.93
16375,0.2029,-0.0133,0.8948,-6.87,7.19,-0.02,31.92
16385,0.2048,-0.0164,0.9224,-6.92,8.24,-0.14,31.93
16395,0.2012,-0.0234,0.8837,-6.96,9.05,-0.08,31.92
16405,0.1898,-0.0372,0.8481,-6.82,6.93,0.05,31.91
16415,0.1796,-0.0187,0.8893,-6.79,7.15,-0.06,31.92
16425,0.2161,-0.0137,0.9257,-6.85,8.41,-0.08,31.94
16435,0.2035,-0.0162,0.9022,-6.98,8.15,-0.08,31.94
16445,0.186,-0.0309,0.8668,-6.87,8.21,0.02,31.94
16455,0.1824,-0.0261,0.8715,-6.84,7.33,0.02,31.95
16470,0.179,-0.0297,0.868,-6.93,8.43,0.03,31.93
16480,0.1912,-0.021,0.8871,-6.84,7.71,-0.03,31.93
16490,0.198,-0.016,0.9075,-6.85,8.2,-0.08,31.92
16500,0.1929,-0.0179,0.8936,-6.9,8.4,-0.11,31.92
16510,0.2019,-0.0234,0.8929,-7.02,8.11,-0.06,31.89
16520,0.2025,-0.0238,0.8944,-6.85,8.08,-0.06,31.92
16531,0.2113,-0.0217,0.8798,-6.89,7.65,-0.12,31.93
16542,0.2003,-0.0284,0.8589,-6.87,6.73,-0.09,31.9
16552,0.1794,-0.0228,0.8964,-6.81,8.7,0.05,31.93
16562,0.2294,-0.0116,0.9022,-6.84,7.39,-0.05,31.95
16572,0.2008,-0.0219,0.9121,-6.96,7.47,-0.09,31.93
16582,0.1658,-0.0337,0.8778,-6.93,9.62,-0.09,31.92
16592,0.1974,-0.0275,0.8586,-6.92,7.21,-0.03,31.91
16602,0.2043,-0.0089,0.9187,-6.78,7.71,-0.02,31.93
16614,0.2047,-0.0117,0.9172,-6.85,7.77,-0.03,31.95
16624,0.2085,-0.0165,0.8979,-6.95,7.88,-0.06,31.93
16634,0.1829,-0.0265,0.8767,-6.87,8.24,-0.09,31.94
16644,0.199,-0.0208,0.8798,-6.78,8.09,0.02,31.93
16654,0.2131,-0.0232,0.887,-6.9,6.56,-0.02,31.92
16664,0.1805,-0.0178,0.9086,-6.93,7.89,-0.15,31.94
16674,0.1849,-0.0206,0.9048,-6.9,8.81,-0.06,31.92
16684,0.2118,-0.0188,0.8888,-6.87,7.71,-0.05,31.94
16698,0.2064,-0.014,0.9167,-6.89,8.14,-0.02,31.94
16710,0.2247,-0.0139,0.9136,-6.87,7.95,0.03,31.94
16722,0.2192,-0.0153,0.906,-6.85,8.18,-0.06,31.95
16734,0.219,-0.0203,0.8868,-7.04,7.56,-0.05,31.94
16744,0.1523,-0.0316,0.8715,-6.95,9.27,-0.08,31.91
16759,0.198,-0.0275,0.8617,-6.9,7.22,-0.14,31.95
16769,0.1667,-0.0315,0.8828,-6.82,7.91,0.02,31.93
16779,0.1936,-0.0159,0.9099,-6.78,8.92,-0.08,31.92
16789,0.2133,-0.0146,0.911,-6.87,8.55,-0.05,31.93
16799,0.1957,-0.0198,0.8845,-6.9,8.35,0.03,31.91
16809,0.1975,-0.0265,0.8832,-6.92,7.76,-0.02,31.95
16819,0.1896,-0.0214,0.8994,-6.96,8.43,0.03,31.93
16829,0.2046,-0.0278,0.8809,-6.82,8.24,-0.02,31.92
16839,0.1899,-0.0172,0.8851,-6.9,7.39,0.05,31.91
16855,0.1759,-0.0302,0.8778,-6.93,7.88,-0.06,31.95
16866,0.1656,-0.0261,0.8782,-6.87,8.35,0.0,31.91
16876,0.2139,-0.0116,0.9003,-6.87,7.4,0.02,31.92
16886,0.2083,-0.0125,0.9242,-6.95,7.97,-0.02,31.92
16902,0.2029,-0.0183,0.8978,-6.7,6.47,-0.03,31.93
16912,0.2012,-0.0154,0.9386,-6.9,9.53,-0.11,31.93
16926,0.2289,-0.016,0.9077,-6.85,7.34,-0.06,31.93
16936,0.1846,-0.0258,0.9009,-6.95,8.9,-0.08,31.94
16949,0.2128,-0.0145,0.8931,-6.9,8.14,0.0,31.89
16959,0.1912,-0.0222,0.8687,-6.82,7.73,-0.08,31.9
16969,0.1887,-0.0226,0.8922,-6.84,8.14,0.05,31.92
16979,0.2012,-0.02,0.8861,-6.78,8.49,-0.06,31.95
16989,0.2029,-0.0238,0.8779,-6.82,6.49,-0.06,31.91
16999,0.1879,-0.0168,0.9088,-6.95,7.76,-0.08,31.91
17009,0.2023,-0.0179,0.9061,-6.84,9.01,-0.06,31.92
17022,0.2069,-0.0122,0.9169,-6.92,8.37,-0.08,31.93
17032,0.1895,-0.032,0.8678,-6.9,8.12,-0.03,31.93
17047,0.205,-0.0142,0.9226,-6.96,9.04,-0.06,31.91
17057,0.1975,-0.0315,0.8639,-6.93,8.15,-0.12,31.92
17067,0.1744,-0.0229,0.8826,-6.93,7.92,-0.03,31.93
17077,0.1935,-0.0164,0.9158,-6.9,8.46,-0.06,31.94
17087,0.2094,-0.011,0.9225,-6.87,8.92,-0.03,31.92
17097,0.1978,-0.0216,0.8864,-6.92,8.66,-0.02,31.94
17107,0.1938,-0.0273,0.8621,-6.89,7.91,-0.02,31.93
17117,0.189,-0.0227,0.8945,-6.87,7.83,-0.12,31.94
17127,0.1997,-0.0168,0.8962,-6.87,9.11,0.0,31.94
17137,0.208,-0.0236,0.8838,-6.82,7.01,-0.05,31.96
17147,0.1886,-0.0139,0.9139,-6.96,8.56,0.06,31.94
17157,0.2092,-0.0208,0.8917,-6.82,9.08,-0.09,31.94
17167,0.1957,-0.0258,0.858,-6.92,7.44,-0.02,31.93
17177,0.1804,-0.0256,0.8722,-6.81,7.42,-0.11,31.94
17187,0.2007,-0.0126,0.9135,-6.79,7.8,0.0,31.95
17197,0.2184,-0.0148,0.927,-6.92,9.01,-0.06,31.95
17207,0.2065,-0.0226,0.8767,-6.95,8.47,-0.12,31.94
17217,0.1793,-0.0334,0.8597,-6.84,7.48,-0.09,31.95
17227,0.1932,-0.0195,0.8954,-6.87,7.82,-0.08,31.94
17238,0.2223,-0.0144,0.9136,-6.85,7.98,-0.08,31.94
17248,0.2159,-0.0153,0.9109,-6.82,8.06,-0.08,31.94
17262,0.2161,-0.0114,0.9036,-6.89,8.18,-0.08,31.92
17272,0.2018,-0.0231,0.8832,-6.96,7.51,-0.09,31.94
17282,0.1901,-0.0199,0.8829,-6.87,7.85,-0.05,31.95
17298,0.1903,-0.0223,0.9014,-6.9,8.23,0.02,31.94
17310,0.1962,-0.0172,0.9043,-6.9,8.32,-0.06,31.94
17320,0.2056,-0.017,0.9087,-6.95,8.44,-0.08,31.95
17330,0.1869,-0.0238,0.8848,-6.84,8.52,0.0,31.92
17340,0.1776,-0.0347,0.866,-6.84,8.29,-0.02,31.95
17350,0.2034,-0.0129,0.8905,-6.89,7.27,0.0,31.91
17360,0.2173,-0.012,0.934,-6.9,7.74,-0.06,31.92
17370,0.1958,-0.0167,0.9321,-7.01,8.73,-0.06,31.96
17380,0.1913,-0.035,0.8508,-6.92,8.27,-0.06,31.94
17394,0.1835,-0.0276,0.8911,-6.93,8.64,-0.06,31.92
17404,0.1866,-0.0281,0.8588,-6.81,7.94,-0.06,31.91
17418,0.1953,-0.025,0.8708,-6.95,8.0,-0.06,31.94
17428,0.1904,-0.0217,0.8904,-6.82,7.15,-0.05,31.92
17438,0.1945,-0.0172,0.9039,-6.82,8.67,-0.02,31.95
17450,0.1853,-0.0188,0.9004,-6.85,9.05,-0.02,31.94
17460,0.2067,-0.0219,0.8873,-6.76,8.24,0.0,31.93
17470,0.2122,-0.0126,0.9049,-6.9,7.39,-0.05,31.93
17480,0.1963,-0.0194,0.8967,-6.85,8.61,-0.05,31.93
17490,0.192,-0.0278,0.849,-6.85,7.74,-0.03,31.93
17500,0.1898,-0.0244,0.879,-6.79,7.33,-0.02,31.94
17510,0.2157,-0.0114,0.9152,-6.82,8.14,0.03,31.93
17520,0.2201,-0.0167,0.908,-6.96,8.23,-0.06,31.94
17530,0.1866,-0.0293,0.8615,-6.89,7.79,-0.06,31.96
17540,0.184,-0.0299,0.8628,-6.85,7.18,0.03,31.96
17551,0.1866,-0.0217,0.8724,-6.87,7.16,-0.05,31.95
17561,0.2087,-0.0121,0.92,-6.81,8.52,-0.11,31.92
17571,0.1993,-0.0227,0.8958,-6.87,8.55,0.0,31.95
17581,0.1975,-0.0267,0.8734,-6.98,8.05,-0.02,31.94
17591,0.2015,-0.0183,0.8857,-6.78,7.73,-0.08,31.94
17601,0.2057,-0.0228,0.8887,-6.82,7.74,-0.11,31.97
17611,0.1913,-0.019,0.8943,-6.79,8.05,-0.05,31.96
17621,0.2062,-0.0187,0.8997,-6.85,8.03,0.0,31.96
17631,0.2155,-0.0135,0.9027,-6.87,8.24,-0.11,31.95
17641,0.202,-0.0287,0.8774,-6.87,8.23,-0.11,31.94
17652,0.1912,-0.0276,0.8585,-6.96,8.64,-0.05,31.93
17662,0.1796,-0.0238,0.8807,-6.82,6.99,0.05,31.94
17672,0.2098,-0.0082,0.925,-6.81,8.78,-0.03,31.94
17682,0.2203,-0.0177,0.9032,-6.99,8.56,-0.02,31.93
17694,0.2018,-0.0154,0.9175,-6.96,8.55,-0.02,31.95
17706,0.1969,-0.0209,0.8944,-6.93,8.2,-0.03,31.95
17716,0.1879,-0.0284,0.8604,-6.89,8.05,-0.06,31.97
17733,0.201,-0.0179,0.9021,-6.89,9.45,-0.02,31.94
17743,0.1984,-0.025,0.879,-6.95,7.36,-0.05,31.96
17755,0.208,-0.0217,0.8801,-6.92,7.3,-0.06,31.95
17765,0.1913,-0.0264,0.8942,-6.93,8.38,-0.03,31.94
17778,0.208,-0.0203,0.8905,-6.87,8.44,-0.06,31.95
17788,0.183,-0.027,0.8661,-6.89,7.45,-0.03,31.97
17798,0.1831,-0.0186,0.8944,-6.76,8.32,0.02,31.94
17808,0.2015,-0.0103,0.9181,-6.87,9.28,-0.08,31.95
17818,0.2352,-0.016,0.9034,-6.93,7.8,-0.11,31.95
17828,0.1853,-0.0278,0.8729,-6.9,7.65,-0.11,31.97
17838,0.1783,-0.0295,0.8676,-6.87,8.08,0.05,31.95
17848,0.1964,-0.0125,0.9036,-6.9,7.74,-0.06,31.95
17864,0.1835,-0.0294,0.8667,-6.84,8.56,-0.08,31.97
17874,0.2186,-0.0153,0.8766,-6.75,6.58,-0.11,31.96
17886,0.2292,-0.0175,0.8815,-6.87,6.34,-0.08,31.97
17898,0.2307,-0.0144,0.875,-6.79,6.49,-0.03,31.96
17908,0.1869,-0.0176,0.9028,-6.98,7.11,-0.09,31.95
17918,0.1891,-0.0192,0.9016,-6.79,9.11,-0.11,31.97
17928,0.2133,-0.0203,0.8807,-6.9,8.4,-0.03,31.97
17938,0.2036,-0.0251,0.8662,-6.87,6.93,-0.12,31.96
17948,0.1792,-0.0284,0.8801,-6.84,6.98,-0.05,31.96
17958,0.193,-0.015,0.9216,-6.72,8.47,0.02,31.97
17972,0.1978,-0.0168,0.8839,-6.87,6.05,0.05,31.96
17982,0.2021,-0.0112,0.9459,-6.84,9.1,-0.15,31.97
17992,0.2123,-0.022,0.8887,-6.96,8.89,-0.14,31.96
18002,0.184,-0.0375,0.8566,-6.98,7.25,-0.08,31.96
18012,0.1733,-0.022,0.8829,-6.87,7.59,0.0,31.95
18022,0.2076,-0.0179,0.924,-6.84,8.46,-0.02,31.96
18032,0.1998,-0.0151,0.9055,-6.93,9.05,-0.11,31.97
18042,0.2029,-0.0272,0.8679,-6.84,7.95,-0.05,31.97
18052,0.1814,-0.0198,0.8838,-6.84,7.98,-0.06,31.94
18063,0.1901,-0.02,0.899,-6.84,8.53,-0.02,31.95
18073,0.2025,-0.0193,0.8776,-6.89,7.63,-0.03,31.97
18083,0.184,-0.0261,0.8982,-6.85,7.42,-0.02,31.98
18093,0.2019,-0.0151,0.9066,-6.85,8.64,-0.06,31.98
18103,0.2124,-0.0248,0.895,-6.9,7.76,-0.14,31.97
18114,0.2125,-0.0225,0.8817,-6.89,7.31,0.0,31.97
18127,0.2017,-0.0292,0.8756,-6.95,7.76,-0.05,31.96
18137,0.1627,-0.0309,0.8702,-6.89,8.52,-0.03,31.99
18150,0.1791,-0.0281,0.8552,-6.96,7.31,-0.02,31.97
18162,0.1714,-0.0294,0.8619,-6.84,7.77,0.0,31.98
18174,0.1764,-0.022,0.8738,-6.79,7.4,-0.05,31.96
18184,0.2192,-0.015,0.9143,-6.84,7.94,-0.05,31.95
18198,0.1833,-0.017,0.9058,-6.89,7.68,0.0,31.98
18208,0.2065,-0.0179,0.8998,-6.82,8.58,0.0,31.97
18218,0.1962,-0.0197,0.8864,-6.81,8.18,0.0,31.96
18228,0.2051,-0.0188,0.8906,-6.85,8.05,-0.08,31.96
18238,0.1957,-0.0219,0.8932,-6.84,8.37,-0.03,31.97
18248,0.1871,-0.0267,0.8796,-6.84,8.2,-0.02,31.97
18258,0.1974,-0.0126,0.8892,-6.78,7.82,0.0,31.94
18268,0.215,-0.012,0.9194,-6.87,7.95,-0.03,31.95
18278,0.2021,-0.0225,0.9042,-6.92,9.01,-0.03,31.96
18288,0.1854,-0.0352,0.856,-6.85,7.97,-0.05,31.97
18298,0.1837,-0.0208,0.869,-6.81,7.37,-0.03,31.97
18308,0.2195,-0.0131,0.9142,-6.73,7.89,-0.05,31.97
18320,0.2097,-0.0088,0.9175,-6.75,8.24,-0.02,31.98
18330,0.1992,-0.0227,0.8989,-6.92,8.29,-0.06,31.96
18342,0.2062,-0.02,0.8997,-6.93,7.56,-0.08,31.97
18352,0.1907,-0.0281,0.8613,-6.79,7.95,-0.06,32.0
18362,0.2035,-0.0168,0.8831,-6.79,6.95,-0.09,31.98
18372,0.1924,-0.0199,0.907,-6.87,8.24,-0.03,31.96
18382,0.1975,-0.0209,0.8934,-6.9,8.11,-0.02,31.97
18392,0.1948,-0.0219,0.8998,-6.89,7.91,-0.11,31.94
18402,0.2006,-0.0231,0.8928,-6.82,8.58,-0.06,31.95
18412,0.188,-0.0295,0.8635,-6.87,7.45,-0.08,31.97
18422,0.172,-0.0229,0.886,-6.89,7.92,-0.06,31.98
18432,0.2041,-0.0121,0.9218,-6.85,8.58,-0.08,31.98
18442,0.2051,-0.0168,0.9189,-6.96,8.6,-0.02,31.97
18452,0.1799,-0.0316,0.877,-6.93,8.9,0.0,31.95
18462,0.1859,-0.0277,0.859,-6.81,7.98,0.02,31.96
18472,0.2064,-0.0133,0.9086,-6.85,7.47,-0.02,31.96
18482,0.212,-0.0127,0.9293,-6.95,8.41,0.0,31.95
18492,0.1876,-0.028,0.8872,-7.04,8.63,0.0,31.98
18502,0.1877,-0.0238,0.8662,-6.84,8.81,-0.05,31.97
18512,0.2136,-0.0243,0.8844,-6.87,7.08,-0.08,31.96
18522,0.1881,-0.0154,0.915,-6.84,8.15,-0.05,31.94
18532,0.1851,-0.0238,0.9065,-6.89,9.02,-0.09,31.96
18542,0.2107,-0.0146,0.8834,-6.96,7.76,-0.06,31.98
18552,0.2083,-0.0182,0.8877,-6.95,8.08,-0.05,31.98
18562,0.1923,-0.0258,0.8748,-6.89,7.98,0.02,31.98
18572,0.1735,-0.0276,0.8859,-6.81,8.27,0.02,31.97
18582,0.2124,-0.0106,0.9028,-6.85,8.37,-0.02,31.99
18594,0.2126,-0.0099,0.9182,-6.79,8.9,0.02,31.97
18604,0.2144,-0.016,0.9045,-7.02,7.98,-0.06,31.97
18618,0.215,-0.0107,0.9192,-6.92,9.24,-0.03,31.96
18631,0.2085,-0.0139,0.9247,-6.96,8.56,0.0,31.97
18642,0.1932,-0.0206,0.887,-6.99,8.67,-0.06,31.98
18655,0.1932,-0.0228,0.8857,-6.93,8.2,-0.08,31.98
18665,0.1779,-0.0269,0.8746,-6.87,8.64,-0.06,31.98
18680,0.2067,-0.0199,0.8657,-6.84,8.11,-0.06,31.97
18690,0.2,-0.0269,0.891,-6.87,6.98,-0.08,31.96
18702,0.2043,-0.0195,0.8846,-6.84,6.66,-0.11,31.98
18714,0.2103,-0.0261,0.8733,-6.89,7.05,-0.03,31.97
18724,0.17,-0.0249,0.8765,-6.85,7.95,-0.08,31.98
18734,0.1912,-0.0187,0.8898,-6.82,8.52,0.0,31.95
18744,0.2301,-0.0078,0.9087,-6.85,7.6,-0.05,32.0
18754,0.2125,-0.0176,0.9082,-6.95,7.98,-0.08,31.97
18764,0.174,-0.0331,0.864,-6.85,8.27,-0.02,31.97
18774,0.1906,-0.0245,0.8646,-6.87,7.85,-0.03,31.97
18784,0.2258,-0.014,0.9,-6.82,6.52,-0.02,31.96
18798,0.1969,-0.0177,0.9142,-6.82,9.18,-0.09,32.02
18808,0.2277,-0.012,0.8945,-6.9,7.69,-0.08,31.95
18818,0.1879,-0.0229,0.8937,-6.81,8.03,-0.14,31.97
18828,0.184,-0.0244,0.8767,-6.81,8.66,0.03,31.97
18838,0.2012,-0.0248,0.887,-6.82,7.24,-0.11,31.98
18848,0.1858,-0.0214,0.8939,-6.85,8.24,-0.03,31.99
18858,0.1953,-0.024,0.8898,-6.78,8.02,-0.06,31.96
18868,0.1958,-0.019,0.9169,-6.89,8.66,-0.02,31.97
18883,0.2041,-0.0159,0.8976,-6.82,7.95,-0.08,31.99
18894,0.2184,-0.0138,0.9102,-6.79,7.86,-0.05,31.97
18906,0.2211,-0.0037,0.9165,-6.95,7.86,-0.02,31.97
18918,0.207,-0.0145,0.9204,-6.92,8.75,-0.02,31.98
18930,0.21,-0.0173,0.9152,-6.93,7.57,-0.06,31.99
18942,0.1781,-0.0247,0.8903,-7.01,8.12,-0.06,31.98
18952,0.1777,-0.0311,0.8661,-6.82,9.1,-0.09,31.99
18962,0.2151,-0.0205,0.8763,-6.87,6.93,0.0,32.0
18972,0.1981,-0.0157,0.9178,-6.93,7.34,-0.02,31.99
18982,0.1852,-0.0211,0.8978,-6.9,9.22,-0.06,32.01
18992,0.2054,-0.0225,0.8711,-6.95,7.59,-0.03,31.99
19002,0.1951,-0.0199,0.8937,-6.92,7.54,-0.02,31.98
19012,0.2003,-0.0226,0.8811,-6.85,7.73,-0.02,31.99
19022,0.1854,-0.0214,0.8995,-6.89,7.68,0.05,31.99
19032,0.2028,-0.0123,0.9175,-6.95,8.93,-0.03,32.0
19042,0.215,-0.0208,0.8954,-6.93,8.35,-0.05,31.99
19052,0.1779,-0.0286,0.8695,-6.84,8.29,-0.06,31.99
19062,0.1923,-0.0266,0.8685,-6.82,7.69,0.02,32.0
19072,0.205,-0.0127,0.9213,-6.84,7.47,-0.03,32.0
19082,0.1976,-0.0134,0.9377,-6.96,8.75,-0.05,31.97
19092,0.2023,-0.0319,0.8572,-6.98,7.73,-0.03,31.99
19102,0.1705,-0.0267,0.8787,-6.89,7.18,-0.08,31.99
19112,0.1968,-0.0116,0.92,-6.81,9.27,0.0,31.97
19122,0.2183,-0.0181,0.912,-6.85,8.61,0.0,31.99
19132,0.1821,-0.0211,0.8887,-6.84,8.32,-0.08,31.99
19146,0.2062,-0.0193,0.8831,-6.82,8.26,-0.08,32.01
19156,0.1979,-0.0234,0.8802,-6.95,7.79,-0.09,31.98
19170,0.193,-0.0178,0.8947,-6.93,7.54,-0.06,31.99
19182,0.2008,-0.0164,0.9034,-6.84,7.79,-0.12,31.97
19192,0.2052,-0.0223,0.8838,-6.93,8.08,-0.02,31.98
19202,0.1902,-0.0315,0.8744,-6.89,7.28,-0.02,31.99
19212,0.1851,-0.0181,0.8904,-6.76,7.88,0.02,31.99
19222,0.2234,-0.0094,0.9178,-6.85,8.17,-0.02,31.99
19232,0.2039,-0.021,0.8911,-6.99,8.03,-0.05,31.98
19242,0.1857,-0.0361,0.8606,-6.93,7.45,-0.02,31.98
19255,0.1849,-0.0319,0.8551,-6.98,8.35,-0.02,31.98
19265,0.1954,-0.0249,0.8778,-6.82,6.87,0.02,31.97
19275,0.2043,-0.012,0.9065,-6.78,7.33,-0.02,31.98
19285,0.2064,-0.0215,0.9011,-6.95,8.79,-0.11,31.98
19295,0.1975,-0.0206,0.8719,-6.92,8.66,0.02,31.97
19305,0.1936,-0.0259,0.8806,-6.9,7.31,-0.09,31.99
19315,0.1979,-0.0204,0.8927,-6.89,7.6,-0.09,31.99
19325,0.1989,-0.0222,0.9031,-6.87,7.95,-0.03,31.97
19335,0.2023,-0.0181,0.8918,-6.84,8.03,-0.08,31.98
19345,0.2213,-0.0164,0.8949,-6.89,7.71,-0.08,31.98
19359,0.2079,-0.0114,0.9166,-6.82,8.58,-0.06,31.97
19371,0.2086,-0.0085,0.92,-7.01,8.61,-0.11,31.99
19381,0.1995,-0.0283,0.8737,-6.92,8.31,-0.08,31.97
19391,0.1763,-0.0305,0.8558,-6.85,7.85,0.0,31.99
19401,0.2046,-0.0148,0.8989,-6.82,7.45,0.05,31.99
19411,0.2205,-0.0109,0.9165,-6.87,7.69,-0.11,31.99
19421,0.1869,-0.0259,0.8948,-6.96,8.47,-0.02,31.98
19431,0.1925,-0.0295,0.8445,-6.78,7.53,-0.05,31.99
19441,0.1863,-0.0173,0.8937,-6.84,6.96,0.02,31.98
19455,0.1998,-0.0215,0.865,-6.78,7.28,0.03,31.97
19465,0.1908,-0.0227,0.913,-6.87,7.69,0.05,31.99
19479,0.2021,-0.0219,0.884,-6.9,7.34,-0.03,31.97
19489,0.1902,-0.0238,0.8954,-6.84,8.21,-0.06,31.98
19503,0.1821,-0.0264,0.8766,-6.92,7.3,-0.03,32.0
19513,0.2019,-0.0176,0.8944,-6.89,8.14,0.02,31.99
19523,0.2252,-0.0092,0.9103,-6.82,7.34,-0.05,32.01
19536,0.2153,-0.0111,0.9186,-6.81,8.67,-0.12,31.99
19548,0.2311,-0.016,0.9141,-6.89,7.86,-0.08,31.98
19558,0.1781,-0.0278,0.8779,-6.99,8.06,-0.06,31.97
19568,0.1788,-0.0298,0.8679,-6.93,8.58,0.09,32.0
19578,0.2004,-0.0154,0.8987,-6.82,7.45,-0.06,32.01
19588,0.2115,-0.016,0.9264,-6.92,8.67,-0.08,31.99
19598,0.1947,-0.0233,0.8824,-6.98,8.49,-0.05,31.97
19608,0.1793,-0.0276,0.8751,-6.85,8.0,-0.02,32.01
19620,0.1942,-0.02,0.8685,-6.85,6.84,-0.05,31.98
19632,0.1896,-0.022,0.8972,-6.92,7.66,-0.06,32.0
19644,0.2056,-0.0229,0.8827,-6.82,6.82,-0.09,31.99
19654,0.1825,-0.0255,0.8892,-6.84,8.69,-0.08,32.0
19668,0.1859,-0.0295,0.8846,-6.85,8.2,-0.09,32.0
19681,0.1752,-0.0272,0.8782,-6.92,8.03,-0.03,32.01
19693,0.1689,-0.0312,0.8723,-6.89,8.38,0.02,31.99
19703,0.2078,-0.0143,0.8805,-6.78,7.71,-0.02,31.97
19716,0.1803,-0.0212,0.8817,-6.81,8.02,0.0,32.01
19728,0.1963,-0.0146,0.8965,-6.78,8.41,-0.05,31.98
19738,0.2144,-0.0094,0.9111,-6.85,7.31,-0.11,32.01
19752,0.2181,-0.0139,0.9132,-6.85,8.61,-0.02,31.99
19764,0.2089,-0.0118,0.9127,-6.85,9.01,-0.03,32.0
19774,0.1942,-0.0233,0.882,-6.92,8.14,-0.08,32.0
19788,0.2115,-0.0164,0.8811,-6.87,7.57,0.03,31.99
19798,0.1871,-0.0209,0.8939,-6.89,8.05,-0.09,31.99
19812,0.2058,-0.0187,0.8876,-6.93,7.8,0.02,32.0
19822,0.1998,-0.0171,0.9072,-6.98,8.35,-0.05,32.02
19832,0.1913,-0.0347,0.8868,-6.98,8.35,-0.02,31.99
19848,0.2092,-0.0126,0.912,-6.98,7.79,-0.05,31.99
19858,0.1968,-0.0342,0.8679,-6.98,7.97,-0.06,31.99
19872,0.186,-0.0269,0.9131,-6.96,8.38,-0.03,32.0
19882,0.187,-0.0326,0.8453,-6.81,8.56,0.02,31.99
19892,0.2045,-0.0178,0.8938,-6.73,6.52,0.05,32.0
19908,0.1686,-0.0316,0.8724,-6.85,7.76,0.02,32.02
19920,0.1765,-0.028,0.8695,-6.81,7.42,-0.03,31.99
19930,0.2042,-0.0179,0.9116,-6.82,8.26,-0.05,31.99
19940,0.2078,-0.0178,0.9019,-6.85,8.17,0.0,32.0
19950,0.1938,-0.019,0.8807,-6.92,7.91,-0.05,31.99
19960,0.1992,-0.0186,0.8815,-6.92,7.39,-0.11,31.99
19970,0.1902,-0.0198,0.8939,-6.93,8.21,-0.11,31.99
19980,0.1925,-0.0236,0.8796,-6.95,8.05,-0.03,31.99
19992,0.184,-0.0271,0.8762,-6.85,8.15,-0.03,31.99
20004,0.1741,-0.024,0.8701,-6.9,7.63,-0.02,31.98
20014,0.2017,-0.012,0.921,-6.87,8.55,-0.03,32.0
20024,0.2201,-0.0116,0.9122,-6.9,9.08,-0.12,31.99
20034,0.1991,-0.0327,0.8619,-6.96,7.53,-0.03,31.99
20044,0.1672,-0.0276,0.8671,-6.89,7.91,-0.06,32.01
20054,0.2042,-0.017,0.9044,-6.73,8.21,0.0,32.02
20064,0.2174,-0.0088,0.9253,-6.82,8.06,-0.11,32.02
20074,0.1967,-0.0203,0.9119,-6.96,9.08,-0.05,31.99
20088,0.2039,-0.0143,0.9091,-6.9,8.03,-0.05,31.99
20102,0.2173,-0.0139,0.8949,-6.98,7.56,-0.06,31.98
20112,0.194,-0.0183,0.8938,-6.9,7.66,-0.05,32.01
20124,0.1891,-0.0182,0.8977,-6.87,8.2,-0.06,32.0
20134,0.2075,-0.0188,0.8961,-6.92,8.58,-0.06,32.02
20148,0.2015,-0.0139,0.9189,-6.89,8.26,-0.06,32.0
20158,0.2197,-0.0198,0.8806,-6.89,8.17,-0.15,32.0
20168,0.188,-0.0286,0.8534,-6.84,6.89,-0.03,32.02
20185,0.2094,-0.0103,0.9191,-7.01,8.49,-0.09,32.01
20196,0.2001,-0.025,0.8933,-7.02,8.75,-0.08,31.99
20206,0.1753,-0.0347,0.8455,-6.9,7.71,-0.03,32.01
20216,0.1801,-0.0214,0.8977,-6.82,8.05,-0.02,32.01
20232,0.1879,-0.0321,0.8523,-6.85,8.27,-0.05,32.0
20244,0.1975,-0.0271,0.8494,-6.87,7.73,-0.06,32.01
20254,0.1995,-0.0204,0.8912,-6.85,6.96,-0.03,32.03
20268,0.2007,-0.0187,0.8739,-6.89,8.43,0.03,32.01
20280,0.1935,-0.0244,0.8907,-6.89,8.67,-0.02,32.02
20290,0.1952,-0.0201,0.8801,-6.84,7.95,-0.08,32.02
20305,0.1913,-0.0271,0.8654,-6.9,7.1,-0.12,32.03
20318,0.2072,-0.0315,0.853,-6.92,7.57,-0.15,32.02
20328,0.1615,-0.0289,0.8674,-6.95,6.73,-0.03,32.02
20338,0.1863,-0.0161,0.9247,-6.85,9.15,-0.12,32.01
20348,0.2268,-0.0107,0.9153,-6.95,8.23,-0.06,32.01
20365,0.1912,-0.0176,0.8755,-6.89,6.4,-0.02,32.01
20376,0.2001,-0.014,0.9003,-6.84,7.19,0.0,32.0
20386,0.2114,-0.0125,0.9185,-6.93,8.79,-0.11,32.0
20400,0.2081,-0.0117,0.912,-6.92,7.83,-0.03,32.01
20412,0.2004,-0.0164,0.9066,-6.93,8.79,-0.05,32.01
20422,0.2028,-0.0242,0.8871,-6.9,7.89,0.0,32.0
20432,0.1898,-0.0205,0.899,-6.95,8.47,-0.06,32.0
20442,0.2117,-0.0245,0.8792,-6.82,8.44,-0.05,32.02
20452,0.1956,-0.0225,0.8687,-6.9,6.23,-0.06,32.0
20462,0.1772,-0.0189,0.9125,-6.78,8.58,-0.06,32.01
20472,0.2185,-0.0088,0.9114,-6.85,8.81,-0.08,32.02
20482,0.2163,-0.0198,0.8989,-6.96,7.68,-0.05,32.02
20496,0.22,-0.0081,0.9207,-6.99,8.56,-0.06,32.0
20510,0.2174,-0.007,0.9236,-6.92,7.62,0.0,32.01
20521,0.21,-0.0267,0.9047,-6.92,8.05,-0.14,32.01
20532,0.2083,-0.0238,0.8798,-6.9,7.53,-0.09,31.98
20542,0.174,-0.0289,0.8728,-6.9,8.29,-0.05,32.0
20552,0.212,-0.0156,0.8828,-6.76,7.44,0.05,32.02
20562,0.2089,-0.0203,0.9098,-6.92,7.36,0.03,32.02
20572,0.1915,-0.0223,0.8928,-6.92,8.58,-0.09,32.0
20582,0.2078,-0.026,0.8801,-6.93,7.73,-0.06,32.01
20592,0.207,-0.019,0.8881,-6.85,7.59,0.0,32.01
20604,0.2,-0.021,0.8926,-6.99,8.6,0.03,32.02
20614,0.1909,-0.0225,0.8696,-6.92,7.45,0.0,32.03
20624,0.1919,-0.0216,0.8989,-6.82,7.82,-0.03,32.02
20634,0.2152,-0.0087,0.9165,-6.81,8.79,-0.03,32.02
20644,0.2185,-0.0254,0.8878,-6.79,7.69,-0.12,32.01
20654,0.1714,-0.0275,0.8662,-6.79,7.34,-0.05,31.99
20664,0.1782,-0.0222,0.885,-6.85,8.44,-0.03,32.02
20676,0.1836,-0.0197,0.8787,-6.72,6.87,-0.02,32.04
20688,0.208,-0.0149,0.884,-6.84,6.78,-0.06,32.01
20698,0.1935,-0.0193,0.9287,-6.89,8.78,-0.11,32.01
20709,0.1852,-0.0211,0.9105,-6.89,8.34,-0.08,32.0
20719,0.2046,-0.0319,0.8545,-6.75,7.95,-0.06,32.01
20736,0.2098,-0.019,0.8883,-6.84,8.84,-0.02,32.01
20746,0.1908,-0.02,0.8945,-6.85,7.76,-0.06,32.03
20760,0.2008,-0.0204,0.8882,-6.87,8.49,0.02,32.0
20770,0.2113,-0.0165,0.8959,-6.93,7.6,-0.03,32.0
20785,0.2015,-0.0165,0.9144,-6.9,7.59,-0.06,32.02
20795,0.2012,-0.0095,0.9257,-6.98,8.58,-0.06,32.01
20808,0.213,-0.0134,0.9164,-7.01,7.1,-0.03,32.03
20821,0.24,-0.0106,0.899,-6.87,7.1,-0.05,32.01
20831,0.1873,-0.0205,0.8926,-6.98,7.82,-0.02,32.03
20844,0.2018,-0.0266,0.8787,-7.01,7.39,0.0,32.02
20854,0.1738,-0.0277,0.8723,-6.84,7.59,-0.06,32.02
20864,0.187,-0.0209,0.9088,-6.89,8.05,-0.06,32.04
20874,0.2008,-0.0118,0.9191,-6.9,9.02,-0.03,32.03
20884,0.2159,-0.0233,0.8816,-6.95,7.92,-0.09,31.99
20894,0.1842,-0.0228,0.8822,-6.92,7.69,-0.12,32.01
20905,0.1846,-0.0254,0.9041,-6.87,8.31,-0.06,32.01
20917,0.1906,-0.0167,0.9012,-6.87,8.2,-0.05,32.01
20927,0.1991,-0.0276,0.88,-6.85,8.58,-0.14,32.03
20937,0.1895,-0.0242,0.8704,-6.89,6.75,-0.11,32.01
20952,0.1759,-0.0302,0.8628,-6.9,8.95,-0.05,32.01
20962,0.209,-0.0222,0.8655,-6.73,6.55,-0.05,32.03
20976,0.1687,-0.0282,0.8721,-6.82,8.31,0.02,32.04
20988,0.1815,-0.0236,0.8827,-6.76,8.05,0.05,32.02
21000,0.1906,-0.0226,0.8816,-6.85,7.22,-0.06,32.02
21010,0.2123,-0.0117,0.9338,-6.96,8.21,-0.11,32.04
21020,0.1962,-0.0173,0.8993,-6.99,9.44,-0.09,32.03
21030,0.1946,-0.0305,0.8505,-6.9,7.79,-0.09,32.01
21040,0.1832,-0.0188,0.8885,-6.95,7.86,-0.06,32.03
21050,0.202,-0.0205,0.9009,-6.89,8.73,-0.02,32.03
21060,0.2058,-0.0182,0.8848,-6.87,7.22,0.03,32.02
21070,0.1918,-0.02,0.9055,-6.89,8.41,0.0,32.02
21080,0.2034,-0.0168,0.9003,-6.84,8.79,-0.05,32.04
21096,0.1844,-0.0161,0.9198,-6.84,8.38,0.0,32.03
21108,0.2025,-0.0156,0.9387,-6.84,9.22,-0.05,32.02
21118,0.2246,-0.0193,0.8887,-6.96,8.66,-0.08,32.03
21128,0.1873,-0.0371,0.8555,-7.01,6.64,-0.11,32.03
21138,0.1665,-0.0231,0.885,-6.87,8.24,-0.06,32.03
21148,0.2227,-0.0132,0.9131,-6.76,7.85,-0.02,32.04
21158,0.2017,-0.0123,0.9255,-7.01,8.12,-0.06,32.06
21168,0.1825,-0.026,0.8799,-6.93,9.56,-0.02,32.03
21178,0.1921,-0.0288,0.8499,-6.81,7.33,-0.02,32.04
21192,0.1797,-0.0271,0.8859,-6.9,8.75,-0.14,32.02
21205,0.1919,-0.0189,0.8794,-6.9,8.02,-0.09,32.02
21215,0.1964,-0.0233,0.8783,-6.89,7.56,-0.11,32.04
21225,0.1805,-0.0238,0.8861,-6.9,8.12,-0.02,32.04
21235,0.1992,-0.0216,0.8862,-6.84,8.09,0.08,32.03
21245,0.2115,-0.0123,0.9174,-6.81,7.79,0.0,32.02
21255,0.1981,-0.0181,0.9078,-7.01,8.81,-0.08,32.04
21265,0.1902,-0.0312,0.8525,-6.89,7.91,-0.03,32.04
21276,0.1848,-0.0334,0.8383,-6.87,7.42,-0.05,32.05
21288,0.1925,-0.0338,0.8459,-6.89,7.54,0.03,32.07
21298,0.2107,-0.0095,0.9219,-6.79,8.26,-0.05,32.04
21308,0.2251,-0.0148,0.9054,-6.92,7.98,-0.09,32.03
21318,0.1981,-0.0233,0.8792,-6.95,7.48,-0.08,32.03
21328,0.179,-0.0267,0.8767,-6.89,8.55,-0.03,32.04
21338,0.2113,-0.017,0.8892,-6.87,7.68,-0.05,32.02
21348,0.2108,-0.0137,0.894,-6.92,7.91,0.03,32.07
21358,0.1959,-0.0212,0.8865,-6.87,7.44,-0.05,32.03
21368,0.1886,-0.0222,0.9027,-6.81,8.2,-0.02,32.03
21384,0.1792,-0.0177,0.9027,-6.87,8.93,-0.14,32.05
21396,0.1801,-0.0151,0.9188,-6.9,9.07,-0.05,32.04
21406,0.2311,-0.015,0.8816,-6.9,7.5,-0.09,32.06
21416,0.1788,-0.0306,0.8815,-6.89,7.24,-0.08,32.01
21426,0.1693,-0.0211,0.8766,-6.84,8.96,-0.02,32.02
21436,0.2225,-0.0137,0.8959,-6.79,7.79,-0.08,32.04
21446,0.2224,-0.0095,0.9087,-6.89,7.33,-0.12,32.03
21456,0.1885,-0.0327,0.8804,-6.98,7.94,-0.08,32.07
21468,0.1967,-0.0305,0.8704,-6.84,8.11,-0.06,32.03
21480,0.1993,-0.0271,0.8545,-6.93,8.08,0.02,32.04
21490,0.1869,-0.021,0.9043,-6.89,7.53,-0.08,32.03
21500,0.2004,-0.0181,0.9111,-6.9,9.08,-0.08,32.03
21516,0.2124,-0.0255,0.8827,-6.82,7.68,0.0,32.07
21529,0.199,-0.0222,0.896,-6.89,8.79,-0.05,32.02
21542,0.2,-0.0194,0.8973,-6.89,8.52,-0.08,32.02
21552,0.1902,-0.0283,0.8785,-6.84,8.12,-0.06,32.07
21564,0.1707,-0.0302,0.8751,-7.02,8.61,0.0,32.06
21576,0.1736,-0.0336,0.8732,-6.82,7.94,-0.05,32.04
21586,0.1925,-0.0132,0.9041,-6.89,8.11,-0.06,32.04
21596,0.23,-0.0125,0.9119,-6.92,7.91,-0.03,32.02
21606,0.1948,-0.0229,0.8827,-7.05,7.48,-0.11,32.04
21616,0.172,-0.0345,0.8687,-6.89,8.63,-0.05,32.05
21626,0.196,-0.0171,0.8896,-6.82,7.56,-0.05,32.06
21636,0.203,-0.0138,0.9359,-6.89,8.29,-0.03,32.05
21646,0.1989,-0.0195,0.8983,-6.9,8.81,-0.11,32.03
21656,0.1937,-0.0283,0.8711,-6.92,7.91,-0.12,32.03
21672,0.1906,-0.0216,0.8983,-6.89,8.43,-0.08,32.04
21684,0.2034,-0.0145,0.8792,-6.92,8.0,-0.05,32.03
21694,0.2048,-0.0171,0.8959,-6.87,7.3,0.0,32.02
21704,0.1849,-0.0261,0.8916,-6.9,8.55,-0.03,32.04
21714,0.1849,-0.0254,0.8629,-6.9,7.94,-0.02,32.04
21724,0.2029,-0.015,0.8878,-6.79,7.19,-0.09,32.03
21734,0.2169,-0.01,0.9178,-6.89,7.68,-0.08,32.02
21744,0.1908,-0.0219,0.8992,-6.87,8.47,0.02,32.05
21756,0.1945,-0.0271,0.8732,-6.93,7.21,-0.06,32.03
21766,0.1671,-0.0245,0.8657,-6.89,8.27,-0.05,32.02
21781,0.2013,-0.0358,0.8527,-6.87,7.97,-0.05,32.03
21792,0.2034,-0.0272,0.8425,-6.82,6.35,-0.03,32.04
21802,0.1964,-0.0201,0.908,-6.81,6.69,-0.08,32.04
21812,0.1906,-0.019,0.9166,-6.9,8.82,-0.02,32.03
21822,0.2017,-0.0272,0.8856,-6.92,8.69,0.03,32.03
21832,0.2053,-0.0197,0.8749,-6.84,7.5,0.03,32.05
21842,0.1937,-0.0251,0.8945,-6.84,7.1,-0.03,32.06
21852,0.1665,-0.0248,0.8966,-6.84,8.85,0.0,32.05
21864,0.1746,-0.03,0.8817,-6.89,6.9,-0.05,32.03
21876,0.1757,-0.0254,0.877,-6.84,6.37,0.06,32.03
21886,0.2169,-0.0104,0.9255,-6.79,9.74,-0.03,32.05
21896,0.2319,-0.0172,0.8846,-6.9,7.22,-0.05,32.03
21906,0.171,-0.0298,0.877,-6.93,7.79,0.0,32.04
21916,0.1865,-0.0188,0.8737,-6.82,8.41,0.03,32.04
21926,0.2266,-0.0125,0.9108,-6.93,7.68,-0.06,32.04
21936,0.2101,-0.0143,0.9028,-6.92,7.6,-0.15,32.04
21946,0.1854,-0.0311,0.8812,-6.84,7.77,0.0,32.04
21960,0.1947,-0.0282,0.8846,-6.85,8.73,-0.12,32.08
21970,0.1891,-0.0245,0.8788,-6.95,7.22,-0.05,32.04
21980,0.1815,-0.0182,0.9033,-6.89,9.18,-0.02,32.07
21990,0.2002,-0.0242,0.8813,-6.95,8.08,-0.08,32.05
22000,0.186,-0.0182,0.899,-6.9,8.17,0.02,32.07
22010,0.2068,-0.0162,0.8987,-6.84,8.85,-0.05,32.07
22020,0.2108,-0.0208,0.8861,-6.92,8.21,-0.05,32.05
22031,0.1836,-0.0287,0.8806,-6.95,7.4,-0.06,32.06
22044,0.198,-0.0339,0.864,-6.89,7.74,-0.02,32.03
22054,0.1869,-0.016,0.8954,-6.82,7.88,-0.05,32.02
22064,0.2219,-0.0095,0.9099,-6.81,8.02,-0.02,32.05
22074,0.2078,-0.0204,0.8849,-6.95,7.94,-0.09,32.04
22084,0.1813,-0.0299,0.8575,-6.95,7.53,-0.06,32.03
22094,0.188,-0.0226,0.8955,-6.84,7.31,0.03,32.05
22104,0.1971,-0.0148,0.9319,-6.95,8.89,-0.06,32.08
22114,0.2056,-0.0189,0.8882,-6.99,8.82,-0.03,32.05
22124,0.1829,-0.0281,0.8595,-6.84,7.6,-0.08,32.07
22134,0.1807,-0.0231,0.8821,-6.93,7.13,-0.08,32.03
22144,0.201,-0.021,0.8964,-6.92,8.6,0.0,32.03
22154,0.2008,-0.0215,0.8975,-6.92,7.6,0.0,32.05
22164,0.1892,-0.0179,0.9071,-6.9,8.26,-0.06,32.06
22176,0.197,-0.0105,0.9106,-6.89,8.0,-0.06,32.07
22188,0.2069,-0.0106,0.9227,-6.84,8.6,0.0,32.05
22200,0.199,-0.015,0.9196,-7.01,8.95,-0.11,32.04
22210,0.1858,-0.0336,0.8579,-6.99,7.97,-0.09,32.06
22220,0.187,-0.0166,0.8811,-6.84,7.82,-0.05,32.06
22230,0.2294,-0.0092,0.9132,-6.85,7.92,0.0,32.05
22240,0.2145,-0.0173,0.9037,-7.01,8.08,-0.15,32.06
22250,0.186,-0.0284,0.8621,-6.95,8.49,-0.09,32.06
22260,0.1917,-0.0266,0.8527,-6.87,6.5,-0.11,32.05
22270,0.1888,-0.0219,0.9222,-6.85,8.12,0.0,32.04
22280,0.2111,-0.0189,0.9043,-6.87,8.75,0.03,32.06
22290,0.2003,-0.0201,0.8782,-6.89,6.87,-0.02,32.09
22300,0.1805,-0.0179,0.8921,-6.93,8.29,-0.08,32.08
22310,0.1929,-0.0182,0.8915,-6.87,8.7,-0.06,32.06
22322,0.188,-0.0239,0.8807,-6.95,8.32,-0.15,32.07
22332,0.1877,-0.0284,0.8794,-6.9,7.44,-0.05,32.07
22342,0.2008,-0.0166,0.9127,-6.78,8.27,-0.06,32.07
22358,0.1885,-0.0282,0.8649,-6.79,8.09,-0.03,32.07
22368,0.2159,-0.009,0.9061,-6.79,7.89,-0.02,32.04
22378,0.2244,-0.0153,0.916,-6.92,7.82,-0.08,32.04
22392,0.2135,-0.0121,0.9198,-6.89,8.55,-0.05,32.08
22405,0.1989,-0.0121,0.9333,-7.01,8.66,-0.11,32.07
22415,0.1929,-0.0261,0.8922,-6.95,9.56,-0.08,32.06
22425,0.1964,-0.0249,0.8541,-6.84,7.44,0.0,32.05
22435,0.1915,-0.0162,0.9047,-6.82,7.89,0.05,32.05
22446,0.1901,-0.0184,0.9109,-6.84,8.92,0.02,32.04
22456,0.2051,-0.0204,0.8849,-6.95,8.12,-0.02,32.07
22466,0.1919,-0.0167,0.897,-6.92,8.2,-0.09,32.05
22476,0.2041,-0.0211,0.9005,-6.9,8.73,-0.12,32.07
22486,0.1923,-0.024,0.879,-6.93,8.08,-0.05,32.07
22496,0.1798,-0.0223,0.8796,-6.89,8.4,-0.05,32.04
22506,0.215,-0.0135,0.8917,-6.84,8.46,-0.05,32.08
22516,0.2231,-0.015,0.906,-6.93,7.31,-0.03,32.05
22526,0.1831,-0.0253,0.881,-6.9,8.64,-0.12,32.05
22536,0.1947,-0.025,0.8557,-6.76,7.53,-0.12,32.06
22546,0.2042,-0.0144,0.8981,-6.82,6.89,-0.06,32.07
22556,0.2108,-0.0112,0.9197,-6.85,8.4,-0.05,32.05
22566,0.189,-0.0264,0.8779,-6.96,8.52,-0.06,32.06
22576,0.1827,-0.0256,0.8585,-6.84,7.79,-0.08,32.06
22586,0.2042,-0.02,0.8954,-6.72,7.08,-0.02,32.04
22596,0.1995,-0.0167,0.9149,-6.76,8.03,-0.09,32.08
22608,0.2007,-0.0184,0.8997,-6.84,7.97,-0.06,32.05
22618,0.1949,-0.0181,0.8977,-6.92,8.47,-0.05,32.04
22632,0.1896,-0.0187,0.8994,-6.78,7.3,-0.03,32.08
22643,0.2054,-0.0172,0.9108,-6.89,8.06,-0.06,32.05
22653,0.2057,-0.0216,0.8909,-6.85,8.26,-0.12,32.04
22663,0.1783,-0.0339,0.8674,-6.89,7.33,-0.09,32.07
22673,0.1719,-0.0221,0.8876,-6.95,8.15,-0.03,32.08
22683,0.2212,-0.0114,0.9199,-6.78,8.05,0.02,32.06
22693,0.2013,-0.0128,0.9148,-7.04,8.37,-0.11,32.08
22703,0.1805,-0.032,0.8707,-6.84,8.82,-0.03,32.07
22716,0.1842,-0.0226,0.8807,-6.9,8.53,-0.06,32.07
22726,0.204,-0.0289,0.8595,-6.81,6.35,-0.05,32.08
22740,0.1698,-0.0233,0.8822,-6.81,9.24,-0.08,32.05
22754,0.1853,-0.0189,0.8788,-6.89,7.45,-0.12,32.07
22766,0.198,-0.024,0.8896,-6.82,7.51,-0.06,32.07
22776,0.193,-0.0236,0.8923,-6.87,7.39,-0.06,32.07
22786,0.1802,-0.0278,0.9048,-6.87,8.96,0.02,32.05
22796,0.2214,-0.0162,0.8882,-6.89,8.08,-0.05,32.07
22806,0.2097,-0.0173,0.911,-6.89,7.08,-0.06,32.06
22816,0.1691,-0.0261,0.8969,-6.99,9.94,-0.08,32.07
22826,0.1967,-0.0332,0.8494,-6.84,8.02,0.02,32.06
22836,0.1931,-0.0139,0.9021,-6.84,7.27,-0.03,32.06
22848,0.2123,-0.0151,0.9038,-6.81,6.95,0.02,32.08
22860,0.2133,-0.0109,0.9137,-6.92,7.37,0.03,32.07
22870,0.2032,-0.0272,0.8904,-6.96,8.21,-0.02,32.07
22880,0.1857,-0.0293,0.8673,-6.79,7.08,-0.05,32.05
22890,0.1942,-0.0183,0.9005,-6.85,7.85,-0.02,32.09
22900,0.2083,-0.0171,0.9061,-6.82,8.43,-0.08,32.09
22910,0.2001,-0.0244,0.8928,-6.9,7.77,-0.02,32.08
22920,0.1783,-0.0221,0.8892,-6.81,8.44,-0.03,32.09
22930,0.2029,-0.0255,0.8915,-6.81,8.11,-0.14,32.07
22944,0.1962,-0.0164,0.9003,-6.92,8.35,-0.05,32.07
22954,0.1987,-0.0251,0.8837,-6.82,7.77,-0.06,32.08
22968,0.204,-0.0215,0.8928,-6.95,8.69,-0.03,32.09
22978,0.179,-0.0259,0.8782,-6.82,6.93,0.03,32.07
22988,0.1912,-0.0143,0.9119,-6.92,8.85,0.02,32.1
22998,0.2231,-0.0142,0.9054,-6.93,7.97,0.0,32.07
23008,0.1804,-0.028,0.8839,-6.93,7.89,-0.09,32.07
23018,0.1755,-0.0298,0.8636,-6.9,8.31,0.02,32.06
23028,0.1989,-0.0206,0.8812,-6.82,7.36,0.0,32.06
23038,0.2028,-0.0155,0.9309,-6.98,8.63,-0.05,32.07
23052,0.2169,-0.016,0.9131,-6.96,8.18,-0.05,32.06
23062,0.2047,-0.014,0.9039,-6.98,8.27,-0.02,32.07
23076,0.2034,-0.0209,0.9076,-6.82,8.08,-0.08,32.07
23088,0.1917,-0.0225,0.9012,-6.87,8.14,-0.03,32.06
23098,0.1899,-0.0176,0.9069,-6.89,9.02,-0.05,32.09
23113,0.2111,-0.0199,0.8969,-6.84,7.73,-0.06,32.09
23124,0.2075,-0.0117,0.9148,-6.95,7.77,-0.03,32.08
23134,0.1978,-0.019,0.9084,-6.95,9.02,0.0,32.05
23144,0.1854,-0.0283,0.8568,-6.85,8.43,-0.03,32.06
23154,0.1956,-0.0223,0.8761,-6.82,7.18,-0.06,32.09
23164,0.2164,-0.0106,0.9169,-6.85,7.94,-0.02,32.07
23174,0.2137,-0.0157,0.9072,-6.95,8.18,-0.08,32.06
23184,0.183,-0.0298,0.8649,-6.89,8.32,-0.02,32.09
23194,0.1931,-0.0256,0.8633,-6.78,7.5,-0.05,32.07
23204,0.2017,-0.0184,0.906,-6.93,7.57,-0.08,32.08
23214,0.2041,-0.0219,0.9022,-6.92,8.46,-0.03,32.08
23224,0.2001,-0.0232,0.8723,-6.89,7.92,-0.02,32.07
23234,0.1949,-0.0186,0.8867,-6.85,7.33,-0.05,32.09
23244,0.1862,-0.0194,0.8989,-6.87,8.24,0.02,32.08
23255,0.1865,-0.0236,0.8881,-6.76,7.92,0.0,32.07
23265,0.1973,-0.0179,0.8828,-6.84,7.63,-0.05,32.06
23275,0.2058,-0.0161,0.9126,-6.92,8.35,-0.09,32.11
23285,0.2037,-0.0258,0.8812,-6.92,7.82,-0.02,32.08
23295,0.1567,-0.032,0.8868,-6.9,8.63,-0.14,32.09
23305,0.2003,-0.0179,0.879,-6.78,8.85,-0.12,32.08
23315,0.2352,-0.0116,0.8945,-6.93,6.31,-0.05,32.07
23325,0.1835,-0.0216,0.9119,-6.98,8.17,-0.05,32.08
23335,0.172,-0.0293,0.8715,-6.87,9.69,-0.03,32.08
23345,0.2134,-0.0179,0.8782,-6.82,7.74,-0.06,32.08
23355,0.2203,-0.0109,0.9106,-6.78,7.44,-0.03,32.07
23365,0.1937,-0.0211,0.9003,-6.93,8.06,-0.12,32.06
23375,0.1877,-0.0222,0.8687,-6.89,8.76,0.02,32.09
23385,0.2122,-0.0234,0.8785,-6.85,7.18,-0.02,32.05
23395,0.1946,-0.0173,0.9044,-6.89,6.82,-0.05,32.07
23405,0.1797,-0.0219,0.9089,-6.87,9.4,-0.06,32.07
23415,0.2153,-0.0164,0.874,-6.87,8.21,-0.05,32.07
23425,0.2123,-0.0225,0.8887,-7.01,6.53,-0.02,32.07
23438,0.212,-0.0184,0.8998,-6.93,8.81,0.02,32.05
23449,0.1987,-0.0293,0.8701,-7.04,7.51,-0.06,32.08
23461,0.1969,-0.0273,0.8695,-6.89,8.52,-0.03,32.08
23471,0.1913,-0.0255,0.8688,-6.81,6.46,0.05,32.07
23484,0.1768,-0.0336,0.8683,-6.95,8.64,-0.06,32.07
23496,0.1873,-0.0192,0.8745,-6.76,8.11,0.12,32.06
23506,0.218,-0.0143,0.9258,-6.84,6.85,-0.02,32.08
23520,0.2004,-0.0135,0.9114,-6.82,8.96,-0.08,32.09
23532,0.204,-0.0137,0.9095,-6.93,8.73,-0.05,32.06
23542,0.1976,-0.0187,0.8938,-6.87,7.4,-0.02,32.06
23552,0.1876,-0.0178,0.8931,-6.98,8.61,-0.08,32.06
23562,0.196,-0.0199,0.8876,-6.92,8.49,-0.14,32.08
23572,0.194,-0.0227,0.8796,-6.98,7.66,-0.09,32.09
23582,0.1895,-0.0222,0.8842,-6.9,7.86,0.02,32.08
23592,0.2119,-0.0118,0.9109,-6.87,7.66,-0.02,32.1
23605,0.2285,-0.0096,0.9066,-6.93,7.56,0.03,32.11
23616,0.2211,-0.0088,0.9209,-6.87,8.47,-0.08,32.08
23626,0.1853,-0.0272,0.8773,-6.92,8.46,-0.11,32.08
23636,0.1832,-0.0315,0.8512,-6.89,7.8,0.03,32.09
23646,0.2051,-0.0145,0.9106,-6.79,7.88,-0.05,32.09
23656,0.23,-0.0126,0.9084,-6.85,7.68,-0.08,32.11
23666,0.2166,-0.0172,0.8884,-6.96,7.1,-0.14,32.07
23678,0.1891,-0.025,0.8721,-6.87,7.63,-0.06,32.09
23688,0.1808,-0.0215,0.8857,-6.85,8.67,-0.05,32.09
23698,0.2006,-0.0186,0.8889,-6.89,8.32,-0.08,32.08
23708,0.2036,-0.021,0.8878,-6.92,7.59,-0.09,32.06
23718,0.2113,-0.0161,0.8856,-6.9,7.3,0.03,32.09
23728,0.2004,-0.0194,0.9049,-6.84,7.77,-0.03,32.08
23738,0.1879,-0.022,0.882,-6.96,9.21,-0.03,32.09
23748,0.2042,-0.0258,0.8496,-6.78,6.82,0.0,32.09
23760,0.1874,-0.0231,0.8564,-6.89,8.49,-0.02,32.08
23774,0.177,-0.0277,0.8643,-6.93,7.45,-0.12,32.06
23784,0.201,-0.009,0.9114,-6.78,7.88,0.0,32.08
23794,0.2123,-0.0182,0.9205,-6.87,8.79,-0.11,32.08
23804,0.2113,-0.0281,0.8484,-6.92,6.44,-0.08,32.09
23814,0.1963,-0.0303,0.8525,-6.9,5.27,-0.06,32.09
23824,0.1711,-0.0204,0.9155,-6.89,8.76,0.0,32.09
23834,0.2264,-0.02,0.8987,-6.92,9.02,0.02,32.08
23844,0.2056,-0.0251,0.8744,-6.92,6.18,-0.06,32.09
23854,0.1738,-0.0272,0.9028,-6.89,8.31,-0.05,32.09
23868,0.2059,-0.0171,0.8774,-6.96,7.31,-0.02,32.09
23881,0.2178,-0.0151,0.8756,-6.87,7.22,-0.08,32.08
23892,0.2081,-0.012,0.9,-6.95,7.27,-0.06,32.08
23905,0.2079,-0.0165,0.8972,-6.93,7.54,-0.06,32.09
23915,0.1781,-0.0316,0.885,-6.85,8.26,0.06,32.1
23925,0.1792,-0.0266,0.8787,-6.79,8.64,0.0,32.09
23935,0.2076,-0.0117,0.9076,-6.85,8.43,0.05,32.1
23945,0.2133,-0.0197,0.9067,-6.93,8.49,-0.08,32.11
23955,0.1855,-0.0344,0.8707,-6.95,8.05,-0.03,32.1
23965,0.1835,-0.0244,0.8641,-6.95,7.92,-0.05,32.09
23977,0.1879,-0.0219,0.891,-6.92,8.05,-0.05,32.09
23987,0.2086,-0.0148,0.9182,-6.81,8.11,-0.03,32.08
24000,0.2115,-0.0236,0.9128,-6.87,8.02,-0.02,32.1
24012,0.2051,-0.0243,0.9052,-6.87,8.18,-0.03,32.09
24024,0.1982,-0.0269,0.8923,-6.82,7.77,-0.05,32.09
24036,0.1938,-0.0243,0.8848,-6.73,8.53,-0.05,32.08
24048,0.1938,-0.0199,0.8937,-6.87,8.02,-0.06,32.12
24058,0.2118,-0.0143,0.9171,-6.92,8.32,-0.03,32.09
24068,0.1956,-0.0239,0.8719,-6.93,8.5,0.0,32.08
24078,0.1747,-0.0337,0.8606,-6.9,7.68,0.03,32.1
24088,0.1948,-0.0156,0.8986,-6.82,8.32,0.03,32.11
24098,0.2354,-0.0099,0.918,-6.87,7.82,-0.02,32.11
24108,0.2,-0.0216,0.894,-6.95,7.71,-0.08,32.09
24120,0.2067,-0.0269,0.8896,-6.93,7.63,-0.03,32.11
24132,0.1938,-0.0223,0.8712,-6.92,7.63,-0.03,32.13
24142,0.1954,-0.0251,0.8794,-6.87,7.45,-0.03,32.1
24152,0.189,-0.0227,0.9077,-6.92,7.57,-0.14,32.09
24162,0.1891,-0.0234,0.906,-6.9,9.16,0.05,32.07
24172,0.204,-0.0176,0.8849,-6.92,7.88,-0.03,32.1
24182,0.1952,-0.0193,0.9089,-6.96,8.08,-0.02,32.11
24193,0.1914,-0.0197,0.8981,-6.92,7.63,-0.18,32.09
24203,0.1879,-0.0304,0.863,-6.89,7.92,-0.02,32.07
24216,0.1669,-0.0311,0.8717,-6.9,8.9,-0.05,32.11
24228,0.1667,-0.0311,0.8617,-6.82,8.31,-0.05,32.12
24238,0.2054,-0.0127,0.9067,-6.82,7.83,-0.02,32.08
24248,0.2157,-0.014,0.9193,-6.95,8.29,-0.08,32.1
24258,0.186,-0.028,0.8821,-6.87,8.64,-0.03,32.09
24268,0.1761,-0.027,0.8699,-6.87,8.34,-0.05,32.07
24278,0.2098,-0.0134,0.8927,-6.89,8.08,-0.08,32.08
24288,0.2167,-0.0198,0.9053,-6.89,6.99,-0.08,32.1
24302,0.1979,-0.0194,0.9158,-6.84,9.24,-0.08,32.09
24312,0.205,-0.0186,0.8801,-6.9,7.07,-0.12,32.1
24322,0.1927,-0.0193,0.8976,-6.85,8.14,-0.08,32.1
24332,0.2075,-0.0206,0.8883,-6.93,7.82,-0.14,32.08
24348,0.212,-0.0171,0.9005,-6.92,7.71,0.0,32.09
24358,0.2057,-0.0195,0.8915,-7.02,7.69,-0.03,32.1
24368,0.1848,-0.0345,0.873,-6.9,7.51,-0.15,32.07
24378,0.1746,-0.0223,0.8722,-6.9,7.39,-0.03,32.12
24388,0.2216,-0.0122,0.9108,-6.76,8.08,0.02,32.12
24398,0.1997,-0.0203,0.9066,-6.92,7.79,-0.03,32.09
24408,0.1752,-0.0354,0.8723,-6.87,8.6,-0.03,32.09
24418,0.1847,-0.0238,0.8712,-6.93,7.37,-0.06,32.11
24432,0.1714,-0.0283,0.8754,-6.87,7.95,-0.03,32.11
24442,0.2063,-0.015,0.8993,-6.92,7.51,-0.03,32.09
24456,0.1882,-0.0201,0.8853,-6.89,7.94,-0.03,32.12
24466,0.2045,-0.0164,0.9066,-6.85,7.82,-0.03,32.11
24476,0.2026,-0.0199,0.8901,-6.93,8.32,-0.06,32.11
24486,0.2134,-0.0172,0.8804,-6.85,7.25,-0.08,32.11
24496,0.1918,-0.0188,0.8962,-6.93,7.57,0.02,32.12
24506,0.1783,-0.0278,0.8845,-6.85,8.56,-0.02,32.1
24516,0.2029,-0.0209,0.8745,-6.82,7.88,-0.03,32.12
24526,0.2216,-0.0073,0.9069,-6.84,7.02,-0.05,32.1
24540,0.1785,-0.0173,0.9187,-6.89,8.35,0.03,32.09
24552,0.1975,-0.0148,0.9335,-6.85,7.91,-0.03,32.11
24562,0.2035,-0.014,0.9138,-6.98,10.02,-0.08,32.11
24572,0.2125,-0.0292,0.8472,-6.87,7.33,-0.06,32.12
24582,0.1742,-0.0242,0.8654,-6.85,6.34,-0.06,32.11
24592,0.197,-0.0177,0.917,-6.85,8.34,-0.05,32.11
24602,0.2063,-0.016,0.9099,-6.89,8.18,-0.15,32.11
24612,0.1979,-0.0243,0.8914,-6.93,8.12,-0.06,32.11
24622,0.1975,-0.0216,0.8748,-6.95,7.82,-0.03,32.11
24632,0.1897,-0.0283,0.8945,-6.92,7.3,-0.06,32.12
24642,0.1687,-0.026,0.9014,-6.92,9.44,-0.09,32.09
24652,0.2227,-0.0199,0.8857,-6.82,7.77,0.03,32.11
24662,0.2012,-0.0098,0.9242,-6.92,7.21,-0.06,32.13
24672,0.1788,-0.0287,0.9028,-6.96,10.35,-0.11,32.12
24684,0.1692,-0.0311,0.8784,-6.87,9.63,-0.09,32.12
24698,0.186,-0.0289,0.8877,-7.01,7.62,-0.11,32.1
24708,0.1665,-0.0319,0.8676,-6.81,9.1,0.08,32.13
24718,0.1996,-0.0201,0.8903,-6.81,7.63,-0.06,32.12
24732,0.1951,-0.0151,0.8862,-6.89,7.65,0.02,32.11
24744,0.1899,-0.0178,0.8826,-6.84,7.6,-0.11,32.1
24754,0.1952,-0.021,0.9198,-6.93,8.95,-0.03,32.09
24764,0.1974,-0.0198,0.8938,-6.92,9.22,-0.05,32.11
24780,0.2024,-0.0251,0.8848,-6.93,7.27,-0.03,32.09
24794,0.1896,-0.0242,0.881,-6.9,8.79,-0.09,32.12
24805,0.1904,-0.0221,0.8789,-6.85,8.58,-0.03,32.12
24816,0.2119,-0.0151,0.9023,-6.96,7.86,-0.02,32.11
24826,0.2087,-0.0143,0.9153,-6.98,8.03,-0.09,32.13
24836,0.1947,-0.031,0.879,-7.01,7.82,-0.05,32.12
24846,0.1615,-0.0284,0.8767,-6.98,8.78,-0.08,32.11
24856,0.2128,-0.0145,0.8984,-6.82,8.66,-0.09,32.1
24866,0.2209,-0.012,0.9091,-6.92,7.31,-0.12,32.1
24876,0.1814,-0.0258,0.8954,-6.87,8.79,-0.11,32.12
24887,0.1754,-0.0256,0.8785,-6.87,9.18,-0.03,32.14
24897,0.2037,-0.0208,0.8817,-6.85,7.69,-0.05,32.11
24907,0.1993,-0.0172,0.9092,-6.92,7.92,-0.12,32.12
24917,0.1951,-0.0197,0.9055,-6.93,8.85,0.02,32.14
24927,0.2026,-0.0171,0.8757,-6.95,8.29,-0.09,32.13
24937,0.2094,-0.0203,0.8861,-6.87,7.25,-0.02,32.12
24948,0.1969,-0.0232,0.8881,-7.01,8.24,-0.08,32.14
24960,0.1869,-0.031,0.8867,-6.87,8.2,-0.06,32.13
24970,0.1914,-0.0239,0.8867,-6.82,7.47,0.02,32.12
24984,0.1737,-0.0295,0.8765,-6.87,8.58,-0.05,32.13
24998,0.1838,-0.0282,0.8661,-6.73,7.25,0.03,32.12
25008,0.1996,-0.0143,0.9148,-6.82,7.95,-0.08,32.12
25020,0.2139,-0.0143,0.9087,-6.82,7.59,0.06,32.12
25032,0.2051,-0.0144,0.9198,-6.89,8.03,0.0,32.14
25044,0.2178,-0.0195,0.9095,-6.84,7.63,-0.08,32.11
25056,0.2057,-0.0179,0.9005,-6.9,8.2,-0.02,32.11
25066,0.1981,-0.0206,0.876,-6.93,7.85,-0.05,32.13
25080,0.196,-0.0161,0.9011,-6.92,7.73,0.02,32.1
25092,0.1981,-0.014,0.9031,-6.95,8.09,-0.03,32.11
25102,0.2024,-0.0237,0.8772,-6.87,8.24,-0.15,32.15
25112,0.1848,-0.0284,0.87,-6.93,7.34,-0.12,32.14
25122,0.202,-0.0183,0.8973,-6.79,7.48,-0.06,32.14
25132,0.2101,-0.0145,0.9198,-6.87,7.68,-0.06,32.13
25142,0.1741,-0.026,0.9,-7.04,9.54,-0.05,32.12
25152,0.1884,-0.0299,0.8545,-6.98,8.63,-0.03,32.12
25164,0.1782,-0.0273,0.8737,-6.93,8.76,0.0,32.12
25176,0.1732,-0.0188,0.8904,-6.87,8.49,0.06,32.09
25188,0.1917,-0.0192,0.9073,-6.87,7.5,0.03,32.1
25198,0.2019,-0.0193,0.9073,-6.9,9.27,0.05,32.12
25208,0.2092,-0.0236,0.8705,-6.92,7.44,0.05,32.14
25224,0.201,-0.0236,0.8875,-6.84,7.04,-0.05,32.11
25234,0.1854,-0.0143,0.9146,-6.9,9.48,0.0,32.1
25244,0.2139,-0.0214,0.8784,-6.87,8.96,-0.02,32.12
25254,0.2047,-0.0283,0.8708,-6.82,6.7,-0.14,32.13
25264,0.1833,-0.0175,0.8953,-6.92,7.6,-0.06,32.12
25274,0.214,-0.0111,0.9088,-6.92,8.79,-0.14,32.13
25284,0.2109,-0.0139,0.8879,-6.93,8.44,-0.08,32.12
25295,0.2025,-0.0258,0.873,-6.92,8.26,-0.06,32.12
25305,0.1992,-0.0249,0.8542,-6.78,6.79,-0.05,32.13
25315,0.2017,-0.0156,0.9138,-6.93,7.18,-0.05,32.11
25325,0.1996,-0.0142,0.9174,-7.05,9.37,-0.05,32.12
25335,0.2129,-0.0314,0.8615,-6.95,7.68,-0.02,32.12
25345,0.1835,-0.0232,0.8726,-6.93,6.6,-0.03,32.1
25356,0.1903,-0.0205,0.8972,-6.92,7.47,-0.05,32.13
25368,0.1963,-0.0219,0.8894,-6.82,7.28,-0.03,32.13
25381,0.1957,-0.0254,0.8856,-6.87,7.92,-0.06,32.14
25392,0.1948,-0.0304,0.8884,-6.89,7.73,-0.05,32.11
25407,0.1738,-0.0239,0.8783,-6.98,6.73,-0.05,32.12
25417,0.1887,-0.0146,0.9049,-6.78,8.32,-0.09,32.09
25427,0.2238,-0.0059,0.9092,-6.75,8.5,-0.15,32.13
25437,0.2108,-0.0175,0.8948,-6.85,7.6,-0.14,32.12
25447,0.16,-0.0261,0.8804,-6.98,8.79,-0.02,32.1
25457,0.1885,-0.0277,0.8909,-7.01,8.12,0.02,32.12
25467,0.2021,-0.0193,0.9211,-7.02,8.96,0.02,32.12
25477,0.207,-0.0245,0.8876,-6.81,8.63,0.0,32.11
25488,0.1909,-0.024,0.8734,-6.81,8.24,-0.02,32.14
25499,0.1958,-0.0192,0.88,-6.82,7.94,0.0,32.13
25510,0.197,-0.0192,0.8804,-7.1,7.4,-0.08,32.13
25520,0.196,-0.0365,0.9031,-6.85,7.1,-0.11,32.13
25530,0.1766,-0.0217,0.9128,-6.85,9.05,-0.05,32.11
25540,0.2167,-0.016,0.9001,-6.93,9.1,0.06,32.12
25557,0.1899,-0.019,0.8795,-6.75,7.83,-0.05,32.11
25567,0.2212,-0.0046,0.9117,-6.98,7.92,-0.03,32.14
25581,0.2147,-0.0118,0.9015,-6.95,7.83,-0.06,32.11
25591,0.199,-0.0179,0.9065,-7.07,9.01,-0.11,32.13
25601,0.1913,-0.0331,0.8644,-6.92,8.15,-0.12,32.12
25611,0.1899,-0.0208,0.8794,-6.9,7.45,-0.08,32.13
25621,0.2043,-0.0077,0.918,-6.9,8.14,-0.09,32.11
25631,0.2025,-0.0222,0.8931,-6.87,8.44,-0.03,32.14
25641,0.1882,-0.025,0.8662,-6.98,7.79,-0.05,32.14
25651,0.194,-0.0223,0.8811,-6.87,7.4,-0.08,32.15
25661,0.1879,-0.0242,0.9006,-6.76,7.59,-0.06,32.13
25677,0.1997,-0.0225,0.8812,-6.89,7.34,-0.08,32.11
25687,0.1873,-0.0261,0.8938,-6.87,7.82,-0.06,32.11
25698,0.1891,-0.0258,0.8771,-6.85,7.22,-0.02,32.13
25708,0.2124,-0.0106,0.9062,-6.79,8.89,-0.05,32.13
25722,0.1915,-0.006,0.9218,-6.82,7.8,-0.05,32.13
25732,0.2019,-0.0122,0.9199,-6.93,10.09,-0.05,32.11
25742,0.2015,-0.0291,0.8596,-6.89,7.76,-0.03,32.09
25752,0.1807,-0.0253,0.8842,-6.93,7.18,0.02,32.13
25762,0.2042,-0.0151,0.9127,-6.85,8.5,0.02,32.15
25772,0.2094,-0.0157,0.9036,-7.07,8.12,-0.09,32.14
25782,0.2024,-0.0216,0.8656,-6.87,8.15,-0.06,32.14
25792,0.1945,-0.0258,0.875,-6.89,7.24,-0.02,32.15
25802,0.1943,-0.0212,0.8971,-6.89,8.52,-0.03,32.14
25812,0.2275,-0.0261,0.8763,-6.93,5.82,-0.02,32.12
25822,0.1587,-0.0222,0.9347,-6.95,9.71,-0.05,32.14
25832,0.2294,-0.0188,0.8641,-6.92,8.56,-0.03,32.14
25842,0.1913,-0.0205,0.866,-6.9,5.94,-0.09,32.13
25852,0.165,-0.0275,0.9015,-6.85,8.18,0.02,32.14
25862,0.196,-0.0105,0.9192,-6.9,9.53,-0.06,32.15
25872,0.2368,-0.0244,0.8862,-6.9,7.1,-0.05,32.14
25882,0.1421,-0.03,0.9139,-7.16,9.39,-0.08,32.16
25892,0.2155,-0.0234,0.8524,-6.76,8.2,0.02,32.16
25902,0.2194,-0.0128,0.8799,-6.92,5.97,-0.02,32.14
25912,0.1952,-0.0183,0.9286,-6.87,10.12,-0.09,32.13
25922,0.2076,-0.0297,0.8617,-7.01,8.06,-0.02,32.12
25932,0.189,-0.0166,0.8796,-6.82,7.08,-0.06,32.14
25942,0.1912,-0.0239,0.9034,-6.84,8.63,-0.12,32.13
25952,0.205,-0.0232,0.8868,-6.87,7.63,-0.08,32.12
25962,0.1995,-0.0155,0.8892,-6.89,7.69,-0.03,32.13
25972,0.2039,-0.0197,0.8895,-6.85,7.85,-0.06,32.14
25982,0.187,-0.0245,0.8828,-6.93,7.69,-0.12,32.14
25992,0.1818,-0.0225,0.8872,-6.87,8.49,-0.03,32.15
26002,0.2178,-0.0181,0.8914,-6.9,7.6,-0.12,32.12
26012,0.1901,-0.0198,0.9141,-6.95,8.23,-0.09,32.14
26022,0.1757,-0.0281,0.9019,-6.92,9.25,-0.02,32.11
26034,0.172,-0.0304,0.8883,-6.81,9.18,-0.05,32.13
26044,0.2096,-0.0188,0.8765,-6.95,6.55,0.0,32.15
26054,0.1946,-0.0179,0.9255,-6.87,8.5,-0.03,32.14
26064,0.1953,-0.0276,0.8942,-6.9,8.95,-0.12,32.14
26074,0.1852,-0.0276,0.8708,-6.87,8.0,-0.05,32.12
26084,0.1937,-0.0206,0.884,-6.9,7.94,-0.05,32.14
26094,0.1984,-0.0199,0.9047,-6.84,7.68,0.02,32.12
26106,0.2081,-0.022,0.8881,-6.9,6.67,-0.05,32.15
26118,0.2074,-0.0184,0.8734,-6.82,6.64,-0.02,32.15
26128,0.1936,-0.0264,0.9052,-6.7,9.4,-0.08,32.13
26138,0.2106,0.0035,0.876,-7.19,4.37,-0.12,32.13
26148,0.1986,-0.0314,0.869,-6.66,12.03,-0.09,32.15
26158,0.1964,-0.0278,0.8633,-6.87,3.82,0.03,32.14
26168,0.201,-0.0305,0.9071,-6.85,9.1,-0.02,32.13
26178,0.1965,-0.0275,0.894,-7.18,8.73,-0.15,32.15
26188,0.1917,-0.0127,0.8523,-6.92,9.22,-0.08,32.14
26198,0.2219,-0.0415,0.8517,-6.6,5.28,0.14,32.13
26208,0.1384,-0.0125,1.0128,-7.16,10.6,0.02,32.13
26218,0.2596,0.0144,0.8722,-6.81,7.4,-0.08,32.14
26228,0.1655,-0.0145,0.894,-7.05,7.44,-0.06,32.15
26238,0.1805,-0.0254,0.8774,-7.21,8.9,-0.23,32.13
26250,0.1736,-0.0372,0.9039,-7.1,8.64,-0.23,32.14
26263,0.1654,-0.0398,0.9169,-6.98,9.18,0.05,32.12
26274,0.1755,-0.0197,0.8945,-6.87,10.23,-0.02,32.12
26286,0.1665,-0.0062,0.8903,-6.99,9.05,-0.03,32.15
26298,0.1787,-0.0134,0.871,-6.92,9.15,-0.02,32.15
26310,0.1978,-0.0176,0.8846,-6.84,9.02,-0.06,32.14
26331,0.2324,-0.0316,0.8947,-6.79,7.42,-0.11,32.14
26347,0.1951,-0.0138,0.9338,-6.95,8.63,0.05,32.15
26358,0.1989,-0.0273,0.9108,-6.84,9.44,0.08,32.14
26368,0.1932,-0.022,0.8776,-7.11,6.9,0.06,32.15
26382,0.1887,-0.0179,0.8861,-6.78,8.96,0.02,32.14
26394,0.199,-0.0177,0.8854,-6.89,8.5,-0.08,32.17
26404,0.2177,-0.0234,0.8794,-6.93,7.36,-0.09,32.16
26419,0.1816,-0.0238,0.9117,-6.98,8.9,-0.11,32.14
26429,0.1992,-0.0317,0.8834,-6.93,9.05,-0.06,32.14
26439,0.1855,-0.0321,0.8628,-6.92,7.3,-0.02,32.14
26454,0.1934,-0.0217,0.8813,-6.95,8.21,-0.09,32.14
26464,0.1774,-0.0205,0.8735,-6.79,7.76,0.0,32.13
26478,0.1799,-0.0258,0.8646,-6.84,8.58,0.0,32.15
26490,0.186,-0.0291,0.8792,-6.79,8.73,-0.05,32.13
26500,0.2129,-0.0123,0.9192,-6.89,7.5,-0.06,32.14
26510,0.2227,-0.0088,0.8987,-6.96,8.29,-0.08,32.14
26520,0.1923,-0.0248,0.8832,-6.9,8.67,-0.11,32.14
26530,0.2061,-0.0244,0.8694,-6.95,7.05,-0.08,32.13
26540,0.1963,-0.0114,0.8945,-6.89,7.59,0.03,32.13
26550,0.1886,-0.0175,0.9033,-6.92,8.63,0.0,32.14
26562,0.1621,-0.0267,0.9061,-7.04,8.95,-0.03,32.14
26572,0.2222,-0.014,0.8789,-7.01,7.71,0.03,32.12
26582,0.1991,-0.019,0.9005,-6.89,7.53,-0.03,32.14
26598,0.1903,-0.0184,0.9207,-6.81,8.29,-0.12,32.14
26610,0.2059,-0.0085,0.9266,-6.85,8.15,-0.02,32.17
26620,0.2041,-0.0267,0.8777,-6.96,8.03,-0.06,32.15
26630,0.1704,-0.0308,0.8717,-6.96,7.86,-0.08,32.15
26640,0.1975,-0.022,0.8861,-6.79,8.12,-0.03,32.14
26650,0.2168,-0.0184,0.9116,-6.89,7.31,0.02,32.17
26660,0.1899,-0.0166,0.9108,-6.93,8.78,-0.03,32.13
26670,0.1838,-0.024,0.8835,-7.01,8.58,0.0,32.14
26680,0.1941,-0.0267,0.8842,-6.95,7.83,-0.02,32.16
26690,0.1987,-0.0217,0.8987,-6.95,8.4,-0.08,32.16
26700,0.2026,-0.0183,0.8912,-6.79,7.86,-0.06,32.16
26710,0.2,-0.0118,0.8993,-6.82,7.95,-0.11,32.14
26720,0.2048,-0.0154,0.8939,-6.98,8.58,-0.03,32.12
26730,0.1859,-0.0293,0.8635,-6.95,7.48,-0.03,32.12
26740,0.1846,-0.0249,0.8817,-6.95,7.85,-0.03,32.15
26750,0.2186,-0.0144,0.8959,-6.82,7.73,-0.09,32.14
26760,0.2092,-0.0186,0.9058,-7.01,7.77,-0.05,32.16
26770,0.1816,-0.0265,0.8694,-6.96,8.69,-0.06,32.17
26780,0.2026,-0.03,0.8605,-6.85,6.73,-0.03,32.17
26790,0.1951,-0.0177,0.9218,-6.82,7.42,-0.05,32.14
26800,0.2097,-0.021,0.9127,-6.92,8.82,-0.05,32.16
26814,0.2012,-0.0187,0.9116,-6.93,7.57,-0.09,32.17
26824,0.1986,-0.0228,0.8949,-6.89,8.87,-0.05,32.17
26838,0.1973,-0.0165,0.9055,-6.87,8.6,-0.05,32.15
26850,0.1849,-0.0142,0.9056,-6.84,8.79,0.0,32.16
26860,0.2188,-0.0192,0.9014,-6.93,8.21,0.03,32.13
26874,0.1982,-0.0181,0.9142,-6.89,9.08,-0.06,32.15
26886,0.2058,-0.0149,0.9111,-6.9,8.69,-0.11,32.15
26898,0.2122,-0.0145,0.9061,-6.98,8.41,-0.08,32.18
26908,0.1848,-0.0272,0.8679,-6.93,7.77,-0.03,32.15
26918,0.1935,-0.0221,0.8689,-6.92,7.51,-0.05,32.2
26928,0.2186,-0.0194,0.8962,-6.9,7.15,0.03,32.17
26938,0.1974,-0.0209,0.9099,-7.04,7.5,-0.02,32.15
26948,0.1802,-0.027,0.8889,-6.89,9.34,-0.03,32.16
26958,0.2045,-0.0229,0.8704,-6.85,7.45,-0.03,32.16
26968,0.2008,-0.0194,0.9039,-6.93,7.04,0.02,32.17
26978,0.1918,-0.0234,0.902,-6.87,8.52,-0.05,32.15
26988,0.1912,-0.0179,0.8939,-6.96,8.66,-0.09,32.18
26998,0.2043,-0.0165,0.8837,-6.93,8.7,-0.08,32.15
27008,0.1991,-0.0229,0.8688,-6.93,7.33,-0.02,32.16
27018,0.1792,-0.0197,0.8923,-6.87,8.18,0.02,32.15
27033,0.1923,-0.027,0.87,-6.96,7.6,-0.11,32.16
27043,0.1948,-0.0215,0.8993,-6.92,7.63,0.02,32.16
27055,0.1978,-0.0162,0.9142,-6.87,8.82,-0.02,32.17
27066,0.2142,-0.0166,0.9121,-6.78,9.04,-0.09,32.13
27076,0.2051,-0.0277,0.8781,-6.96,7.25,-0.09,32.15
27086,0.1675,-0.032,0.8907,-6.9,8.12,-0.08,32.14
27096,0.192,-0.0195,0.895,-6.84,9.18,-0.06,32.18
27106,0.2136,-0.0242,0.9054,-6.89,7.73,-0.11,32.18
27116,0.1898,-0.0236,0.9047,-6.84,8.69,-0.08,32.16
27127,0.1926,-0.027,0.899,-6.76,8.52,-0.08,32.14
27138,0.2018,-0.017,0.8788,-6.9,8.14,0.02,32.14
27148,0.1823,-0.0215,0.889,-6.98,7.85,-0.08,32.14
27158,0.1815,-0.0221,0.8934,-6.93,8.9,-0.06,32.18
27168,0.2097,-0.0153,0.9015,-6.96,7.69,-0.08,32.16
27178,0.2028,-0.0116,0.9086,-6.93,8.93,-0.08,32.18
27188,0.2097,-0.0276,0.8593,-6.9,7.42,-0.11,32.17
27198,0.1746,-0.0271,0.8795,-6.9,7.25,0.0,32.16
27208,0.2024,-0.0221,0.91,-6.76,9.04,0.06,32.17
27222,0.1942,-0.0215,0.8864,-6.89,6.56,-0.11,32.17
27236,0.2042,-0.0223,0.8671,-6.9,7.48,-0.09,32.17
27246,0.1959,-0.0168,0.9186,-6.87,8.72,-0.06,32.17
27258,0.1876,-0.0166,0.906,-6.89,8.26,-0.08,32.15
27270,0.1797,-0.0186,0.9105,-6.92,9.15,-0.02,32.17
27282,0.1697,-0.0096,0.9119,-7.07,9.13,-0.03,32.18
27292,0.2218,-0.0132,0.875,-7.11,7.39,0.02,32.16
27306,0.1931,-0.0126,0.917,-6.93,8.89,-0.02,32.15
27316,0.2114,-0.0269,0.8912,-6.99,7.62,-0.02,32.16
27330,0.21,-0.0189,0.9114,-6.99,7.31,-0.05,32.15
27343,0.2174,-0.0258,0.9032,-7.04,8.06,-0.08,32.15
27353,0.1782,-0.031,0.8896,-6.95,8.49,-0.11,32.18
27366,0.2026,-0.0367,0.8583,-6.85,7.11,-0.06,32.16
27376,0.1865,-0.0242,0.908,-6.85,8.67,-0.14,32.18
27390,0.2012,-0.0186,0.8704,-6.92,7.34,0.0,32.17
27400,0.1947,-0.0176,0.908,-6.98,8.75,-0.08,32.17
27414,0.1942,-0.0134,0.8896,-7.04,7.39,0.02,32.18
27426,0.1779,-0.0215,0.8912,-7.07,7.6,-0.03,32.15
27436,0.2029,-0.0135,0.894,-6.96,8.67,-0.02,32.14
27446,0.2147,-0.004,0.8976,-7.11,7.65,-0.08,32.15
27456,0.1956,-0.0107,0.8871,-7.19,7.95,-0.03,32.18
27466,0.1715,-0.0221,0.8728,-7.25,8.03,-0.03,32.16
27476,0.1904,-0.0182,0.8953,-7.16,8.6,0.03,32.17
27486,0.2373,-0.0256,0.8895,-7.02,7.28,-0.02,32.15
27498,0.2288,-0.0277,0.9078,-6.85,9.25,0.03,32.19
27508,0.1813,-0.0316,0.8859,-7.05,7.6,-0.06,32.16
27518,0.1824,-0.0294,0.8792,-6.99,8.69,0.02,32.15
27528,0.2163,-0.0276,0.8955,-7.05,7.34,0.0,32.15
27538,0.2043,-0.0286,0.9017,-6.92,7.4,-0.05,32.17
27548,0.1903,-0.0278,0.8859,-6.81,8.52,-0.05,32.17
27558,0.2021,-0.0226,0.8809,-6.79,8.12,-0.06,32.16
27568,0.1946,-0.0167,0.8901,-6.79,8.08,-0.02,32.16
27578,0.1925,-0.0146,0.8778,-6.85,7.37,-0.03,32.18
27588,0.191,-0.0114,0.8964,-6.89,7.47,-0.06,32.18
27598,0.2041,-0.006,0.9142,-6.89,8.76,0.02,32.16
27608,0.2062,-0.0187,0.8785,-6.93,8.06,-0.08,32.17
27618,0.1733,-0.0272,0.8683,-6.84,7.28,-0.02,32.17
27630,0.1908,-0.0233,0.8672,-6.87,6.96,-0.09,32.19
27640,0.2056,-0.0167,0.9073,-6.92,7.54,-0.08,32.17
27650,0.2075,-0.0166,0.9128,-6.99,8.32,-0.02,32.16
27667,0.1945,-0.024,0.9147,-6.92,8.18,0.08,32.16
27678,0.2002,-0.0229,0.9177,-6.92,9.27,-0.05,32.18
27688,0.2223,-0.0288,0.8755,-6.81,7.6,-0.03,32.17
27698,0.1945,-0.0145,0.8887,-6.85,7.45,-0.03,32.18
27708,0.1967,-0.0192,0.8959,-6.95,8.73,0.02,32.17
27718,0.1989,-0.0249,0.8711,-6.95,7.74,0.02,32.14
27728,0.1982,-0.0221,0.8889,-6.85,7.48,-0.03,32.15
27738,0.2118,-0.0154,0.8997,-6.84,7.36,-0.06,32.17
27748,0.1937,-0.02,0.9054,-6.89,8.24,0.0,32.21
27758,0.1804,-0.0266,0.8679,-6.81,8.44,0.0,32.17
27774,0.2086,-0.0193,0.8823,-7.04,7.1,-0.02,32.17
27784,0.1687,-0.0256,0.8778,-6.96,8.27,0.08,32.17
27798,0.1796,-0.0281,0.8695,-6.81,7.53,-0.05,32.18
27808,0.1835,-0.0276,0.8936,-6.81,8.21,-0.03,32.15
27822,0.1912,-0.0228,0.8772,-6.82,7.6,-0.03,32.17
27832,0.2046,-0.0171,0.903,-6.87,7.65,-0.08,32.19
27842,0.2057,-0.0186,0.8887,-6.87,7.92,-0.06,32.16
27852,0.2013,-0.0195,0.8846,-6.98,7.83,0.02,32.17
27862,0.2015,-0.017,0.8906,-6.9,8.0,-0.03,32.17
27872,0.1993,-0.04,0.8864,-6.79,8.35,0.0,32.18
27882,0.1721,-0.019,0.9042,-6.87,7.19,-0.08,32.16
27894,0.2079,-0.0184,0.8721,-6.92,7.04,0.0,32.18
27907,0.229,-0.0151,0.8574,-6.9,6.96,-0.05,32.18
27917,0.2063,-0.0165,0.9172,-6.93,6.38,0.03,32.17
27927,0.1886,-0.0167,0.9125,-6.99,10.2,-0.06,32.17
27942,0.2323,-0.0195,0.9027,-6.66,8.72,-0.03,32.18
27955,0.2312,-0.0189,0.9023,-6.78,8.79,0.02,32.17
27967,0.2164,-0.0204,0.8911,-7.02,8.21,-0.05,32.15
27978,0.2047,-0.0139,0.8855,-7.01,8.21,0.02,32.14
27988,0.1929,-0.0194,0.8809,-6.92,8.08,-0.03,32.15
27998,0.1987,-0.0233,0.8815,-6.95,7.44,-0.11,32.17
28008,0.1726,-0.0223,0.8983,-6.89,8.66,-0.05,32.16
28018,0.2069,-0.0236,0.8829,-6.82,8.47,0.02,32.17
28028,0.2142,-0.0175,0.9069,-6.95,6.7,-0.08,32.2
28038,0.1849,-0.0237,0.916,-6.96,9.37,-0.05,32.18
28053,0.233,-0.0165,0.9021,-6.95,8.12,-0.09,32.17
28063,0.1891,-0.0272,0.8793,-6.99,7.33,-0.06,32.19
28074,0.1901,-0.0332,0.8643,-6.89,7.16,-0.06,32.2
28086,0.2015,-0.0344,0.8546,-6.82,7.62,-0.03,32.2
28096,0.1893,-0.0259,0.9181,-6.82,7.36,-0.03,32.17
28106,0.2029,-0.0223,0.9166,-6.78,9.73,-0.06,32.21
28116,0.2244,-0.0248,0.8684,-6.92,6.82,-0.06,32.18
28126,0.1885,-0.0187,0.8883,-6.84,7.6,-0.14,32.17
28136,0.2026,-0.016,0.8911,-6.95,8.6,-0.05,32.16
28146,0.1954,-0.0223,0.8861,-6.89,8.02,-0.03,32.18
28156,0.1951,-0.0222,0.8944,-6.79,7.89,-0.06,32.17
28166,0.2131,-0.0149,0.9045,-6.9,7.39,-0.09,32.18
28176,0.1893,-0.0275,0.9097,-6.95,8.79,-0.06,32.19
28186,0.1882,-0.0355,0.8563,-6.87,8.72,-0.05,32.19
28196,0.1942,-0.0267,0.87,-6.73,6.56,-0.09,32.17
28206,0.1964,-0.0072,0.929,-6.81,8.69,-0.08,32.16
28216,0.2172,-0.0148,0.9034,-6.98,8.85,-0.14,32.2
28226,0.178,-0.0226,0.8682,-6.99,7.51,-0.12,32.19
28242,0.2057,-0.0193,0.907,-6.87,8.43,-0.06,32.19
28252,0.177,-0.0273,0.8785,-6.89,8.61,-0.02,32.16
28262,0.1909,-0.0248,0.8785,-6.87,8.73,-0.05,32.19
28272,0.2197,-0.0204,0.8778,-6.87,7.08,-0.03,32.19
28282,0.1902,-0.017,0.9058,-6.96,7.27,-0.03,32.2
28292,0.1771,-0.0148,0.9125,-7.01,8.96,0.02,32.2
28302,0.2253,-0.0171,0.8785,-7.01,7.85,-0.05,32.2
28312,0.1984,-0.0247,0.8861,-7.04,7.4,-0.05,32.2
28328,0.2117,-0.0184,0.9193,-6.87,8.95,-0.06,32.2
28338,0.2062,-0.0323,0.8809,-6.93,8.17,-0.09,32.2
28348,0.1694,-0.0326,0.88,-6.93,8.24,-0.02,32.2
28358,0.1995,-0.0222,0.9048,-6.81,8.53,0.03,32.19
28374,0.1843,-0.0271,0.8632,-6.84,7.45,-0.02,32.18
28386,0.1946,-0.0222,0.8773,-6.87,7.77,-0.06,32.2
28396,0.2064,-0.016,0.9047,-6.85,8.18,-0.05,32.16
28406,0.2056,-0.0217,0.8937,-6.92,7.98,-0.08,32.2
28416,0.1902,-0.0209,0.8801,-6.84,8.2,-0.05,32.19
28426,0.1975,-0.0211,0.8904,-6.82,7.92,-0.05,32.2
28436,0.1936,-0.0249,0.8843,-6.81,8.29,-0.08,32.2
28446,0.1914,-0.0236,0.8837,-6.73,8.21,-0.05,32.22
28459,0.1887,-0.0201,0.8835,-6.84,8.41,-0.03,32.19
28469,0.2202,-0.0137,0.8849,-6.87,7.22,-0.09,32.2
28479,0.2056,-0.0175,0.9023,-6.84,7.68,-0.09,32.2
28495,0.2145,-0.0151,0.915,-6.76,7.21,-0.05,32.18
28506,0.2113,-0.0146,0.9252,-6.93,7.92,-0.06,32.19
28516,0.187,-0.0225,0.881,-7.01,8.63,-0.09,32.2
28526,0.2013,-0.0293,0.8632,-6.93,7.42,-0.03,32.23
28543,0.1951,-0.0222,0.8844,-6.92,7.6,-0.02,32.21
28555,0.183,-0.0242,0.8876,-6.89,7.63,-0.03,32.19
28566,0.1969,-0.0267,0.8794,-6.82,8.06,-0.09,32.2
28576,0.1918,-0.0278,0.8981,-6.99,7.54,-0.12,32.18
28586,0.1813,-0.0266,0.9098,-6.87,8.89,-0.03,32.18
28596,0.2062,-0.0162,0.8925,-6.93,8.98,-0.09,32.19
28606,0.2181,-0.0157,0.8964,-6.99,7.21,-0.05,32.2
28616,0.1754,-0.0236,0.9004,-6.98,8.46,-0.06,32.19
28626,0.1818,-0.0256,0.8782,-6.79,8.98,-0.02,32.21
28636,0.2095,-0.009,0.8947,-6.84,7.73,-0.03,32.2
28646,0.2111,-0.0138,0.9084,-6.85,8.21,-0.05,32.19
28656,0.2012,-0.0181,0.8828,-6.95,8.38,-0.03,32.2
28666,0.1831,-0.0209,0.8784,-6.95,7.66,-0.09,32.18
28676,0.2025,-0.0092,0.8995,-6.98,8.38,-0.03,32.19
28686,0.2158,-0.0171,0.9058,-6.93,8.46,0.0,32.19
28698,0.2045,-0.0226,0.8917,-7.04,8.34,-0.08,32.2
28708,0.1965,-0.0264,0.8752,-6.93,8.15,-0.09,32.21
28718,0.2018,-0.0278,0.8802,-6.84,7.31,-0.03,32.22
28728,0.1912,-0.028,0.9113,-6.85,8.09,-0.09,32.17
28738,0.2035,-0.0291,0.8894,-6.87,8.96,-0.03,32.19
28748,0.222,-0.0186,0.8862,-6.84,6.53,-0.06,32.19
28758,0.203,-0.0149,0.9055,-6.96,7.28,-0.12,32.19
28768,0.1978,-0.0265,0.8678,-6.92,8.37,-0.11,32.19
28778,0.1968,-0.0258,0.8595,-6.87,7.28,0.02,32.2
28794,0.1927,-0.0267,0.8677,-6.84,7.39,-0.09,32.22
28806,0.1792,-0.0247,0.8654,-6.85,8.4,-0.02,32.2
28818,0.181,-0.0233,0.8639,-6.87,8.47,-0.08,32.21
28830,0.1936,-0.0186,0.873,-6.84,8.43,0.0,32.21
28842,0.1909,-0.0186,0.8851,-6.98,8.7,-0.08,32.22
28855,0.1945,-0.0222,0.8915,-6.93,8.29,-0.05,32.21
28865,0.1987,-0.022,0.8887,-6.96,6.96,-0.03,32.2
28878,0.2017,-0.0304,0.8846,-6.95,8.26,0.02,32.19
28890,0.1951,-0.0237,0.8899,-6.92,7.71,-0.02,32.19
28900,0.2103,-0.0103,0.9139,-6.95,8.34,-0.09,32.2
28910,0.2084,-0.0203,0.8981,-6.95,8.23,-0.06,32.2
28926,0.2141,-0.0131,0.9111,-6.93,7.39,0.03,32.18
28938,0.2245,-0.0214,0.916,-6.89,7.68,-0.06,32.18
28950,0.2162,-0.0203,0.9125,-6.89,8.2,0.0,32.19
28962,0.2162,-0.0192,0.8895,-6.9,8.24,-0.05,32.21
28972,0.1812,-0.0264,0.876,-6.98,7.71,-0.03,32.18
28982,0.1899,-0.0164,0.8922,-6.98,8.58,0.0,32.2
28992,0.2186,-0.0172,0.8889,-6.85,7.95,-0.08,32.19
29002,0.1953,-0.0225,0.8964,-6.84,7.25,-0.06,32.22
29012,0.1823,-0.0229,0.9081,-6.87,9.5,-0.14,32.2
29022,0.213,-0.0267,0.8779,-6.95,8.2,0.02,32.21
29035,0.2042,-0.0249,0.8878,-6.87,8.85,-0.11,32.18
29045,0.1799,-0.0315,0.8613,-6.96,7.16,-0.06,32.2
29058,0.1967,-0.0316,0.8624,-6.85,7.68,-0.08,32.19
29068,0.1681,-0.0248,0.8827,-6.93,6.93,0.03,32.17
29078,0.1998,-0.0125,0.9275,-6.81,9.68,-0.02,32.21
29088,0.2195,-0.0184,0.8977,-6.95,8.09,-0.05,32.21
29098,0.1843,-0.0315,0.8834,-6.96,7.63,-0.05,32.22
29108,0.1829,-0.0275,0.8777,-6.81,8.2,-0.06,32.19
29118,0.1973,-0.0217,0.9054,-7.01,7.77,-0.09,32.19
29130,0.1875,-0.0177,0.9075,-6.85,7.54,-0.08,32.21
29142,0.1808,-0.0199,0.9065,-6.85,7.57,-0.11,32.21
29152,0.1886,-0.0155,0.894,-6.82,9.53,-0.06,32.22
29166,0.1836,-0.0212,0.8928,-6.89,7.05,-0.09,32.21
29176,0.2014,-0.0154,0.9128,-6.79,8.52,-0.09,32.21
29186,0.2046,-0.0211,0.8964,-6.96,8.55,-0.09,32.2
29196,0.1801,-0.0293,0.8695,-6.87,7.98,-0.02,32.19
29206,0.1907,-0.0237,0.8746,-6.85,7.24,-0.05,32.19
29216,0.1997,-0.0125,0.9215,-6.85,8.47,-0.08,32.17
29226,0.2119,-0.014,0.8971,-6.95,8.58,-0.02,32.22
29238,0.2054,-0.0166,0.8855,-6.93,7.83,-0.06,32.2
29250,0.193,-0.0232,0.8733,-6.99,8.02,-0.08,32.22
29260,0.1945,-0.0248,0.879,-6.87,7.85,-0.05,32.2
29276,0.1967,-0.0256,0.8933,-6.89,8.81,0.02,32.22
29286,0.2003,-0.0248,0.894,-6.96,7.97,-0.03,32.22
29298,0.1936,-0.0227,0.8961,-6.99,7.88,-0.03,32.21
29310,0.1884,-0.0217,0.8845,-6.96,7.97,-0.08,32.21
29322,0.1803,-0.0267,0.8768,-6.93,8.49,-0.08,32.21
29332,0.2019,-0.0211,0.8689,-6.89,7.44,0.02,32.2
29342,0.2112,-0.0173,0.9155,-6.87,7.54,-0.09,32.21
29352,0.1984,-0.021,0.9044,-6.92,9.02,-0.08,32.21
29362,0.1954,-0.028,0.8514,-6.84,7.33,0.0,32.2
29372,0.1798,-0.0243,0.8856,-6.93,7.33,0.06,32.22
29382,0.2024,-0.0161,0.9121,-6.9,8.58,0.03,32.19
29394,0.1997,-0.0144,0.9127,-6.84,8.31,-0.12,32.21
29406,0.2003,-0.0199,0.9098,-6.82,8.43,-0.12,32.21
29416,0.1921,-0.0195,0.895,-6.92,8.23,-0.11,32.19
29426,0.2001,-0.0256,0.8911,-6.92,8.76,0.02,32.22
29442,0.2076,-0.0199,0.8973,-6.85,7.98,-0.06,32.22
29452,0.1956,-0.0195,0.8965,-6.87,8.66,-0.12,32.19
29466,0.2139,-0.0135,0.9059,-6.93,8.0,0.02,32.19
29476,0.1899,-0.0265,0.8695,-7.01,8.49,0.0,32.22
29492,0.2048,-0.0212,0.9006,-6.98,8.12,0.0,32.22
29502,0.1737,-0.0297,0.899,-6.9,8.7,-0.03,32.2
