t_ms,accel_x_g,accel_y_g,accel_z_g,gyro_x_dps,gyro_y_dps,gyro_z_dps,imu_temp_c
3274,0.1853,-0.0375,0.8975,-6.31,7.89,-0.05,25.53
3284,0.1897,-0.0383,0.8899,-6.24,7.57,-0.06,25.54
3294,0.1871,-0.0421,0.9023,-6.23,7.68,0.0,25.53
3304,0.1907,-0.0392,0.8979,-6.26,8.14,-0.05,25.53
3314,0.1886,-0.0402,0.8967,-6.29,8.08,-0.12,25.52
3324,0.1904,-0.0352,0.8928,-6.23,8.02,-0.08,25.52
3334,0.1858,-0.0414,0.8927,-6.27,8.05,-0.08,25.53
3344,0.1859,-0.0421,0.8932,-6.29,8.67,-0.08,25.54
3354,0.2048,-0.0408,0.8732,-6.23,7.92,0.02,25.55
3364,0.1925,-0.0405,0.8759,-6.24,6.9,-0.06,25.53
3374,0.179,-0.0425,0.8856,-6.21,7.89,-0.05,25.56
3384,0.1859,-0.0417,0.8818,-6.17,8.17,-0.03,25.54
3394,0.1895,-0.0377,0.8855,-6.24,7.48,-0.08,25.52
3404,0.1917,-0.0394,0.8888,-6.2,7.24,0.02,25.54
3414,0.1868,-0.0413,0.8984,-6.17,7.45,-0.02,25.54
3424,0.1729,-0.0422,0.9105,-6.27,8.49,0.0,25.56
3434,0.1947,-0.0406,0.8922,-6.17,8.63,-0.02,25.52
3444,0.1981,-0.0432,0.8892,-6.12,7.27,-0.09,25.54
3454,0.1895,-0.0394,0.8937,-6.21,7.31,-0.08,25.54
3464,0.1882,-0.0394,0.8873,-6.2,8.12,-0.02,25.54
3474,0.1881,-0.0409,0.8796,-6.17,7.71,0.02,25.55
3484,0.1857,-0.0381,0.8884,-6.14,7.19,0.02,25.54
3494,0.1851,-0.0349,0.8936,-6.23,7.77,-0.11,25.54
3504,0.187,-0.0352,0.8912,-6.15,7.86,-0.03,25.56
3514,0.1904,-0.0354,0.8959,-6.26,7.48,-0.06,25.53
3524,0.1913,-0.0341,0.9102,-6.32,7.94,-0.02,25.54
3534,0.1868,-0.0438,0.9062,-6.31,8.55,-0.02,25.55
3544,0.189,-0.0422,0.8848,-6.23,8.31,0.05,25.57
3554,0.1893,-0.0409,0.8806,-6.2,7.4,0.0,25.55
3564,0.1843,-0.041,0.8877,-6.18,7.71,-0.09,25.56
3574,0.1825,-0.0419,0.8871,-6.2,8.24,0.02,25.53
3584,0.1844,-0.043,0.8837,-6.12,8.12,0.02,25.56
3594,0.1888,-0.0348,0.8875,-6.26,7.74,-0.02,25.54
3604,0.1924,-0.0327,0.8861,-6.21,7.51,-0.03,25.57
3614,0.1962,-0.0393,0.8951,-6.29,7.37,-0.11,25.54
3624,0.1898,-0.0353,0.9062,-6.27,7.66,-0.11,25.54
3634,0.1901,-0.0383,0.9048,-6.38,7.88,-0.12,25.57
3644,0.1882,-0.0435,0.8973,-6.29,8.27,0.02,25.56
3654,0.188,-0.0441,0.8898,-6.31,8.26,-0.02,25.59
3664,0.1914,-0.0443,0.8862,-6.26,7.83,0.0,25.57
3674,0.1882,-0.0425,0.8871,-6.27,8.03,-0.09,25.54
3684,0.1903,-0.0421,0.8829,-6.4,7.73,-0.12,25.57
3694,0.1895,-0.0493,0.886,-6.26,7.65,-0.05,25.58
3704,0.1901,-0.0468,0.8885,-6.26,7.98,-0.09,25.55
3714,0.1891,-0.0476,0.885,-6.26,7.82,-0.08,25.58
3724,0.1921,-0.0392,0.8854,-6.17,7.53,-0.02,25.58
3734,0.1855,-0.0394,0.8925,-6.29,7.82,-0.03,25.56
3744,0.1884,-0.0387,0.8937,-6.15,8.05,-0.02,25.55
3754,0.1965,-0.0319,0.8926,-6.17,7.68,-0.12,25.57
3764,0.1935,-0.0369,0.8962,-6.27,7.39,-0.11,25.55
3774,0.1794,-0.038,0.9022,-6.27,7.94,-0.09,25.54
3784,0.181,-0.0404,0.9014,-6.34,8.38,-0.06,25.56
3794,0.1902,-0.0394,0.8877,-6.41,8.17,-0.02,25.57
3804,0.1915,-0.0417,0.8893,-6.29,7.68,-0.08,25.56
3814,0.1818,-0.04,0.884,-6.18,8.18,0.03,25.57
3824,0.1897,-0.0409,0.8792,-6.23,8.0,0.0,25.55
3834,0.1926,-0.0404,0.8815,-6.23,7.54,-0.06,25.56
3844,0.1899,-0.0371,0.8857,-6.29,7.62,0.05,25.57
3854,0.1903,-0.0415,0.8939,-6.35,7.82,-0.03,25.58
3864,0.1936,-0.0374,0.8965,-6.24,7.77,-0.08,25.58
3874,0.1896,-0.0387,0.9065,-6.34,7.92,-0.03,25.57
3884,0.189,-0.048,0.9038,-6.27,8.11,-0.02,25.56
3894,0.1898,-0.0428,0.8992,-6.31,7.92,-0.06,25.57
3904,0.1819,-0.0427,0.8907,-6.34,8.38,-0.12,25.57
3914,0.1947,-0.0435,0.8698,-6.2,7.69,-0.06,25.58
3924,0.1801,-0.0398,0.8883,-6.18,7.5,-0.02,25.58
3934,0.1823,-0.0406,0.8806,-6.15,7.74,0.02,25.59
3944,0.1865,-0.0364,0.885,-6.15,7.48,-0.03,25.57
3954,0.1826,-0.0315,0.8989,-6.24,8.15,-0.12,25.56
3964,0.2025,-0.0325,0.8905,-6.34,7.92,-0.05,25.56
3974,0.2008,-0.0376,0.8948,-6.2,6.7,-0.03,25.56
3984,0.1753,-0.0417,0.918,-6.31,8.31,-0.05,25.59
3994,0.1835,-0.0437,0.9036,-6.34,9.33,-0.02,25.61
4004,0.2006,-0.043,0.8879,-6.29,8.06,-0.06,25.61
4014,0.1893,-0.0452,0.8882,-6.24,7.71,-0.06,25.59
4024,0.1735,-0.0413,0.8784,-6.24,8.18,-0.03,25.59
4034,0.1851,-0.0421,0.8756,-6.18,8.23,-0.05,25.59
4044,0.1982,-0.0392,0.8748,-6.31,7.37,-0.02,25.61
4054,0.1871,-0.0337,0.8915,-6.21,7.22,-0.08,25.55
4064,0.1903,-0.035,0.8969,-6.12,7.8,-0.08,25.59
4074,0.202,-0.0388,0.9015,-6.17,7.5,0.03,25.58
4084,0.1807,-0.0383,0.9094,-6.27,8.12,-0.08,25.61
4094,0.1837,-0.0452,0.9003,-6.35,9.11,-0.05,25.59
4104,0.2123,-0.0366,0.8895,-6.27,7.95,-0.08,25.58
4114,0.2079,-0.0413,0.8839,-6.26,7.66,-0.03,25.58
4124,0.1719,-0.0508,0.8829,-6.27,7.68,-0.02,25.57
4134,0.198,-0.0402,0.8921,-6.21,8.26,-0.02,25.59
4144,0.1934,-0.0449,0.891,-6.27,8.27,-0.09,25.58
4154,0.1766,-0.0503,0.8673,-6.24,7.66,0.0,25.6
4164,0.182,-0.0438,0.877,-6.09,7.65,-0.06,25.59
4174,0.1974,-0.0363,0.896,-6.18,7.68,-0.08,25.56
4184,0.1777,-0.0443,0.8729,-6.02,7.68,-0.05,25.59
4194,0.1738,-0.0447,0.881,-6.14,7.5,-0.09,25.6
4204,0.2048,-0.0283,0.9116,-6.21,7.88,-0.09,25.59
4214,0.192,-0.0364,0.8903,-6.29,7.5,-0.17,25.59
4224,0.1772,-0.0479,0.877,-6.18,6.76,-0.06,25.58
4234,0.1833,-0.0338,0.9202,-6.2,7.69,-0.14,25.58
4244,0.1963,-0.0347,0.9181,-6.21,8.95,-0.09,25.59
4254,0.1914,-0.0458,0.8655,-6.26,7.77,-0.05,25.61
4264,0.1888,-0.0398,0.8779,-6.31,6.93,-0.03,25.59
4274,0.189,-0.0349,0.9264,-6.27,8.34,0.02,25.59
4284,0.1865,-0.0449,0.8834,-6.27,8.44,0.0,25.59
4294,0.1838,-0.0459,0.8628,-6.11,7.57,-0.02,25.61
4304,0.1964,-0.032,0.8953,-6.2,7.31,-0.02,25.59
4314,0.1984,-0.04,0.9026,-6.31,7.85,-0.11,25.59
4324,0.1793,-0.0492,0.8829,-6.35,8.05,-0.06,25.6
4334,0.1818,-0.0396,0.9005,-6.23,7.57,-0.02,25.59
4344,0.189,-0.0343,0.9227,-6.24,8.27,-0.08,25.62
4354,0.1931,-0.0475,0.9044,-6.21,8.78,-1.36,25.6
4364,0.192,-0.0474,0.8829,-6.21,7.4,-0.18,25.59
4374,0.1836,-0.0367,0.8939,-6.18,7.73,-0.08,25.59
4384,0.1727,-0.0408,0.8845,-6.26,8.82,-0.05,25.6
4394,0.1848,-0.0411,0.8706,-6.05,8.17,0.0,25.59
4404,0.2075,-0.0278,0.8822,-6.12,7.45,0.02,25.6
4414,0.2021,-0.0286,0.8767,-6.32,6.84,-0.08,25.59
4424,0.1754,-0.0352,0.8848,-6.29,7.21,-0.11,25.57
4434,0.1948,-0.0372,0.9026,-6.17,7.13,-0.03,25.62
4444,0.1957,-0.0376,0.9406,-6.38,7.98,-0.03,25.59
4454,0.1805,-0.0442,0.9054,-6.38,9.5,-0.02,25.61
4464,0.1832,-0.0525,0.8713,-6.26,8.32,-0.11,25.62
4474,0.2087,-0.0503,0.8918,-6.14,7.24,-0.05,25.59
4484,0.1946,-0.051,0.8962,-6.23,8.11,0.05,25.58
4494,0.1635,-0.0531,0.8601,-6.12,8.53,-0.03,25.59
4504,0.1704,-0.048,0.8671,-6.03,7.91,0.02,25.6
4514,0.2014,-0.032,0.8918,-6.15,7.69,-0.03,25.62
4524,0.1852,-0.0315,0.8842,-6.24,8.56,-0.09,25.6
4534,0.1876,-0.0312,0.8462,-6.17,6.02,-0.09,25.62
4544,0.1807,-0.0259,0.907,-6.12,6.41,-0.06,25.61
4554,0.196,-0.0321,0.9539,-6.41,8.63,-0.05,25.6
4564,0.1929,-0.0377,0.9082,-6.34,8.95,-0.05,25.61
4574,0.1853,-0.0404,0.8793,-6.27,7.63,-0.03,25.64
4584,0.181,-0.0398,0.8921,-6.26,7.66,-0.05,25.62
4594,0.1931,-0.0444,0.8958,-6.23,8.35,-0.08,25.6
4604,0.1885,-0.0463,0.8759,-6.23,8.06,-0.08,25.62
4614,0.1924,-0.0422,0.8684,-6.14,6.98,-0.03,25.64
4624,0.1932,-0.0428,0.8983,-6.2,7.08,-0.03,25.62
4634,0.1913,-0.0464,0.908,-6.26,7.98,-0.02,25.63
4644,0.189,-0.043,0.9022,-6.21,8.37,-0.11,25.62
4654,0.1956,-0.0374,0.9001,-6.14,8.08,-0.05,25.62
4664,0.1927,-0.0367,0.903,-6.17,8.46,-0.03,25.64
4674,0.1804,-0.042,0.8733,-6.2,8.41,-0.06,25.63
4684,0.1893,-0.0365,0.8673,-6.21,7.15,-0.05,25.63
4694,0.1942,-0.0275,0.8978,-6.23,6.93,-0.06,25.61
4704,0.1877,-0.035,0.9012,-6.37,7.88,-0.06,25.65
4714,0.1755,-0.0372,0.875,-6.26,8.05,-0.11,25.64
4724,0.1887,-0.0383,0.8995,-6.31,7.92,-0.02,25.62
4734,0.2113,-0.0398,0.9114,-6.32,7.5,-0.08,25.61
4744,0.1826,-0.0498,0.9062,-6.35,8.6,-0.06,25.62
4754,0.1693,-0.0463,0.8586,-6.34,8.4,0.0,25.65
4764,0.1824,-0.0474,0.8752,-6.21,8.12,0.0,25.62
4774,0.2054,-0.04,0.8939,-6.2,7.48,-0.08,25.64
4784,0.1906,-0.0427,0.8872,-6.26,7.31,-0.11,25.63
4794,0.1707,-0.0437,0.894,-6.23,7.89,-0.09,25.63
4804,0.1971,-0.0424,0.9015,-6.26,7.88,-0.06,25.63
4815,0.2001,-0.0364,0.9064,-6.27,8.38,-0.17,25.66
4825,0.2098,-0.0413,0.9089,-6.4,7.4,-0.2,25.63
4836,0.1902,-0.036,0.9033,-6.24,8.14,-0.05,25.63
4846,0.1914,-0.0381,0.8855,-6.32,7.74,-0.06,25.62
4856,0.1807,-0.0449,0.8951,-6.29,8.24,-0.11,25.63
4866,0.1929,-0.0444,0.8868,-6.32,7.94,-0.02,25.63
4876,0.1892,-0.0421,0.8768,-6.24,7.62,0.0,25.64
4886,0.1786,-0.0403,0.8732,-6.14,7.45,0.06,25.65
4896,0.1823,-0.0372,0.8817,-6.2,8.21,0.03,25.63
4906,0.1851,-0.036,0.8813,-6.2,7.68,-0.02,25.65
4916,0.1796,-0.0284,0.8835,-6.27,7.31,-0.06,25.65
4926,0.1899,-0.0283,0.9061,-6.2,7.94,-0.06,25.62
4936,0.2051,-0.0366,0.9144,-6.21,7.66,-0.02,25.64
4946,0.192,-0.0385,0.9004,-6.32,7.88,-0.05,25.63
4956,0.1787,-0.0471,0.8838,-6.34,7.65,-0.12,25.62
4966,0.1781,-0.0482,0.9028,-6.27,8.29,-0.08,25.62
4976,0.2065,-0.047,0.9142,-6.31,8.89,-0.06,25.63
4986,0.1962,-0.0422,0.8821,-6.27,7.92,-0.06,25.62
4996,0.1746,-0.0422,0.8573,-6.21,7.25,-0.05,25.65
5006,0.174,-0.0398,0.8777,-5.98,7.39,-0.09,25.63
5016,0.2042,-0.0325,0.9077,-6.2,7.28,-0.05,25.65
5026,0.1906,-0.035,0.9027,-6.32,8.21,0.03,25.63
5036,0.178,-0.038,0.8763,-6.31,7.53,-0.05,25.64
5046,0.1686,-0.0406,0.8978,-6.24,7.85,-0.06,25.64
5056,0.2046,-0.0375,0.9203,-6.24,8.29,-0.03,25.65
5066,0.2004,-0.0448,0.9082,-6.27,8.47,-0.05,25.66
5076,0.1943,-0.0426,0.8755,-6.23,7.95,-0.05,25.66
5086,0.1783,-0.0435,0.8781,-6.26,7.71,-0.15,25.66
5096,0.1968,-0.0397,0.8862,-6.18,8.02,-0.02,25.62
5106,0.1992,-0.0369,0.8861,-6.21,7.39,-0.03,25.64
5116,0.1904,-0.0463,0.8854,-6.31,7.47,-0.11,25.64
5126,0.1837,-0.037,0.8896,-6.2,8.11,-0.06,25.65
5136,0.187,-0.0366,0.8876,-6.18,8.12,0.0,25.63
5146,0.186,-0.0299,0.8793,-6.23,7.91,-0.14,25.62
5156,0.1892,-0.0354,0.8933,-6.15,7.42,-0.08,25.64
5166,0.2029,-0.0385,0.9093,-6.37,7.31,-0.06,25.64
5176,0.1908,-0.0392,0.9045,-6.24,8.27,-0.05,25.65
5186,0.1805,-0.041,0.8826,-6.23,8.44,-0.05,25.66
5196,0.1881,-0.0427,0.882,-6.2,7.59,-0.08,25.65
5206,0.2052,-0.0425,0.9171,-6.31,7.69,-0.05,25.65
5216,0.1891,-0.0427,0.8992,-6.31,9.08,-0.06,25.64
5226,0.1875,-0.0424,0.8517,-6.34,8.06,-0.02,25.65
5236,0.176,-0.0381,0.859,-6.15,6.82,-0.03,25.64
5246,0.2032,-0.0398,0.9059,-6.18,7.25,-0.14,25.63
5256,0.1992,-0.0374,0.91,-6.35,8.34,-0.08,25.64
5266,0.1893,-0.0446,0.8748,-6.31,7.73,-0.09,25.65
5276,0.1696,-0.0441,0.8794,-6.32,7.5,-0.06,25.66
5286,0.1877,-0.0442,0.9161,-6.12,8.41,-0.03,25.64
5296,0.2017,-0.0466,0.9023,-6.27,8.64,-0.02,25.64
5306,0.2012,-0.0461,0.8713,-6.4,7.39,-0.05,25.67
5316,0.1808,-0.0475,0.8794,-6.27,6.76,0.0,25.67
5326,0.1848,-0.0464,0.9003,-6.21,7.94,0.0,25.64
5336,0.197,-0.0449,0.8909,-6.4,8.38,0.02,25.67
5346,0.2065,-0.0486,0.8822,-6.21,7.28,-0.02,25.64
5356,0.1914,-0.0476,0.8905,-6.31,6.99,-0.09,25.65
5366,0.1882,-0.0479,0.894,-6.24,8.58,-0.12,25.63
5376,0.2039,-0.0496,0.8667,-6.31,7.47,-0.03,25.65
5386,0.1837,-0.0474,0.8892,-6.21,6.87,-0.06,25.65
5396,0.2057,-0.0492,0.8921,-6.08,7.31,-0.03,25.65
5406,0.1594,-0.0442,0.9174,-6.38,7.66,-0.08,25.67
5416,0.2104,-0.0408,0.8549,-6.11,9.59,-0.05,25.67
5426,0.1702,-0.0402,0.8793,-6.21,3.79,0.02,25.68
5436,0.1879,-0.0345,0.9242,-6.17,11.31,-0.09,25.66
5446,0.2302,-0.0333,0.8745,-6.17,5.42,0.03,25.65
5456,0.1556,-0.0377,0.8927,-6.38,8.08,-0.06,25.66
5466,0.175,-0.0427,0.8677,-6.21,8.24,0.02,25.67
5476,0.2086,-0.0354,0.9014,-6.24,6.38,0.0,25.66
5486,0.2001,-0.0394,0.9191,-6.2,7.48,0.03,25.69
5496,0.1899,-0.0377,0.8835,-6.4,8.32,-0.05,25.7
5506,0.1744,-0.0403,0.8765,-6.24,7.24,-0.17,25.66
5516,0.1925,-0.0234,0.8947,-6.29,7.33,-0.05,25.65
5526,0.1715,-0.0234,0.9781,-6.09,13.05,-0.09,25.67
5536,0.2622,-0.0399,0.8398,-6.23,-1.47,-0.09,25.67
5546,0.0992,-0.0449,0.9801,-6.43,18.56,-0.21,25.68
5556,0.2899,-0.0431,0.8102,-6.02,-3.04,0.02,25.67
5566,0.0862,-0.0463,1.0021,-6.53,17.71,-0.2,25.7
5576,0.2875,-0.0416,0.7998,-6.02,2.44,0.03,25.69
5586,0.1068,-0.0459,0.9484,-6.31,10.38,-0.09,25.68
5596,0.2484,-0.0464,0.8259,-6.17,8.64,0.03,25.68
5606,0.1627,-0.0441,0.8811,-6.06,4.43,0.02,25.7
5616,0.1626,-0.0444,0.89,-6.21,10.56,0.06,25.68
5626,0.213,-0.0344,0.8738,-6.11,5.44,0.06,25.67
5636,0.1775,-0.0315,0.9164,-6.23,8.18,-0.06,25.67
5646,0.1808,-0.0303,0.8806,-6.27,8.29,-0.08,25.69
5656,0.1831,-0.03,0.8883,-6.2,7.05,-0.08,25.68
5666,0.1975,-0.0321,0.9263,-6.26,7.44,-0.08,25.7
5676,0.2024,-0.0415,0.9249,-6.31,8.81,-0.12,25.71
5686,0.1854,-0.0479,0.8765,-6.35,8.12,-0.08,25.67
5696,0.1694,-0.0466,0.8772,-6.23,7.59,-0.05,25.71
5706,0.1935,-0.0483,0.9028,-6.17,8.24,-0.03,25.68
5716,0.1992,-0.0433,0.9066,-6.27,8.44,-0.06,25.68
5726,0.1935,-0.0372,0.8662,-6.24,7.76,-0.06,25.67
5736,0.1758,-0.0319,0.8704,-6.18,7.19,0.02,25.69
5746,0.2003,-0.032,0.8981,-6.06,7.1,-0.11,25.7
5756,0.1941,-0.0554,0.8816,-6.18,8.23,-0.17,25.71
5766,0.2728,-0.074,0.8463,-6.02,-6.18,0.17,25.68
5776,0.1521,-0.0063,0.9221,-7.02,22.7,-0.43,25.69
5786,0.2284,-0.0463,0.8381,-5.76,-2.27,0.06,25.69
5796,0.1025,-0.0706,0.9672,-6.81,19.8,-0.17,25.69
5806,0.2556,-0.0472,0.8099,-6.05,2.23,0.11,25.71
5816,0.1201,-0.0409,0.9355,-6.27,10.41,-0.09,25.69
5826,0.2393,-0.0432,0.8453,-6.12,8.35,0.05,25.68
5836,0.2247,-0.0471,0.8418,-6.0,3.15,0.0,25.69
5846,0.161,-0.0352,0.916,-6.37,12.15,-0.12,25.69
5856,0.2479,-0.0293,0.8591,-6.02,3.05,-0.03,25.7
5866,0.1375,-0.0389,0.9507,-6.37,9.73,-0.06,25.67
5876,0.2051,-0.0352,0.871,-6.21,8.08,-0.08,25.7
5886,0.1992,-0.0553,0.8652,-5.89,0.93,0.03,25.72
5896,0.1196,-0.0581,0.9895,-6.58,16.0,-0.15,25.7
5906,0.2693,-0.0463,0.8295,-6.23,5.28,-0.02,25.72
5916,0.13,-0.0513,0.9108,-6.35,8.15,-0.05,25.7
5926,0.2061,-0.0453,0.8608,-6.11,8.99,0.03,25.72
5936,0.2098,-0.0415,0.9028,-6.02,5.62,0.03,25.71
5946,0.182,-0.0404,0.8966,-6.27,10.14,-0.12,25.69
5956,0.1913,-0.0385,0.8422,-6.11,6.53,-0.08,25.72
5966,0.1727,-0.0347,0.8784,-6.08,6.24,-0.03,25.69
5976,0.1686,-0.0326,0.9258,-6.23,9.19,-0.08,25.7
5986,0.2024,-0.0297,0.8867,-6.21,7.48,-0.09,25.73
5996,0.172,-0.0366,0.9117,-6.34,7.37,-0.09,25.69
6006,0.1779,-0.0306,0.9154,-6.4,9.13,-0.08,25.69
6016,0.2142,-0.0359,0.899,-6.35,7.5,0.05,25.72
6026,0.176,-0.0464,0.9127,-6.26,8.37,-0.06,25.68
6036,0.1852,-0.046,0.912,-6.27,9.1,-0.05,25.7
6046,0.1995,-0.0409,0.8873,-6.24,7.97,-0.06,25.72
6056,0.2031,-0.0441,0.8588,-6.26,7.19,-0.02,25.71
6066,0.174,-0.0461,0.8721,-6.15,6.89,-0.05,25.69
6076,0.1705,-0.0392,0.9097,-6.14,8.67,-0.05,25.69
6086,0.2083,-0.037,0.8931,-6.15,8.63,-0.08,25.71
6096,0.1851,-0.0299,0.8756,-6.31,7.86,-0.05,25.66
6106,0.1913,-0.0344,0.8611,-6.15,7.01,-0.03,25.67
6116,0.1917,-0.0355,0.9055,-6.32,6.46,-0.03,25.68
6126,0.1978,-0.0361,0.9333,-6.29,9.05,-0.02,25.69
6136,0.2056,-0.0353,0.8943,-6.38,8.85,-0.02,25.71
6146,0.1688,-0.0432,0.8741,-6.24,7.19,-0.09,25.68
6156,0.1777,-0.0425,0.8876,-6.18,8.17,0.06,25.7
6166,0.2188,-0.0427,0.8916,-6.12,5.82,-0.03,25.72
6176,0.1595,-0.0398,0.9258,-6.5,10.38,-0.11,25.7
6186,0.2069,-0.0425,0.8459,-6.2,4.32,-0.03,25.71
6196,0.1522,-0.0483,0.9082,-6.18,7.15,-0.05,25.72
6206,0.1996,-0.0376,0.9028,-6.27,9.18,0.02,25.68
6216,0.2029,-0.045,0.8789,-6.24,7.01,-0.02,25.71
6226,0.1593,-0.0587,0.9001,-6.34,4.64,-0.02,25.71
6236,0.1304,-0.0508,0.9431,-6.64,15.34,-0.15,25.71
6246,0.2246,-0.0355,0.8754,-6.31,5.91,-0.02,25.73
6256,0.1655,-0.0353,0.9167,-6.32,10.6,-0.05,25.72
6266,0.233,-0.0333,0.8649,-6.17,7.07,0.02,25.73
6276,0.192,-0.0426,0.8923,-6.15,6.31,0.02,25.72
6286,0.1709,-0.0476,0.8962,-6.32,8.46,-0.06,25.72
6296,0.1814,-0.053,0.8676,-6.2,8.37,-0.08,25.71
6306,0.197,-0.0449,0.9042,-6.2,6.82,0.0,25.7
6316,0.1952,-0.0405,0.9205,-6.26,8.55,-0.06,25.7
6326,0.1853,-0.0442,0.8904,-6.4,8.72,-0.09,25.69
6336,0.3685,-0.1407,0.6449,-6.06,-3.19,-0.26,25.72
6346,-0.0674,-0.0968,0.9921,-7.86,19.51,-0.18,25.71
6356,0.2682,-0.0245,0.821,-5.74,5.34,0.18,25.71
6366,0.031,-0.0216,1.048,-6.63,12.08,-0.08,25.72
6376,0.3787,-0.0303,0.7196,-5.76,-2.79,0.11,25.7
6386,0.0748,-0.0405,0.9806,-6.4,13.63,-0.21,25.71
6396,0.1464,-0.0031,0.9224,-7.04,9.36,-0.08,25.73
6406,0.3284,-0.0612,0.8075,-5.77,9.25,-0.12,25.69
6416,0.0491,-0.0339,0.9813,-6.93,3.21,-0.12,25.71
6426,0.3269,-0.0392,0.7848,-5.92,10.78,-0.08,25.72
6436,0.103,-0.0485,1.0021,-6.31,4.21,-0.06,25.7
6446,0.2269,-0.0483,0.861,-6.66,13.94,-0.12,25.71
6456,0.1907,-0.0519,0.8872,-6.06,2.67,0.05,25.72
6466,0.1499,-0.0281,0.9076,-6.35,11.71,-0.02,25.7
6476,0.2871,-0.0316,0.8315,-5.8,-1.76,0.08,25.72
6486,0.0686,-0.0542,1.0101,-6.31,17.44,-0.14,25.69
6496,0.2935,-0.0588,0.7878,-6.11,1.54,0.03,25.73
6506,0.0906,-0.0251,0.9886,-6.6,13.73,-0.18,25.73
6516,0.3042,-0.0259,0.7577,-5.85,0.87,0.11,25.68
6526,0.0787,-0.0386,0.9818,-6.38,10.15,-0.09,25.71
6536,0.2952,-0.0374,0.8457,-6.21,6.84,0.05,25.71
6546,0.1449,-0.0417,0.9471,-6.31,5.48,-0.06,25.71
6556,0.1783,-0.0442,0.8698,-6.44,12.15,-0.11,25.72
6566,0.2076,-0.0431,0.8718,-6.26,4.0,0.02,25.72
6576,0.1724,-0.0404,0.9403,-6.31,9.76,-0.09,25.72
6586,0.2096,-0.037,0.8728,-6.26,8.82,-0.08,25.73
6596,0.1772,-0.0386,0.8486,-6.21,6.05,-0.03,25.73
6606,0.1744,-0.0348,0.8872,-6.24,7.95,0.02,25.72
6616,0.2223,-0.0349,0.8866,-6.21,7.74,-0.06,25.73
6626,0.1975,-0.0463,0.8826,-6.14,3.85,0.0,25.72
6636,0.1381,-0.0493,0.9099,-6.4,11.71,-0.12,25.7
6646,0.2227,-0.0396,0.8634,-6.21,4.47,0.02,25.72
6656,0.147,-0.0409,0.944,-6.29,9.95,-0.03,25.72
6666,0.2125,-0.042,0.8741,-6.35,8.58,-0.02,25.74
6676,0.1886,-0.0414,0.8997,-6.32,6.47,-0.05,25.74
6686,0.1874,-0.0397,0.917,-6.34,8.67,-0.08,25.72
6696,0.2069,-0.0505,0.8906,-6.2,7.57,-0.03,25.7
6706,0.1952,-0.0597,0.874,-6.06,4.29,-0.08,25.75
6716,0.1449,-0.0507,0.9453,-6.27,12.31,0.0,25.72
6726,0.2405,-0.0405,0.849,-6.15,7.01,0.03,25.7
6736,0.1564,-0.042,0.8781,-6.11,6.02,-0.05,25.76
6746,0.175,-0.0378,0.879,-6.21,10.09,-0.02,25.75
6756,0.2279,-0.0244,0.8837,-6.24,4.47,-0.03,25.74
6766,0.179,-0.0354,0.9105,-6.26,8.78,-0.03,25.74
6776,0.1808,-0.0281,0.8665,-6.38,7.76,-0.02,25.73
6786,0.2028,-0.0305,0.8878,-6.11,6.9,-0.11,25.72
6796,0.2125,-0.0405,0.9188,-6.23,6.72,-0.14,25.74
6806,0.1752,-0.0516,0.9124,-6.47,8.73,-0.03,25.74
6816,0.1636,-0.0436,0.8988,-6.38,9.15,-0.03,25.74
6826,0.2007,-0.0403,0.8757,-6.14,7.13,-0.06,25.75
6836,0.2067,-0.0432,0.9092,-6.18,7.54,0.0,25.73
6846,0.1791,-0.0436,0.8901,-6.21,9.1,0.08,25.72
6856,0.189,-0.0397,0.8513,-6.2,7.53,-0.09,25.72
6866,0.186,-0.0323,0.877,-6.11,6.55,-0.08,25.76
6876,0.1819,-0.036,0.9133,-6.24,7.76,-0.08,25.76
6886,0.1813,-0.0361,0.905,-6.29,8.27,0.0,25.74
6896,0.1975,-0.0367,0.9069,-6.26,7.62,-0.02,25.7
6906,0.1919,-0.0376,0.9067,-6.38,7.56,-0.06,25.73
6916,0.1777,-0.0453,0.8944,-6.26,8.47,-0.03,25.72
6926,0.1825,-0.0469,0.88,-6.23,8.05,-0.02,25.74
6936,0.1946,-0.0463,0.8925,-6.15,7.53,-0.02,25.73
6946,0.1909,-0.0424,0.8899,-6.34,8.08,-0.06,25.74
6956,0.1704,-0.0491,0.8801,-6.24,8.46,0.0,25.74
6966,0.2018,-0.0466,0.8829,-6.17,7.25,-0.06,25.74
6976,0.2092,-0.04,0.9163,-6.23,7.1,-0.02,25.74
6986,0.1835,-0.0392,0.8893,-6.31,8.43,0.06,25.73
6996,0.1643,-0.0452,0.8525,-6.14,7.95,-0.03,25.76
7006,0.1876,-0.0361,0.8848,-6.2,6.63,0.05,25.73
7017,0.204,-0.0347,0.9,-6.08,6.98,-0.02,25.75
7027,0.1881,-0.0353,0.9005,-6.26,7.5,-0.05,25.73
7037,0.1636,-0.0328,0.8761,-6.37,7.66,-0.02,25.74
7047,0.1836,-0.0349,0.8961,-6.17,7.83,-0.05,25.73
7057,0.198,-0.0315,0.9213,-6.29,7.62,-0.08,25.75
7067,0.1969,-0.0415,0.9153,-6.31,9.02,0.0,25.75
7077,0.1868,-0.0439,0.8827,-6.27,7.88,-0.06,25.74
7087,0.1906,-0.0475,0.8989,-6.34,8.03,-0.09,25.74
7097,0.1906,-0.0543,0.9038,-6.31,8.53,-0.03,25.75
7107,0.1718,-0.053,0.9062,-6.35,10.06,-0.05,25.74
7117,0.1959,-0.0402,0.8798,-6.32,9.39,0.0,25.71
7127,0.2107,-0.0236,0.8677,-6.23,8.66,-0.06,25.75
7137,0.2123,-0.0386,0.8604,-6.14,7.15,0.0,25.74
7147,0.1881,-0.0364,0.868,-6.27,5.31,-0.02,25.71
7157,0.1816,-0.035,0.9324,-6.31,9.76,-0.02,25.76
7167,0.2063,-0.0409,0.8806,-6.32,6.67,-0.05,25.74
7177,0.1804,-0.0533,0.8777,-6.2,7.16,-0.08,25.73
7187,0.1581,-0.0485,0.9182,-6.43,8.43,-0.08,25.75
7197,0.2,-0.0375,0.9144,-6.24,9.83,0.05,25.72
7207,0.1906,-0.0427,0.8757,-6.34,7.36,-0.11,25.73
7218,0.1761,-0.0413,0.8596,-6.29,6.76,-0.06,25.72
7228,0.1801,-0.0341,0.8905,-6.15,7.05,0.02,25.75
7238,0.2025,-0.0253,0.9235,-6.43,8.46,-0.11,25.73
7248,0.2045,-0.0388,0.8627,-6.18,7.13,-0.09,25.74
7258,0.1577,-0.0471,0.8857,-6.23,6.82,0.03,25.74
7268,0.193,-0.0372,0.8988,-6.11,8.5,-0.03,25.72
7278,0.2208,-0.0413,0.8966,-6.14,5.94,-0.02,25.74
7288,0.1414,-0.0361,0.9225,-6.41,9.85,-0.05,25.74
7298,0.2345,-0.042,0.8269,-5.89,7.56,0.03,25.77
7308,0.1442,-0.057,0.9293,-6.29,3.15,-0.02,25.75
7318,0.1635,-0.0615,0.9126,-6.32,11.91,-0.11,25.74
7328,0.1526,-0.0397,0.9462,-6.75,10.95,-0.05,25.77
7338,0.2931,-0.0144,0.8121,-6.15,6.72,0.02,25.74
7348,0.1635,-0.0173,0.9243,-6.38,5.91,-0.08,25.76
7358,0.2509,-0.0403,0.8318,-6.17,8.63,-0.05,25.74
7368,0.139,-0.0306,0.9845,-6.21,7.05,-0.11,25.74
7378,0.2479,-0.0349,0.8629,-6.23,10.03,-0.02,25.74
7388,0.1512,-0.0459,0.8981,-6.29,5.95,-0.05,25.74
7398,0.1362,-0.0504,0.8958,-6.31,11.45,-0.05,25.74
7408,0.2045,-0.0189,0.8931,-6.31,6.64,-0.09,25.77
7418,0.2142,-0.0233,0.8591,-6.2,9.48,-0.05,25.76
7428,0.1554,-0.0532,0.8807,-6.31,4.55,0.03,25.75
7438,0.2115,-0.0453,0.8652,-6.05,8.32,-0.05,25.75
7448,0.2042,-0.0758,0.9026,-6.21,-0.93,-0.06,25.74
7458,-0.0106,-0.0328,1.1058,-6.35,20.46,-0.06,25.76
7468,0.3081,-0.0469,0.7703,-5.85,-7.8,0.14,25.74
7478,0.0447,-0.0271,1.0277,-6.82,18.79,-0.18,25.79
7488,0.3235,-0.0341,0.8066,-6.12,11.94,-0.03,25.75
7498,0.071,-0.0482,0.9756,-6.58,12.08,-0.12,25.75
7508,0.255,-0.0391,0.7913,-6.21,7.31,-0.02,25.75
7518,0.2091,-0.0425,0.8684,-6.06,1.22,-0.02,25.75
7528,0.1489,-0.0391,0.9381,-6.34,12.34,-0.03,25.77
7538,0.2327,-0.0466,0.8533,-6.23,6.2,0.05,25.73
7548,0.1648,-0.0367,0.9021,-6.32,5.92,-0.02,25.74
7558,0.1873,-0.0354,0.9105,-6.29,10.63,0.06,25.76
7568,0.2128,-0.0405,0.8627,-6.24,4.79,0.0,25.74
7578,0.1467,-0.0387,0.9305,-6.35,9.16,0.0,25.74
7588,0.2161,-0.033,0.8896,-6.23,8.58,-0.05,25.75
7598,0.189,-0.0396,0.8937,-6.4,5.73,0.0,25.74
7608,0.1527,-0.0416,0.9011,-6.32,10.43,-0.06,25.74
7618,0.2163,-0.0394,0.8726,-6.15,6.6,0.05,25.77
7628,0.0443,-0.0444,1.0026,-6.73,14.21,-0.17,25.77
7638,0.2922,-0.052,0.7445,-6.23,7.56,0.11,25.77
7648,0.109,-0.0459,0.9431,-6.09,3.18,0.09,25.75
7658,0.224,-0.0316,0.916,-6.38,14.24,-0.14,25.75
7668,0.2369,-0.0311,0.9037,-6.12,1.97,0.05,25.78
7678,0.1316,-0.0474,0.9053,-6.44,12.69,-0.09,25.78
7688,0.2152,-0.0436,0.8417,-6.18,6.41,0.0,25.79
7698,0.1848,-0.033,0.9169,-6.21,7.44,0.05,25.77
7708,0.1908,-0.0417,0.9092,-6.31,9.53,-0.06,25.76
7718,0.191,-0.0405,0.8601,-6.24,6.81,-0.03,25.77
7728,0.1787,-0.0316,0.9041,-6.15,7.45,-0.12,25.76
7738,0.1943,-0.0364,0.9156,-6.24,8.85,-0.11,25.78
7748,0.2014,-0.0422,0.8871,-6.17,7.76,-0.09,25.76
7758,0.1794,-0.0389,0.8833,-6.34,7.34,-0.03,25.76
7768,0.1819,-0.0354,0.9017,-6.27,8.35,-0.11,25.77
7778,0.1884,-0.0367,0.9027,-6.37,8.66,-0.11,25.77
7788,0.1913,-0.0394,0.8824,-6.35,8.0,-0.06,25.76
7798,0.1913,-0.0337,0.8929,-6.37,8.21,-0.06,25.73
7808,0.1925,-0.0477,0.8763,-6.31,7.83,-0.03,25.74
7818,0.1632,-0.049,0.8867,-6.4,8.11,-0.09,25.75
7828,0.2043,-0.0441,0.8663,-6.08,7.92,0.02,25.74
7838,0.202,-0.0443,0.9088,-6.38,6.78,-0.09,25.77
7848,0.1816,-0.0455,0.8834,-6.32,8.38,-0.12,25.77
7858,0.1761,-0.0504,0.87,-6.26,7.21,0.02,25.77
7868,0.1892,-0.035,0.9132,-6.27,7.6,-0.03,25.77
7878,0.2021,-0.0319,0.924,-6.37,8.85,0.02,25.75
7888,0.1884,-0.0364,0.8732,-6.38,7.66,-0.06,25.76
7898,0.1803,-0.0389,0.8868,-6.15,6.84,-0.09,25.74
7908,0.1968,-0.0328,0.92,-6.24,8.44,-0.06,25.78
7918,0.2108,-0.0414,0.892,-6.2,7.68,-0.06,25.77
7928,0.1631,-0.0496,0.8893,-6.21,7.74,-0.08,25.77
7938,0.1748,-0.0419,0.8784,-6.06,8.56,0.08,25.76
7948,0.2046,-0.0509,0.8909,-6.09,7.48,0.02,25.76
7958,0.1813,-0.0562,0.8845,-6.31,8.73,-0.02,25.77
7968,0.1993,-0.0371,0.8535,-6.17,5.66,-0.05,25.78
7978,0.1699,-0.0371,0.908,-6.18,7.97,-0.06,25.78
7988,0.1929,-0.0426,0.9015,-6.24,8.49,-0.06,25.77
7998,0.1899,-0.0439,0.8888,-6.21,7.88,-0.14,25.79
8008,0.199,-0.0424,0.9004,-6.31,7.39,-0.05,25.77
8018,0.1887,-0.0397,0.91,-6.29,8.06,-0.02,25.77
8028,0.1853,-0.0454,0.8944,-6.31,8.61,-0.06,25.77
8038,0.1921,-0.0426,0.8861,-6.18,7.69,-0.08,25.76
8048,0.2032,-0.0327,0.89,-6.14,7.82,-0.03,25.76
8058,0.1882,-0.035,0.8594,-6.18,6.87,-0.08,25.77
8068,0.1451,-0.0369,0.8802,-6.29,7.88,-0.02,25.77
8078,0.1981,-0.0306,0.8976,-6.31,8.47,-0.11,25.77
8088,0.2144,-0.032,0.913,-6.37,7.18,-0.09,25.78
8098,0.1766,-0.0402,0.9005,-6.38,7.94,-0.03,25.76
8108,0.178,-0.0426,0.8859,-6.37,8.03,-0.06,25.76
8118,0.2057,-0.0394,0.9185,-6.29,8.08,-0.09,25.76
8128,0.2004,-0.0444,0.9032,-6.35,8.21,-0.02,25.8
8138,0.1675,-0.0515,0.8748,-6.24,7.98,0.05,25.79
8148,0.1781,-0.0443,0.8837,-6.15,9.05,-0.05,25.79
8158,0.2219,-0.0399,0.89,-6.24,6.98,0.03,25.77
8168,0.1815,-0.0466,0.8929,-6.12,7.59,-0.02,25.76
8178,0.1741,-0.0425,0.8768,-6.17,8.2,-0.02,25.79
8188,0.1963,-0.033,0.8944,-6.17,7.4,-0.12,25.79
8198,0.2031,-0.0388,0.8967,-6.31,7.6,-0.05,25.78
8208,0.1812,-0.0433,0.8926,-6.29,7.65,-0.05,25.78
8218,0.1818,-0.0378,0.8988,-6.12,8.0,-0.05,25.77
8228,0.1915,-0.0381,0.897,-6.2,8.24,-0.05,25.79
8238,0.1984,-0.0398,0.8711,-6.2,6.64,-0.05,25.76
8248,0.1735,-0.0374,0.8944,-6.23,6.84,-0.02,25.78
8258,0.1832,-0.0359,0.9126,-6.26,9.94,0.08,25.8
8268,0.2081,-0.0343,0.8798,-6.38,6.99,-0.08,25.77
8278,0.1748,-0.0396,0.8861,-6.18,6.99,-0.15,25.77
8288,0.1857,-0.0398,0.9081,-6.31,7.97,0.0,25.79
8298,0.2026,-0.0342,0.9141,-6.34,8.72,-0.02,25.77
8308,0.1884,-0.0405,0.8844,-6.35,7.89,-0.06,25.79
8318,0.1737,-0.0413,0.8811,-6.31,7.47,0.02,25.78
8328,0.2013,-0.0339,0.9165,-6.23,8.08,-0.15,25.77
8338,0.2057,-0.0422,0.901,-6.35,8.18,-0.06,25.77
8348,0.1661,-0.0487,0.873,-6.31,7.57,-0.08,25.77
8358,0.1757,-0.0454,0.8871,-6.2,8.43,-0.11,25.78
8368,0.2054,-0.0358,0.9043,-6.21,7.73,0.0,25.78
8378,0.1968,-0.0452,0.8778,-6.24,7.94,0.02,25.78
8388,0.1692,-0.0449,0.8652,-6.27,7.37,-0.03,25.78
8398,0.1982,-0.0239,0.8942,-6.21,7.79,-0.08,25.79
8408,0.2114,-0.03,0.9071,-6.31,7.47,-0.03,25.77
8418,0.1868,-0.0402,0.9022,-6.4,7.79,-0.05,25.77
8428,0.1769,-0.0334,0.9041,-6.38,7.65,-0.09,25.77
8438,0.1837,-0.0387,0.917,-6.38,9.47,-0.09,25.77
8448,0.1886,-0.0458,0.8757,-6.35,8.37,0.03,25.77
8458,0.1921,-0.0424,0.8727,-6.32,7.71,-0.02,25.78
8468,0.1891,-0.0419,0.8923,-6.34,7.79,-0.02,25.76
8478,0.1849,-0.0459,0.8756,-6.24,7.74,-0.11,25.77
8488,0.1807,-0.0508,0.8743,-6.26,7.39,0.0,25.77
8498,0.1938,-0.0461,0.8975,-6.2,7.53,-0.05,25.77
8508,0.1936,-0.0381,0.8969,-6.27,7.59,-0.05,25.78
8518,0.1644,-0.0422,0.8793,-6.15,8.58,-0.02,25.78
8528,0.1938,-0.0414,0.8716,-6.23,7.44,-0.03,25.77
8538,0.2084,-0.0334,0.905,-6.21,6.84,-0.08,25.78
8548,0.1873,-0.0354,0.899,-6.31,7.91,-0.05,25.78
8558,0.1718,-0.0408,0.8727,-6.34,7.76,-0.06,25.79
8568,0.2012,-0.0343,0.9094,-6.2,7.33,-0.05,25.79
8578,0.2114,-0.0287,0.9249,-6.27,7.44,-0.03,25.78
8588,0.1858,-0.0477,0.8982,-6.34,8.84,-0.02,25.79
8598,0.1777,-0.0452,0.8662,-6.35,7.94,-0.05,25.79
8608,0.1976,-0.0343,0.8914,-6.32,7.76,-0.09,25.78
8618,0.2041,-0.0496,0.8811,-6.18,8.23,-0.03,25.79
8628,0.1932,-0.0516,0.8599,-6.31,5.69,-0.08,25.79
8638,0.1643,-0.0454,0.8969,-6.27,8.11,-0.12,25.79
8648,0.1992,-0.0421,0.8881,-6.32,8.21,-0.05,25.79
8658,0.1979,-0.047,0.8802,-6.32,6.99,-0.02,25.8
8668,0.1897,-0.0421,0.8865,-6.18,7.47,-0.06,25.79
8678,0.1948,-0.0239,0.8998,-6.24,7.71,-0.03,25.79
8688,0.1844,-0.0339,0.8999,-6.24,8.44,0.0,25.79
8698,0.1931,-0.0428,0.8849,-6.34,7.69,-0.06,25.79
8708,0.1965,-0.0356,0.9012,-6.26,6.66,-0.06,25.78
8718,0.1854,-0.0391,0.9197,-6.32,8.43,-0.06,25.8
8728,0.1754,-0.0431,0.8789,-6.34,8.49,-0.08,25.78
8738,0.1936,-0.0433,0.8875,-6.27,7.65,-0.12,25.81
8748,0.2047,-0.0443,0.911,-6.43,7.66,-0.05,25.77
8758,0.1945,-0.0471,0.8916,-6.27,8.56,-0.09,25.79
8768,0.1512,-0.0497,0.8514,-6.34,6.55,-0.18,25.8
8778,0.1913,-0.0438,0.8903,-5.95,11.8,-0.03,25.79
8788,0.2328,-0.0327,0.8807,-6.09,1.82,0.03,25.77
8798,0.146,-0.0471,0.9371,-6.37,12.49,-0.15,25.79
8808,0.2343,-0.037,0.8356,-6.17,3.47,-0.09,25.77
8818,0.158,-0.031,0.9493,-6.12,9.54,-0.02,25.8
8828,0.2249,-0.0354,0.8994,-6.35,8.87,0.02,25.79
8838,0.2034,-0.0393,0.8811,-6.31,7.21,-0.03,25.78
8848,0.1676,-0.047,0.8954,-6.24,8.23,-0.03,25.79
8858,0.1987,-0.0374,0.8861,-6.32,8.18,-0.06,25.77
8868,0.1974,-0.0387,0.8846,-6.11,7.31,0.03,25.79
8878,0.179,-0.0459,0.8745,-6.2,7.45,0.0,25.78
8888,0.1879,-0.0419,0.8832,-6.29,7.27,0.05,25.8
8898,0.1835,-0.0349,0.8954,-6.2,7.68,-0.06,25.8
8908,0.1783,-0.0428,0.8993,-6.31,8.0,-0.05,25.79
8918,0.1902,-0.0365,0.9004,-6.21,7.76,-0.08,25.78
8928,0.2019,-0.0352,0.9146,-6.35,7.89,-0.02,25.78
8938,0.1881,-0.0414,0.8929,-6.4,8.32,-0.02,25.8
8948,0.1868,-0.0431,0.8824,-6.29,7.74,-0.06,25.82
8958,0.1989,-0.0363,0.9128,-6.24,8.12,-0.03,25.79
8968,0.1995,-0.0383,0.8929,-6.29,8.55,-0.06,25.8
8978,0.1743,-0.0481,0.8612,-6.29,8.02,-0.05,25.8
8988,0.1725,-0.0446,0.8719,-6.2,8.12,-0.05,25.8
8998,0.2169,-0.0308,0.8949,-6.14,7.77,-0.09,25.83
9008,0.1918,-0.0417,0.8831,-6.17,7.53,-0.05,25.81
9018,0.1708,-0.0404,0.8625,-6.35,6.64,-0.06,25.78
9028,0.1837,-0.0284,0.9034,-6.18,7.59,-0.12,25.81
9038,0.2114,-0.0332,0.923,-6.35,7.63,-0.11,25.79
9048,0.1722,-0.0409,0.9059,-6.37,8.11,-0.14,25.81
9058,0.1707,-0.0394,0.8914,-6.31,8.69,-0.06,25.78
9068,0.1979,-0.0354,0.9069,-6.34,7.66,-0.03,25.8
9078,0.1991,-0.0312,0.9083,-6.37,7.91,-0.17,25.83
9088,0.1869,-0.0461,0.8799,-6.35,7.74,-0.12,25.83
9098,0.193,-0.0385,0.8762,-6.34,7.4,-0.08,25.79
9108,0.1934,-0.0403,0.8958,-6.31,8.06,-0.09,25.79
9118,0.1938,-0.0414,0.8798,-6.26,7.86,0.02,25.79
9128,0.1936,-0.0385,0.8835,-6.26,8.03,0.06,25.8
9138,0.1948,-0.0308,0.8898,-6.41,7.71,0.05,25.81
9148,0.1949,-0.0372,0.8737,-6.37,7.65,0.06,25.81
9158,0.1782,-0.0436,0.8793,-6.31,7.28,0.03,25.81
9168,0.1967,-0.0402,0.9083,-6.29,7.42,-0.05,25.79
9178,0.1869,-0.0439,0.9077,-6.32,8.29,0.0,25.79
9188,0.1754,-0.0417,0.8811,-6.32,7.86,-0.02,25.79
9198,0.173,-0.0363,0.8899,-6.23,7.88,-0.08,25.8
9208,0.2269,-0.0355,0.8961,-6.21,7.42,-0.05,25.79
9218,0.1899,-0.0333,0.8981,-6.43,7.01,0.02,25.78
9228,0.166,-0.0378,0.8728,-6.31,8.84,0.0,25.8
9238,0.2006,-0.0319,0.8755,-6.31,6.72,0.05,25.77
9248,0.1958,-0.0317,0.9276,-6.37,7.71,-0.15,25.79
9258,0.1832,-0.0449,0.8933,-6.38,8.75,-0.03,25.79
9268,0.174,-0.041,0.8705,-6.37,7.39,0.0,25.81
9278,0.1932,-0.0408,0.9055,-6.31,7.76,-0.02,25.8
9288,0.1941,-0.0483,0.9229,-6.37,8.03,-0.12,25.8
9298,0.1852,-0.049,0.892,-6.35,8.93,-0.03,25.79
9308,0.1942,-0.0425,0.879,-6.32,7.88,-0.12,25.78
9318,0.2029,-0.0411,0.8986,-6.17,7.89,-0.08,25.79
9328,0.1864,-0.0476,0.8922,-6.21,8.14,-0.05,25.79
9338,0.1909,-0.0496,0.8779,-6.15,8.14,0.0,25.82
9348,0.1938,-0.0331,0.8765,-6.11,7.53,-0.05,25.81
9358,0.1782,-0.0392,0.8981,-6.31,8.0,-0.03,25.78
9368,0.1821,-0.0345,0.8794,-6.18,7.83,-0.11,25.81
9378,0.1989,-0.0278,0.9076,-6.27,7.54,-0.02,25.79
9388,0.2067,-0.0314,0.9,-6.31,7.05,-0.14,25.8
9398,0.1609,-0.0338,0.8793,-6.35,7.13,0.03,25.8
9408,0.1571,-0.0398,0.9102,-6.23,10.49,-0.09,25.79
9418,0.2292,-0.0361,0.8877,-6.29,5.56,-0.15,25.79
9428,0.1599,-0.0385,0.9326,-6.38,9.91,-0.17,25.79
9438,0.1931,-0.0447,0.8429,-6.24,7.47,-0.05,25.8
9448,0.1779,-0.0555,0.8964,-6.17,7.04,-0.05,25.81
9458,0.2025,-0.048,0.9159,-6.15,9.79,-0.05,25.8
9468,0.2131,-0.0428,0.8573,-6.2,6.37,-0.02,25.8
9478,0.1549,-0.043,0.8693,-6.21,7.22,0.0,25.81
9488,0.197,-0.0325,0.891,-6.09,7.95,0.03,25.81
9498,0.2091,-0.0311,0.8909,-6.21,7.19,0.02,25.8
9508,0.1743,-0.0355,0.9075,-6.24,8.15,0.06,25.8
9518,0.1805,-0.0312,0.891,-6.21,8.17,-0.08,25.8
9528,0.1973,-0.0308,0.9095,-6.31,7.82,-0.05,25.79
9538,0.1917,-0.0398,0.9117,-6.24,7.89,-0.06,25.8
9548,0.184,-0.0424,0.8926,-6.4,8.09,0.05,25.8
9558,0.1821,-0.0365,0.9062,-6.32,8.17,0.03,25.81
9568,0.2028,-0.0399,0.8864,-6.46,7.91,-0.14,25.82
9578,0.1898,-0.0468,0.8778,-6.17,7.59,0.06,25.84
9588,0.1904,-0.0509,0.8909,-6.26,7.07,0.0,25.82
9598,0.1886,-0.0481,0.9153,-6.24,8.09,-0.15,25.82
9608,0.186,-0.0399,0.8789,-6.34,7.57,-0.03,25.81
9618,0.1676,-0.0476,0.8864,-6.23,8.82,0.02,25.8
9628,0.2113,-0.0377,0.8859,-6.12,7.4,-0.09,25.8
9638,0.2001,-0.0305,0.9109,-6.34,7.28,-0.05,25.81
9648,0.1691,-0.0387,0.8856,-6.27,8.4,-0.03,25.8
9658,0.1902,-0.0398,0.8879,-6.24,7.71,0.0,25.8
9668,0.2073,-0.031,0.9178,-6.2,7.94,-0.09,25.81
9678,0.1898,-0.0436,0.8923,-6.32,8.67,-0.03,25.81
9688,0.1694,-0.0459,0.8542,-6.27,7.83,-0.05,25.82
9698,0.1876,-0.0341,0.8777,-6.15,7.24,-0.09,25.82
9708,0.205,-0.0389,0.8993,-6.21,7.05,0.0,25.82
9718,0.1757,-0.0339,0.8936,-6.32,7.74,-0.05,25.81
9728,0.1696,-0.0374,0.8857,-6.34,6.11,-0.05,25.8
9738,0.1603,-0.0424,0.9497,-6.34,10.69,-0.05,25.81
9748,0.2294,-0.0363,0.8851,-6.44,6.75,-0.03,25.84
9758,0.1824,-0.0406,0.8976,-6.24,7.94,-0.05,25.81
9768,0.2012,-0.0341,0.8738,-6.2,7.95,-0.08,25.81
9778,0.1842,-0.0457,0.8757,-6.18,7.13,-0.09,25.82
9788,0.171,-0.0631,0.8777,-6.34,8.23,-0.05,25.8
9799,0.1848,-0.0591,0.8723,-6.2,8.63,-0.02,25.8
9810,0.205,-0.0463,0.8754,-6.18,7.47,-0.05,25.79
9820,0.1803,-0.0323,0.8844,-6.23,7.56,0.03,25.8
9830,0.1749,-0.0432,0.8821,-6.08,7.71,0.0,25.81
9840,0.1948,-0.0275,0.9064,-6.34,7.37,-0.08,25.84
9850,0.1914,-0.0247,0.9194,-6.31,8.27,-0.08,25.85
9860,0.1852,-0.0345,0.8868,-6.43,7.68,-0.08,25.81
9870,0.1847,-0.0349,0.9077,-6.26,7.56,-0.03,25.81
9880,0.1992,-0.0327,0.9294,-6.41,8.98,-0.05,25.82
9890,0.1926,-0.051,0.8846,-6.44,8.78,0.03,25.78
9900,0.1782,-0.0565,0.8445,-6.21,7.51,-0.03,25.8
9910,0.1823,-0.0455,0.8821,-6.11,7.39,-0.05,25.82
9920,0.2051,-0.0406,0.8898,-6.38,7.91,0.02,25.83
9930,0.1833,-0.0459,0.8595,-6.32,7.83,0.05,25.82
9940,0.1689,-0.0377,0.8829,-6.31,7.34,-0.06,25.8
9950,0.199,-0.0273,0.9181,-6.27,7.73,-0.08,25.82
9960,0.1989,-0.0387,0.9131,-6.35,8.23,-0.02,25.83
9970,0.1875,-0.0394,0.8936,-6.37,7.74,-0.17,25.8
9980,0.1875,-0.0355,0.8999,-6.34,7.8,-0.15,25.82
9990,0.1851,-0.0454,0.9076,-6.35,8.55,-0.08,25.84
10000,0.1881,-0.0496,0.8752,-6.23,8.27,-0.03,25.83
10010,0.1964,-0.0372,0.8798,-6.2,7.5,0.02,25.81
10020,0.1846,-0.04,0.8911,-6.24,8.0,-0.05,25.82
10030,0.1923,-0.0367,0.8728,-6.26,7.8,0.05,25.83
10040,0.1987,-0.0369,0.876,-6.35,6.82,-0.02,25.82
10050,0.1921,-0.0465,0.8964,-6.27,6.78,-0.14,25.83
10060,0.167,-0.0349,0.8842,-6.4,7.73,-0.12,25.82
10070,0.1885,-0.0413,0.8978,-6.2,8.38,-0.08,25.81
10080,0.2225,-0.0304,0.9167,-6.26,6.27,0.02,25.83
10090,0.1868,-0.0477,0.9271,-6.31,8.44,-0.12,25.81
10100,0.1722,-0.0538,0.8846,-6.35,8.64,-0.12,25.82
10110,0.1995,-0.0402,0.8878,-6.32,8.0,0.02,25.82
10120,0.1884,-0.0397,0.9142,-6.24,8.75,-0.12,25.8
10130,0.1742,-0.0496,0.8605,-6.24,8.53,0.03,25.82
10140,0.1758,-0.0437,0.8553,-6.2,7.16,0.03,25.82
10150,0.193,-0.0334,0.8956,-6.14,8.03,-0.09,25.82
10160,0.2004,-0.0377,0.8853,-6.23,7.3,0.03,25.84
10170,0.1788,-0.0406,0.8749,-6.17,6.99,-0.03,25.81
10180,0.1875,-0.0333,0.9136,-6.17,7.97,-0.03,25.84
10190,0.1964,-0.0304,0.917,-6.29,8.18,-0.06,25.86
10200,0.1937,-0.0408,0.9065,-6.29,8.5,-0.11,25.82
10210,0.1915,-0.0365,0.8998,-6.38,8.44,-0.02,25.8
10220,0.2039,-0.0405,0.9006,-6.29,6.99,-0.05,25.82
10230,0.1736,-0.0411,0.9087,-6.2,9.88,-0.06,25.82
10240,0.209,-0.0421,0.8606,-6.31,7.63,0.0,25.83
10250,0.1967,-0.0433,0.8877,-6.24,7.57,-0.08,25.8
10260,0.1753,-0.0466,0.8688,-6.21,8.2,0.0,25.82
10270,0.1904,-0.0465,0.8588,-6.2,7.62,-0.03,25.82
10280,0.2026,-0.036,0.8997,-6.2,7.1,0.0,25.82
10290,0.188,-0.037,0.8971,-6.4,6.92,0.02,25.83
10300,0.1605,-0.0381,0.8854,-6.2,8.35,0.05,25.82
10310,0.1954,-0.0402,0.9005,-6.21,7.73,0.03,25.83
10320,0.1976,-0.0305,0.9178,-6.4,7.65,-0.02,25.82
10330,0.1815,-0.0435,0.8907,-6.34,8.78,-0.05,25.82
10340,0.1917,-0.043,0.8701,-6.32,7.22,-0.05,25.83
10350,0.2007,-0.0409,0.9216,-6.17,8.0,-0.12,25.81
10360,0.1989,-0.0497,0.8995,-6.29,8.44,-0.08,25.82
10370,0.1764,-0.0532,0.8662,-6.2,7.65,-0.12,25.85
10380,0.1779,-0.0375,0.8861,-6.12,8.41,0.0,25.82
10390,0.194,-0.0361,0.8864,-6.27,8.41,-0.02,25.82
10400,0.1935,-0.0323,0.8574,-6.29,6.82,-0.08,25.81
10410,0.175,-0.0288,0.8792,-6.24,6.82,-0.05,25.83
10420,0.1857,-0.0289,0.9155,-6.31,7.66,-0.08,25.82
10430,0.1892,-0.031,0.91,-6.32,7.63,-0.06,25.83
10440,0.187,-0.0359,0.9114,-6.34,8.38,-0.03,25.79
10450,0.1958,-0.03,0.911,-6.46,8.03,0.02,25.84
10460,0.2094,-0.0392,0.903,-6.35,7.31,-0.06,25.84
10470,0.173,-0.0449,0.9106,-6.44,8.0,-0.09,25.82
10480,0.1858,-0.0483,0.8981,-6.35,9.34,-0.02,25.85
10490,0.2009,-0.0507,0.8702,-6.27,8.02,-0.03,25.83
10500,0.1648,-0.0475,0.8828,-6.26,7.13,-0.05,25.8
10510,0.1846,-0.0404,0.8975,-6.21,9.39,-0.06,25.82
10520,0.2113,-0.0406,0.8796,-6.32,8.4,-0.06,25.83
10530,0.188,-0.0442,0.8674,-6.35,5.83,-0.05,25.82
10540,0.1617,-0.035,0.8889,-6.27,8.78,-0.03,25.84
10550,0.2084,-0.0491,0.9091,-6.27,8.41,0.02,25.84
10560,0.2063,-0.0386,0.8909,-6.31,5.74,-0.02,25.82
10570,0.1639,-0.0472,0.9025,-6.24,7.92,-0.03,25.84
10580,0.1924,-0.0493,0.9042,-6.24,9.3,-0.15,25.82
10590,0.2107,-0.0708,0.8986,-5.97,8.03,-0.05,25.82
10600,0.1598,-0.0806,0.8534,-6.12,2.81,0.0,25.83
10610,0.0817,-0.0399,0.9603,-6.7,21.01,-0.08,25.82
10620,0.3021,-0.0386,0.7904,-5.83,-1.22,0.12,25.83
10630,0.0515,-0.0522,0.9977,-6.55,16.05,-0.29,25.85
10640,0.2842,-0.037,0.7892,-6.11,4.41,0.0,25.83
10650,0.1229,-0.0372,0.9513,-6.21,7.88,-0.12,25.83
10660,0.2192,-0.0406,0.8763,-6.43,9.68,0.02,25.84
10670,0.2046,-0.0436,0.8822,-6.15,5.53,-0.08,25.84
10680,0.1748,-0.0414,0.906,-6.35,8.46,0.02,25.82
10690,0.1897,-0.0415,0.8783,-6.29,8.55,-0.08,25.84
10700,0.1971,-0.0438,0.8752,-6.2,6.53,0.0,25.83
10710,0.1777,-0.0331,0.9208,-6.32,8.02,-0.12,25.87
10720,0.1995,-0.041,0.8893,-6.24,8.7,-0.06,25.84
10730,0.1765,-0.0474,0.8817,-6.32,6.87,-0.15,25.82
10740,0.1788,-0.0327,0.9086,-6.29,8.2,-0.05,25.85
10750,0.2144,-0.041,0.9109,-6.2,8.49,-0.08,25.86
10760,0.1809,-0.0492,0.8824,-6.26,7.02,-0.06,25.85
10770,0.1633,-0.0409,0.9004,-6.27,8.75,0.03,25.81
10780,0.2111,-0.0411,0.8984,-6.12,8.14,0.05,25.84
10790,0.1919,-0.0432,0.8931,-6.27,6.79,-0.06,25.83
10800,0.1733,-0.0483,0.8627,-6.08,9.07,-0.03,25.84
10810,0.197,-0.0337,0.8666,-6.14,5.44,-0.06,25.84
10820,0.1801,-0.048,0.925,-6.18,9.57,-0.06,25.84
10830,0.1992,-0.0446,0.8727,-6.23,7.1,-0.09,25.83
10840,0.1757,-0.0403,0.8915,-6.23,7.53,-0.06,25.84
10850,0.1965,-0.0391,0.9017,-6.23,8.5,-0.05,25.84
10860,0.2002,-0.0402,0.891,-6.17,7.19,0.03,25.83
10870,0.1653,-0.0372,0.894,-6.26,8.12,-0.06,25.82
10880,0.182,-0.0369,0.8943,-6.27,8.41,-0.03,25.83
10890,0.1914,-0.0377,0.884,-6.21,7.54,-0.02,25.84
10900,0.181,-0.0499,0.9009,-6.24,7.85,0.02,25.83
10910,0.1854,-0.0488,0.9017,-6.26,8.14,-0.03,25.85
10920,0.2024,-0.05,0.8816,-6.18,7.31,-0.14,25.84
10930,0.1826,-0.0514,0.8782,-6.15,6.93,-0.08,25.84
10940,0.1846,-0.0435,0.8975,-6.27,7.89,-0.03,25.82
10950,0.2032,-0.0387,0.8909,-6.26,7.95,-0.02,25.85
10960,0.1803,-0.04,0.8738,-6.21,7.34,-0.03,25.85
10970,0.1781,-0.036,0.8823,-6.21,7.48,0.03,25.84
10980,0.2009,-0.0302,0.9092,-6.15,8.18,-0.06,25.82
10990,0.2155,-0.0347,0.8864,-6.15,7.56,-0.08,25.8
11000,0.1702,-0.0374,0.8831,-6.23,5.69,-0.06,25.84
11010,0.1857,-0.04,0.9296,-6.31,9.6,-0.02,25.83
11020,0.2159,-0.0414,0.9128,-6.47,7.25,-0.11,25.83
11030,0.1709,-0.0474,0.9025,-6.32,8.47,0.03,25.84
11040,0.1744,-0.0458,0.8824,-6.37,8.85,0.02,25.86
11050,0.2137,-0.0397,0.8914,-6.27,7.34,-0.06,25.84
11060,0.1968,-0.0468,0.8972,-6.26,7.71,-0.02,25.85
11070,0.1735,-0.0439,0.8774,-6.26,8.24,-0.05,25.84
11080,0.1934,-0.0396,0.8735,-6.18,8.58,0.0,25.83
11090,0.1971,-0.0439,0.8816,-6.24,7.34,0.0,25.83
11100,0.1884,-0.0455,0.8792,-6.11,7.66,0.03,25.84
11110,0.1858,-0.0387,0.8763,-6.15,7.74,-0.05,25.85
11120,0.1941,-0.0402,0.8772,-6.24,7.02,-0.08,25.84
11130,0.1722,-0.0383,0.8861,-6.24,6.87,-0.02,25.84
11140,0.1699,-0.0353,0.9183,-6.15,8.5,-0.05,25.83
11150,0.2039,-0.0336,0.9041,-6.35,8.14,-0.03,25.86
11160,0.1929,-0.0376,0.886,-6.26,6.82,-0.11,25.84
11170,0.1772,-0.0338,0.9019,-6.17,7.76,-0.05,25.85
11180,0.2144,-0.0366,0.9038,-6.2,8.46,-0.09,25.83
11190,0.1981,-0.0509,0.8848,-6.37,6.87,-0.09,25.85
11200,0.158,-0.0441,0.8699,-6.31,7.76,-0.09,25.84
11210,0.1863,-0.0431,0.8848,-6.15,9.22,0.03,25.84
11220,0.2096,-0.0396,0.8811,-6.38,7.05,-0.09,25.86
11230,0.1964,-0.0409,0.8595,-6.17,7.05,0.0,25.84
11240,0.1667,-0.0458,0.8817,-6.24,7.65,-0.02,25.84
11250,0.201,-0.0353,0.9166,-6.35,7.85,-0.03,25.86
11260,0.1956,-0.0396,0.9066,-6.4,7.82,-0.12,25.86
11270,0.1825,-0.0463,0.899,-6.34,7.94,-0.03,25.86
11280,0.2047,-0.0402,0.9039,-6.32,7.3,-0.14,25.85
11290,0.2046,-0.0457,0.9105,-6.31,7.73,-0.03,25.84
11300,0.1831,-0.0565,0.8873,-6.32,8.56,-0.06,25.88
11310,0.1857,-0.0499,0.8728,-6.18,7.82,-0.11,25.85
11320,0.1897,-0.04,0.8823,-6.17,7.73,-0.09,25.84
11330,0.1708,-0.0435,0.8862,-6.21,7.65,-0.05,25.85
11340,0.1898,-0.0428,0.8754,-6.23,8.84,-0.03,25.86
11350,0.2052,-0.0334,0.8774,-6.26,6.73,-0.11,25.84
11360,0.1752,-0.0333,0.9006,-6.29,6.66,-0.08,25.83
11370,0.168,-0.038,0.8906,-6.2,7.59,-0.09,25.85
11380,0.2014,-0.0337,0.9174,-6.31,8.23,0.03,25.85
11390,0.198,-0.0312,0.8915,-6.32,7.47,0.02,25.85
11400,0.1669,-0.0393,0.8879,-6.23,7.8,0.0,25.85
11410,0.191,-0.0458,0.9049,-6.23,8.6,-0.06,25.86
11420,0.2129,-0.0378,0.8977,-6.37,6.85,-0.12,25.85
11430,0.1661,-0.0514,0.8906,-6.18,8.32,0.0,25.86
11440,0.1735,-0.0514,0.8706,-6.27,8.06,-0.02,25.86
11450,0.2068,-0.0363,0.8937,-6.27,7.91,-0.11,25.84
11460,0.201,-0.0469,0.8738,-6.17,7.24,-0.14,25.84
11470,0.1691,-0.0469,0.8734,-6.27,7.16,-0.08,25.85
11480,0.2052,-0.0293,0.8749,-6.12,7.91,-0.05,25.85
11490,0.2162,-0.0265,0.8977,-6.23,6.6,-0.02,25.82
11500,0.1761,-0.0361,0.9147,-6.34,8.61,-0.06,25.85
11510,0.1802,-0.0519,0.8988,-6.32,9.45,-0.08,25.84
11520,0.2119,-0.0327,0.8989,-6.37,6.82,0.0,25.82
11530,0.1907,-0.0405,0.9048,-6.27,7.44,-0.06,25.85
11541,0.1627,-0.0555,0.9166,-6.58,8.12,-0.08,25.86
11551,0.2139,-0.0361,0.8645,-6.29,5.92,-0.06,25.85
11562,0.1851,-0.0406,0.9017,-6.47,5.04,-0.08,25.85
11572,0.1481,-0.0276,0.8998,-6.4,12.76,-0.06,25.87
11582,0.186,-0.0536,0.8832,-6.05,2.23,0.08,25.84
11592,0.1505,-0.0468,0.9248,-6.5,16.26,-0.06,25.85
11602,0.2906,-0.0426,0.7692,-6.26,4.93,-0.11,25.86
11612,0.11,-0.0491,0.9463,-6.26,6.87,-0.03,25.86
11622,0.2513,-0.0297,0.8876,-6.26,9.36,-0.03,25.87
11632,0.1938,-0.0302,0.9144,-6.32,4.53,-0.06,25.85
11642,0.168,-0.0472,0.9001,-6.44,11.21,-0.11,25.85
11652,0.2091,-0.037,0.8854,-6.31,6.53,-0.08,25.86
11662,0.1949,-0.0383,0.9142,-6.32,7.53,-0.06,25.85
11672,0.1648,-0.04,0.887,-6.34,8.79,-0.06,25.86
11682,0.1836,-0.0413,0.8577,-6.23,8.15,-0.03,25.87
11692,0.1931,-0.0341,0.8898,-6.31,7.15,-0.02,25.85
11702,0.1794,-0.032,0.886,-6.27,8.05,-0.05,25.85
11712,0.1722,-0.0269,0.8649,-6.4,7.33,0.02,25.86
11722,0.1827,-0.0265,0.8973,-6.27,8.14,-0.06,25.85
11732,0.2112,-0.0308,0.9163,-6.4,7.07,-0.12,25.86
11742,0.1899,-0.043,0.9193,-6.37,7.83,-0.12,25.86
11752,0.1949,-0.0516,0.9102,-6.34,8.31,-0.05,25.85
11762,0.1842,-0.0486,0.9012,-6.29,8.41,-0.06,25.85
11772,0.1956,-0.0469,0.8798,-6.26,8.85,0.0,25.87
11782,0.2075,-0.0389,0.8624,-6.31,7.15,0.0,25.85
11792,0.1826,-0.0409,0.8846,-6.24,7.5,0.11,25.87
11802,0.1577,-0.0387,0.9023,-6.46,9.63,-0.02,25.87
11812,0.2347,-0.0348,0.8425,-6.12,5.04,-0.09,25.85
11822,0.1475,-0.0359,0.9664,-6.4,9.36,-0.21,25.84
11832,0.2365,-0.0463,0.8574,-6.2,7.56,-0.03,25.86
11842,0.1827,-0.0526,0.8861,-6.26,4.96,-0.08,25.88
11852,0.1962,-0.0281,0.9023,-6.23,9.33,-0.05,25.85
11862,0.2129,-0.0428,0.8965,-6.24,8.24,0.0,25.87
11872,0.1785,-0.0482,0.8539,-6.18,7.48,0.02,25.87
11882,0.1777,-0.0332,0.8672,-6.21,7.15,-0.02,25.87
11892,0.2034,-0.03,0.8912,-6.21,7.5,-0.06,25.84
11902,0.1862,-0.0377,0.9114,-6.12,6.15,-0.05,25.87
11912,0.1559,-0.0282,0.8829,-6.35,9.19,0.05,25.88
11922,0.203,-0.0388,0.8715,-6.08,7.74,-0.02,25.85
11932,0.1915,-0.0452,0.9059,-6.27,6.12,-0.06,25.87
11942,0.1622,-0.0422,0.9019,-6.32,9.18,-0.09,25.87
11953,0.1593,-0.0365,0.9021,-6.27,8.56,0.03,25.85
11963,0.2057,-0.0394,0.8827,-6.32,6.76,-0.06,25.85
11973,0.1896,-0.0472,0.9132,-6.37,7.28,-0.11,25.85
11983,0.1866,-0.045,0.8965,-6.38,8.43,-0.11,25.88
11993,0.2018,-0.0497,0.8951,-6.31,7.39,-0.09,25.88
12003,0.1868,-0.0472,0.9008,-6.34,7.98,-0.06,25.87
12013,0.1907,-0.0521,0.8899,-6.31,7.83,0.05,25.85
12023,0.2035,-0.0449,0.8855,-6.24,7.82,-0.15,25.87
12033,0.1964,-0.0422,0.8824,-6.26,7.08,-0.02,25.87
12043,0.171,-0.0439,0.8849,-6.17,7.85,0.06,25.88
12054,0.1781,-0.0385,0.8835,-6.2,7.76,-0.06,25.88
12064,0.1952,-0.0333,0.9075,-6.17,7.88,-0.02,25.87
12074,0.1837,-0.0442,0.8812,-6.26,7.86,-0.03,25.86
12084,0.167,-0.0295,0.8849,-6.24,7.4,0.08,25.87
12094,0.1924,-0.0275,0.9154,-6.12,8.58,0.06,25.86
12104,0.2102,-0.0356,0.8977,-6.38,7.04,-0.08,25.87
12114,0.188,-0.0399,0.8812,-6.21,7.01,0.02,25.87
12124,0.1862,-0.0402,0.9058,-6.31,8.46,-0.06,25.86
12134,0.2169,-0.0363,0.9188,-6.35,8.4,-0.09,25.87
12144,0.1989,-0.0474,0.8914,-6.38,7.97,-0.03,25.86
12154,0.1758,-0.0488,0.8785,-6.31,8.0,-0.02,25.85
12164,0.1951,-0.0507,0.8862,-6.23,8.66,-0.06,25.88
12174,0.1996,-0.0372,0.8842,-6.24,7.57,-0.03,25.88
12184,0.1791,-0.0623,0.865,-6.12,7.34,0.02,25.87
12194,0.1813,-0.057,0.8662,-6.23,5.69,-0.05,25.86
12204,0.152,-0.0397,0.9235,-6.27,10.15,-0.08,25.86
12214,0.2225,-0.0376,0.8647,-6.18,6.6,0.03,25.88
12224,0.171,-0.0359,0.9181,-6.34,7.31,-0.06,25.87
12234,0.1919,-0.0331,0.9004,-6.37,9.05,-0.08,25.84
12244,0.1857,-0.0416,0.8976,-6.38,6.75,0.05,25.84
12254,0.1952,-0.0343,0.9149,-6.26,9.1,0.02,25.87
12264,0.2051,-0.0332,0.8839,-6.38,7.54,-0.08,25.85
12274,0.1859,-0.0399,0.8944,-6.32,7.69,-0.05,25.88
12284,0.189,-0.0413,0.8901,-6.34,8.0,-0.09,25.86
12294,0.1959,-0.0389,0.9109,-6.29,7.59,-0.09,25.87
12304,0.1896,-0.0494,0.8958,-6.32,8.98,-0.06,25.85
12314,0.1796,-0.0502,0.8638,-6.38,7.16,-0.09,25.83
12324,0.1854,-0.0472,0.9001,-6.18,8.73,-0.02,25.87
12334,0.2106,-0.0439,0.8862,-6.15,7.5,-0.06,25.88
12344,0.1747,-0.0522,0.881,-6.24,7.33,-0.08,25.87
12354,0.175,-0.043,0.874,-6.14,7.85,0.02,25.88
12364,0.1796,-0.0369,0.9188,-6.26,8.31,-0.02,25.88
12374,0.2008,-0.0398,0.8829,-6.27,8.27,-0.09,25.88
12384,0.1826,-0.0371,0.8795,-6.24,6.89,-0.09,25.87
12394,0.1682,-0.0332,0.9102,-6.32,8.92,-0.18,25.86
12404,0.2104,-0.0366,0.8876,-6.2,8.21,-0.11,25.87
12414,0.1985,-0.0338,0.8989,-6.41,6.75,0.02,25.89
12424,0.1511,-0.0334,0.9236,-6.4,10.14,-0.08,25.89
12434,0.2333,-0.0234,0.8508,-6.18,8.37,-0.09,25.88
12444,0.1765,-0.0275,0.8848,-6.27,5.27,-0.02,25.86
12454,0.1804,-0.0369,0.8857,-6.31,9.19,0.0,25.85
12464,0.2133,-0.0409,0.8668,-6.31,6.02,-0.06,25.86
12474,0.1586,-0.0417,0.9149,-6.52,6.82,-0.06,25.86
12484,0.1951,-0.0359,0.9172,-6.32,9.47,-0.08,25.87
12494,0.2156,-0.0366,0.9055,-6.5,6.5,-0.05,25.88
12504,0.1703,-0.0482,0.9027,-6.37,7.95,-0.05,25.87
12514,0.1785,-0.0522,0.8948,-6.35,8.85,-0.08,25.86
12524,0.2157,-0.0499,0.8855,-6.24,8.34,0.02,25.9
12534,0.1997,-0.0444,0.8584,-6.24,6.31,-0.08,25.85
12544,0.157,-0.0479,0.874,-6.2,8.21,-0.08,25.86
12554,0.1908,-0.0394,0.8807,-6.23,8.15,0.02,25.87
12564,0.2061,-0.0328,0.8879,-6.21,6.6,0.0,25.87
12574,0.1562,-0.0459,0.882,-6.24,7.85,-0.02,25.85
12584,0.1702,-0.0389,0.8838,-6.18,8.73,0.02,25.87
12594,0.2146,-0.038,0.8893,-6.27,6.21,-0.06,25.87
12604,0.1713,-0.0481,0.9138,-6.31,7.36,-0.03,25.87
12614,0.1688,-0.0353,0.9017,-6.47,8.81,-0.08,25.87
12624,0.2101,-0.0328,0.8877,-6.23,7.82,0.06,25.88
12634,0.1901,-0.0366,0.9231,-6.35,6.81,-0.03,25.86
12644,0.1874,-0.047,0.9122,-6.27,9.39,-0.06,25.89
12654,0.2122,-0.0389,0.8834,-6.37,7.3,-0.06,25.88
12664,0.1846,-0.0347,0.8943,-6.27,7.3,-0.06,25.88
12674,0.1865,-0.0441,0.9036,-6.17,8.63,-0.09,25.87
12684,0.2085,-0.0409,0.8903,-6.26,8.05,-0.11,25.9
12694,0.193,-0.0444,0.8799,-6.31,7.83,0.0,25.87
12704,0.1755,-0.0399,0.8667,-6.21,7.57,-0.11,25.89
12714,0.1899,-0.0374,0.8942,-6.21,8.06,0.03,25.87
12724,0.1993,-0.0377,0.8993,-6.26,8.0,0.03,25.9
12734,0.1752,-0.0435,0.8798,-6.26,7.42,0.02,25.91
12744,0.1715,-0.0439,0.8999,-6.12,8.67,0.02,25.85
12754,0.2072,-0.0378,0.8971,-6.26,7.62,-0.06,25.85
12764,0.1866,-0.0411,0.8826,-6.35,7.91,-0.03,25.88
12774,0.1504,-0.0509,0.8835,-6.34,8.89,-0.11,25.87
12784,0.2102,-0.0383,0.886,-6.35,6.96,-0.12,25.88
12794,0.1896,-0.0402,0.8997,-6.26,7.53,-0.08,25.87
12804,0.1666,-0.0364,0.8826,-6.37,8.23,-0.03,25.89
12814,0.1917,-0.0319,0.8693,-6.41,8.06,-0.05,25.88
12824,0.1804,-0.0425,0.9207,-6.24,6.58,-0.02,25.89
12834,0.3196,-0.0457,0.755,-6.41,-1.8,-0.21,25.89
12844,-0.0874,-0.0317,1.0837,-6.49,30.55,0.02,25.88
12854,0.3682,-0.0398,0.7938,-5.91,-3.45,0.09,25.88
12864,0.256,-0.0378,0.8478,-6.17,-4.0,-0.03,25.89
12874,0.178,-0.027,0.9392,-6.6,17.01,-0.15,25.89
12884,0.2432,-0.0552,0.8376,-6.03,4.27,-0.05,25.88
12894,0.1919,-0.0571,0.8658,-6.24,4.29,-0.06,25.88
12904,0.2102,-0.0476,0.8855,-6.24,10.72,-0.09,25.89
12914,0.2583,-0.0502,0.8572,-6.02,4.66,-0.06,25.91
12924,0.1599,-0.0511,0.9092,-6.27,11.48,-0.12,25.91
12934,0.2214,-0.0583,0.842,-6.18,7.66,0.03,25.9
12944,0.1829,-0.0469,0.9186,-6.2,5.76,0.0,25.9
12954,0.2039,-0.037,0.906,-6.21,10.78,0.03,25.89
12964,0.1918,-0.0435,0.8621,-6.18,5.19,0.03,25.9
12974,0.1649,-0.0371,0.8907,-6.11,8.55,0.05,25.87
12984,0.2056,-0.0355,0.8933,-6.17,8.73,0.03,25.89
12994,0.1827,-0.0322,0.8835,-6.23,6.89,-0.06,25.89
13004,0.1613,-0.0354,0.8915,-6.11,8.84,0.14,25.89
13014,0.2009,-0.0223,0.8915,-6.2,7.24,-0.02,25.89
13024,0.1855,-0.0308,0.9177,-6.23,7.74,-0.06,25.87
13034,0.1761,-0.0306,0.881,-6.38,8.6,0.02,25.87
13044,0.1858,-0.0348,0.8878,-6.35,7.86,-0.14,25.88
13054,0.1976,-0.042,0.8947,-6.24,7.83,-0.11,25.88
13064,0.1848,-0.0508,0.8905,-6.37,7.76,-0.03,25.88
13074,0.188,-0.0454,0.8853,-6.24,8.5,-0.05,25.9
13084,0.2039,-0.0375,0.8807,-6.29,6.9,-0.08,25.9
13094,0.1888,-0.0387,0.9019,-6.27,7.45,0.03,25.87
13104,0.1923,-0.0403,0.8979,-6.35,8.79,0.02,25.88
13114,0.2087,-0.0383,0.8831,-6.23,7.21,0.02,25.88
13124,0.1782,-0.0344,0.886,-6.34,7.51,-0.08,25.88
13134,0.1833,-0.041,0.8994,-6.23,8.53,-0.09,25.87
13144,0.2012,-0.0452,0.8915,-6.29,8.09,-0.09,25.87
13154,0.1885,-0.0443,0.8763,-6.27,7.73,-0.12,25.89
13164,0.1628,-0.042,0.8942,-6.26,7.53,-0.05,25.88
13174,0.1943,-0.041,0.9114,-6.24,8.5,0.0,25.87
13184,0.2058,-0.0336,0.8938,-6.27,7.4,0.06,25.87
13194,0.1676,-0.0322,0.8929,-6.29,7.79,-0.03,25.87
13204,0.2034,-0.0258,0.906,-6.18,8.35,0.02,25.88
13215,0.1818,-0.0269,0.9414,-6.49,9.45,-0.12,25.89
13225,0.2212,-0.0514,0.873,-6.27,9.07,0.0,25.87
13235,0.1683,-0.0442,0.8796,-6.53,5.92,-0.14,25.87
13245,0.1885,-0.041,0.9141,-6.43,10.35,-0.23,25.89
13255,0.2251,-0.0586,0.8663,-6.15,7.22,-0.03,25.91
13265,0.1677,-0.0544,0.8763,-6.44,6.84,0.03,25.87
13276,0.1724,-0.051,0.8928,-6.38,7.73,0.02,25.9
13286,0.203,-0.0409,0.8773,-6.26,8.11,0.05,25.91
13296,0.2104,-0.0496,0.8624,-6.09,6.73,0.02,25.89
13306,0.1598,-0.0383,0.9008,-6.34,6.79,-0.02,25.93
13316,0.197,-0.0299,0.8558,-6.31,12.84,-0.09,25.89
13326,0.1681,-0.0408,0.9009,-6.17,1.01,0.06,25.9
13336,0.1586,-0.0371,0.9441,-6.43,15.37,-0.08,25.89
13346,0.2385,-0.0278,0.858,-6.2,-0.7,-0.03,25.89
13356,0.1187,-0.0399,0.9602,-6.4,14.12,-0.12,25.87
13366,0.2373,-0.0391,0.8584,-6.31,5.33,-0.05,25.9
13376,0.1718,-0.0374,0.9235,-6.24,8.82,-0.08,25.9
13386,0.1816,-0.0353,0.8817,-6.29,8.7,-0.02,25.88
13396,0.1909,-0.0367,0.8779,-6.17,7.34,-0.03,25.89
13406,0.2107,-0.0288,0.9073,-6.37,7.62,-0.08,25.89
13416,0.1797,-0.04,0.9116,-6.44,8.0,-0.05,25.91
13426,0.1832,-0.0465,0.8733,-6.34,9.1,0.02,25.89
13436,0.2054,-0.0377,0.89,-6.29,6.58,-0.17,25.9
13446,0.1479,-0.0427,0.9554,-6.31,13.48,-0.05,25.91
13456,0.2197,-0.0514,0.8278,-6.29,6.09,0.18,25.88
13466,0.134,-0.04,0.9174,-6.32,10.23,-0.08,25.91
13476,0.2427,-0.0374,0.843,-6.08,5.92,-0.03,25.91
13486,0.139,-0.0444,0.9445,-6.41,7.88,-0.08,25.88
13496,0.2133,-0.0348,0.8636,-6.29,8.98,0.05,25.89
13506,0.1866,-0.0367,0.9047,-6.32,5.79,-0.08,25.88
13516,0.1825,-0.0433,0.9155,-6.29,10.11,-0.15,25.9
13526,0.2106,-0.0436,0.8727,-6.31,6.85,0.02,25.91
13536,0.1853,-0.0602,0.9034,-6.34,7.15,-0.12,25.9
13546,0.1835,-0.0186,0.8807,-6.06,8.85,-0.09,25.89
13556,0.1902,-0.0455,0.9071,-6.27,10.55,-0.06,25.89
13566,0.2417,-0.0648,0.8616,-5.97,3.73,0.06,25.91
13576,0.1195,-0.0183,0.9225,-6.46,9.56,-0.05,25.89
13586,0.1801,-0.0328,0.8728,-6.31,12.92,-0.06,25.91
13596,0.2188,-0.0288,0.8619,-6.14,1.77,0.11,25.89
13606,0.1948,-0.0367,0.8851,-6.37,11.04,-0.05,25.9
13616,0.194,-0.0442,0.8593,-6.21,6.67,-0.03,25.9
13626,0.1669,-0.0327,0.9087,-6.34,6.79,0.0,25.88
13636,0.1936,-0.0443,0.9244,-6.35,9.36,-0.14,25.88
13646,0.2241,-0.0392,0.8635,-6.49,7.36,-0.09,25.91
13656,0.1561,-0.0588,0.8767,-6.23,5.4,-0.05,25.9
13666,0.1812,-0.0414,0.9258,-6.31,10.7,-0.08,25.9
13676,0.208,-0.0157,0.8972,-6.38,7.02,-0.03,25.89
13686,0.1532,-0.0358,0.918,-6.32,10.12,0.02,25.89
13696,0.194,-0.0304,0.8877,-6.27,8.78,-0.03,25.88
13706,0.2168,-0.0443,0.8743,-6.44,6.56,-0.11,25.89
13716,0.1921,-0.064,0.885,-6.44,7.6,-0.17,25.91
13726,0.1973,-0.0496,0.8616,-6.29,7.45,-0.11,25.89
13736,0.1857,-0.0485,0.8896,-6.31,8.82,-0.03,25.91
13746,0.2186,-0.0505,0.8468,-6.17,4.35,0.03,25.92
13756,0.1401,-0.061,0.934,-6.37,11.18,0.03,25.89
13766,0.2413,-0.0479,0.8425,-6.29,6.2,0.02,25.89
13776,0.1442,-0.0642,0.9503,-6.34,8.14,-0.09,25.9
13786,0.2074,-0.0636,0.8997,-6.18,9.91,0.02,25.92
13796,0.1941,-0.0277,0.9226,-6.06,4.37,-0.05,25.92
13806,0.1523,-0.0302,0.9203,-6.37,10.87,-0.03,25.93
13816,0.2014,-0.0349,0.853,-6.11,7.74,-0.05,25.88
13826,0.1936,-0.0247,0.8843,-6.09,6.32,-0.08,25.9
13836,0.1647,-0.0237,0.9019,-6.24,9.16,-0.11,25.89
13846,0.1884,-0.0244,0.8514,-6.14,7.19,0.03,25.91
13856,0.1788,-0.0144,0.8992,-6.24,6.37,0.03,25.91
13866,0.1881,-0.0253,0.933,-6.43,9.66,-0.03,25.91
13876,0.2083,-0.0336,0.8718,-6.37,7.92,0.02,25.9
13886,0.1606,-0.0316,0.9062,-6.43,8.69,0.0,25.89
13896,0.2178,-0.0289,0.8849,-6.34,8.63,0.11,25.9
13906,0.1948,-0.0551,0.8864,-6.43,7.37,0.02,25.86
13916,0.1665,-0.0544,0.88,-6.49,8.84,-0.06,25.92
13926,0.1881,-0.0471,0.8857,-6.29,8.15,-0.05,25.9
13936,0.2091,-0.0559,0.871,-6.5,6.99,0.02,25.91
13946,0.1893,-0.0531,0.873,-6.05,6.11,0.03,25.92
13956,0.1273,-0.0139,0.9492,-6.23,10.61,0.05,25.92
13966,0.2755,-0.036,0.8242,-6.02,5.79,0.05,25.88
13976,0.0867,-0.0496,0.9971,-6.47,7.68,-0.09,25.9
13986,0.2744,-0.0238,0.8331,-6.23,9.07,-0.08,25.91
13996,0.152,-0.0419,0.9567,-6.34,5.28,-0.15,25.89
14006,0.2032,-0.0402,0.9014,-6.52,11.18,-0.18,25.9
14016,0.2196,-0.0458,0.8999,-6.31,5.3,-0.11,25.9
14026,0.1913,-0.0525,0.92,-6.43,9.94,-0.2,25.92
14036,0.2085,-0.0649,0.8528,-6.32,7.19,-0.14,25.91
14046,0.1698,-0.0603,0.8811,-6.27,7.65,0.0,25.89
14056,0.1989,-0.0509,0.8969,-6.2,9.51,0.05,25.93
14066,0.2196,-0.0557,0.8677,-6.18,6.84,-0.06,25.91
14076,0.1655,-0.0537,0.8716,-6.17,7.57,-0.02,25.92
14086,0.2009,-0.0404,0.8806,-6.27,7.62,-0.08,25.91
14096,0.2009,-0.0414,0.9037,-6.26,6.38,-0.02,25.91
14106,0.1699,-0.0474,0.8977,-6.15,8.29,0.06,25.91
14116,0.1609,-0.0258,0.8983,-6.27,8.67,0.03,25.92
14126,0.1986,-0.0122,0.9084,-6.17,8.37,0.03,25.92
14136,0.181,-0.0157,0.9099,-6.23,7.47,-0.03,25.9
14146,0.1637,-0.0201,0.8726,-6.2,8.02,-0.03,25.93
14156,0.1564,-0.0314,0.8899,-6.24,8.75,-0.09,25.91
14166,0.1807,-0.0352,0.8745,-6.29,8.21,-0.11,25.92
14176,0.1927,-0.0487,0.8682,-6.14,7.33,-0.08,25.89
14186,0.1862,-0.0498,0.8755,-6.31,7.31,-0.09,25.9
14196,0.1981,-0.0521,0.8938,-6.26,6.95,-0.03,25.91
14206,0.1825,-0.0481,0.9104,-6.26,6.46,-0.03,25.92
14216,0.1917,-0.0459,0.9287,-6.34,9.45,0.02,25.9
14226,0.2102,-0.048,0.8955,-6.41,7.54,-0.06,25.9
14236,0.188,-0.0466,0.8944,-6.23,7.69,-0.15,25.91
14246,0.1899,-0.046,0.9028,-6.18,8.61,-0.09,25.9
14256,0.2074,-0.0426,0.8831,-6.15,7.79,-0.08,25.91
14266,0.1721,-0.0555,0.8772,-6.11,8.05,-0.09,25.92
14277,0.1708,-0.0497,0.8674,-6.2,7.48,-0.06,25.9
14287,0.1809,-0.0433,0.8966,-6.14,8.24,0.0,25.92
14297,0.1898,-0.0236,0.8964,-6.23,8.66,-0.06,25.92
14307,0.1912,-0.0194,0.8597,-6.18,7.22,0.06,25.91
14317,0.1755,-0.022,0.8835,-6.17,6.73,0.03,25.93
14328,0.1902,-0.0203,0.9131,-6.32,7.13,-0.11,25.92
14338,0.1912,-0.0375,0.8987,-6.23,8.17,-0.05,25.92
14348,0.1827,-0.0532,0.8694,-6.32,6.67,-0.18,25.9
14358,0.1812,-0.0409,0.911,-6.29,7.86,-0.09,25.93
14368,0.2059,-0.0454,0.9316,-6.37,8.53,-0.03,25.9
14378,0.2034,-0.0515,0.9045,-6.46,8.11,-0.06,25.91
14388,0.1964,-0.0416,0.8872,-6.23,7.73,-0.11,25.92
14398,0.1857,-0.0444,0.8933,-6.26,8.29,-0.14,25.92
14408,0.1877,-0.0476,0.889,-6.32,8.37,-0.05,25.9
14418,0.1927,-0.0481,0.889,-6.29,9.28,-0.12,25.91
14428,0.2072,-0.0426,0.8684,-6.31,6.79,-0.08,25.9
14438,0.1776,-0.0438,0.9014,-6.4,6.92,0.0,25.91
14448,0.1906,-0.031,0.9127,-6.4,8.67,0.09,25.94
14458,0.2192,-0.031,0.9034,-6.24,7.66,0.06,25.92
14468,0.1808,-0.0403,0.8995,-6.46,7.45,-0.02,25.9
14478,0.1698,-0.032,0.897,-6.31,9.1,0.0,25.91
14488,0.1943,-0.0278,0.9095,-6.4,8.98,-0.03,25.87
14498,0.1899,-0.0442,0.8783,-6.26,7.19,-0.03,25.9
14508,0.1625,-0.0454,0.8727,-6.27,7.86,-0.06,25.9
14518,0.1787,-0.0364,0.8927,-6.24,8.47,-0.08,25.94
14528,0.2119,-0.0425,0.882,-6.31,7.95,-0.05,25.91
14538,0.1852,-0.0499,0.8699,-6.23,7.18,-0.05,25.91
14548,0.176,-0.0331,0.8979,-6.29,8.17,-0.03,25.91
14558,0.1974,-0.0316,0.9003,-6.27,8.9,-0.06,25.91
14568,0.2014,-0.0359,0.9113,-6.41,8.26,-0.2,25.93
14578,0.1973,-0.02,0.8844,-6.29,7.94,-0.12,25.91
14588,0.1826,-0.0576,0.9192,-6.29,7.68,-0.11,25.93
14598,0.1893,-0.0754,0.8997,-6.35,9.27,-0.05,25.92
14608,0.2117,-0.0607,0.8667,-6.32,7.02,-0.02,25.92
14618,0.1937,-0.0443,0.9014,-6.2,7.57,0.11,25.9
14628,0.1781,-0.0444,0.9111,-6.35,9.05,0.12,25.91
14638,0.2109,-0.036,0.8909,-6.26,8.11,0.17,25.91
14648,0.2113,-0.0212,0.8851,-6.34,6.55,0.02,25.92
14658,0.1849,-0.0288,0.9122,-6.2,7.8,-0.18,25.91
14668,0.181,-0.0372,0.9061,-6.15,8.81,-0.05,25.91
14678,0.2064,-0.0426,0.9094,-6.21,7.92,-0.08,25.94
14688,0.1882,-0.0416,0.8994,-6.32,8.17,-0.09,25.92
14698,0.1716,-0.0449,0.8629,-6.38,8.35,0.05,25.92
14708,0.1713,-0.0433,0.8778,-6.21,8.29,0.02,25.92
14718,0.1884,-0.0436,0.8793,-6.29,8.38,0.02,25.93
14728,0.181,-0.04,0.8445,-6.17,7.6,-0.08,25.93
14738,0.1587,-0.0181,0.8732,-6.12,7.45,-0.08,25.92
14748,0.2041,-0.0239,0.907,-6.23,7.89,-0.11,25.95
14758,0.1915,-0.0399,0.9078,-6.41,6.78,-0.14,25.91
14768,0.1494,-0.0483,0.9139,-6.4,8.53,-0.14,25.92
14778,0.1947,-0.0504,0.9062,-6.17,10.96,-0.09,25.96
14788,0.2156,-0.0375,0.8737,-6.2,5.48,-0.14,25.93
14798,0.1699,-0.0471,0.8888,-6.26,7.62,-0.12,25.95
14808,0.2035,-0.0359,0.8668,-6.31,7.34,0.06,25.93
14818,0.1986,-0.0382,0.8914,-6.24,6.99,-0.05,25.91
14828,0.1823,-0.0411,0.906,-6.21,8.78,0.08,25.92
14838,0.2131,-0.0345,0.8776,-6.2,6.12,-0.02,25.94
14848,0.1742,-0.0299,0.9243,-6.31,7.91,-0.02,25.93
14858,0.1945,-0.0292,0.9199,-6.35,9.05,-0.05,25.91
14868,0.1985,-0.0427,0.8961,-6.32,7.54,-0.05,25.92
14878,0.1709,-0.0514,0.8903,-6.31,9.24,-0.03,25.91
14888,0.1908,-0.0426,0.8491,-6.32,7.63,-0.03,25.94
14898,0.1965,-0.0409,0.8765,-6.37,7.01,-0.03,25.93
14908,0.1893,-0.0443,0.8916,-6.23,7.33,-0.05,25.91
14918,0.16,-0.0417,0.9087,-6.29,8.5,-0.05,25.92
14928,0.1741,-0.0389,0.9047,-6.26,8.9,-0.09,25.91
14938,0.2135,-0.0316,0.902,-6.37,6.82,-0.05,25.92
14948,0.1742,-0.0413,0.8962,-6.32,7.79,-0.11,25.92
14958,0.163,-0.0417,0.8851,-6.37,7.62,-0.03,25.93
14968,0.1929,-0.0258,0.9006,-6.26,8.55,-0.06,25.93
14978,0.1985,-0.0278,0.8827,-6.34,8.44,0.05,25.9
14988,0.2023,-0.0535,0.8462,-6.31,4.35,-0.11,25.92
14998,0.158,-0.0546,0.9395,-6.4,10.27,-0.15,25.93
15008,0.2634,-0.0311,0.8619,-6.31,5.62,-0.08,25.94
15018,0.1827,-0.0704,0.9141,-6.18,6.27,-0.08,25.96
15028,0.1335,-0.0499,0.9475,-6.32,13.69,0.03,25.91
15038,0.2677,-0.0248,0.827,-6.12,4.49,-0.05,25.94
15048,0.1405,-0.0437,0.9324,-6.26,7.98,-0.09,25.93
15058,0.1919,-0.0353,0.881,-6.26,9.33,-0.05,25.93
15068,0.1953,-0.0299,0.8656,-6.11,7.13,0.05,25.93
15078,0.1674,-0.0474,0.8993,-6.47,6.46,-0.02,25.94
15088,0.1888,-0.0447,0.9066,-6.21,9.24,0.0,25.94
15098,0.197,-0.0463,0.8843,-6.47,7.4,-0.05,25.93
15109,0.1682,-0.0503,0.894,-6.47,8.24,-0.09,25.92
15119,0.1958,-0.0436,0.8752,-6.31,8.23,0.06,25.91
15129,0.201,-0.0453,0.9005,-6.29,7.25,-0.06,25.92
15139,0.1713,-0.0526,0.9078,-6.43,8.6,-0.03,25.92
15149,0.1882,-0.0444,0.8828,-6.37,8.21,-0.11,25.9
15159,0.2109,-0.0461,0.8969,-6.15,6.61,-0.15,25.94
15169,0.1816,-0.05,0.915,-6.27,7.68,-0.2,25.92
15180,0.1591,-0.0507,0.891,-6.21,9.1,-0.21,25.92
15190,0.2024,-0.0431,0.8643,-6.21,7.11,-0.09,25.93
15200,0.1975,-0.0365,0.9093,-6.23,6.6,-0.05,25.92
15210,0.1771,-0.035,0.9105,-6.31,9.48,-0.08,25.92
15220,0.1951,-0.0348,0.8578,-6.12,7.21,-0.08,25.93
15230,0.1846,-0.0306,0.8899,-6.23,6.81,-0.05,25.93
15240,0.1744,-0.0293,0.9008,-6.27,9.42,-0.02,25.93
15250,0.1899,-0.045,0.8547,-6.24,7.76,-0.03,25.92
15260,0.181,-0.0322,0.8842,-6.35,6.52,-0.02,25.92
15270,0.1841,-0.0355,0.9075,-6.15,8.89,0.03,25.93
15376,0.1808,-0.043,0.9244,-6.31,8.0,-0.02,25.93
15386,0.2024,-0.0435,0.8851,-6.31,8.27,-0.08,25.93
15396,0.1672,-0.0551,0.8771,-6.21,6.85,-0.08,25.93
15406,0.207,-0.0408,0.8789,-6.05,8.31,0.14,25.95
15416,0.1412,-0.0447,0.9431,-6.41,10.81,-0.2,25.92
15426,0.2255,-0.0769,0.799,-6.23,4.21,-0.02,25.92
15436,0.0773,-0.0461,0.9905,-6.58,15.31,-0.09,25.94
15446,0.2831,-0.0059,0.8202,-6.15,0.41,0.0,25.92
15456,0.1141,-0.0432,0.985,-6.32,14.85,-0.18,25.94
15466,0.2513,-0.0382,0.8101,-6.31,2.4,0.08,25.91
15476,0.1271,-0.028,0.9326,-6.37,10.98,-0.06,25.95
15486,0.2327,-0.0288,0.8519,-6.32,6.55,0.03,25.94
15496,0.1759,-0.0363,0.9077,-6.24,6.52,-0.06,25.94
15506,0.1748,-0.0377,0.9014,-6.4,9.48,-0.03,25.92
15516,0.1868,-0.035,0.8893,-6.43,8.38,0.03,25.94
15526,0.2014,-0.0392,0.884,-6.35,6.7,-0.02,25.95
15536,0.173,-0.0375,0.9081,-6.46,9.27,0.11,25.94
15546,0.2047,-0.0428,0.8564,-6.4,7.45,-0.02,25.92
15556,0.163,-0.0521,0.8917,-6.46,6.75,0.03,25.93
15566,0.1954,-0.0519,0.9218,-6.29,8.96,-0.06,25.93
15576,0.2136,-0.0582,0.906,-6.24,7.69,-0.11,25.92
15586,0.1719,-0.0612,0.902,-6.24,7.16,-0.14,25.93
15596,0.1846,-0.0524,0.9033,-6.06,8.61,0.0,25.94
15606,0.2136,-0.0474,0.8962,-6.31,7.73,-0.05,25.95
15616,0.1753,-0.0638,0.8719,-6.11,8.02,0.0,25.95
15626,0.1501,-0.0336,0.8674,-6.26,8.17,0.06,25.92
15636,0.1755,-0.0234,0.8976,-6.18,9.89,0.02,25.92
15646,0.1998,-0.0231,0.8896,-6.26,5.24,-0.03,25.93
15656,0.1613,-0.0344,0.9095,-6.34,8.06,0.03,25.93
15666,0.1924,-0.027,0.8846,-6.11,7.95,-0.09,25.94
15676,0.1934,-0.0294,0.9282,-6.18,7.28,-0.08,25.93
15686,0.1831,-0.0398,0.9181,-6.32,9.36,-0.06,25.93
15696,0.2004,-0.0377,0.877,-6.29,7.6,0.02,25.97
15706,0.1826,-0.0409,0.9001,-6.34,7.44,-0.12,25.97
15716,0.1907,-0.0424,0.8916,-6.34,7.83,-0.03,25.94
15726,0.1892,-0.0389,0.8901,-6.34,8.31,-0.03,25.96
15736,0.2124,-0.0408,0.8854,-6.15,7.16,0.08,25.93
15746,0.1707,-0.0319,0.9114,-6.38,7.77,0.06,25.94
15756,0.1945,-0.038,0.8954,-6.27,10.6,-0.18,25.94
15766,0.2141,-0.0452,0.8646,-6.24,5.36,0.05,25.96
15776,0.1409,-0.0402,0.9008,-6.34,10.44,0.02,25.93
15786,0.2206,-0.0304,0.8542,-6.18,6.78,0.05,25.95
15796,0.1758,-0.0376,0.9214,-6.37,6.46,-0.08,25.91
15806,0.1666,-0.0406,0.8992,-6.49,10.05,-0.05,25.94
15816,0.1853,-0.0441,0.8582,-6.26,7.28,-0.03,25.94
15826,0.1776,-0.0431,0.9133,-6.32,7.47,-0.03,25.95
15836,0.1873,-0.0496,0.9,-6.32,8.85,-0.05,25.94
15846,0.1777,-0.0463,0.8726,-6.29,7.77,0.03,25.92
15856,0.2017,-0.0436,0.8916,-6.26,7.33,-0.06,25.93
15866,0.197,-0.0408,0.9054,-6.32,7.39,-0.09,25.95
15876,0.1874,-0.0426,0.8887,-6.31,8.32,-0.09,25.94
15886,0.1915,-0.0344,0.8878,-6.32,8.2,-0.11,25.97
15896,0.2072,-0.0321,0.9095,-6.31,6.95,-0.17,25.94
15906,0.1794,-0.04,0.9052,-6.32,8.37,-0.06,25.94
15918,0.1816,-0.0402,0.8977,-6.34,8.0,-0.09,25.96
15928,0.1824,-0.0404,0.8862,-6.29,8.64,-0.14,25.98
15938,0.1954,-0.0388,0.876,-6.24,7.8,-0.08,25.94
15948,0.1915,-0.0381,0.887,-6.27,7.89,0.0,25.95
15958,0.1863,-0.0446,0.899,-6.26,7.83,-0.08,25.93
15968,0.1837,-0.0464,0.8862,-6.26,7.91,-0.06,25.94
15978,0.1803,-0.0477,0.8879,-6.37,8.05,-0.15,25.96
15988,0.1874,-0.0396,0.8955,-6.31,8.56,-0.05,25.96
15998,0.1907,-0.046,0.8627,-6.15,7.5,-0.02,25.96
16008,0.1581,-0.0339,0.8947,-6.29,7.5,-0.17,25.96
16018,0.1931,-0.0358,0.9054,-6.29,9.16,-0.11,25.93
16028,0.2026,-0.0542,0.8848,-6.2,6.58,-0.02,25.92
16038,0.1365,-0.037,0.9169,-6.34,8.29,-0.03,25.96
16048,0.2118,-0.0293,0.9006,-6.24,11.77,0.06,25.95
16058,0.2424,-0.0151,0.8761,-6.27,2.06,-0.02,25.96
16068,0.1573,-0.0332,0.9115,-6.4,12.32,-0.03,25.95
16078,0.234,-0.0339,0.8485,-6.14,3.07,-0.05,25.95
16088,0.1621,-0.0332,0.9564,-6.41,9.54,-0.17,25.94
16098,0.2246,-0.0319,0.8815,-6.34,8.38,0.08,25.95
16108,0.173,-0.0383,0.88,-6.4,6.44,-0.03,25.95
16118,0.1737,-0.0328,0.886,-6.38,9.47,-0.03,25.96
16128,0.2023,-0.0475,0.8721,-6.29,7.62,-0.08,25.94
16138,0.1755,-0.0565,0.8832,-6.26,6.93,-0.14,25.96
16148,0.1444,-0.0487,0.9258,-6.58,9.51,-0.23,25.96
16158,0.2705,-0.0585,0.8153,-6.15,5.56,-0.11,25.95
16168,0.1003,-0.0583,0.9745,-6.21,6.18,-0.02,25.94
16178,0.2427,-0.0485,0.8428,-6.26,12.73,-0.06,25.97
16188,0.1738,-0.0485,0.889,-6.12,1.79,-0.02,25.95
16198,0.1652,-0.0358,0.8948,-6.35,12.72,0.08,25.96
16208,0.2279,-0.0354,0.8776,-6.03,4.35,0.06,25.96
16218,0.1561,-0.0341,0.9351,-6.38,9.57,-0.05,25.94
16228,0.202,-0.0276,0.8604,-6.35,7.6,-0.08,25.94
16238,0.1724,-0.0264,0.9067,-6.18,6.72,-0.05,25.94
16248,0.156,-0.0366,0.9392,-6.27,10.61,-0.08,25.94
16258,0.2085,-0.0308,0.848,-6.31,3.97,-0.02,25.96
16268,0.163,-0.0453,0.8883,-6.31,8.17,-0.11,25.94
16278,0.2035,-0.0405,0.9086,-6.29,9.08,-0.06,25.96
16288,0.2135,-0.026,0.8861,-6.27,4.75,-0.05,25.96
16298,0.1348,-0.0583,0.9412,-6.38,10.75,-0.15,25.96
16308,0.2462,-0.0475,0.8511,-6.38,6.78,-0.08,25.94
16318,0.1708,-0.0471,0.916,-6.4,6.37,-0.14,25.93
16328,0.1443,-0.0629,0.9283,-6.38,12.27,-0.05,25.94
16338,0.2253,-0.0444,0.853,-6.21,5.01,0.02,25.95
16348,0.167,-0.0415,0.9279,-6.29,8.76,-0.08,25.95
16358,0.1991,-0.0405,0.8851,-6.24,8.17,-0.03,25.94
16368,0.1775,-0.0376,0.8865,-6.29,7.45,0.0,25.93
16378,0.1786,-0.0383,0.8898,-6.27,8.76,0.02,25.96
16388,0.199,-0.0419,0.8771,-6.24,6.7,-0.05,25.97
16398,0.1805,-0.0364,0.9092,-6.24,7.63,-0.02,25.96
16408,0.1807,-0.0369,0.9103,-6.26,9.04,-0.02,25.94
16418,0.1875,-0.0365,0.8842,-6.44,8.11,-0.08,25.94
16428,0.1987,-0.0369,0.8876,-6.2,7.13,-0.09,25.94
16438,0.1758,-0.0358,0.9126,-6.37,8.56,-0.03,25.96
16448,0.1858,-0.0466,0.8657,-6.26,8.93,-0.05,25.95
16458,0.1952,-0.0359,0.8826,-6.31,5.68,-0.03,25.98
16468,0.1794,-0.0361,0.9279,-6.31,8.99,-0.05,25.94
16478,0.2019,-0.0432,0.8843,-6.35,8.37,-0.11,25.95
16488,0.1765,-0.0454,0.8715,-6.32,6.46,-0.02,25.95
16498,0.1841,-0.0354,0.9081,-6.35,9.01,-0.05,25.96
16508,0.2205,-0.0449,0.8882,-6.43,7.42,-0.02,25.94
16518,0.173,-0.0449,0.8802,-6.38,6.61,-0.03,25.97
16528,0.1714,-0.0367,0.9028,-6.27,9.21,-0.02,25.97
16538,0.2075,-0.0347,0.8959,-6.43,8.24,-0.08,25.97
16548,0.204,-0.0414,0.8693,-6.14,6.89,-0.05,25.98
16558,0.167,-0.0398,0.8827,-6.34,7.08,-0.08,25.95
16568,0.1852,-0.0366,0.8972,-6.32,9.33,-0.09,25.95
16578,0.2133,-0.0515,0.8684,-6.27,6.32,-0.14,25.94
16588,0.1837,-0.0372,0.9031,-6.23,7.25,-0.11,25.96
16598,0.1866,-0.0316,0.9109,-6.24,8.95,0.02,25.97
16608,0.2056,-0.0415,0.8998,-6.37,8.11,-0.02,25.94
16618,0.2028,-0.0341,0.9001,-6.24,6.5,0.09,25.96
16628,0.1647,-0.0396,0.9039,-6.4,8.75,0.0,25.97
16638,0.1849,-0.0432,0.8732,-6.31,9.02,-0.08,25.97
16648,0.2059,-0.0386,0.8733,-6.24,6.35,-0.03,25.96
16658,0.183,-0.0448,0.9141,-6.27,7.69,-0.09,25.95
16668,0.1625,-0.0524,0.9017,-6.26,8.63,0.08,25.97
16678,0.205,-0.0415,0.8788,-6.18,7.37,0.0,25.98
16688,0.1968,-0.0406,0.9027,-6.31,7.24,-0.05,25.95
16698,0.1714,-0.0474,0.8823,-6.32,8.9,0.05,25.97
16708,0.1965,-0.0392,0.8555,-6.23,7.5,-0.02,25.97
16718,0.2031,-0.0336,0.9055,-6.2,6.47,-0.14,25.95
16728,0.1758,-0.0402,0.9155,-6.31,9.4,-0.03,25.94
16738,0.1965,-0.0402,0.8496,-6.17,7.65,0.02,25.96
16748,0.1895,-0.0289,0.8904,-6.24,6.34,-0.08,25.95
16758,0.1833,-0.0355,0.9105,-6.24,9.02,-0.11,25.98
16768,0.2068,-0.0488,0.8618,-6.35,5.11,-0.05,25.94
16778,0.1387,-0.0321,0.9556,-6.49,9.07,-0.12,25.96
16788,0.2167,-0.0427,0.8918,-6.31,9.21,-0.08,25.94
16798,0.2051,-0.0388,0.8817,-6.37,6.03,-0.08,25.98
16808,0.1766,-0.038,0.892,-6.34,9.4,-0.06,25.97
16818,0.1923,-0.0391,0.8728,-6.24,7.36,-0.11,25.96
16828,0.1696,-0.0466,0.8925,-6.18,8.23,-0.09,25.95
16838,0.1794,-0.0481,0.8955,-6.38,9.13,-0.02,25.97
16848,0.2013,-0.0441,0.8802,-6.35,7.42,-0.15,25.97
16858,0.1749,-0.0477,0.9,-6.2,8.15,0.0,25.96
16868,0.1941,-0.0411,0.9027,-6.35,8.03,-0.08,25.96
16878,0.1956,-0.0386,0.8958,-6.29,8.34,0.0,25.94
16888,0.1814,-0.04,0.874,-6.18,8.21,-0.03,25.97
16898,0.201,-0.0399,0.873,-6.23,6.46,-0.06,25.97
16908,0.1853,-0.0385,0.9242,-6.2,7.86,-0.05,25.97
16918,0.1901,-0.0422,0.8842,-6.18,8.38,-0.05,25.96
16928,0.1804,-0.0466,0.8738,-6.23,7.21,-0.08,25.96
16938,0.1833,-0.0394,0.8987,-6.23,7.4,0.02,25.97
16948,0.2069,-0.038,0.8872,-6.27,8.29,0.05,25.97
16958,0.1841,-0.043,0.8687,-6.17,6.6,-0.02,25.97
16968,0.1791,-0.0421,0.9091,-6.32,7.31,-0.03,25.96
16978,0.1873,-0.0444,0.9227,-6.41,9.21,-0.17,25.94
16988,0.1892,-0.0466,0.8884,-6.29,8.32,-0.02,25.95
16998,0.1968,-0.0431,0.8761,-6.29,7.04,-0.03,25.96
17008,0.1912,-0.0399,0.8976,-6.35,7.28,-0.03,25.95
17018,0.1844,-0.0466,0.8983,-6.24,7.76,0.03,25.96
17028,0.1899,-0.037,0.8755,-6.18,7.47,0.03,25.96
17038,0.1663,-0.0364,0.9067,-6.32,8.79,-0.05,25.95
17048,0.1923,-0.0448,0.8804,-6.29,8.43,-0.11,25.95
17058,0.2107,-0.0422,0.8804,-6.2,6.26,-0.03,25.95
17068,0.1743,-0.0397,0.9052,-6.26,8.2,-0.02,25.94
17078,0.1765,-0.04,0.8904,-6.2,8.5,-0.03,25.99
17088,0.1904,-0.036,0.8883,-6.23,7.85,-0.08,25.96
17098,0.2063,-0.0327,0.9049,-6.31,7.47,-0.11,25.96
17108,0.1665,-0.0476,0.9113,-6.24,8.02,-0.02,25.94
17118,0.1292,-0.0492,0.944,-6.35,13.4,-0.15,25.97
17128,0.2084,-0.0444,0.905,-6.29,8.0,0.0,25.94
17138,0.1846,-0.0439,0.8931,-6.43,7.07,-0.06,25.98
17149,0.1682,-0.0356,0.8685,-6.44,8.26,0.03,25.94
17160,0.1792,-0.0416,0.8615,-6.27,7.48,0.02,25.94
17170,0.1904,-0.0404,0.9041,-6.17,7.28,-0.08,25.96
17180,0.1879,-0.0466,0.8907,-6.34,8.7,0.09,25.97
17190,0.1913,-0.0491,0.8796,-6.31,6.73,-0.08,25.94
17200,0.1826,-0.0413,0.9197,-6.21,7.63,0.0,25.97
17210,0.1882,-0.0444,0.9174,-6.32,8.69,0.06,25.99
17220,0.1949,-0.0514,0.8817,-6.27,8.31,-0.03,25.97
17230,0.1929,-0.0403,0.8726,-6.12,7.16,-0.05,25.97
17240,0.1727,-0.0406,0.9078,-6.11,8.11,-0.12,25.97
17250,0.1833,-0.0419,0.8903,-6.2,8.96,-0.02,25.97
17260,0.2025,-0.036,0.8759,-6.18,7.31,-0.14,25.97
17270,0.1941,-0.0298,0.8895,-6.21,6.69,-0.08,25.97
17280,0.1821,-0.037,0.9132,-6.31,7.76,-0.17,25.96
17290,0.1821,-0.0353,0.8969,-6.32,8.61,-0.08,25.94
17300,0.1757,-0.0311,0.884,-6.37,8.85,-0.03,25.95
17310,0.1974,-0.0248,0.8545,-6.37,7.07,0.05,25.96
17320,0.1908,-0.0353,0.9006,-6.31,6.61,-0.06,25.96
17330,0.1772,-0.0369,0.9088,-6.46,9.05,-0.03,25.97
17340,0.1849,-0.0471,0.8813,-6.35,8.55,0.03,25.99
17350,0.2076,-0.0438,0.8933,-6.38,6.76,0.0,25.95
17360,0.2024,-0.0424,0.8979,-6.24,7.85,0.02,25.98
17370,0.1803,-0.0435,0.8717,-6.27,7.54,0.0,25.97
17380,0.1776,-0.0482,0.8997,-6.26,8.66,0.02,25.95
17390,0.2197,-0.0385,0.9005,-6.35,6.93,-0.08,25.97
17400,0.174,-0.0427,0.9111,-6.46,8.03,-0.05,25.95
17410,0.1837,-0.0443,0.8954,-6.32,8.79,-0.05,25.95
17420,0.2013,-0.0355,0.8993,-6.34,7.39,-0.03,25.96
17430,0.1841,-0.0446,0.8993,-6.18,8.17,-0.17,25.98
17440,0.183,-0.0424,0.876,-6.24,8.69,-0.02,25.96
17450,0.1935,-0.0428,0.8738,-6.34,7.47,-0.05,25.98
17460,0.1858,-0.0492,0.8948,-6.31,7.21,-0.11,25.96
17470,0.1743,-0.0452,0.9012,-6.27,8.82,0.02,25.99
17480,0.2218,-0.0432,0.8553,-6.37,5.69,0.0,25.96
17490,0.1521,-0.0419,0.9137,-6.35,8.52,-0.05,25.97
17500,0.2185,-0.0332,0.8744,-6.24,8.89,0.0,25.97
17510,0.1863,-0.0374,0.9031,-6.2,5.8,-0.06,25.97
17520,0.1656,-0.0414,0.9015,-6.26,9.63,-0.08,25.96
17530,0.2179,-0.0433,0.8865,-6.21,7.01,-0.05,25.97
17540,0.1953,-0.0459,0.9105,-6.18,7.18,-0.03,25.99
17550,0.1804,-0.0487,0.899,-6.26,7.85,-0.08,25.98
17560,0.1862,-0.043,0.8778,-6.23,7.83,0.0,25.99
17570,0.2107,-0.0421,0.9053,-6.27,7.56,-0.09,25.98
17580,0.1841,-0.0372,0.8925,-6.32,7.24,-0.09,25.97
17590,0.1702,-0.0416,0.8771,-6.24,9.05,0.03,25.96
17600,0.2152,-0.0377,0.8853,-6.23,6.73,0.02,25.96
17610,0.1761,-0.0342,0.9041,-6.32,7.74,-0.05,25.98
17620,0.171,-0.0343,0.8708,-6.21,9.36,0.0,25.98
17630,0.2032,-0.028,0.871,-6.29,6.47,-0.02,25.94
17640,0.1864,-0.0334,0.9176,-6.29,7.22,-0.05,25.99
17650,0.1725,-0.0299,0.9006,-6.38,9.19,-0.09,25.98
17660,0.21,-0.0398,0.8772,-6.18,6.96,-0.02,25.97
17670,0.1938,-0.0413,0.9033,-6.27,6.6,-0.03,25.94
17680,0.187,-0.0476,0.9052,-6.35,7.5,-0.06,25.97
17690,0.1807,-0.0497,0.8937,-6.38,8.89,-0.11,25.96
17700,0.2028,-0.045,0.8699,-6.29,6.26,0.0,25.97
17710,0.1682,-0.0415,0.9165,-6.35,7.94,0.05,25.98
17720,0.1969,-0.0449,0.8973,-6.26,8.89,-0.05,25.97
17730,0.1957,-0.0469,0.8737,-6.08,7.01,-0.03,25.98
17740,0.1511,-0.0435,0.8982,-6.15,8.9,-0.12,25.97
17750,0.215,-0.0449,0.88,-6.09,8.14,-0.06,25.95
17760,0.1936,-0.0439,0.8936,-6.21,5.76,-0.05,25.97
17770,0.1562,-0.0415,0.9025,-6.18,9.27,-0.06,25.99
17780,0.2129,-0.0405,0.8833,-6.12,8.15,-0.03,25.94
17790,0.2112,-0.0391,0.9016,-6.21,6.56,-0.05,25.97
17800,0.161,-0.0341,0.9022,-6.24,9.54,0.05,25.96
17810,0.1923,-0.036,0.8632,-6.2,8.17,0.0,25.99
17820,0.2112,-0.0332,0.9019,-6.15,6.73,-0.06,25.97
17830,0.1832,-0.0361,0.9012,-6.27,8.32,-0.14,25.99
17840,0.1869,-0.0396,0.8774,-6.27,7.39,-0.05,25.97
17850,0.1787,-0.0352,0.912,-6.29,7.59,-0.03,25.99
17860,0.1798,-0.031,0.9075,-6.44,9.62,0.02,25.97
17870,0.2039,-0.0416,0.8619,-6.27,6.69,0.02,25.96
17880,0.1733,-0.0386,0.8995,-6.37,6.84,-0.02,25.97
17890,0.1823,-0.0394,0.9116,-6.31,9.95,0.02,25.97
17900,0.2115,-0.0438,0.8733,-6.38,7.21,-0.05,25.99
17910,0.1506,-0.0453,0.924,-6.31,8.56,-0.05,25.96
17920,0.2003,-0.0399,0.8787,-6.46,10.75,-0.12,25.96
17930,0.2142,-0.0441,0.8831,-6.21,5.21,-0.02,25.96
17940,0.174,-0.0459,0.9156,-6.27,8.82,-0.12,25.98
17950,0.1901,-0.0469,0.8931,-6.34,8.81,-0.05,25.98
17960,0.2032,-0.0491,0.8779,-6.31,7.19,-0.12,25.95
17970,0.1903,-0.0446,0.9016,-6.17,6.73,0.0,25.96
17980,0.1615,-0.0396,0.9038,-6.31,10.05,-0.06,25.96
17990,0.1965,-0.0402,0.8478,-6.14,7.07,-0.03,25.99
18000,0.1812,-0.038,0.9049,-6.21,6.31,-0.03,25.99
18010,0.1851,-0.0361,0.9059,-6.35,10.08,-0.11,25.98
18020,0.199,-0.048,0.8514,-6.29,6.46,0.03,25.97
18030,0.1683,-0.0387,0.901,-6.24,7.77,-0.03,25.99
18040,0.2062,-0.0336,0.9066,-6.27,9.02,-0.11,26.0
18050,0.2064,-0.045,0.8701,-6.17,6.31,-0.11,25.99
18060,0.1637,-0.0411,0.8987,-6.32,7.33,-0.03,25.95
18070,0.1875,-0.037,0.916,-6.2,9.48,-0.05,25.98
18080,0.2119,-0.0496,0.8834,-6.27,7.02,0.05,26.01
18090,0.1816,-0.0463,0.8816,-6.24,7.33,0.0,25.98
18100,0.1827,-0.0356,0.8939,-6.23,8.52,-0.05,25.98
18110,0.2294,-0.0444,0.8718,-6.24,5.42,0.08,25.98
18120,0.1736,-0.0393,0.9003,-6.35,6.79,0.05,25.99
18130,0.2006,-0.0364,0.877,-6.32,5.94,-0.06,25.99
18140,0.1721,-0.0438,0.8944,-6.27,8.26,0.0,25.97
18150,0.189,-0.0336,0.8873,-6.26,8.02,0.05,25.97
18161,0.1953,-0.0315,0.8883,-6.2,7.95,-0.12,25.96
18171,0.2048,-0.0337,0.881,-6.23,6.96,0.0,25.98
18181,0.1667,-0.0471,0.9048,-6.27,7.21,-0.03,25.97
18191,0.1844,-0.0493,0.91,-6.29,9.66,-0.12,25.98
18201,0.2275,-0.0431,0.8887,-6.17,7.11,0.0,25.98
18211,0.1725,-0.0468,0.8953,-6.23,7.1,-0.08,25.97
18221,0.1766,-0.0447,0.8896,-6.27,8.98,0.03,25.99
18231,0.2159,-0.0403,0.8922,-6.29,7.19,0.03,25.96
18241,0.1749,-0.0459,0.9044,-6.24,7.68,-0.06,25.98
18252,0.1586,-0.046,0.8799,-6.34,8.17,-0.03,26.0
18262,0.1824,-0.0306,0.8837,-6.37,8.26,-0.03,25.98
18272,0.2078,-0.0236,0.8856,-6.29,8.08,-0.09,25.97
18282,0.1958,-0.036,0.8663,-6.23,6.72,-0.11,26.0
18292,0.1686,-0.037,0.884,-6.26,6.38,-0.02,25.97
18302,0.1708,-0.0349,0.9237,-6.21,9.54,0.0,25.98
18312,0.196,-0.0415,0.9115,-6.4,9.04,-0.12,25.99
18322,0.1901,-0.0452,0.8712,-6.21,6.63,-0.02,25.97
18332,0.1721,-0.0355,0.9088,-6.17,8.03,0.02,25.97
18342,0.194,-0.0347,0.8971,-6.27,8.73,0.03,25.96
18352,0.2065,-0.0402,0.8813,-6.29,6.56,0.02,25.99
18362,0.2001,-0.0432,0.8888,-6.35,6.24,-0.11,25.96
18372,0.1794,-0.038,0.917,-6.29,8.58,-0.09,25.99
18382,0.1887,-0.0426,0.8816,-6.31,8.38,-0.09,25.99
18392,0.194,-0.0416,0.887,-6.27,7.97,-0.06,25.97
18402,0.2028,-0.0358,0.8884,-6.23,7.68,-0.03,25.99
18412,0.1846,-0.0441,0.8782,-6.31,6.82,-0.06,25.97
18422,0.1606,-0.0419,0.9017,-6.31,8.63,-0.09,26.0
18432,0.1985,-0.0374,0.9081,-6.26,9.07,-0.09,25.97
18442,0.2047,-0.0366,0.8762,-6.26,7.02,0.02,25.99
18452,0.1521,-0.04,0.8744,-6.23,7.59,-0.03,25.97
18462,0.1852,-0.0311,0.8923,-6.11,8.96,-0.02,25.98
18472,0.2172,-0.0312,0.8862,-6.21,6.26,-0.02,25.99
18482,0.1562,-0.0397,0.9006,-6.27,7.82,-0.03,26.02
18492,0.1771,-0.0339,0.8864,-6.4,8.87,-0.02,25.98
18502,0.2231,-0.0363,0.8914,-6.24,6.52,-0.06,25.99
18512,0.1724,-0.0358,0.9053,-6.37,7.91,-0.09,26.0
18522,0.1908,-0.0386,0.8691,-6.23,8.72,0.0,25.99
18532,0.1974,-0.042,0.8905,-6.21,5.91,-0.12,26.0
18542,0.1725,-0.0431,0.9332,-6.43,9.57,-0.08,26.0
18552,0.2109,-0.0499,0.8853,-6.27,8.56,-0.05,25.97
18562,0.1978,-0.0447,0.8785,-6.17,6.18,-0.02,25.99
18572,0.1752,-0.0413,0.9077,-6.21,8.69,0.0,26.01
18582,0.1947,-0.0411,0.8829,-6.21,8.2,-0.05,26.0
18592,0.198,-0.0447,0.8835,-6.21,6.58,-0.06,25.98
18602,0.1641,-0.0321,0.9119,-6.34,8.93,-0.09,26.02
18612,0.1956,-0.0365,0.8716,-6.23,8.2,-0.05,26.0
18622,0.1936,-0.0393,0.8988,-6.23,6.27,-0.03,25.98
18632,0.1676,-0.0316,0.9084,-6.35,9.57,-0.05,26.02
18642,0.1855,-0.0355,0.8616,-6.24,8.35,-0.12,25.98
18652,0.1869,-0.0299,0.947,-6.4,9.71,-0.17,25.99
18662,0.3157,-0.0396,0.7728,-5.39,-4.64,0.11,25.96
18672,0.0498,-0.0674,0.9897,-6.58,18.78,-0.14,26.0
18682,0.2672,-0.0453,0.817,-6.27,3.15,0.11,25.99
18692,0.1442,-0.0399,0.9534,-6.14,10.35,-0.02,25.96
18702,0.2008,-0.0437,0.8785,-6.37,7.37,-0.06,26.02
18712,0.1755,-0.046,0.8936,-6.24,8.44,-0.05,25.99
18722,0.2073,-0.0419,0.8995,-6.26,7.45,-0.03,25.98
18732,0.1959,-0.0463,0.902,-6.24,7.31,-0.08,26.02
18742,0.1766,-0.0486,0.8745,-6.26,7.62,-0.12,26.02
18752,0.1836,-0.0417,0.8876,-6.21,8.17,-0.02,26.01
18762,0.2062,-0.0443,0.8832,-6.21,6.64,0.06,25.99
18772,0.1899,-0.0372,0.8937,-6.31,6.4,-0.09,26.0
18782,0.1896,-0.0405,0.8807,-6.27,8.66,0.06,26.0
18792,0.1989,-0.0345,0.8816,-6.38,6.53,0.0,25.99
18802,0.1788,-0.0383,0.9082,-6.23,8.46,0.03,25.99
18812,0.2035,-0.0389,0.8876,-6.21,7.73,0.02,26.01
18822,0.175,-0.0396,0.8994,-6.27,7.04,-0.18,26.0
18832,0.1753,-0.043,0.9012,-6.32,9.28,-0.09,25.99
18842,0.2136,-0.0411,0.8776,-6.18,7.05,-0.09,25.99
18852,0.1689,-0.0448,0.887,-6.21,7.66,-0.08,26.0
18862,0.1758,-0.04,0.8663,-6.35,8.32,-0.03,26.0
18872,0.2039,-0.0453,0.8864,-6.14,6.98,-0.05,25.98
18882,0.1892,-0.0416,0.9127,-6.23,7.11,-0.03,26.0
18892,0.1711,-0.0409,0.8947,-6.27,8.92,-0.03,26.01
18902,0.172,-0.0464,0.8993,-6.7,4.67,-0.05,26.03
18912,0.0792,-0.0479,1.0212,-6.87,20.06,-0.18,25.98
18922,0.2188,-0.0312,0.8497,-6.03,-3.88,0.06,25.98
18932,0.1205,-0.0498,0.9419,-6.63,18.56,-0.17,26.01
18942,0.2632,-0.0393,0.8441,-6.03,1.02,0.08,25.99
18952,0.1309,-0.0499,0.9458,-6.32,11.02,-0.09,25.97
18962,0.2025,-0.0457,0.8523,-6.32,8.08,0.02,25.98
18972,0.2009,-0.037,0.8743,-6.2,6.72,0.05,26.01
18982,0.1814,-0.0366,0.9191,-6.34,8.58,-0.02,25.99
18992,0.1953,-0.0404,0.8884,-6.23,8.73,-0.05,26.0
19002,0.2017,-0.0353,0.887,-6.23,6.5,-0.09,26.01
19012,0.2076,-0.0249,0.8777,-6.43,6.9,-0.14,25.99
19022,0.1682,-0.0424,0.9111,-6.14,9.69,-0.02,25.97
19032,0.1781,-0.048,0.8942,-6.41,6.31,-0.06,26.01
19042,0.1803,-0.0308,0.8748,-6.32,10.55,-0.06,26.0
19052,0.1934,-0.0365,0.8639,-6.18,7.02,-0.14,26.0
19062,0.1906,-0.0399,0.9027,-6.41,7.01,-0.05,26.04
19072,0.1761,-0.0411,0.902,-6.35,8.61,0.0,26.02
19082,0.1786,-0.0404,0.8787,-6.31,7.74,-0.06,26.01
19092,0.2002,-0.0339,0.8953,-6.35,7.44,-0.05,26.0
19102,0.1973,-0.0408,0.9067,-6.24,7.89,-0.02,25.99
19112,0.1725,-0.0402,0.8792,-6.26,7.92,-0.06,26.04
19122,0.1843,-0.0385,0.8979,-6.24,8.58,-0.06,26.0
19132,0.2141,-0.0385,0.8969,-6.24,7.83,-0.08,26.0
19142,0.1805,-0.0398,0.8801,-6.34,7.16,-0.03,26.0
19152,0.171,-0.0388,0.885,-6.27,8.35,-0.02,25.99
19162,0.2042,-0.0325,0.8917,-6.34,7.08,-0.08,26.02
19172,0.1774,-0.0405,0.9132,-6.34,8.23,-0.03,26.02
19183,0.1775,-0.0411,0.8857,-6.34,9.01,-0.02,26.0
19193,0.2032,-0.0409,0.8793,-6.24,7.21,-0.03,26.0
19203,0.1875,-0.0331,0.9028,-6.2,7.71,0.02,25.99
19213,0.1887,-0.038,0.8928,-6.29,8.58,-0.03,26.01
19224,0.2107,-0.038,0.8676,-6.27,7.33,-0.05,26.0
19234,0.1791,-0.0393,0.8989,-6.24,6.52,-0.05,25.98
19244,0.1681,-0.0345,0.9069,-6.26,10.17,-0.09,26.0
19254,0.2455,-0.0521,0.8462,-6.05,5.79,0.0,26.02
19264,0.1276,-0.0426,0.9347,-6.41,7.24,-0.11,26.0
19274,0.2178,-0.0417,0.8435,-6.12,11.01,-0.14,25.98
19284,0.1814,-0.0475,0.9038,-6.17,2.53,-0.06,26.0
19294,0.1785,-0.0392,0.9266,-6.37,12.69,-0.05,25.99
19304,0.2191,-0.0427,0.8563,-6.15,4.84,-0.03,26.0
19314,0.1539,-0.0455,0.9032,-6.24,7.8,-0.08,25.99
19324,0.1957,-0.0378,0.8997,-6.23,9.19,-0.05,25.99
19334,0.1901,-0.0392,0.8903,-6.34,7.77,0.0,26.01
19344,0.1713,-0.0438,0.8701,-6.08,7.25,0.02,25.98
19354,0.1885,-0.0356,0.902,-6.34,7.82,-0.12,26.0
19364,0.2021,-0.035,0.9037,-6.35,8.67,-0.09,25.99
19374,0.1901,-0.0477,0.8608,-6.2,6.35,-0.03,26.0
19384,0.1771,-0.0439,0.8823,-6.23,6.7,-0.02,25.99
19394,0.1991,-0.0365,0.9072,-6.27,8.27,-0.09,26.0
19404,0.193,-0.0474,0.8954,-6.29,8.34,-0.08,25.99
19414,0.1985,-0.0399,0.8793,-6.24,7.04,0.02,26.01
19425,0.2034,-0.0387,0.887,-6.24,6.95,-0.02,26.0
19435,0.1946,-0.0452,0.9003,-6.27,7.36,0.02,25.98
19445,0.1727,-0.0428,0.9044,-6.27,9.13,-0.02,25.99
19455,0.2013,-0.0378,0.8687,-6.27,8.05,-0.05,25.97
19465,0.1915,-0.0408,0.8853,-6.21,5.97,-0.03,26.01
19475,0.1674,-0.0406,0.9105,-6.18,9.11,-0.06,25.99
19486,0.1832,-0.0403,0.9111,-6.26,9.22,-0.06,25.99
19496,0.2089,-0.0411,0.8672,-6.24,6.9,0.03,26.01
19506,0.1541,-0.0435,0.9121,-6.24,8.84,-0.02,26.01
19516,0.2119,-0.0369,0.8899,-6.31,8.44,-0.09,26.02
19526,0.2001,-0.0391,0.8921,-6.24,5.86,-0.05,26.01
19536,0.1569,-0.043,0.8961,-6.27,8.4,-0.02,26.0
19546,0.1937,-0.0345,0.8975,-6.34,8.76,-0.02,26.04
19556,0.2141,-0.0355,0.8922,-6.29,7.18,-0.09,26.0
19566,0.1614,-0.0417,0.8812,-6.34,7.8,-0.05,26.0
19576,0.1832,-0.0393,0.876,-6.17,8.89,-0.08,26.0
19586,0.2205,-0.0402,0.8811,-6.09,6.47,-0.03,26.02
19596,0.1621,-0.0463,0.9143,-6.31,7.94,-0.06,26.02
19606,0.191,-0.0413,0.8652,-6.23,9.59,0.03,26.0
19616,0.2014,-0.03,0.8884,-6.32,5.42,0.03,25.98
19626,0.1747,-0.0447,0.9048,-6.27,8.78,0.08,26.02
19636,0.1859,-0.048,0.875,-6.43,7.44,0.03,25.99
19646,0.1779,-0.0522,0.901,-6.23,7.85,-0.02,26.03
19656,0.1827,-0.046,0.9103,-6.26,8.58,0.03,26.02
19666,0.2,-0.0459,0.8894,-6.32,7.89,0.05,26.02
19676,0.1904,-0.0426,0.8917,-6.21,6.93,-0.03,26.03
19686,0.1786,-0.0365,0.8997,-6.15,7.25,-0.06,26.0
19696,0.1981,-0.0375,0.8889,-6.29,7.94,-0.03,25.99
19706,0.1942,-0.0375,0.8981,-6.14,6.96,-0.09,26.01
19716,0.1713,-0.0364,0.903,-6.27,8.27,-0.03,26.01
19726,0.1918,-0.0343,0.8827,-6.34,8.41,-0.05,25.99
19736,0.2164,-0.0592,0.8965,-6.27,6.0,0.0,25.99
19746,0.1414,-0.0648,0.9447,-6.29,15.07,-0.14,26.01
19756,0.1989,-0.0326,0.8088,-6.32,-6.98,0.17,26.0
19766,0.1912,-0.0609,0.9097,-6.41,23.18,-0.11,26.01
19776,0.1938,-0.0225,0.9071,-6.14,-4.31,0.12,26.02
19786,0.1619,-0.0468,0.8966,-6.4,16.73,-0.08,26.01
19796,0.2073,-0.0488,0.8771,-6.03,2.06,0.03,26.01
19806,0.1643,-0.0208,0.9319,-6.31,10.99,-0.06,26.02
19816,0.2039,-0.0348,0.8726,-6.31,7.79,0.06,25.99
19826,0.1678,-0.0461,0.8783,-6.27,5.37,-0.02,26.01
19836,0.1632,-0.0461,0.9269,-6.38,11.73,-0.08,26.0
19846,0.2313,-0.0419,0.8683,-6.37,6.08,0.08,26.03
19856,0.1647,-0.0411,0.8861,-6.2,7.57,0.02,26.03
19866,0.1803,-0.0364,0.8909,-6.24,9.04,-0.03,26.0
19876,0.21,-0.0355,0.8873,-6.21,7.85,-0.03,26.04
19886,0.1953,-0.0428,0.8954,-6.26,7.13,-0.08,26.03
19896,0.191,-0.0405,0.8971,-6.31,7.56,-0.12,25.99
19906,0.1868,-0.0375,0.9041,-6.27,8.55,-0.18,26.02
19916,0.21,-0.0465,0.8885,-6.21,7.51,-0.11,25.98
19926,0.1777,-0.0516,0.9017,-6.26,7.73,-0.08,26.0
19936,0.181,-0.0355,0.8783,-6.21,9.1,-0.08,26.0
19946,0.2045,-0.0415,0.8784,-6.21,6.82,-0.06,26.02
19956,0.1849,-0.0393,0.9093,-6.26,7.48,0.05,26.04
19966,0.1733,-0.0365,0.8865,-6.24,8.67,-0.02,26.02
19976,0.1857,-0.0372,0.8865,-6.26,7.77,-0.08,26.04
19986,0.2075,-0.03,0.8978,-6.34,7.76,0.05,25.98
19996,0.1974,-0.0376,0.8744,-6.29,6.64,-0.06,26.01
20006,0.1581,-0.0355,0.9054,-6.32,8.43,-0.15,25.99
20016,0.2069,-0.0344,0.9021,-6.34,8.92,-0.15,26.0
20026,0.2151,-0.0386,0.8815,-6.27,6.7,0.0,26.0
20036,0.1694,-0.0453,0.8823,-6.27,7.37,-0.05,26.02
20046,0.1775,-0.0396,0.896,-6.35,7.86,-0.09,26.01
20056,0.2059,-0.0459,0.9014,-6.31,8.02,-0.06,26.03
20066,0.2068,-0.0219,0.8613,-6.49,5.39,-0.11,26.04
20076,0.1156,-0.0251,0.926,-6.14,12.32,-0.12,26.03
20086,0.2518,-0.0426,0.8444,-6.21,6.53,-0.03,26.03
20096,0.2168,-0.0477,0.8677,-6.27,3.13,-0.05,26.0
20106,0.1722,-0.0431,0.8801,-6.29,10.31,-0.05,26.03
20116,0.1859,-0.0394,0.8943,-6.31,7.68,-0.12,26.02
20126,0.2112,-0.0449,0.8778,-6.29,7.62,0.0,26.02
20136,0.1996,-0.0481,0.8914,-6.24,5.04,-0.02,26.01
20146,0.1445,-0.0394,0.918,-6.41,10.35,-0.08,26.0
20156,0.2202,-0.0334,0.866,-6.17,7.56,-0.05,26.02
20166,0.1891,-0.0387,0.9113,-6.2,5.11,-0.06,26.02
20176,0.171,-0.0426,0.9034,-6.35,10.27,-0.11,26.01
20186,0.1956,-0.0414,0.87,-6.23,7.01,-0.03,26.02
20197,0.2008,-0.0374,0.8818,-6.31,6.58,-0.09,26.02
20207,0.1917,-0.0404,0.9043,-6.31,8.02,0.03,26.01
20217,0.1776,-0.0421,0.8715,-6.38,8.06,0.03,26.02
20227,0.1924,-0.0397,0.8844,-6.26,7.01,-0.05,25.99
20238,0.1915,-0.0397,0.9126,-6.23,7.22,-0.05,26.01
20248,0.1892,-0.0414,0.9103,-6.31,9.15,-0.08,26.02
20258,0.1932,-0.0464,0.8712,-6.23,7.24,-0.02,26.01
20268,0.1869,-0.0433,0.9143,-6.17,7.18,-0.03,26.0
20278,0.1913,-0.0385,0.915,-6.18,8.96,-0.03,26.02
20288,0.1981,-0.0397,0.8636,-6.23,7.05,-0.03,26.02
20298,0.1862,-0.0385,0.8811,-6.26,6.52,-0.03,26.02
20308,0.189,-0.0342,0.9031,-6.31,9.18,-0.08,26.02
20318,0.2048,-0.045,0.8702,-6.29,6.72,0.05,25.99
20328,0.166,-0.0403,0.8892,-6.35,7.28,-0.05,25.99
20338,0.184,-0.037,0.8953,-6.26,8.95,0.02,26.01
20348,0.197,-0.0378,0.884,-6.29,6.9,0.0,25.99
20358,0.192,-0.0444,0.896,-6.35,6.87,-0.03,26.0
20368,0.1824,-0.042,0.8904,-6.32,8.84,-0.05,26.01
20378,0.2029,-0.0421,0.8782,-6.29,6.53,-0.11,25.99
20388,0.1903,-0.0424,0.9045,-6.26,6.75,0.12,26.02
20399,0.1703,-0.0404,0.9094,-6.31,8.27,0.05,26.04
20409,0.194,-0.0375,0.8773,-6.27,9.36,-0.06,26.02
20419,0.2046,-0.0372,0.8859,-6.23,5.86,-0.09,26.02
20429,0.1941,-0.0381,0.9215,-6.31,8.43,-0.12,26.02
20439,0.1945,-0.0481,0.8755,-6.24,8.14,-0.06,26.01
20449,0.1897,-0.0455,0.8806,-6.18,6.61,-0.06,26.0
20459,0.1675,-0.0355,0.9347,-6.29,10.21,-0.02,26.04
20469,0.2202,-0.0507,0.8574,-6.2,6.52,-0.09,26.04
20479,0.1415,-0.0162,0.8798,-6.34,8.06,0.03,26.02
20489,0.2074,-0.0151,0.8561,-6.15,7.39,0.06,26.0
20499,0.171,-0.0396,0.8873,-6.37,5.76,0.14,26.02
20509,0.1475,-0.0275,0.8818,-6.6,10.35,0.09,26.02
20519,0.223,-0.0287,0.8506,-6.38,5.97,0.0,26.03
20529,0.1859,-0.0526,0.9225,-6.29,6.81,-0.18,26.03
20539,0.1819,-0.0424,0.9243,-6.2,9.57,-0.12,26.02
20549,0.1974,-0.037,0.9064,-6.09,9.24,-0.09,26.02
20559,0.1978,-0.0454,0.9154,-6.2,6.41,-0.08,26.02
20569,0.1833,-0.048,0.9193,-6.21,9.04,-0.02,26.02
20579,0.1982,-0.0448,0.8843,-6.43,8.32,0.06,26.02
20589,0.193,-0.0432,0.8734,-6.23,7.11,0.09,26.02
20599,0.1787,-0.0388,0.8953,-6.29,8.09,0.03,26.02
20609,0.2056,-0.0388,0.8917,-6.23,7.94,-0.11,26.03
20619,0.1747,-0.0359,0.8821,-6.24,7.42,-0.06,26.02
20629,0.1688,-0.0369,0.8969,-6.34,9.19,-0.02,26.03
20639,0.2272,-0.0319,0.8787,-6.26,6.75,-0.06,26.03
20649,0.179,-0.0422,0.9039,-6.37,7.47,-0.05,26.02
20659,0.1698,-0.0536,0.8845,-6.34,9.33,0.03,26.06
20670,0.2007,-0.0483,0.8861,-6.21,8.37,-0.14,26.02
20680,0.2023,-0.0479,0.9117,-6.21,7.97,-0.08,26.01
20690,0.1803,-0.0475,0.8705,-6.24,8.15,-0.09,26.04
20700,0.1877,-0.0338,0.8674,-6.23,6.96,-0.14,26.04
20710,0.1927,-0.0328,0.9127,-6.27,7.44,-0.09,26.02
20720,0.1818,-0.043,0.9111,-6.32,8.66,-0.05,26.01
20730,0.1949,-0.0439,0.8702,-6.24,8.12,-0.09,25.99
20740,0.1947,-0.0294,0.8887,-6.29,6.03,-0.12,26.02
20750,0.1841,-0.0288,0.9167,-6.15,9.44,-0.11,26.01
20760,0.2001,-0.047,0.8734,-6.23,7.4,-0.03,26.04
20770,0.1709,-0.0403,0.8948,-6.35,7.83,-0.09,26.03
20780,0.2008,-0.0365,0.8861,-6.26,8.98,0.0,26.04
20790,0.2106,-0.0438,0.8733,-6.37,6.34,-0.12,26.05
20800,0.1752,-0.0392,0.8971,-6.31,8.35,-0.11,26.04
20810,0.2002,-0.038,0.8788,-6.21,7.45,-0.05,26.03
20820,0.1863,-0.0338,0.9075,-6.37,7.11,-0.05,26.02
20830,0.192,-0.0353,0.9086,-6.34,8.82,-0.14,26.04
20840,0.1958,-0.0437,0.8766,-6.41,6.37,-0.15,26.02
20850,0.1538,-0.0413,0.902,-6.35,8.32,-0.09,26.04
20860,0.1985,-0.0449,0.8873,-6.35,9.04,-0.12,26.04
20870,0.1881,-0.051,0.8661,-6.31,6.56,-0.06,26.02
20880,0.1594,-0.0409,0.8805,-6.23,7.79,-0.03,26.02
20890,0.1941,-0.0371,0.8956,-6.2,8.37,-0.02,26.04
20900,0.2113,-0.0435,0.8964,-6.34,6.9,0.02,26.01
20910,0.1864,-0.0321,0.8826,-6.43,6.99,0.03,26.02
20920,0.1892,-0.0364,0.8899,-6.26,12.69,0.0,26.06
20930,0.266,-0.04,0.8682,-6.17,-1.8,0.02,26.02
20940,0.1018,-0.0443,0.9824,-6.49,15.92,-0.27,26.04
20950,0.2488,-0.0393,0.8306,-6.4,3.94,-0.06,26.02
20960,-0.0753,-0.0435,1.1021,-6.46,33.28,-0.15,26.03
20970,0.3918,-0.0902,0.7236,-5.4,-5.66,0.06,26.04
20980,-0.0555,-0.0463,1.0468,-7.4,21.73,-0.24,26.06
20990,0.3702,-0.0427,0.7185,-5.39,-2.73,0.17,26.0
21000,0.052,-0.0493,1.0321,-6.66,13.6,-0.12,26.02
21010,0.2316,-0.0459,0.8779,-6.4,15.13,0.0,26.0
21020,0.1274,-0.0332,0.9509,-6.26,5.33,0.06,26.04
21030,0.2013,-0.0247,0.876,-6.43,12.47,-0.08,26.06
21040,0.2139,-0.0356,0.8776,-5.95,4.96,0.0,26.03
21050,0.1863,-0.0398,0.9052,-6.37,5.65,-0.05,26.02
21060,0.2007,-0.0444,0.8668,-6.18,10.24,-0.08,26.04
21070,0.2256,-0.0439,0.8342,-5.97,4.98,-0.03,26.04
21080,0.1554,-0.0431,0.9379,-6.32,8.79,-0.08,26.03
21090,0.2223,-0.0404,0.8707,-6.2,9.08,-0.05,26.05
21100,0.1469,-0.0453,0.9104,-6.21,7.69,-0.05,26.04
21110,0.1768,-0.0343,0.9226,-6.24,10.09,-0.03,26.04
21120,0.2236,-0.0366,0.889,-6.23,6.84,-0.02,26.03
21130,0.1678,-0.0419,0.8951,-6.24,6.82,-0.09,26.05
21140,0.1696,-0.0303,0.9059,-6.17,9.54,-0.11,26.04
21150,0.2201,-0.0293,0.8926,-6.4,7.44,-0.11,26.04
21160,0.1733,-0.0492,0.8911,-6.32,7.76,-0.09,26.04
21170,0.1989,-0.0455,0.8518,-6.31,7.02,0.03,26.04
21180,0.1797,-0.0511,0.902,-6.23,6.96,-0.12,26.03
21190,0.1847,-0.0487,0.9019,-6.32,9.21,-0.02,26.03
21200,0.1855,-0.0299,0.8843,-6.23,8.72,0.08,26.04
21210,0.2157,-0.0304,0.8832,-6.32,6.63,-0.06,26.01
21220,0.2295,-0.0399,0.7981,-6.37,14.2,-0.31,26.03
21230,0.1971,-0.0607,0.9088,-5.36,-12.76,0.11,26.01
21240,0.1035,-0.0259,0.9878,-7.13,24.46,-0.18,26.04
21250,0.2374,-0.056,0.8234,-5.88,5.18,-0.02,26.04
21260,0.1218,-0.0457,0.967,-6.35,7.85,-0.03,26.05
21270,0.2429,-0.0317,0.8418,-6.21,10.06,-0.03,25.99
21280,0.1675,-0.0403,0.8984,-6.15,3.45,0.0,26.03
21290,0.1689,-0.037,0.9135,-6.34,13.31,-0.06,26.03
21300,0.241,-0.0282,0.8582,-5.95,3.39,0.02,26.01
21310,0.1356,-0.0421,0.9077,-6.37,10.02,-0.09,26.01
21320,0.2051,-0.038,0.8434,-6.29,7.22,-0.02,26.02
21330,0.1888,-0.0339,0.9218,-6.29,6.98,-0.09,26.03
21340,0.1865,-0.0439,0.912,-6.43,10.15,-0.09,26.03
21350,0.1986,-0.0521,0.8612,-6.24,5.89,-0.06,26.04
21360,0.1509,-0.0469,0.9292,-6.17,9.15,-0.12,26.04
21370,0.2147,-0.0378,0.8818,-6.31,9.16,-0.02,26.04
21380,0.1919,-0.0493,0.8567,-6.08,4.89,-0.09,26.03
21390,0.1527,-0.0364,0.9199,-6.23,9.1,-0.05,26.03
21400,0.2152,-0.0184,0.8954,-6.26,8.02,-0.12,26.01
21410,0.1927,-0.0474,0.8848,-6.27,6.55,-0.09,26.02
21420,0.151,-0.0486,0.9178,-6.49,9.39,-0.11,26.03
21430,0.2219,-0.0458,0.8677,-6.23,9.11,-0.2,26.07
21440,0.1906,-0.0453,0.8981,-6.17,4.27,-0.05,26.03
21450,0.1683,-0.0349,0.9104,-6.43,12.31,-0.11,26.03
21460,0.2296,-0.0397,0.8541,-6.14,4.79,-0.05,26.04
21470,0.162,-0.0378,0.9171,-6.11,8.35,-0.06,26.05
21480,0.2247,-0.0262,0.8953,-6.2,9.59,-0.14,26.04
21490,0.2252,-0.0443,0.8774,-6.17,4.05,-0.09,26.05
21500,0.1365,-0.0378,0.9297,-6.37,9.98,-0.15,26.05
21510,0.2419,-0.0392,0.8619,-6.11,9.18,-0.09,26.04
21520,0.1902,-0.0455,0.8989,-6.24,4.29,-0.2,26.04
21530,0.162,-0.0371,0.8883,-6.29,11.95,-0.14,26.02
21540,0.2189,-0.0352,0.8516,-6.12,5.73,-0.08,26.04
21550,0.1853,-0.0338,0.9208,-6.31,7.27,0.0,26.01
21560,0.1791,-0.0317,0.8982,-6.47,9.45,-0.09,26.04
21570,0.1973,-0.0349,0.8685,-6.23,7.76,-0.12,26.03
21580,0.209,-0.0325,0.894,-6.31,6.17,-0.2,26.04
21590,0.1709,-0.0383,0.9188,-6.35,9.24,-0.09,26.04
21600,0.1895,-0.0453,0.8738,-6.31,8.75,-0.03,26.03
21610,0.2013,-0.0378,0.886,-6.2,7.16,-0.02,26.03
21620,0.2006,-0.045,0.8966,-6.31,7.6,-0.12,26.04
21630,0.1965,-0.0499,0.8787,-6.18,6.98,-0.11,26.06
21640,0.178,-0.0427,0.9009,-6.27,7.98,-0.08,26.04
21650,0.1849,-0.0408,0.9091,-6.29,8.93,-0.02,26.04
21660,0.2091,-0.041,0.889,-6.14,7.25,0.03,26.04
21670,0.1826,-0.035,0.8993,-6.21,7.15,-0.14,26.05
21680,0.1742,-0.0376,0.8921,-6.34,8.05,-0.08,26.05
21690,0.176,-0.037,0.9017,-6.2,8.09,0.03,26.04
21700,0.1813,-0.0355,0.8911,-6.32,8.34,-0.02,26.05
21710,0.1818,-0.0359,0.8721,-6.24,7.1,-0.11,26.04
21720,0.1709,-0.0322,0.89,-6.24,6.89,-0.02,26.04
21730,0.1704,-0.0393,0.9221,-6.38,8.55,-0.11,26.06
21740,0.1703,-0.0479,0.8827,-6.38,8.55,0.0,26.06
21750,0.1644,-0.0433,0.881,-6.4,8.17,-0.05,26.04
21760,0.2369,-0.1801,0.8014,-5.74,4.89,-0.06,26.01
21770,0.0845,0.0837,0.972,-6.92,22.7,-0.41,26.05
21780,0.2863,-0.0176,0.7808,-6.41,5.69,-0.02,26.02
21790,0.1766,-0.0437,0.8947,-6.02,7.08,0.11,26.04
21800,0.1628,-0.0555,0.9156,-6.72,12.18,-0.02,26.03
21810,0.2203,-0.0547,0.8274,-6.17,5.79,-0.06,26.04
21820,0.1597,-0.0519,0.9215,-6.24,9.02,0.12,26.02
21830,0.2086,-0.0399,0.8993,-6.41,9.21,-0.02,26.04
21840,0.2003,-0.0464,0.9026,-6.18,8.5,-0.03,26.06
21850,0.1694,-0.0513,0.907,-6.23,8.47,-0.08,26.04
21860,0.215,-0.037,0.8528,-6.41,9.15,-0.06,26.02
21870,0.1993,-0.0466,0.8998,-6.12,3.48,0.0,26.05
21880,0.1542,-0.0372,0.9236,-6.31,10.5,0.0,26.05
21890,0.194,-0.0348,0.866,-6.31,7.69,-0.02,26.02
21900,0.1932,-0.0348,0.8547,-6.29,5.79,0.02,26.04
21910,0.1729,-0.0413,0.9106,-6.38,7.77,-0.05,26.05
21920,0.1877,-0.0391,0.8881,-6.35,9.68,0.03,26.02
21930,0.2052,-0.0339,0.8645,-6.18,7.4,-0.05,26.05
21940,0.1829,-0.04,0.9249,-6.18,7.85,-0.08,26.05
21950,0.1823,-0.0449,0.911,-6.35,9.16,-0.12,26.01
21960,0.1876,-0.0461,0.8636,-6.21,8.27,-0.09,26.03
21970,0.1865,-0.048,0.8873,-6.26,6.5,0.0,26.05
21980,0.1851,-0.04,0.9099,-6.27,8.89,0.0,26.03
21990,0.1857,-0.0426,0.8645,-6.24,7.48,-0.03,26.07
22000,0.1649,-0.0374,0.9001,-6.34,7.16,-0.06,26.02
22010,0.1985,-0.033,0.9133,-6.23,9.85,0.09,26.06
22020,0.2034,-0.0406,0.8804,-6.37,5.69,0.03,26.05
22030,0.1461,-0.0391,0.9031,-6.4,9.69,-0.08,26.05
22040,0.2113,-0.0394,0.8743,-6.34,7.74,-0.03,26.05
22050,0.1996,-0.0436,0.8978,-6.27,6.66,-0.09,26.05
22060,0.1683,-0.0498,0.8984,-6.38,9.01,-0.14,26.06
22070,0.2086,-0.0432,0.8807,-6.27,8.12,-0.05,26.04
22080,0.2021,-0.042,0.8965,-6.15,6.31,-0.05,26.06
22090,0.1769,-0.049,0.9109,-6.31,9.13,-0.06,26.06
22100,0.2068,-0.0396,0.8688,-6.35,8.44,-0.06,26.05
22110,0.2008,-0.0483,0.884,-6.31,6.27,-0.08,26.07
22120,0.1698,-0.0404,0.9358,-6.38,9.92,-0.12,26.05
22130,0.2396,-0.0388,0.8567,-6.14,7.71,-0.03,26.07
22140,0.1672,-0.0393,0.8986,-6.21,6.73,-0.11,26.05
22150,0.1892,-0.0304,0.8916,-6.26,9.56,-0.09,26.06
22160,0.2181,-0.035,0.8848,-6.26,6.41,-0.03,26.05
22170,0.1656,-0.0344,0.8944,-6.35,7.73,0.0,26.07
22180,0.1814,-0.042,0.8916,-6.26,8.75,-0.09,26.06
22190,0.22,-0.0341,0.8951,-6.18,6.76,-0.08,26.04
22200,0.1775,-0.0405,0.9026,-6.23,7.39,-0.11,26.07
22210,0.1611,-0.0417,0.8838,-6.15,9.21,-0.05,26.05
22220,0.2017,-0.0333,0.8822,-6.32,7.85,-0.12,26.06
22230,0.2054,-0.0419,0.8883,-6.23,6.78,-0.12,26.03
22240,0.1716,-0.047,0.8792,-6.34,7.3,-0.03,26.05
22250,0.1774,-0.0411,0.8976,-6.26,8.38,-0.02,26.05
22260,0.1851,-0.0469,0.9091,-6.26,8.58,-0.09,26.04
22270,0.1865,-0.0403,0.8816,-6.35,8.6,-0.11,26.03
22280,0.192,-0.0388,0.8777,-6.23,5.92,-0.11,26.05
22290,0.1689,-0.0403,0.9274,-6.34,8.23,-0.05,26.06
22300,0.1947,-0.0452,0.8972,-6.32,9.39,-0.03,26.05
22310,0.2051,-0.045,0.8704,-6.21,6.63,-0.06,26.06
22320,0.1805,-0.0393,0.8894,-6.24,6.73,-0.11,26.07
22330,0.189,-0.038,0.905,-6.24,9.39,-0.09,26.04
22340,0.2188,-0.0436,0.8704,-6.2,6.03,0.0,26.06
22350,0.1636,-0.0452,0.9001,-6.32,7.07,-0.05,26.05
22360,0.2174,-0.0359,0.8676,-6.21,7.39,0.03,26.03
22370,0.181,-0.0388,0.9103,-6.26,6.72,0.0,26.06
22380,0.1649,-0.0416,0.8882,-6.34,9.47,-0.09,26.07
22390,0.1871,-0.0382,0.863,-6.26,7.65,-0.06,26.07
22400,0.194,-0.0349,0.8983,-6.23,6.5,-0.15,26.04
22410,0.1725,-0.0389,0.92,-6.38,7.63,-0.02,26.04
22420,0.1975,-0.0449,0.8625,-6.24,7.07,-0.06,26.04
22430,0.1852,-0.035,0.9177,-6.31,7.01,-0.06,26.06
22440,0.1858,-0.0353,0.932,-6.32,9.28,-0.05,26.04
22450,0.2079,-0.04,0.8723,-6.34,7.88,-0.03,26.05
22460,0.1852,-0.0421,0.8936,-6.29,6.79,-0.06,26.04
22470,0.1844,-0.0392,0.915,-6.27,9.16,-0.06,26.05
22480,0.2012,-0.0425,0.8793,-6.23,8.41,-0.03,26.07
22490,0.1818,-0.0437,0.8718,-6.23,6.92,-0.05,26.06
22500,0.1869,-0.0405,0.8954,-6.23,7.4,0.02,26.03
22510,0.1786,-0.0408,0.9038,-6.23,7.88,-0.12,26.04
22520,0.1781,-0.0397,0.9045,-6.23,8.9,-0.05,26.03
22530,0.2113,-0.0353,0.8757,-6.23,7.54,-0.02,26.05
22540,0.1959,-0.0339,0.8977,-6.35,6.6,-0.05,26.05
22550,0.1796,-0.035,0.9142,-6.29,8.7,0.0,26.06
22560,0.1871,-0.0371,0.8837,-6.35,8.69,-0.12,26.04
22570,0.1974,-0.0323,0.8732,-6.23,6.78,-0.11,26.04
22580,0.1874,-0.0367,0.9103,-6.37,7.8,-0.09,26.05
22590,0.1995,-0.0381,0.9053,-6.4,8.15,-0.06,26.06
22600,0.1737,-0.0415,0.8944,-6.49,8.32,-0.05,26.05
22610,0.1975,-0.015,0.895,-6.34,9.11,0.02,26.08
22620,0.2368,-0.0784,0.8826,-6.47,6.09,-0.05,26.07
22630,0.1313,-0.0421,0.9246,-6.52,7.37,-0.05,26.07
22640,0.212,-0.0338,0.8713,-6.38,12.56,-0.06,26.06
22650,0.212,-0.0585,0.8986,-6.24,1.97,0.05,26.05
22660,0.1509,-0.0426,0.9384,-6.49,14.09,-0.06,26.06
22670,0.2275,-0.0391,0.8325,-6.44,3.66,0.0,26.06
22680,0.1368,-0.0426,0.9427,-6.26,10.02,-0.03,26.05
22690,0.2184,-0.0474,0.8612,-6.37,8.66,0.0,26.07
22700,0.1681,-0.0471,0.8779,-6.41,6.23,-0.06,26.07
22710,0.1674,-0.0441,0.9047,-6.35,10.18,0.08,26.08
22720,0.1704,-0.0355,0.9133,-6.52,10.47,0.0,26.06
22730,0.2371,-0.041,0.8315,-6.21,7.63,0.03,26.09
22740,0.1438,-0.0389,0.8987,-6.37,6.29,-0.02,26.04
22750,0.1989,-0.0349,0.8768,-6.27,10.78,-0.02,26.06
22760,0.2095,-0.0333,0.875,-6.29,3.65,0.02,26.05
22770,0.1554,-0.0444,0.9299,-6.29,10.4,-0.09,26.06
22780,0.2072,-0.0399,0.8562,-6.2,7.31,-0.08,26.05
22790,0.1807,-0.0553,0.9021,-6.29,6.55,-0.06,26.04
22800,0.1877,-0.0367,0.9214,-6.26,8.73,-0.09,26.05
22810,0.1938,-0.0424,0.8893,-6.37,7.88,-0.02,26.06
22820,0.1844,-0.0525,0.8916,-6.15,7.51,0.02,26.04
22830,0.1941,-0.0433,0.8977,-6.27,7.92,-0.05,26.07
22840,0.1941,-0.0415,0.8823,-6.29,8.66,0.03,26.06
22850,0.1887,-0.0454,0.85,-6.24,7.19,0.05,26.08
22860,0.186,-0.0343,0.8923,-6.29,6.78,-0.03,26.04
22870,0.1819,-0.0288,0.9049,-6.47,9.18,-0.09,26.07
22880,0.1843,-0.053,0.853,-6.14,8.03,-0.08,26.05
22890,0.174,-0.0369,0.8705,-6.2,5.51,-0.08,26.07
22900,0.171,-0.0262,0.9293,-6.26,10.27,-0.08,26.08
22910,0.2072,-0.0422,0.8667,-6.27,6.81,-0.06,26.07
22920,0.1182,-0.0354,0.9196,-6.6,8.03,-0.15,26.05
22930,0.2212,-0.0311,0.8864,-6.46,14.73,-0.12,26.06
22940,0.2173,-0.0345,0.8668,-6.15,-1.01,0.03,26.07
22950,0.1338,-0.0509,0.941,-6.49,14.72,-0.11,26.07
22960,0.2373,-0.0333,0.8634,-6.31,4.53,0.0,26.09
22970,0.1754,-0.0404,0.9437,-6.35,8.14,-0.03,26.06
22980,0.2079,-0.0396,0.9147,-6.38,9.21,-0.02,26.08
22990,0.214,-0.0382,0.8951,-6.31,6.98,0.06,26.08
23000,0.1881,-0.0392,0.9069,-6.29,7.77,-0.06,26.04
23010,0.1823,-0.0405,0.9047,-6.37,9.18,0.02,26.05
23020,0.2183,-0.0312,0.8717,-6.26,8.03,0.06,26.08
23030,0.1863,-0.0463,0.8719,-6.23,6.4,-0.11,26.07
23040,0.1709,-0.0483,0.9121,-6.26,8.58,-0.06,26.08
23050,0.1915,-0.0199,0.9344,-6.41,8.35,-0.12,26.09
23060,0.2421,-0.0625,0.8267,-6.02,3.16,0.09,26.07
23070,0.1171,-0.0573,0.9254,-6.35,3.73,0.09,26.06
23080,0.2798,-0.0383,0.8199,-6.2,7.53,0.12,26.07
23090,0.1321,-0.0479,0.9393,-6.27,5.73,0.11,26.08
23100,0.1189,-0.0439,0.9115,-6.46,13.56,0.02,26.06
23110,0.2297,-0.0299,0.8292,-6.23,5.16,0.02,26.06
23120,0.1611,-0.037,0.9122,-6.31,10.08,0.0,26.08
23130,0.1805,-0.0417,0.8522,-6.29,8.0,0.02,26.07
23140,0.1703,-0.0406,0.8568,-6.24,7.53,-0.18,26.06
23150,0.1886,-0.0354,0.8909,-6.21,7.82,-0.24,26.07
23160,0.1899,-0.0454,0.8944,-6.32,7.86,-0.17,26.07
23170,0.1893,-0.0446,0.8859,-6.38,7.33,-0.12,26.08
23180,0.184,-0.0477,0.9138,-6.24,7.39,-0.02,26.08
23190,0.1815,-0.0448,0.9128,-6.24,8.81,0.02,26.07
23200,0.2057,-0.0367,0.8951,-6.2,8.23,0.05,26.04
23210,0.2042,-0.0337,0.8798,-6.31,6.61,-0.03,26.07
23220,0.1797,-0.027,0.9067,-6.37,7.21,-0.03,26.07
23230,0.1902,-0.0176,0.9098,-6.24,8.61,-0.02,26.07
23240,0.1976,-0.037,0.895,-6.27,7.92,-0.2,26.06
23250,0.1715,-0.0477,0.8805,-6.41,7.36,-0.14,26.05
23260,0.1962,-0.0402,0.8746,-6.26,8.02,-0.02,26.05
23270,0.2037,-0.0461,0.8925,-6.12,5.98,-0.05,26.07
23324,0.1425,-0.0481,0.9194,-6.6,13.1,-0.14,26.09
23334,0.2253,-0.0414,0.8298,-6.35,5.89,-0.03,26.09
23344,0.1815,-0.0361,0.906,-6.29,5.89,-0.08,26.09
23354,0.171,-0.0452,0.9274,-6.53,10.87,-0.08,26.07
23364,0.2253,-0.0521,0.8446,-6.08,6.26,-0.05,26.07
23374,0.1559,-0.0457,0.9205,-6.34,6.72,-0.02,26.08
23384,0.1959,-0.0498,0.9001,-6.29,9.8,-0.09,26.09
23394,0.2023,-0.0498,0.8818,-6.18,6.4,-0.06,26.07
23404,0.1816,-0.0461,0.8969,-6.24,8.34,-0.05,26.06
23414,0.2072,-0.0465,0.8834,-6.24,7.86,-0.06,26.09
23424,0.2054,-0.0409,0.9004,-6.18,7.18,-0.08,26.06
23434,0.1956,-0.038,0.8999,-6.14,8.08,-0.12,26.09
23444,0.1852,-0.0361,0.8943,-6.21,7.83,0.06,26.09
23454,0.1897,-0.0358,0.8955,-6.29,7.79,0.03,26.08
23464,0.1925,-0.0322,0.9008,-6.31,8.03,-0.03,26.07
23474,0.1825,-0.0413,0.8793,-6.29,7.42,-0.12,26.07
23484,0.1572,-0.0399,0.8999,-6.32,7.65,-0.05,26.08
23494,0.1897,-0.0321,0.908,-6.31,9.33,-0.03,26.1
23504,0.1951,-0.0403,0.8647,-6.32,7.04,0.02,26.09
23514,0.1617,-0.0453,0.8777,-6.43,7.19,-0.09,26.08
23524,0.1854,-0.0376,0.9006,-6.37,8.46,-0.02,26.1
23534,0.1985,-0.0404,0.897,-6.38,8.15,-0.12,26.09
23544,0.1863,-0.0437,0.8744,-6.29,6.92,-0.03,26.09
23554,0.1935,-0.0374,0.9056,-6.27,7.19,-0.08,26.08
23564,0.2014,-0.0427,0.9269,-6.2,7.56,-0.08,26.06
23574,0.1844,-0.049,0.8951,-6.21,8.89,-0.09,26.08
23584,0.2013,-0.0419,0.8655,-6.26,7.66,-0.02,26.06
23594,0.2025,-0.04,0.8892,-6.14,6.47,-0.02,26.07
23604,0.1798,-0.0448,0.9104,-6.23,8.05,-0.08,26.08
23614,0.1804,-0.0322,0.8938,-6.26,8.69,-0.03,26.08
23624,0.2026,-0.0308,0.8865,-6.2,7.68,-0.11,26.09
23634,0.1953,-0.0316,0.9005,-6.26,6.72,-0.11,26.07
23644,0.1764,-0.0361,0.8971,-6.4,8.55,-0.03,26.08
23654,0.189,-0.0463,0.8657,-6.27,8.5,0.05,26.07
23664,0.1842,-0.0367,0.8737,-6.29,6.75,-0.06,26.08
23674,0.1865,-0.0364,0.9106,-6.37,9.13,-0.12,26.06
23684,0.2141,-0.0365,0.8601,-6.23,6.67,-0.03,26.08
23694,0.161,-0.0421,0.9062,-6.27,7.6,-0.09,26.11
23704,0.1929,-0.0414,0.9037,-6.29,9.01,0.0,26.08
23714,0.2034,-0.0413,0.8992,-6.34,7.24,-0.03,26.08
23724,0.178,-0.0465,0.8806,-6.17,7.53,0.05,26.08
23734,0.1826,-0.0428,0.8933,-6.27,7.15,-0.05,26.07
23744,0.1923,-0.0403,0.9154,-6.24,9.13,-0.05,26.07
23754,0.1904,-0.0515,0.8639,-6.27,8.06,0.0,26.07
23764,0.1842,-0.0414,0.871,-6.31,6.96,-0.03,26.09
23774,0.1897,-0.0394,0.897,-6.2,7.59,0.0,26.08
23784,0.1879,-0.0442,0.8901,-6.29,8.0,-0.12,26.08
23794,0.179,-0.0388,0.8772,-6.2,7.88,-0.09,26.09
23804,0.1971,-0.0349,0.894,-6.2,8.11,-0.11,26.09
23814,0.2169,-0.0372,0.896,-6.26,6.66,-0.06,26.08
23824,0.1852,-0.0398,0.9093,-6.17,7.24,-0.08,26.08
23834,0.1735,-0.0388,0.9031,-6.2,9.62,-0.05,26.09
23844,0.2057,-0.0422,0.8794,-6.32,7.82,0.0,26.09
23854,0.2014,-0.04,0.891,-6.24,6.34,-0.09,26.09
23864,0.1747,-0.0449,0.9021,-6.29,8.34,-0.08,26.06
23874,0.1882,-0.0425,0.887,-6.32,8.67,-0.05,26.08
23884,0.1991,-0.037,0.8806,-6.31,7.27,-0.08,26.09
23894,0.1849,-0.0398,0.8956,-6.24,7.54,-0.02,26.08
23904,0.165,-0.0452,0.8832,-6.32,8.26,0.0,26.07
23914,0.1805,-0.0424,0.8767,-6.29,7.63,-0.02,26.07
23924,0.1871,-0.0363,0.9019,-6.24,7.95,-0.06,26.1
23934,0.1804,-0.0463,0.8861,-6.29,8.63,0.03,26.09
23944,0.1926,-0.041,0.8729,-6.23,6.52,0.05,26.1
23954,0.1791,-0.0406,0.9258,-6.23,7.69,-0.09,26.08
23964,0.1907,-0.0474,0.9019,-6.34,9.27,-0.11,26.07
23974,0.1912,-0.0431,0.8687,-6.26,6.63,-0.14,26.08
23984,0.1829,-0.0447,0.9037,-6.18,7.53,-0.02,26.08
23994,0.1907,-0.0454,0.913,-6.24,8.47,-0.05,26.08
24004,0.187,-0.0514,0.8823,-6.18,8.27,-0.05,26.11
24014,0.1906,-0.0457,0.8817,-6.17,7.37,0.0,26.07
24024,0.1836,-0.0387,0.8955,-6.18,8.11,-0.14,26.07
24034,0.1914,-0.0385,0.8768,-6.26,7.79,-0.05,26.07
24044,0.179,-0.0366,0.8843,-6.21,7.27,-0.11,26.07
24054,0.1854,-0.0305,0.903,-6.18,8.31,-0.06,26.09
24064,0.209,-0.0293,0.902,-6.35,7.83,-0.14,26.08
24074,0.1974,-0.0376,0.9044,-6.37,7.34,0.0,26.09
24084,0.1707,-0.0396,0.901,-6.32,8.37,0.02,26.08
24094,0.1825,-0.0389,0.886,-6.29,8.47,-0.03,26.06
24104,0.2037,-0.0427,0.8818,-6.27,7.76,-0.03,26.07
24114,0.1908,-0.0469,0.864,-6.23,6.46,-0.08,26.07
24124,0.1667,-0.0405,0.8994,-6.26,7.42,-0.08,26.08
24134,0.1952,-0.0392,0.9154,-6.35,8.95,-0.03,26.08
24144,0.2046,-0.0369,0.8927,-6.38,7.71,-0.03,26.08
24154,0.1841,-0.035,0.8861,-6.4,7.1,-0.05,26.1
24164,0.1874,-0.0391,0.9064,-6.35,8.0,-0.09,26.08
24174,0.188,-0.0381,0.897,-6.37,9.33,-0.02,26.08
24184,0.1848,-0.0449,0.8457,-6.32,7.57,0.0,26.08
24194,0.1974,-0.0358,0.8724,-6.26,6.49,-0.02,26.09
24204,0.1949,-0.0367,0.9078,-6.29,7.24,-0.06,26.12
24214,0.1749,-0.0393,0.907,-6.38,8.89,-0.05,26.1
24224,0.1976,-0.0315,0.8903,-6.41,8.38,-0.03,26.09
24234,0.2065,-0.0374,0.9005,-6.26,7.08,-0.03,26.09
24244,0.1757,-0.0436,0.9064,-6.26,7.85,-0.06,26.1
24254,0.1678,-0.0469,0.8872,-6.29,8.76,-0.06,26.08
24264,0.1951,-0.0404,0.8702,-6.29,7.68,-0.09,26.09
24274,0.1938,-0.0417,0.8726,-6.17,7.08,0.0,26.06
24284,0.1849,-0.0443,0.9003,-6.31,7.71,0.0,26.09
24294,0.1837,-0.0385,0.8851,-6.34,7.5,0.0,26.07
24304,0.197,-0.0386,0.8982,-6.18,7.74,0.02,26.07
24314,0.201,-0.041,0.9042,-6.24,7.95,-0.17,26.09
24324,0.1912,-0.0404,0.8823,-6.35,8.27,-0.02,26.08
24334,0.1858,-0.0396,0.8744,-6.24,7.36,0.03,26.1
24344,0.1812,-0.0454,0.9147,-6.18,7.91,0.05,26.09
24354,0.1942,-0.0409,0.8976,-6.31,8.75,0.02,26.07
24364,0.1978,-0.0419,0.8683,-6.27,6.78,-0.02,26.1
24374,0.1813,-0.0383,0.9052,-6.21,7.19,-0.02,26.08
24384,0.1785,-0.0375,0.9174,-6.34,9.69,0.03,26.08
24394,0.1971,-0.0397,0.8616,-6.27,7.51,0.02,26.12
24404,0.1777,-0.0361,0.8929,-6.29,6.29,-0.02,26.09
24414,0.1833,-0.0345,0.9155,-6.29,8.79,0.0,26.07
24424,0.1952,-0.0454,0.8805,-6.38,8.55,-0.05,26.09
24434,0.1967,-0.0469,0.8647,-6.17,6.63,-0.05,26.07
24444,0.1866,-0.0454,0.897,-6.23,7.02,-0.08,26.09
24454,0.183,-0.0444,0.8953,-6.24,9.04,-0.02,26.11
24464,0.1982,-0.0469,0.8713,-6.34,8.0,-0.05,26.08
24474,0.1808,-0.0391,0.8881,-6.37,6.92,-0.05,26.1
24484,0.1818,-0.0388,0.9111,-6.34,8.56,-0.09,26.09
24494,0.2018,-0.0405,0.8951,-6.29,7.44,0.05,26.07
24504,0.1904,-0.041,0.8905,-6.29,7.19,-0.15,26.09
24514,0.1748,-0.0397,0.8983,-6.27,7.21,-0.03,26.11
24524,0.1743,-0.0403,0.9039,-6.37,9.16,0.02,26.09
24534,0.2053,-0.0397,0.8679,-6.41,7.89,0.03,26.09
24544,0.1858,-0.0405,0.8652,-6.27,6.53,-0.03,26.08
24554,0.1831,-0.0431,0.8975,-6.34,7.07,-0.02,26.09
24564,0.182,-0.0392,0.9183,-6.27,8.84,-0.11,26.07
24574,0.1993,-0.042,0.8762,-6.37,7.76,-0.06,26.07
24584,0.1865,-0.0411,0.8959,-6.29,6.85,-0.08,26.1
24594,0.1941,-0.0391,0.9244,-6.23,8.47,-0.02,26.09
24604,0.1863,-0.0505,0.889,-6.32,9.01,-0.09,26.12
24614,0.1753,-0.0477,0.8541,-6.31,7.86,-0.05,26.1
24624,0.2019,-0.0393,0.874,-6.34,6.55,0.06,26.1
24634,0.1805,-0.0398,0.9016,-6.32,7.33,-0.05,26.09
24644,0.1702,-0.0436,0.8988,-6.21,8.92,0.03,26.1
24654,0.203,-0.0309,0.8879,-6.23,7.86,-0.09,26.1
24664,0.2032,-0.0387,0.8998,-6.24,7.05,-0.12,26.1
24674,0.1841,-0.0388,0.901,-6.24,7.6,-0.08,26.11
24684,0.1744,-0.0393,0.8969,-6.31,8.84,-0.08,26.1
24694,0.2081,-0.0388,0.8739,-6.32,8.35,0.05,26.1
24704,0.2001,-0.0443,0.8781,-6.38,6.44,-0.03,26.13
24714,0.1759,-0.0498,0.9017,-6.4,7.31,-0.08,26.1
24724,0.1735,-0.0419,0.9001,-6.35,8.6,0.02,26.09
24734,0.2047,-0.0413,0.8979,-6.34,7.95,-0.11,26.1
24744,0.202,-0.0408,0.9016,-6.29,6.66,-0.15,26.09
24754,0.1719,-0.0442,0.9028,-6.24,7.94,0.03,26.12
24764,0.1831,-0.0342,0.9036,-6.41,8.41,-0.03,26.09
24774,0.1987,-0.0385,0.9045,-6.29,8.38,0.03,26.11
24784,0.1887,-0.0436,0.8768,-6.27,8.17,-0.09,26.06
24794,0.1797,-0.0352,0.8629,-6.24,7.28,-0.06,26.09
24804,0.196,-0.0352,0.903,-6.26,7.63,-0.11,26.1
24814,0.1888,-0.0421,0.8916,-6.26,8.32,-0.11,26.09
24824,0.1832,-0.0466,0.8723,-6.26,7.66,-0.09,26.11
24834,0.2023,-0.0394,0.8933,-6.12,7.48,-0.06,26.11
24844,0.2024,-0.0415,0.9045,-6.38,7.07,-0.08,26.1
24854,0.1674,-0.0472,0.9011,-6.26,9.08,-0.05,26.12
24864,0.1926,-0.0387,0.8815,-6.38,8.4,0.03,26.1
24874,0.2089,-0.0381,0.8936,-6.35,6.81,-0.03,26.11
24884,0.1814,-0.0435,0.9006,-6.29,7.24,0.05,26.12
24894,0.1727,-0.0424,0.908,-6.31,7.97,-0.11,26.11
24904,0.2019,-0.0331,0.8949,-6.17,8.21,-0.08,26.11
24914,0.1942,-0.0422,0.8942,-6.37,7.6,-0.09,26.11
24924,0.174,-0.0453,0.8948,-6.23,8.09,-0.03,26.11
24934,0.1681,-0.0402,0.8802,-6.31,8.35,0.0,26.09
24944,0.1787,-0.0436,0.8768,-6.18,8.73,-0.05,26.11
24954,0.1919,-0.0449,0.8713,-6.24,7.91,-0.08,26.09
24964,0.1851,-0.0457,0.8646,-6.21,6.11,-0.08,26.1
24974,0.1689,-0.0403,0.8984,-6.27,7.59,-0.11,26.1
24984,0.199,-0.0331,0.9183,-6.12,8.93,-0.06,26.11
24994,0.2076,-0.0391,0.8889,-6.21,7.76,0.05,26.1
25004,0.1956,-0.0336,0.8875,-6.26,6.78,-0.06,26.1
25014,0.1946,-0.0299,0.928,-6.27,8.14,-0.02,26.12
25024,0.2013,-0.051,0.9041,-6.32,8.7,-0.06,26.11
25034,0.1761,-0.0383,0.8822,-6.41,8.66,0.02,26.11
25044,0.1953,-0.0403,0.8708,-6.2,7.59,0.03,26.12
25054,0.1931,-0.0565,0.8916,-6.23,7.01,-0.11,26.11
25064,0.161,-0.0347,0.8901,-6.12,7.86,0.0,26.1
25074,0.1465,-0.0383,0.8995,-6.29,8.49,0.0,26.1
25084,0.2115,-0.0455,0.8877,-6.31,6.76,-0.06,26.09
25094,0.1716,-0.0381,0.9135,-6.34,7.8,-0.12,26.08
25104,0.1875,-0.0533,0.8854,-6.17,8.9,-0.12,26.11
25114,0.2101,-0.0442,0.8945,-6.2,6.43,-0.03,26.14
25124,0.1884,-0.0344,0.9128,-6.31,8.2,-0.12,26.1
25134,0.1823,-0.0508,0.8943,-6.32,8.37,-0.2,26.09
25144,0.1842,-0.0455,0.8748,-6.2,8.15,-0.09,26.1
25154,0.2063,-0.0291,0.8702,-6.14,7.27,-0.09,26.09
25164,0.1951,-0.0428,0.8923,-6.29,6.61,-0.06,26.12
25174,0.1848,-0.0343,0.8844,-6.27,7.05,0.0,26.12
25184,0.1639,-0.0326,0.884,-6.37,7.65,-0.02,26.1
25194,0.1842,-0.0312,0.9165,-6.17,8.85,-0.05,26.09
25204,0.2103,-0.0266,0.8887,-6.29,7.34,-0.08,26.11
25214,0.174,-0.0389,0.8906,-6.4,7.4,-0.11,26.11
25224,0.1924,-0.0342,0.8927,-6.24,7.83,-0.08,26.13
25234,0.1941,-0.0316,0.9174,-6.29,8.56,0.0,26.1
25244,0.1979,-0.0419,0.8789,-6.31,8.63,0.02,26.11
25254,0.1971,-0.0399,0.8654,-6.31,6.18,0.03,26.12
25264,0.183,-0.0344,0.916,-6.44,7.91,-0.02,26.1
25274,0.1812,-0.0509,0.8943,-6.31,9.05,-0.02,26.1
25284,0.1844,-0.0426,0.8812,-6.34,7.98,0.0,26.12
25294,0.198,-0.037,0.8962,-6.23,7.6,-0.03,26.12
25304,0.1997,-0.0438,0.8959,-6.38,6.75,-0.02,26.11
25314,0.1542,-0.0413,0.9016,-6.21,8.98,-0.06,26.14
25324,0.1871,-0.0403,0.8778,-6.24,9.02,0.05,26.11
25334,0.2053,-0.0388,0.87,-6.24,6.66,-0.02,26.11
25344,0.1869,-0.041,0.886,-6.18,6.93,-0.03,26.13
25354,0.171,-0.0424,0.8948,-6.24,8.0,-0.03,26.11
25364,0.186,-0.0408,0.8965,-6.29,8.06,-0.09,26.1
25374,0.203,-0.0367,0.9011,-6.27,7.28,-0.06,26.09
25384,0.1887,-0.0405,0.9094,-6.21,8.11,-0.12,26.13
25394,0.1891,-0.0359,0.891,-6.31,7.62,0.02,26.1
25404,0.1768,-0.0385,0.9086,-6.29,8.41,0.02,26.11
25414,0.2014,-0.0441,0.8927,-6.2,9.1,-0.03,26.1
25424,0.1974,-0.0466,0.8604,-6.37,6.87,0.02,26.11
25434,0.1852,-0.0441,0.8871,-6.23,6.98,-0.09,26.11
25444,0.2017,-0.0358,0.9116,-6.31,8.17,-0.05,26.13
25454,0.187,-0.051,0.8972,-6.29,8.81,0.02,26.12
25464,0.2028,-0.038,0.8698,-6.21,7.19,0.0,26.11
25474,0.1935,-0.0354,0.9125,-6.29,7.11,-0.12,26.14
25484,0.1835,-0.0443,0.9041,-6.2,9.07,0.05,26.1
25494,0.1829,-0.041,0.8611,-6.35,7.74,0.09,26.11
25504,0.1851,-0.0415,0.8854,-6.23,7.83,-0.02,26.13
25515,0.1973,-0.0316,0.8806,-6.21,7.82,-0.02,26.11
25525,0.1796,-0.0358,0.8857,-6.34,6.92,0.03,26.15
25535,0.1699,-0.0365,0.8943,-6.29,8.11,-0.03,26.12
25545,0.1837,-0.0325,0.9014,-6.37,7.86,-0.05,26.13
25555,0.1909,-0.0366,0.9055,-6.31,8.64,-0.09,26.13
25565,0.1978,-0.0378,0.8782,-6.43,7.25,-0.06,26.12
25575,0.1754,-0.0415,0.8977,-6.26,7.77,-0.11,26.12
25585,0.1818,-0.0414,0.892,-6.4,8.76,-0.11,26.13
25595,0.2034,-0.0432,0.8811,-6.37,7.8,-0.14,26.1
25605,0.1875,-0.0439,0.8794,-6.29,6.76,-0.06,26.09
25615,0.1812,-0.0463,0.9052,-6.35,7.63,0.0,26.12
25625,0.2076,-0.0452,0.9066,-6.37,8.03,-0.05,26.12
25635,0.1969,-0.0482,0.8868,-6.32,7.54,-0.05,26.11
25645,0.1783,-0.046,0.8917,-6.2,8.03,-0.02,26.12
25655,0.1998,-0.0406,0.8962,-6.27,8.49,-0.05,26.13
25665,0.2041,-0.0491,0.8754,-6.31,7.37,-0.03,26.11
25675,0.1687,-0.0438,0.8704,-6.24,6.82,-0.05,26.11
25685,0.1749,-0.0372,0.9109,-6.11,8.29,0.02,26.11
25695,0.2056,-0.0383,0.9099,-6.2,8.38,-0.14,26.11
25705,0.1954,-0.0513,0.8796,-6.21,6.53,-0.08,26.14
25716,0.1774,-0.0479,0.9095,-6.29,5.94,-0.03,26.12
25726,0.1752,-0.0286,0.912,-6.17,9.59,-0.02,26.12
25736,0.1814,-0.0328,0.9005,-6.46,8.5,0.06,26.12
25746,0.187,-0.0381,0.8654,-6.34,9.01,0.05,26.11
25756,0.213,-0.0416,0.8623,-6.21,4.34,-0.08,26.11
25766,0.1458,-0.033,0.9447,-6.4,10.4,-0.02,26.11
25776,0.2323,-0.0081,0.8518,-6.15,6.61,0.09,26.11
25786,0.1445,-0.0725,0.929,-6.67,6.53,-0.27,26.09
25796,0.1713,-0.0378,0.8693,-6.46,11.77,-0.21,26.13
25806,0.2205,-0.0352,0.8741,-6.27,7.65,-0.18,26.11
25816,0.2224,-0.046,0.8556,-6.0,4.69,0.27,26.13
25826,0.1305,-0.0349,0.9355,-6.12,9.19,0.11,26.13
25836,0.2257,-0.0323,0.8712,-6.15,7.85,0.05,26.11
25846,0.1541,-0.0414,0.9407,-6.44,9.28,0.03,26.12
25856,0.1935,-0.0585,0.882,-6.18,10.7,-0.2,26.11
25866,0.2191,-0.0529,0.8738,-6.14,4.02,-0.17,26.13
25876,0.1897,-0.0558,0.9426,-6.2,11.15,-0.08,26.1
25886,0.2278,-0.0535,0.8545,-6.23,6.08,0.14,26.1
25896,0.1553,-0.0394,0.8921,-6.26,8.17,0.06,26.12
25906,0.2047,-0.0273,0.8823,-6.29,8.79,0.15,26.14
25916,0.2009,-0.036,0.8811,-6.24,5.53,0.08,26.11
25926,0.1499,-0.0295,0.8938,-6.31,9.13,-0.03,26.11
25936,0.1855,-0.0198,0.8994,-6.31,8.38,-0.02,26.12
25946,0.1815,-0.0304,0.9001,-6.31,7.86,0.0,26.11
25956,0.1729,-0.0378,0.8859,-6.34,8.0,-0.15,26.09
25966,0.1765,-0.0376,0.8795,-6.46,7.02,-0.09,26.11
25976,0.1741,-0.0436,0.9008,-6.44,8.56,-0.09,26.13
25986,0.1981,-0.0402,0.8901,-6.38,8.32,-0.02,26.12
25996,0.2013,-0.0441,0.8862,-6.41,7.3,-0.21,26.11
26006,0.1927,-0.0428,0.9031,-6.37,7.04,-0.21,26.11
26016,0.1882,-0.0406,0.9071,-6.37,8.84,-0.11,26.13
26026,0.2074,-0.0438,0.8945,-6.31,8.27,-0.05,26.12
26036,0.1847,-0.0464,0.8802,-6.43,7.65,-0.08,26.13
26046,0.1814,-0.0404,0.8821,-6.38,7.47,-0.12,26.1
26056,0.1821,-0.037,0.9049,-6.47,8.08,0.02,26.14
26066,0.1677,-0.0376,0.8851,-6.43,8.14,0.02,26.12
26076,0.1724,-0.0341,0.8816,-6.31,8.17,-0.06,26.13
26086,0.1979,-0.0326,0.8937,-6.38,7.02,-0.08,26.11
26096,0.1761,-0.0382,0.9,-6.34,8.21,-0.11,26.14
26106,0.1766,-0.0411,0.8589,-6.27,8.06,-0.03,26.11
26116,0.1946,-0.0427,0.8879,-6.23,6.89,-0.14,26.14
26126,0.1942,-0.0447,0.9032,-6.17,7.71,-0.14,26.14
26136,0.1914,-0.049,0.8912,-6.21,8.35,-0.14,26.11
26146,0.2057,-0.0505,0.8994,-6.18,7.62,-0.23,26.14
26156,0.2156,-0.0522,0.9103,-6.2,7.48,-0.15,26.12
26166,0.2034,-0.0586,0.9071,-6.23,8.5,-0.06,26.13
26176,0.1974,-0.0535,0.8953,-6.18,8.37,0.06,26.12
26186,0.2148,-0.0482,0.8979,-6.2,7.92,0.03,26.12
26196,0.2108,-0.0474,0.9041,-6.14,6.72,0.0,26.1
26206,0.1853,-0.0424,0.928,-6.24,8.79,0.21,26.13
26216,0.2014,-0.0391,0.9027,-6.24,8.64,0.12,26.12
26226,0.2009,-0.0419,0.9011,-6.15,7.86,0.17,26.16
26236,0.1978,-0.0415,0.8999,-6.18,8.02,0.14,26.14
26246,0.1658,-0.0316,0.8923,-6.21,9.05,0.0,26.13
26256,0.2013,-0.0326,0.858,-6.12,8.11,0.0,26.12
26266,0.1791,-0.0383,0.8969,-6.24,5.98,-0.08,26.14
26276,0.1603,-0.0299,0.9048,-6.31,10.12,-0.09,26.14
26286,0.1853,-0.0359,0.8395,-6.24,6.7,0.02,26.14
26296,0.1617,-0.0287,0.8927,-6.37,7.45,0.0,26.12
26306,0.1868,-0.0239,0.8726,-6.4,8.58,-0.09,26.12
26316,0.1652,-0.0468,0.8469,-6.27,6.47,-0.06,26.12
26326,0.1562,-0.0392,0.8965,-6.35,8.87,-0.12,26.12
26336,0.1968,-0.0422,0.8864,-6.37,8.32,-0.11,26.12
26346,0.1918,-0.0449,0.881,-6.38,7.01,-0.03,26.14
26356,0.176,-0.0458,0.903,-6.4,7.88,-0.03,26.14
26366,0.1987,-0.0452,0.9097,-6.37,8.35,-0.08,26.13
26376,0.1926,-0.0515,0.8964,-6.23,7.98,-0.11,26.12
26386,0.1808,-0.0466,0.887,-6.18,7.92,-0.14,26.13
26396,0.1846,-0.0439,0.9052,-6.21,7.34,-0.15,26.1
26406,0.1802,-0.0367,0.9143,-6.21,8.34,-0.09,26.13
26417,0.1901,-0.041,0.9081,-6.38,8.34,-0.05,26.14
26427,0.1852,-0.0417,0.8932,-6.21,7.66,-0.12,26.1
26437,0.1855,-0.0403,0.9003,-6.18,8.38,-0.03,26.14
26447,0.2064,-0.038,0.8928,-6.14,7.66,-0.05,26.13
26457,0.1967,-0.0516,0.8923,-6.05,7.47,-0.09,26.12
26467,0.181,-0.0455,0.8937,-6.06,8.09,-0.03,26.13
26477,0.2163,-0.0372,0.9001,-6.17,8.11,0.08,26.15
26487,0.2194,-0.0403,0.8939,-6.17,7.73,0.0,26.14
26497,0.1793,-0.0406,0.8878,-6.31,7.88,0.11,26.14
26507,0.1857,-0.0349,0.8931,-6.12,8.9,0.08,26.13
26517,0.1976,-0.0273,0.9012,-6.11,8.95,0.0,26.1
26527,0.2012,-0.0371,0.8722,-6.14,8.52,0.02,26.12
26537,0.1833,-0.0389,0.8558,-6.14,6.34,-0.03,26.13
26547,0.1709,-0.0309,0.9049,-6.23,8.81,-0.05,26.12
26557,0.2035,-0.0386,0.8712,-6.24,7.57,-0.05,26.12
26568,0.1816,-0.0421,0.8694,-6.26,6.41,-0.03,26.13
26578,0.1669,-0.038,0.915,-6.26,8.38,0.0,26.14
26588,0.1941,-0.032,0.9124,-6.27,8.09,-0.03,26.12
26598,0.1852,-0.0403,0.9115,-6.35,8.02,-0.05,26.14
26608,0.1826,-0.0397,0.8848,-6.35,8.06,-0.08,26.13
26618,0.1831,-0.0387,0.8875,-6.35,7.77,-0.08,26.13
26628,0.1775,-0.0443,0.9081,-6.43,8.89,-0.08,26.13
26638,0.2151,-0.0432,0.8666,-6.31,6.6,-0.03,26.14
26648,0.1595,-0.0452,0.9037,-6.26,8.31,0.0,26.12
26658,0.2084,-0.04,0.8818,-6.26,8.15,-0.11,26.11
26668,0.2068,-0.0393,0.8967,-6.29,6.58,-0.11,26.12
26678,0.1708,-0.0417,0.8809,-6.24,8.2,0.02,26.12
26688,0.1979,-0.0369,0.88,-6.31,7.71,-0.02,26.13
26698,0.2041,-0.0353,0.8914,-6.34,7.94,-0.09,26.14
26708,0.1973,-0.0398,0.8795,-6.34,7.04,-0.03,26.14
26718,0.1608,-0.0385,0.9067,-6.35,8.14,0.0,26.12
26728,0.2034,-0.0403,0.9042,-6.26,8.9,-0.06,26.11
26738,0.2034,-0.0494,0.8906,-6.37,7.19,0.06,26.13
26748,0.1815,-0.0494,0.8801,-6.29,7.69,-0.03,26.13
26758,0.1865,-0.0468,0.9053,-6.23,8.08,-0.02,26.13
26768,0.1835,-0.0443,0.9073,-6.31,9.08,-0.03,26.14
26778,0.1996,-0.0405,0.8584,-6.2,7.68,-0.14,26.14
26788,0.1884,-0.0382,0.8718,-6.23,6.27,-0.06,26.1
26798,0.1801,-0.0365,0.9036,-6.17,7.77,-0.03,26.13
26808,0.1758,-0.0381,0.8896,-6.27,7.63,-0.12,26.13
26818,0.1871,-0.0359,0.8873,-6.32,8.08,-0.06,26.15
26828,0.1968,-0.0363,0.8951,-6.17,6.87,-0.11,26.13
26838,0.1869,-0.0339,0.912,-6.37,7.62,-0.09,26.12
26848,0.1768,-0.0402,0.9042,-6.44,9.62,0.03,26.14
26858,0.1901,-0.0356,0.8693,-6.34,7.77,-0.08,26.14
26868,0.2017,-0.0341,0.8967,-6.29,6.82,0.0,26.12
26878,0.1814,-0.0431,0.9019,-6.37,8.24,-0.03,26.13
26888,0.1833,-0.0513,0.8824,-6.32,8.29,-0.08,26.13
26898,0.2042,-0.0392,0.8859,-6.2,7.1,-0.05,26.13
26908,0.2006,-0.0444,0.9045,-6.23,7.42,-0.05,26.12
26918,0.1731,-0.0448,0.8923,-6.38,8.09,0.02,26.13
26928,0.1754,-0.0355,0.8927,-6.26,8.29,-0.11,26.14
26938,0.2092,-0.0286,0.901,-6.35,7.68,-0.08,26.15
26948,0.1927,-0.0466,0.8842,-6.34,7.13,0.0,26.15
26958,0.1598,-0.0334,0.91,-6.41,8.05,-0.03,26.13
26968,0.2025,-0.0282,0.8849,-6.26,9.94,-0.05,26.15
26978,0.1959,-0.0393,0.8782,-6.35,5.68,-0.12,26.16
26988,0.146,-0.0414,0.9233,-6.4,10.5,-0.11,26.14
26998,0.213,-0.0403,0.8711,-6.29,7.73,-0.11,26.16
27008,0.1918,-0.0393,0.8838,-6.2,6.82,0.02,26.14
27018,0.1714,-0.0432,0.8877,-6.29,8.85,-0.03,26.13
27028,0.2056,-0.0463,0.8688,-6.21,7.42,0.0,26.14
27038,0.1903,-0.0378,0.8992,-6.27,6.06,-0.08,26.15
27048,0.1801,-0.0365,0.9131,-6.15,7.57,-0.05,26.17
27058,0.1979,-0.0372,0.8955,-6.32,8.0,-0.02,26.16
27068,0.1842,-0.0389,0.8948,-6.34,7.36,-0.03,26.13
27078,0.1849,-0.0421,0.9119,-6.35,8.73,0.05,26.12
27088,0.1821,-0.0452,0.8867,-6.44,7.98,-0.12,26.14
27098,0.1755,-0.0448,0.8701,-6.21,7.85,-0.03,26.15
27108,0.183,-0.0343,0.8884,-6.29,8.82,0.03,26.14
27118,0.2186,-0.04,0.8752,-6.24,6.81,-0.09,26.14
27128,0.1658,-0.0394,0.8995,-6.27,7.28,-0.05,26.12
27138,0.1943,-0.0396,0.9032,-6.27,9.21,-0.06,26.14
27148,0.2141,-0.0397,0.9014,-6.35,7.13,-0.08,26.15
27158,0.1725,-0.0458,0.8956,-6.26,7.66,0.02,26.14
27168,0.1688,-0.0408,0.8865,-6.24,8.38,0.02,26.12
27178,0.2062,-0.0331,0.8857,-6.23,7.74,-0.09,26.14
27188,0.1904,-0.0394,0.8951,-6.29,7.07,-0.05,26.11
27198,0.1646,-0.0405,0.8983,-6.34,8.44,-0.09,26.15
27208,0.1779,-0.037,0.9089,-6.29,8.53,-0.11,26.15
27218,0.1987,-0.0347,0.8976,-6.43,8.46,-0.12,26.12
27228,0.2035,-0.0406,0.8853,-6.34,7.37,-0.09,26.11
27238,0.182,-0.0458,0.8987,-6.27,7.4,-0.12,26.14
27248,0.1787,-0.041,0.8973,-6.31,8.75,-0.06,26.14
27258,0.1976,-0.0444,0.8757,-6.41,8.44,-0.03,26.12
27268,0.1876,-0.0463,0.8682,-6.35,7.73,-0.11,26.13
27281,0.1915,-0.0447,0.8732,-6.32,6.61,0.05,26.13
27291,0.1471,-0.0326,0.9451,-6.27,9.77,-0.03,26.13
27301,0.2556,-0.0345,0.8815,-6.12,7.68,-0.06,26.14
27312,0.2328,-0.0422,0.8763,-6.14,3.08,-0.12,26.15
27322,0.1323,-0.0433,0.9419,-6.29,12.63,-0.21,26.16
27332,0.2686,-0.027,0.8507,-6.12,5.66,-0.11,26.11
27342,0.1626,-0.0448,0.9437,-6.34,7.66,-0.2,26.15
27352,0.1901,-0.0536,0.8739,-6.34,9.65,-0.11,26.12
27362,0.1942,-0.0396,0.8691,-6.27,5.57,-0.09,26.14
27372,0.1829,-0.0383,0.9009,-6.34,9.45,-0.02,26.15
27382,0.1951,-0.0367,0.8489,-6.29,7.66,0.02,26.15
27392,0.1803,-0.0293,0.8704,-6.34,6.87,0.06,26.13
27402,0.1737,-0.0277,0.8948,-6.29,8.47,-0.02,26.16
27412,0.2034,-0.042,0.8685,-6.35,8.14,-0.09,26.14
27422,0.197,-0.0549,0.8798,-6.35,6.17,-0.03,26.12
27432,0.1873,-0.0571,0.9171,-6.24,8.11,0.05,26.1
27443,0.1945,-0.063,0.9124,-6.06,8.4,0.03,26.12
27453,0.1792,-0.0549,0.9014,-6.27,7.56,0.03,26.12
27463,0.1746,-0.0392,0.8987,-6.31,8.72,0.15,26.13
27473,0.1753,-0.0366,0.8895,-6.31,7.66,0.11,26.15
