t_ms,accel_x_g,accel_y_g,accel_z_g,gyro_x_dps,gyro_y_dps,gyro_z_dps,imu_temp_c
3276,0.2167,-0.0266,0.8936,-5.98,7.8,0.02,20.61
3286,0.2209,-0.0256,0.8896,-5.95,7.5,0.09,20.61
3296,0.2195,-0.0265,0.8931,-5.92,7.79,-0.03,20.6
3306,0.2155,-0.0243,0.8911,-5.95,7.77,0.02,20.6
3316,0.2214,-0.0219,0.8856,-6.0,7.65,0.02,20.63
3326,0.2198,-0.0248,0.882,-5.94,7.6,-0.03,20.64
3336,0.2144,-0.0226,0.8904,-5.92,7.65,0.03,20.62
3346,0.2169,-0.022,0.8899,-5.88,7.65,-0.08,20.62
3356,0.2181,-0.0233,0.8888,-6.05,7.69,0.0,20.59
3366,0.215,-0.0222,0.8859,-5.91,7.71,-0.02,20.61
3376,0.2175,-0.0234,0.8901,-6.02,7.6,-0.06,20.6
3386,0.2167,-0.0251,0.884,-5.95,7.68,-0.14,20.61
3396,0.2192,-0.0232,0.8898,-6.03,7.68,0.05,20.62
3406,0.2168,-0.0214,0.8909,-6.02,7.71,0.06,20.62
3416,0.2172,-0.0244,0.8876,-5.88,7.74,0.0,20.62
3426,0.2167,-0.0223,0.8904,-5.94,7.74,-0.09,20.61
3436,0.2166,-0.0236,0.8875,-5.86,7.68,-0.02,20.63
3446,0.2164,-0.0239,0.8888,-5.94,7.79,-0.14,20.61
3456,0.2188,-0.0227,0.8889,-5.91,7.69,0.02,20.63
3466,0.215,-0.0226,0.8907,-5.94,7.73,-0.02,20.63
3476,0.2134,-0.0239,0.892,-5.97,7.76,-0.09,20.63
3486,0.2169,-0.0248,0.8921,-5.94,7.79,0.0,20.62
3496,0.2147,-0.0247,0.8853,-6.03,7.74,0.05,20.63
3506,0.2211,-0.0225,0.8866,-5.95,7.76,-0.11,20.63
3516,0.2211,-0.0237,0.8856,-5.94,7.6,0.0,20.63
3526,0.2223,-0.0225,0.8856,-5.89,7.59,0.05,20.64
3536,0.2141,-0.0237,0.8884,-5.95,7.71,-0.02,20.62
3546,0.214,-0.0232,0.8857,-5.95,7.71,-0.14,20.62
3556,0.2183,-0.0215,0.8906,-5.95,7.83,-0.03,20.65
3566,0.2181,-0.0236,0.8879,-5.91,7.79,-0.08,20.63
3576,0.2194,-0.0242,0.8898,-6.09,7.66,-0.02,20.61
3586,0.2158,-0.0221,0.892,-6.03,7.69,-0.08,20.59
3596,0.2185,-0.0227,0.8943,-5.95,7.69,-0.05,20.63
3606,0.2202,-0.0242,0.8942,-5.95,7.73,-0.08,20.64
3616,0.217,-0.0221,0.8904,-5.98,7.74,-0.02,20.62
3626,0.2213,-0.0221,0.8877,-6.0,7.66,0.0,20.63
3636,0.218,-0.0206,0.8865,-5.95,7.63,-0.06,20.64
3646,0.2161,-0.0254,0.8875,-5.94,7.68,-0.08,20.64
3656,0.2155,-0.025,0.8873,-6.0,7.82,-0.09,20.62
3666,0.2161,-0.0272,0.8843,-5.89,7.63,-0.03,20.64
3676,0.2166,-0.0209,0.8868,-5.95,7.63,-0.09,20.65
3686,0.2139,-0.0243,0.8917,-5.95,7.66,-0.06,20.63
3696,0.2185,-0.0205,0.8922,-5.97,7.68,-0.09,20.64
3706,0.2161,-0.0194,0.891,-6.02,7.66,-0.03,20.62
3716,0.2146,-0.0243,0.8846,-6.0,7.74,-0.03,20.64
3726,0.2208,-0.0232,0.8854,-6.08,7.79,-0.06,20.64
3736,0.2203,-0.0238,0.8893,-5.95,7.65,-0.06,20.63
3746,0.2166,-0.0267,0.8914,-5.95,7.65,0.0,20.65
3756,0.2168,-0.0247,0.891,-5.97,7.66,0.02,20.63
3766,0.2191,-0.0234,0.8926,-6.05,7.71,-0.02,20.64
3776,0.2166,-0.0234,0.8888,-6.03,7.76,-0.06,20.64
3786,0.223,-0.0238,0.8878,-5.97,7.73,-0.06,20.66
3796,0.2173,-0.0245,0.8921,-6.0,7.6,-0.09,20.66
3806,0.2175,-0.0236,0.8901,-5.86,7.63,-0.03,20.64
3816,0.215,-0.0204,0.8915,-5.97,7.74,-0.03,20.66
3826,0.2175,-0.0171,0.8895,-6.05,7.69,-0.03,20.66
3836,0.2194,-0.0209,0.8846,-6.08,7.66,-0.08,20.66
3846,0.2184,-0.0209,0.8851,-5.91,7.76,-0.05,20.64
3856,0.2148,-0.0215,0.8892,-6.03,7.68,-0.08,20.65
3866,0.2161,-0.0255,0.8918,-5.94,7.69,-0.03,20.67
3876,0.2148,-0.0262,0.8939,-6.0,7.66,-0.08,20.67
3886,0.2166,-0.0281,0.8923,-6.03,7.65,0.02,20.64
3896,0.2195,-0.0276,0.8881,-5.98,7.76,0.05,20.65
3906,0.2166,-0.0278,0.8881,-5.97,7.63,-0.05,20.65
3916,0.2174,-0.0259,0.8877,-6.06,7.65,0.08,20.65
3926,0.2178,-0.0254,0.8832,-5.98,7.73,-0.06,20.64
3936,0.2177,-0.0195,0.8905,-6.02,7.71,-0.02,20.65
3946,0.2185,-0.0168,0.8907,-6.12,7.66,0.03,20.67
3956,0.2194,-0.0188,0.8918,-6.05,7.76,0.03,20.67
3966,0.2189,-0.0188,0.8907,-6.05,7.71,-0.02,20.69
3976,0.2184,-0.0242,0.8888,-5.98,7.77,-0.06,20.66
3986,0.2207,-0.0269,0.8839,-5.98,7.65,-0.02,20.66
3996,0.2178,-0.0271,0.8894,-6.02,7.69,0.0,20.68
4006,0.2173,-0.0267,0.8855,-6.02,7.73,-0.03,20.66
4016,0.2197,-0.0259,0.8859,-6.05,7.73,-0.11,20.69
4026,0.2197,-0.0262,0.8898,-6.0,7.62,-0.03,20.68
4036,0.2146,-0.024,0.8892,-5.98,7.68,0.03,20.66
4046,0.2196,-0.0206,0.8854,-5.92,7.71,0.0,20.68
4056,0.2212,-0.0219,0.8867,-5.86,7.69,0.05,20.65
4066,0.2184,-0.0238,0.8899,-6.03,7.66,-0.12,20.65
4076,0.2141,-0.0229,0.8911,-5.98,7.69,-0.05,20.66
4086,0.2181,-0.0217,0.89,-6.03,7.79,-0.03,20.69
4096,0.2205,-0.0239,0.8867,-6.03,7.73,0.02,20.68
4106,0.2212,-0.0259,0.8871,-6.03,7.71,-0.03,20.68
4116,0.2196,-0.0267,0.8885,-6.03,7.71,-0.08,20.68
4126,0.2169,-0.0265,0.8871,-6.0,7.66,-0.06,20.67
4136,0.2173,-0.0245,0.8904,-5.91,7.8,-0.05,20.67
4146,0.2152,-0.0261,0.8861,-5.94,7.82,-0.02,20.65
4156,0.2142,-0.0242,0.892,-5.98,7.6,0.0,20.68
4166,0.2181,-0.022,0.8916,-6.02,7.69,0.06,20.66
4176,0.2155,-0.0189,0.891,-5.92,7.68,0.05,20.68
4186,0.2172,-0.0221,0.8883,-6.03,7.65,-0.02,20.67
4196,0.2191,-0.0201,0.889,-6.03,7.69,0.05,20.7
4206,0.2184,-0.0264,0.8875,-5.98,7.76,-0.08,20.68
4216,0.2159,-0.024,0.8861,-6.02,7.69,-0.05,20.72
4226,0.2177,-0.0327,0.8883,-6.0,7.76,0.0,20.7
4236,0.219,-0.0281,0.89,-5.97,7.74,-0.06,20.69
4246,0.2172,-0.0253,0.8871,-5.95,7.71,-0.17,20.71
4256,0.215,-0.0229,0.8895,-5.95,7.8,-0.02,20.66
4266,0.2172,-0.0232,0.8885,-6.0,7.69,-0.02,20.67
4276,0.2157,-0.0214,0.8898,-6.06,7.76,0.06,20.68
4286,0.2157,-0.0198,0.8892,-5.91,7.69,-0.02,20.72
4296,0.2162,-0.0192,0.889,-5.97,7.73,-0.03,20.67
4306,0.22,-0.0216,0.8881,-6.03,7.77,-0.06,20.68
4316,0.218,-0.0209,0.8893,-5.94,7.65,0.06,20.68
4326,0.2183,-0.0239,0.8875,-6.14,7.65,-0.05,20.69
4336,0.2173,-0.0281,0.8861,-6.0,7.73,-0.03,20.69
4346,0.2129,-0.0265,0.8872,-5.92,7.77,0.06,20.7
4356,0.2177,-0.022,0.8905,-6.0,7.79,-0.05,20.69
4366,0.2156,-0.0223,0.8892,-5.98,7.65,-0.09,20.69
4376,0.2157,-0.0244,0.8909,-6.02,7.71,0.0,20.69
4386,0.2188,-0.0244,0.8885,-5.97,7.69,-0.06,20.73
4396,0.2169,-0.0261,0.8899,-6.02,7.65,-0.02,20.72
4408,0.2218,-0.0247,0.8881,-5.92,7.69,-0.05,20.71
4418,0.2183,-0.0211,0.8893,-5.94,7.66,-0.11,20.72
4428,0.2218,-0.0221,0.8871,-6.03,7.69,0.06,20.72
4438,0.2178,-0.0265,0.8851,-6.03,7.76,0.08,20.71
4448,0.2192,-0.0248,0.8872,-6.11,7.73,0.03,20.68
4458,0.2183,-0.0266,0.8868,-6.0,7.68,-0.03,20.67
4468,0.2177,-0.0247,0.892,-5.98,7.83,0.03,20.71
4478,0.2159,-0.0251,0.8859,-6.12,7.71,-0.02,20.7
4488,0.2129,-0.0216,0.885,-5.97,7.71,-0.11,20.69
4498,0.2194,-0.0242,0.8859,-5.89,7.66,0.02,20.72
4508,0.2152,-0.0211,0.8883,-6.03,7.71,-0.08,20.71
4518,0.2166,-0.0208,0.8889,-5.97,7.62,-0.03,20.7
4528,0.2152,-0.0217,0.8878,-5.97,7.62,-0.05,20.68
4538,0.2189,-0.0212,0.8918,-5.97,7.6,-0.03,20.72
4548,0.217,-0.0216,0.8901,-5.94,7.69,0.0,20.7
4558,0.2207,-0.0237,0.8918,-6.02,7.76,0.05,20.71
4568,0.2212,-0.0254,0.8876,-6.05,7.69,-0.06,20.71
4578,0.2162,-0.0245,0.8859,-6.02,7.73,-0.05,20.71
4588,0.2161,-0.0267,0.8894,-6.02,7.69,-0.02,20.71
4598,0.2189,-0.0258,0.8856,-5.97,7.79,0.0,20.69
4608,0.2185,-0.0254,0.8887,-5.86,7.74,0.0,20.72
4618,0.2203,-0.0251,0.886,-5.95,7.71,0.0,20.72
4628,0.2189,-0.0232,0.8868,-6.03,7.63,-0.09,20.71
4638,0.2209,-0.0238,0.8895,-6.03,7.73,-0.02,20.71
4648,0.2122,-0.0198,0.8931,-5.85,7.77,-0.03,20.71
4658,0.2175,-0.0195,0.8911,-5.97,7.73,0.05,20.71
4668,0.2145,-0.0217,0.8917,-5.94,7.71,-0.02,20.7
4678,0.2164,-0.0248,0.887,-5.95,7.69,0.0,20.69
4688,0.2137,-0.0219,0.8843,-6.0,7.68,-0.03,20.73
4698,0.2189,-0.0238,0.8845,-5.92,7.69,-0.02,20.69
4708,0.2167,-0.0247,0.8893,-5.94,7.74,0.03,20.73
4718,0.2172,-0.0212,0.8887,-6.02,7.76,0.0,20.69
4728,0.2184,-0.0237,0.8894,-6.02,7.65,0.02,20.7
4738,0.2173,-0.0234,0.8899,-6.06,7.74,-0.03,20.71
4748,0.2197,-0.0203,0.8921,-6.05,7.71,-0.09,20.72
4758,0.2178,-0.0236,0.8895,-5.97,7.66,-0.05,20.71
4768,0.2203,-0.0223,0.8893,-6.03,7.69,-0.02,20.71
4778,0.2194,-0.0248,0.8894,-5.97,7.73,-0.06,20.71
4788,0.2173,-0.0256,0.8888,-6.05,7.65,-0.03,20.71
4798,0.2145,-0.0244,0.8873,-6.03,7.77,-0.02,20.7
4808,0.2161,-0.0254,0.8906,-5.91,7.69,-0.08,20.7
4818,0.2181,-0.0254,0.8896,-6.0,7.73,0.0,20.7
4828,0.2216,-0.0209,0.886,-6.02,7.62,-0.09,20.71
4838,0.2155,-0.0243,0.8916,-5.95,7.71,0.0,20.74
4848,0.2175,-0.0226,0.8898,-5.97,7.76,0.02,20.71
4858,0.2169,-0.0177,0.8882,-5.98,7.73,0.05,20.72
4868,0.2184,-0.0204,0.8911,-5.98,7.82,-0.05,20.7
4878,0.2197,-0.0238,0.8921,-5.97,7.74,0.03,20.72
4888,0.2186,-0.0237,0.8881,-5.89,7.65,-0.02,20.72
4898,0.2201,-0.0266,0.8832,-6.09,7.56,0.05,20.73
4908,0.2194,-0.0258,0.886,-6.05,7.65,-0.06,20.7
4918,0.2179,-0.0236,0.8865,-6.03,7.65,0.02,20.72
4928,0.2155,-0.0289,0.8899,-6.06,7.68,0.03,20.72
4938,0.2192,-0.0247,0.8885,-5.94,7.68,-0.06,20.71
4948,0.2183,-0.0239,0.8875,-5.98,7.73,-0.06,20.73
4958,0.2185,-0.0254,0.8875,-5.88,7.74,0.0,20.74
4968,0.2181,-0.0227,0.887,-5.91,7.71,0.02,20.73
4978,0.2161,-0.0248,0.8912,-5.97,7.65,0.02,20.71
4988,0.2148,-0.0229,0.8885,-6.05,7.68,-0.09,20.71
4998,0.2158,-0.0261,0.8893,-6.02,7.68,-0.11,20.72
5008,0.2141,-0.0247,0.8873,-6.05,7.71,-0.11,20.74
5018,0.2162,-0.0271,0.8906,-6.05,7.76,-0.02,20.74
5028,0.2164,-0.0256,0.8918,-5.97,7.68,-0.05,20.73
5038,0.2208,-0.027,0.8855,-5.98,7.69,-0.02,20.73
5048,0.2189,-0.0245,0.8883,-5.92,7.57,-0.02,20.72
5058,0.2181,-0.0227,0.8899,-6.0,7.66,0.0,20.73
5068,0.2185,-0.0243,0.8892,-6.0,7.69,-0.02,20.72
5078,0.2173,-0.0206,0.8884,-6.03,7.69,0.02,20.72
5088,0.2172,-0.0236,0.8859,-6.06,7.69,-0.08,20.74
5098,0.2177,-0.0222,0.8865,-6.08,7.71,0.0,20.72
5108,0.2188,-0.0219,0.8854,-6.05,7.71,-0.06,20.75
5118,0.2168,-0.0227,0.8865,-6.05,7.69,-0.03,20.69
5128,0.217,-0.0249,0.8899,-6.06,7.73,0.0,20.72
5138,0.2185,-0.0251,0.8909,-6.05,7.79,-0.06,20.71
5148,0.2216,-0.0289,0.8896,-6.09,7.74,0.05,20.72
5158,0.2212,-0.0275,0.8868,-5.94,7.66,0.02,20.75
5168,0.2197,-0.0229,0.8875,-5.97,7.62,-0.08,20.74
5178,0.2152,-0.0265,0.8887,-5.97,7.71,-0.02,20.7
5188,0.2135,-0.0239,0.8912,-6.02,7.74,0.05,20.74
5198,0.2148,-0.0225,0.8894,-5.98,7.74,-0.05,20.74
5208,0.217,-0.0244,0.89,-5.94,7.63,-0.03,20.72
5218,0.2168,-0.0242,0.8864,-5.97,7.69,0.02,20.71
5228,0.2201,-0.0217,0.8918,-6.09,7.69,-0.02,20.71
5238,0.2191,-0.0242,0.8828,-6.0,7.66,0.0,20.74
5248,0.2183,-0.024,0.8873,-6.0,7.69,-0.02,20.74
5258,0.2189,-0.0244,0.889,-5.98,7.77,-0.05,20.74
5268,0.2194,-0.0267,0.8877,-6.05,7.66,-0.03,20.74
5278,0.218,-0.0258,0.8877,-6.08,7.68,-0.05,20.73
5288,0.2184,-0.0254,0.8903,-5.91,7.62,0.0,20.72
5298,0.2169,-0.0239,0.8927,-6.02,7.77,-0.05,20.73
5308,0.2141,-0.0205,0.8881,-5.97,7.71,0.06,20.74
5318,0.2175,-0.0206,0.8875,-6.09,7.68,-0.08,20.73
5328,0.2152,-0.0225,0.8922,-5.98,7.77,-0.08,20.75
5338,0.2177,-0.0225,0.8864,-5.92,7.65,-0.05,20.73
5348,0.2169,-0.024,0.8888,-5.92,7.71,0.02,20.71
5358,0.2159,-0.0242,0.8914,-5.98,7.71,-0.09,20.74
5368,0.2175,-0.0245,0.8911,-6.0,7.79,-0.03,20.75
5378,0.2161,-0.0239,0.891,-6.05,7.63,0.0,20.74
5388,0.2134,-0.0233,0.89,-6.03,7.6,-0.03,20.73
5398,0.2168,-0.0219,0.8881,-5.95,7.74,0.09,20.77
5408,0.2135,-0.0239,0.8895,-5.95,7.76,-0.06,20.73
5418,0.2146,-0.0208,0.8877,-6.03,7.79,-0.08,20.75
5428,0.2186,-0.022,0.8876,-6.09,7.63,-0.03,20.73
5438,0.2195,-0.0223,0.8877,-6.02,7.71,-0.06,20.73
5448,0.2203,-0.0242,0.8862,-6.05,7.74,0.02,20.74
5458,0.2173,-0.0227,0.8918,-5.97,7.73,0.05,20.75
5468,0.22,-0.0247,0.8899,-6.02,7.83,0.05,20.76
5478,0.2188,-0.0223,0.8906,-6.09,7.68,-0.03,20.76
5488,0.2169,-0.0244,0.891,-6.03,7.71,0.0,20.75
5498,0.2179,-0.0228,0.8885,-6.0,7.6,-0.02,20.77
5508,0.2197,-0.0209,0.8861,-5.92,7.65,-0.06,20.76
5518,0.2126,-0.0238,0.8909,-5.89,7.76,0.03,20.74
5528,0.2185,-0.0214,0.8894,-5.98,7.63,-0.05,20.77
5538,0.2163,-0.022,0.8882,-5.97,7.65,-0.02,20.76
5548,0.2164,-0.0237,0.8878,-6.08,7.68,0.02,20.76
5558,0.2194,-0.0228,0.8903,-5.97,7.73,-0.03,20.76
5568,0.2183,-0.0258,0.8865,-5.98,7.68,0.05,20.76
5578,0.2181,-0.021,0.8864,-5.98,7.71,0.0,20.74
5588,0.2175,-0.0254,0.8875,-6.11,7.69,-0.05,20.77
5598,0.2151,-0.0281,0.8916,-6.05,7.65,-0.08,20.76
5608,0.2166,-0.0255,0.8851,-5.98,7.71,-0.03,20.71
5618,0.2188,-0.026,0.8881,-5.98,7.74,-0.05,20.74
5628,0.2188,-0.0231,0.885,-5.98,7.76,-0.02,20.76
5638,0.2214,-0.0236,0.8875,-6.05,7.71,0.05,20.75
5648,0.2157,-0.021,0.8917,-5.97,7.71,0.08,20.75
5658,0.2185,-0.0244,0.8856,-5.94,7.73,0.03,20.77
5668,0.2163,-0.0234,0.8929,-6.11,7.69,0.05,20.74
5678,0.218,-0.0238,0.8912,-6.02,7.62,0.08,20.74
5688,0.2168,-0.0245,0.8901,-6.03,7.71,0.08,20.76
5698,0.217,-0.0249,0.8889,-5.98,7.76,-0.14,20.75
5708,0.2169,-0.0234,0.8898,-6.03,7.71,-0.05,20.74
5718,0.2146,-0.0242,0.887,-5.95,7.76,-0.06,20.78
5728,0.2178,-0.0232,0.8837,-6.02,7.68,-0.06,20.73
5738,0.218,-0.0237,0.8901,-6.03,7.71,-0.06,20.75
5748,0.2185,-0.0223,0.8911,-5.98,7.57,0.02,20.75
5758,0.2189,-0.0232,0.8894,-5.95,7.68,-0.02,20.78
5768,0.2161,-0.0249,0.8888,-6.05,7.63,-0.02,20.76
5778,0.2166,-0.0266,0.8928,-6.02,7.73,-0.06,20.77
5788,0.2141,-0.0251,0.8885,-5.91,7.69,-0.06,20.78
5798,0.2184,-0.0265,0.8911,-6.02,7.71,-0.02,20.78
5808,0.214,-0.0269,0.8933,-6.03,7.68,-0.06,20.76
5818,0.2136,-0.0244,0.891,-6.06,7.68,-0.03,20.77
5828,0.2153,-0.0255,0.8909,-5.98,7.76,0.09,20.75
5838,0.2174,-0.0232,0.8895,-5.92,7.6,-0.03,20.76
5848,0.2183,-0.0231,0.8888,-6.05,7.63,0.02,20.8
5858,0.2175,-0.0225,0.8875,-6.03,7.68,-0.02,20.77
5868,0.219,-0.0225,0.8904,-5.92,7.71,-0.03,20.78
5878,0.2202,-0.0259,0.8903,-5.95,7.68,-0.03,20.76
5888,0.2181,-0.025,0.8878,-5.95,7.65,-0.02,20.77
5898,0.2189,-0.0253,0.8896,-6.08,7.68,-0.03,20.75
5908,0.2173,-0.0306,0.8838,-6.0,7.74,0.02,20.77
5918,0.2134,-0.0256,0.8894,-6.05,7.76,0.05,20.77
5928,0.2146,-0.024,0.8865,-6.02,7.79,-0.03,20.75
5938,0.2156,-0.0258,0.8884,-5.94,7.66,0.02,20.78
5948,0.2201,-0.0247,0.891,-5.98,7.74,0.02,20.79
5958,0.2181,-0.0243,0.8842,-5.98,7.66,-0.09,20.79
5968,0.2183,-0.0267,0.8931,-5.95,7.8,0.0,20.76
5978,0.2194,-0.0237,0.8895,-5.92,7.77,0.02,20.77
5988,0.219,-0.025,0.8895,-5.92,7.69,0.03,20.77
5998,0.2219,-0.0233,0.8917,-6.0,7.66,-0.03,20.79
6008,0.2186,-0.0227,0.892,-6.0,7.71,-0.02,20.8
6018,0.2166,-0.0237,0.8861,-6.12,7.79,-0.06,20.77
6028,0.2163,-0.024,0.887,-5.94,7.73,-0.06,20.77
6038,0.2134,-0.0244,0.8887,-6.0,7.66,0.02,20.77
6048,0.2164,-0.0238,0.8867,-5.97,7.71,-0.08,20.8
6058,0.2173,-0.0247,0.8887,-5.97,7.69,0.0,20.78
6068,0.2174,-0.0243,0.8882,-6.0,7.69,-0.06,20.77
6078,0.2141,-0.0226,0.8867,-6.03,7.66,0.0,20.77
6088,0.2185,-0.0239,0.8856,-5.97,7.73,-0.08,20.78
6098,0.219,-0.0248,0.89,-6.06,7.6,0.06,20.79
6108,0.2168,-0.0221,0.8893,-5.98,7.71,0.05,20.77
6118,0.2166,-0.0223,0.8901,-6.02,7.76,-0.02,20.79
6128,0.2178,-0.0232,0.89,-6.03,7.74,-0.06,20.78
6138,0.2173,-0.0264,0.8896,-5.94,7.71,-0.02,20.8
6148,0.2175,-0.0232,0.889,-6.0,7.73,0.02,20.8
6158,0.2173,-0.0244,0.8901,-6.0,7.63,-0.02,20.77
6168,0.2191,-0.0247,0.8884,-5.98,7.62,0.0,20.78
6178,0.2192,-0.0238,0.8876,-6.05,7.66,0.02,20.77
6188,0.2197,-0.0223,0.8889,-6.06,7.62,-0.02,20.77
6198,0.2201,-0.0219,0.8917,-5.97,7.74,0.0,20.78
6208,0.218,-0.0221,0.8894,-5.91,7.76,-0.05,20.77
6218,0.2141,-0.02,0.891,-6.06,7.74,0.05,20.77
6228,0.2205,-0.0228,0.8882,-6.02,7.73,0.02,20.79
6238,0.2205,-0.0231,0.8884,-6.0,7.73,0.05,20.78
6248,0.2179,-0.0219,0.8911,-6.06,7.76,-0.06,20.77
6258,0.2195,-0.0222,0.8875,-6.06,7.6,-0.08,20.77
6268,0.2196,-0.0247,0.8865,-6.02,7.65,0.05,20.77
6278,0.2178,-0.0229,0.8914,-6.05,7.73,-0.05,20.8
6288,0.2168,-0.0266,0.8879,-6.0,7.73,-0.05,20.79
6298,0.2136,-0.0233,0.8905,-6.08,7.79,-0.03,20.77
6308,0.2167,-0.0237,0.8889,-6.03,7.86,-0.02,20.78
6318,0.2183,-0.025,0.8887,-6.0,7.79,-0.03,20.8
6328,0.2184,-0.0238,0.8853,-5.97,7.74,-0.03,20.79
6338,0.2216,-0.0216,0.8881,-6.05,7.66,0.03,20.8
6348,0.2158,-0.0209,0.8889,-5.97,7.71,0.06,20.82
6358,0.2167,-0.0232,0.885,-5.98,7.68,0.08,20.81
6368,0.2169,-0.0238,0.886,-6.05,7.73,-0.03,20.79
6378,0.223,-0.0245,0.8866,-6.0,7.6,-0.11,20.81
6388,0.2197,-0.0227,0.8826,-6.06,7.68,-0.05,20.79
6398,0.2135,-0.0233,0.8909,-6.08,7.74,-0.09,20.79
6408,0.2133,-0.0234,0.8881,-5.98,7.79,-0.05,20.79
6418,0.2173,-0.0231,0.8906,-6.08,7.6,-0.09,20.78
6428,0.2206,-0.0248,0.8903,-6.08,7.68,-0.06,20.77
6438,0.2184,-0.0211,0.8889,-5.97,7.69,0.05,20.78
6448,0.2161,-0.0231,0.8892,-5.98,7.68,-0.06,20.78
6458,0.2189,-0.024,0.8882,-5.98,7.73,0.02,20.78
6468,0.22,-0.0221,0.8909,-6.02,7.69,-0.03,20.77
6478,0.2206,-0.0242,0.8903,-6.03,7.74,0.02,20.76
6488,0.2191,-0.0234,0.89,-6.09,7.82,-0.03,20.77
6498,0.2202,-0.0237,0.8883,-5.97,7.77,-0.03,20.78
6508,0.2157,-0.0248,0.8884,-5.95,7.74,0.0,20.77
6518,0.2162,-0.0245,0.8892,-6.0,7.76,-0.14,20.78
6528,0.2139,-0.0221,0.8903,-6.08,7.71,0.0,20.77
6538,0.2186,-0.0256,0.8887,-6.0,7.65,-0.02,20.8
6548,0.2206,-0.0226,0.8909,-5.92,7.57,-0.03,20.78
6558,0.22,-0.0247,0.8909,-5.97,7.68,-0.12,20.8
6568,0.2146,-0.0261,0.8914,-6.0,7.82,0.0,20.79
6578,0.2167,-0.0227,0.8871,-6.0,7.79,-0.06,20.77
6588,0.2195,-0.0221,0.8892,-5.98,7.69,0.0,20.79
6598,0.2181,-0.0211,0.8892,-6.02,7.66,0.12,20.79
6608,0.2177,-0.025,0.8925,-5.94,7.66,0.03,20.81
6618,0.2168,-0.0225,0.8872,-5.98,7.69,0.08,20.81
6628,0.2161,-0.0227,0.8876,-6.05,7.71,-0.05,20.79
6638,0.2195,-0.0237,0.8864,-6.02,7.71,0.02,20.82
6648,0.2184,-0.0236,0.8885,-5.94,7.53,-0.03,20.81
6658,0.2163,-0.0259,0.8893,-6.0,7.74,0.0,20.81
6668,0.2137,-0.0271,0.8811,-5.97,7.69,0.0,20.79
6678,0.218,-0.0226,0.8914,-5.92,7.71,0.0,20.81
6688,0.2161,-0.0231,0.8887,-5.97,7.73,-0.03,20.79
6698,0.2195,-0.0237,0.8889,-6.03,7.79,-0.02,20.82
6708,0.2167,-0.0234,0.8882,-6.03,7.73,-0.03,20.79
6718,0.2164,-0.0236,0.8939,-6.08,7.62,0.0,20.79
6728,0.2145,-0.0238,0.8885,-6.0,7.66,-0.03,20.81
6738,0.2133,-0.0231,0.8856,-6.02,7.76,-0.06,20.79
6748,0.2163,-0.0253,0.8849,-6.02,7.79,0.0,20.8
6758,0.2184,-0.026,0.8855,-6.06,7.68,0.03,20.82
6768,0.2184,-0.0258,0.8855,-6.02,7.66,-0.06,20.8
6778,0.2156,-0.0248,0.8905,-5.92,7.76,-0.03,20.83
6788,0.215,-0.0237,0.8909,-5.98,7.77,-0.06,20.77
6798,0.2164,-0.0239,0.8925,-5.88,7.77,0.0,20.79
6808,0.2163,-0.0256,0.8885,-5.92,7.62,0.02,20.81
6818,0.2222,-0.0238,0.8893,-6.0,7.63,-0.03,20.82
6828,0.2173,-0.0225,0.8857,-6.0,7.63,-0.12,20.8
6838,0.2146,-0.0251,0.8878,-5.94,7.69,-0.08,20.79
6848,0.2166,-0.0228,0.8868,-6.03,7.74,-0.03,20.81
6858,0.2224,-0.0244,0.8861,-6.05,7.69,-0.03,20.82
6868,0.219,-0.0265,0.8843,-5.94,7.62,-0.02,20.79
6878,0.2201,-0.0229,0.8915,-6.03,7.57,-0.06,20.81
6888,0.2167,-0.0233,0.8928,-6.02,7.82,-0.06,20.81
6898,0.218,-0.0254,0.8925,-6.03,7.76,-0.06,20.79
6908,0.2196,-0.0243,0.8927,-6.03,7.74,-0.05,20.79
6918,0.2202,-0.0243,0.8938,-5.97,7.6,-0.05,20.82
6928,0.217,-0.0222,0.8883,-5.98,7.6,-0.02,20.81
6938,0.214,-0.0233,0.8878,-6.12,7.74,-0.08,20.82
6948,0.2169,-0.0215,0.8875,-5.94,7.69,-0.12,20.81
6958,0.2174,-0.0228,0.8868,-6.05,7.77,-0.08,20.81
6968,0.219,-0.026,0.8879,-6.03,7.65,0.06,20.79
6978,0.2177,-0.0244,0.8925,-6.06,7.77,-0.06,20.82
6988,0.2185,-0.0233,0.8936,-6.0,7.77,0.02,20.79
6998,0.2235,-0.0269,0.8892,-6.02,7.73,-0.06,20.81
7008,0.2223,-0.0248,0.8875,-5.95,7.65,0.0,20.78
7018,0.2185,-0.0219,0.8888,-6.03,7.69,-0.05,20.8
7028,0.2156,-0.0244,0.8931,-5.95,7.77,-0.03,20.81
7038,0.2157,-0.0215,0.8893,-6.03,7.79,-0.12,20.82
7048,0.2211,-0.0238,0.89,-6.02,7.66,-0.12,20.79
7058,0.2174,-0.0219,0.8878,-5.97,7.65,0.02,20.81
7068,0.2185,-0.0234,0.8894,-6.03,7.71,0.05,20.83
7078,0.2185,-0.0247,0.8929,-5.97,7.63,-0.14,20.83
7088,0.2172,-0.0261,0.8922,-5.97,7.73,-0.11,20.83
7098,0.2156,-0.0256,0.8922,-6.0,7.66,0.03,20.81
7108,0.2186,-0.0243,0.8882,-5.91,7.66,0.03,20.84
7118,0.2175,-0.0259,0.8859,-6.0,7.63,-0.05,20.86
7128,0.2181,-0.0209,0.8888,-5.89,7.73,0.02,20.82
7138,0.2172,-0.0229,0.8901,-6.05,7.71,-0.11,20.82
7148,0.2141,-0.0229,0.8922,-5.98,7.77,-0.08,20.84
7158,0.2177,-0.0222,0.8899,-6.09,7.69,-0.03,20.81
7168,0.2166,-0.0251,0.8882,-6.02,7.68,0.03,20.83
7178,0.2188,-0.0247,0.8894,-6.06,7.73,0.0,20.82
7188,0.2183,-0.0251,0.8921,-6.06,7.63,0.02,20.8
7198,0.2157,-0.0245,0.8873,-6.08,7.63,-0.05,20.81
7208,0.2185,-0.024,0.8916,-6.02,7.65,-0.03,20.84
7219,0.2173,-0.0248,0.8925,-6.0,7.71,-0.08,20.8
7229,0.2184,-0.0255,0.8922,-5.98,7.71,-0.05,20.82
7239,0.2184,-0.0236,0.894,-6.03,7.77,-0.03,20.82
7249,0.2179,-0.0231,0.8854,-6.08,7.74,-0.17,20.83
7259,0.2195,-0.0229,0.8889,-6.02,7.65,-0.05,20.81
7269,0.2177,-0.0217,0.889,-6.08,7.68,-0.03,20.81
7279,0.2197,-0.022,0.8926,-5.97,7.62,-0.03,20.81
7289,0.2191,-0.021,0.8915,-6.0,7.71,-0.14,20.84
7299,0.2177,-0.0214,0.8929,-5.92,7.65,0.0,20.79
7309,0.2175,-0.0236,0.8906,-5.97,7.68,-0.02,20.82
7319,0.2186,-0.0247,0.8904,-6.03,7.69,-0.06,20.81
7329,0.2188,-0.0273,0.8915,-5.95,7.69,-0.03,20.83
7339,0.2173,-0.0237,0.8895,-6.03,7.68,-0.06,20.84
7349,0.2178,-0.0231,0.8875,-5.91,7.71,0.0,20.84
7359,0.2167,-0.0231,0.8905,-5.97,7.69,-0.12,20.82
7369,0.2152,-0.02,0.8893,-5.95,7.68,-0.08,20.82
7379,0.2161,-0.0229,0.8889,-5.98,7.65,-0.02,20.83
7389,0.2159,-0.0217,0.8894,-6.02,7.74,-0.09,20.83
7399,0.2174,-0.0211,0.8894,-6.11,7.73,0.09,20.86
7409,0.2185,-0.021,0.892,-6.02,7.68,0.0,20.83
7419,0.2181,-0.0225,0.892,-6.09,7.76,-0.09,20.82
7429,0.2209,-0.0266,0.887,-6.03,7.65,-0.06,20.83
7439,0.2196,-0.0225,0.8864,-5.95,7.74,0.0,20.83
7449,0.2166,-0.0278,0.8899,-6.02,7.73,-0.14,20.81
7459,0.2166,-0.0276,0.8845,-6.05,7.69,-0.02,20.82
7469,0.2163,-0.0239,0.8873,-6.08,7.79,-0.09,20.81
7479,0.217,-0.0243,0.8861,-6.02,7.65,-0.02,20.82
7489,0.2178,-0.0233,0.8859,-6.03,7.68,-0.06,20.84
7499,0.2163,-0.0223,0.8881,-5.95,7.62,-0.02,20.84
7509,0.217,-0.021,0.8931,-6.03,7.69,0.02,20.83
7519,0.2163,-0.021,0.8914,-6.03,7.74,-0.03,20.84
7529,0.2188,-0.022,0.8893,-6.14,7.65,-0.02,20.85
7539,0.2181,-0.0216,0.8903,-6.12,7.71,-0.09,20.84
7549,0.2172,-0.0261,0.8872,-6.09,7.73,-0.06,20.84
7559,0.217,-0.0248,0.8878,-6.0,7.68,0.03,20.83
7569,0.2163,-0.0276,0.8899,-5.92,7.68,-0.02,20.83
7579,0.2152,-0.0259,0.8901,-6.08,7.69,-0.02,20.82
7589,0.215,-0.0242,0.8885,-6.02,7.68,-0.06,20.83
7599,0.2172,-0.0214,0.89,-5.92,7.68,-0.03,20.83
7609,0.2174,-0.0188,0.8904,-5.91,7.74,-0.05,20.81
7619,0.2153,-0.0219,0.8898,-6.0,7.69,0.0,20.84
7629,0.2175,-0.0234,0.891,-6.05,7.74,-0.05,20.83
7639,0.2158,-0.0228,0.8881,-6.03,7.68,0.03,20.82
7649,0.2179,-0.0229,0.8884,-5.98,7.65,-0.02,20.83
7659,0.2172,-0.024,0.8859,-6.09,7.69,-0.03,20.84
7669,0.2181,-0.0267,0.887,-6.03,7.76,0.06,20.83
7679,0.2189,-0.0255,0.8888,-5.91,7.63,-0.03,20.82
7689,0.2148,-0.026,0.8873,-6.09,7.69,-0.05,20.81
7699,0.2189,-0.0234,0.887,-5.97,7.68,0.0,20.84
7709,0.2167,-0.0244,0.8899,-5.91,7.76,-0.14,20.82
7719,0.2157,-0.0222,0.8938,-5.94,7.73,0.02,20.84
7729,0.2161,-0.02,0.8926,-5.91,7.73,0.02,20.86
7739,0.2164,-0.0225,0.8894,-6.02,7.68,0.0,20.84
7749,0.2178,-0.0187,0.891,-5.98,7.59,-0.03,20.84
7759,0.2175,-0.0247,0.8892,-6.08,7.74,-0.05,20.83
7769,0.2158,-0.0236,0.8878,-6.06,7.74,-0.02,20.83
7779,0.2194,-0.0251,0.8845,-6.05,7.77,-0.02,20.86
7789,0.2141,-0.0258,0.8889,-5.97,7.69,0.0,20.84
7799,0.2178,-0.0221,0.8844,-5.97,7.71,-0.03,20.84
7809,0.2177,-0.0226,0.8903,-6.0,7.71,0.02,20.85
7819,0.2158,-0.0215,0.8906,-6.02,7.74,-0.03,20.83
7829,0.2166,-0.0223,0.8899,-6.06,7.73,0.0,20.85
7839,0.219,-0.0214,0.8925,-5.94,7.68,0.0,20.86
7849,0.2156,-0.022,0.8899,-6.02,7.76,0.03,20.85
7859,0.2168,-0.0222,0.8876,-6.02,7.74,-0.02,20.82
7869,0.2183,-0.0247,0.8888,-6.03,7.77,0.0,20.83
7879,0.218,-0.0228,0.8888,-6.05,7.66,0.03,20.85
7889,0.2156,-0.0261,0.8893,-6.08,7.76,-0.05,20.82
7899,0.2179,-0.0222,0.8854,-6.11,7.71,0.02,20.83
7909,0.2166,-0.0238,0.8881,-6.02,7.76,-0.08,20.83
7919,0.2156,-0.0251,0.8842,-5.98,7.73,-0.05,20.84
7929,0.2189,-0.0236,0.8872,-6.03,7.59,-0.09,20.84
7939,0.2174,-0.0237,0.8933,-5.92,7.66,-0.02,20.83
7949,0.2153,-0.0278,0.8903,-5.98,7.66,0.0,20.82
7959,0.2173,-0.0221,0.886,-5.92,7.62,-0.06,20.84
7969,0.2183,-0.021,0.8939,-6.05,7.69,-0.09,20.84
7979,0.2173,-0.0225,0.8912,-5.95,7.77,-0.11,20.84
7989,0.2196,-0.0225,0.8911,-5.97,7.69,-0.03,20.83
7999,0.2197,-0.0231,0.8862,-6.08,7.66,0.0,20.83
8009,0.2183,-0.026,0.8896,-6.03,7.65,-0.05,20.84
8019,0.2158,-0.0249,0.892,-6.02,7.69,-0.02,20.84
8029,0.214,-0.0265,0.8921,-5.97,7.73,-0.03,20.87
8039,0.2135,-0.0254,0.89,-6.06,7.71,-0.05,20.83
8049,0.217,-0.0229,0.8857,-5.95,7.76,-0.05,20.85
8059,0.2168,-0.0256,0.8854,-5.95,7.76,-0.03,20.86
8069,0.2188,-0.024,0.887,-6.03,7.66,-0.09,20.85
8079,0.2201,-0.0204,0.8894,-6.02,7.66,0.02,20.88
8089,0.2207,-0.026,0.8866,-5.98,7.74,-0.05,20.87
8099,0.2128,-0.0259,0.8926,-6.0,7.74,0.02,20.84
8109,0.2173,-0.0225,0.8936,-6.11,7.83,0.0,20.86
8119,0.2162,-0.0237,0.8906,-5.95,7.66,-0.03,20.87
8129,0.2205,-0.026,0.8896,-6.0,7.65,-0.06,20.83
8139,0.2155,-0.0261,0.8915,-6.03,7.66,-0.12,20.87
8149,0.2151,-0.0247,0.8925,-6.14,7.74,0.0,20.86
8159,0.2161,-0.0231,0.89,-6.02,7.66,-0.02,20.84
8169,0.2161,-0.0228,0.8883,-6.05,7.71,-0.08,20.87
8179,0.2186,-0.0239,0.8873,-6.14,7.68,-0.08,20.86
8189,0.2186,-0.0267,0.8878,-6.08,7.69,-0.02,20.86
8199,0.2184,-0.0227,0.8866,-6.08,7.73,0.0,20.87
8209,0.2155,-0.0233,0.8881,-5.95,7.71,-0.02,20.84
8219,0.2173,-0.0219,0.8921,-5.98,7.62,-0.03,20.85
8229,0.217,-0.0271,0.8906,-5.98,7.79,0.03,20.84
8239,0.2188,-0.0247,0.891,-6.09,7.69,-0.02,20.87
8249,0.2159,-0.0254,0.8878,-6.06,7.71,0.03,20.85
8259,0.2195,-0.0232,0.8868,-5.97,7.71,-0.02,20.84
8269,0.218,-0.0228,0.889,-6.06,7.63,-0.03,20.85
8279,0.2186,-0.0248,0.8877,-5.91,7.69,-0.09,20.87
8289,0.2173,-0.0229,0.8915,-5.95,7.68,-0.02,20.85
8299,0.2163,-0.0216,0.8873,-6.0,7.71,-0.09,20.84
8309,0.2142,-0.0198,0.8865,-6.02,7.76,-0.08,20.85
8319,0.2178,-0.0278,0.8887,-6.06,7.63,-0.03,20.87
8329,0.2173,-0.0256,0.8911,-5.98,7.74,-0.02,20.85
8339,0.2168,-0.0233,0.8853,-6.0,7.68,-0.03,20.87
8349,0.2186,-0.0244,0.8898,-5.95,7.69,-0.08,20.87
8359,0.2163,-0.0225,0.8854,-5.98,7.68,-0.03,20.86
8369,0.2184,-0.0227,0.8922,-5.97,7.62,0.0,20.85
8379,0.2191,-0.0247,0.8937,-6.02,7.74,-0.03,20.84
8389,0.2159,-0.0214,0.8894,-5.91,7.77,-0.02,20.87
8399,0.218,-0.0209,0.8844,-5.95,7.66,-0.02,20.87
8409,0.2185,-0.0222,0.887,-6.0,7.71,-0.05,20.86
8419,0.2156,-0.0231,0.8912,-6.08,7.66,-0.06,20.86
8429,0.2167,-0.0242,0.8901,-6.11,7.66,-0.02,20.86
8439,0.2159,-0.0232,0.8931,-6.17,7.69,-0.08,20.88
8449,0.2172,-0.0243,0.8898,-6.05,7.73,-0.06,20.87
8459,0.218,-0.0265,0.8894,-6.0,7.68,0.02,20.87
8469,0.2179,-0.0273,0.8899,-6.02,7.66,0.02,20.88
8479,0.2163,-0.0244,0.8937,-6.02,7.65,0.0,20.89
8489,0.2167,-0.0229,0.8895,-6.02,7.66,0.06,20.85
8499,0.2147,-0.0232,0.892,-6.08,7.77,-0.12,20.9
8509,0.2167,-0.0261,0.8896,-5.94,7.63,-0.05,20.87
8519,0.218,-0.0239,0.8878,-5.94,7.65,-0.02,20.88
8529,0.2181,-0.0255,0.8911,-5.88,7.62,0.03,20.87
8539,0.2197,-0.0228,0.8898,-6.02,7.69,-0.06,20.88
8549,0.2195,-0.0275,0.8868,-6.05,7.63,-0.03,20.89
8559,0.2166,-0.0245,0.8895,-5.98,7.71,-0.02,20.86
8569,0.2163,-0.0245,0.891,-5.97,7.73,-0.02,20.88
8579,0.2217,-0.0217,0.885,-5.97,7.76,-0.12,20.9
8589,0.2201,-0.0249,0.8881,-5.97,7.66,-0.09,20.89
8599,0.2185,-0.0242,0.889,-6.0,7.66,-0.02,20.87
8609,0.2189,-0.0247,0.8888,-6.06,7.74,-0.03,20.88
8619,0.2184,-0.0223,0.8865,-6.08,7.73,0.0,20.87
8629,0.2177,-0.0219,0.8887,-5.98,7.63,-0.09,20.89
8639,0.2152,-0.0223,0.8903,-6.0,7.66,-0.08,20.87
8649,0.2163,-0.0242,0.8876,-6.03,7.69,0.03,20.87
8659,0.2169,-0.024,0.8944,-5.97,7.66,0.03,20.87
8669,0.2192,-0.0258,0.889,-6.12,7.66,-0.02,20.87
8679,0.2203,-0.0247,0.8879,-5.97,7.73,-0.06,20.88
8689,0.218,-0.0273,0.891,-5.97,7.69,0.03,20.87
8699,0.2169,-0.0248,0.8893,-6.02,7.6,-0.11,20.88
8709,0.2227,-0.0234,0.8916,-6.0,7.56,-0.06,20.88
8719,0.2173,-0.0233,0.892,-5.91,7.76,-0.06,20.87
8729,0.2153,-0.0199,0.886,-5.95,7.66,-0.06,20.88
8739,0.2168,-0.0204,0.8907,-6.0,7.66,-0.11,20.87
8749,0.217,-0.024,0.889,-6.06,7.74,-0.09,20.86
8759,0.2209,-0.0264,0.8866,-6.08,7.66,-0.06,20.9
8769,0.2205,-0.025,0.8876,-6.08,7.66,0.0,20.88
8779,0.218,-0.0239,0.8898,-6.03,7.71,-0.09,20.87
8789,0.2169,-0.0271,0.8876,-5.97,7.73,0.03,20.87
8799,0.2178,-0.0239,0.8876,-5.95,7.73,-0.03,20.87
8809,0.2174,-0.0242,0.8881,-6.05,7.65,0.0,20.87
8819,0.217,-0.0206,0.8904,-6.09,7.73,-0.05,20.88
8829,0.2145,-0.0205,0.8898,-6.09,7.68,-0.09,20.88
8839,0.2167,-0.0208,0.8917,-6.06,7.66,-0.03,20.87
8849,0.2162,-0.0251,0.8925,-5.98,7.66,0.05,20.87
8859,0.2186,-0.022,0.8907,-5.98,7.73,-0.08,20.86
8869,0.2185,-0.0266,0.8893,-5.98,7.71,0.0,20.88
8879,0.2183,-0.0275,0.8922,-6.0,7.73,0.05,20.9
8889,0.2175,-0.0251,0.8883,-6.09,7.69,0.06,20.87
8899,0.2161,-0.0266,0.8906,-5.97,7.69,-0.03,20.86
8909,0.2178,-0.0253,0.889,-6.03,7.8,-0.05,20.88
8919,0.2164,-0.0278,0.884,-5.97,7.68,-0.06,20.89
8929,0.22,-0.0244,0.8867,-5.98,7.68,-0.03,20.89
8939,0.2159,-0.0248,0.8888,-5.95,7.59,0.02,20.88
8949,0.2156,-0.0231,0.8865,-6.09,7.73,-0.08,20.88
8959,0.2152,-0.0238,0.8903,-6.02,7.73,0.0,20.9
8969,0.2175,-0.0214,0.8896,-5.92,7.69,-0.11,20.92
8979,0.2188,-0.0215,0.886,-5.97,7.63,-0.09,20.91
8989,0.2185,-0.0231,0.8925,-6.0,7.68,-0.02,20.88
8999,0.2206,-0.0253,0.8898,-6.11,7.76,-0.06,20.88
9009,0.217,-0.0253,0.8901,-6.12,7.6,0.03,20.88
9019,0.2181,-0.024,0.891,-6.05,7.73,-0.06,20.87
9029,0.2206,-0.0245,0.8884,-6.03,7.66,-0.03,20.87
9039,0.2186,-0.0222,0.8877,-5.97,7.68,0.0,20.89
9049,0.2156,-0.0223,0.8868,-5.97,7.79,-0.03,20.9
9059,0.215,-0.0255,0.8895,-5.92,7.68,-0.08,20.89
9069,0.217,-0.0214,0.8877,-5.98,7.65,-0.06,20.88
9079,0.2196,-0.0201,0.8905,-5.91,7.65,0.06,20.85
9089,0.2192,-0.021,0.8938,-6.03,7.71,-0.03,20.89
9099,0.2144,-0.0244,0.8894,-6.03,7.71,-0.08,20.88
9109,0.2152,-0.0258,0.8921,-5.97,7.74,-0.06,20.87
9119,0.2201,-0.0247,0.8868,-6.05,7.65,-0.03,20.91
9129,0.2162,-0.0253,0.8898,-6.05,7.73,-0.12,20.9
9139,0.2157,-0.0249,0.8892,-6.06,7.68,0.08,20.88
9149,0.2212,-0.022,0.8872,-6.02,7.65,-0.02,20.85
9159,0.2139,-0.0221,0.8868,-6.0,7.71,0.09,20.88
9169,0.2184,-0.0247,0.8892,-5.98,7.69,-0.03,20.87
9179,0.2201,-0.0225,0.8872,-6.05,7.63,-0.03,20.9
9189,0.22,-0.0215,0.8876,-5.91,7.68,-0.08,20.89
9199,0.2177,-0.0222,0.8903,-5.89,7.66,-0.05,20.89
9209,0.2153,-0.0231,0.8892,-6.03,7.8,0.0,20.88
9219,0.2166,-0.0217,0.8883,-6.02,7.74,0.03,20.91
9229,0.2129,-0.0245,0.8911,-6.02,7.69,0.02,20.88
9239,0.2164,-0.0234,0.8871,-6.02,7.62,0.03,20.9
9249,0.2128,-0.025,0.8866,-6.05,7.71,0.0,20.87
9259,0.2191,-0.0265,0.8909,-6.0,7.69,0.02,20.89
9269,0.2177,-0.0256,0.8865,-5.88,7.68,-0.05,20.87
9279,0.2174,-0.0245,0.8909,-6.03,7.71,-0.02,20.88
9289,0.2162,-0.0259,0.8875,-6.02,7.66,-0.08,20.89
9299,0.2207,-0.0197,0.8879,-6.0,7.68,0.03,20.89
9309,0.2186,-0.0223,0.8916,-6.06,7.74,0.0,20.89
9319,0.2159,-0.0225,0.8879,-5.89,7.79,0.08,20.9
9329,0.2131,-0.0231,0.8903,-5.98,7.85,-0.02,20.88
9339,0.2169,-0.0256,0.8889,-6.09,7.68,-0.09,20.88
9349,0.2178,-0.0232,0.8872,-6.08,7.68,-0.03,20.9
9359,0.2117,-0.0229,0.8898,-6.05,7.66,-0.03,20.88
9369,0.2155,-0.0217,0.891,-6.06,7.76,-0.08,20.89
9379,0.2153,-0.0225,0.8885,-6.06,7.73,-0.05,20.89
9389,0.2184,-0.0192,0.8896,-5.94,7.68,-0.05,20.89
9399,0.2181,-0.0203,0.8954,-6.06,7.66,-0.06,20.88
9409,0.2208,-0.0208,0.8881,-6.02,7.68,-0.08,20.9
9419,0.2209,-0.0219,0.8916,-6.05,7.73,-0.05,20.89
9429,0.2183,-0.0267,0.8895,-5.98,7.66,0.02,20.89
9439,0.2185,-0.0229,0.8907,-5.97,7.66,-0.02,20.87
9449,0.2137,-0.0249,0.8893,-6.05,7.74,-0.09,20.89
9459,0.2129,-0.0214,0.8878,-6.0,7.79,-0.02,20.89
9469,0.2144,-0.019,0.8892,-5.95,7.69,-0.03,20.88
9479,0.2194,-0.0228,0.8904,-5.98,7.74,-0.12,20.91
9489,0.2202,-0.0249,0.8903,-6.02,7.65,-0.08,20.89
9499,0.2201,-0.0225,0.889,-6.03,7.76,-0.05,20.92
9509,0.2206,-0.022,0.8903,-5.98,7.76,0.02,20.9
9519,0.2174,-0.0229,0.8918,-6.02,7.65,-0.06,20.88
9529,0.2174,-0.0225,0.8894,-5.92,7.68,0.0,20.89
9539,0.2172,-0.0238,0.8882,-5.92,7.82,0.0,20.88
9549,0.2152,-0.0269,0.8856,-6.09,7.68,-0.02,20.9
9559,0.2186,-0.0267,0.8851,-5.95,7.71,0.0,20.89
9569,0.2206,-0.0233,0.8878,-6.03,7.86,0.02,20.89
9579,0.2172,-0.0247,0.8838,-6.06,7.71,-0.05,20.91
9589,0.2179,-0.0231,0.8846,-6.03,7.71,-0.09,20.92
9600,0.2158,-0.0222,0.8895,-5.98,7.76,-0.03,20.93
9610,0.2152,-0.0248,0.8893,-6.05,7.71,-0.05,20.89
9620,0.2173,-0.0232,0.8885,-5.97,7.71,-0.09,20.88
9630,0.2168,-0.0237,0.8887,-6.05,7.68,-0.08,20.91
9640,0.2191,-0.0251,0.8856,-6.08,7.77,0.02,20.89
9650,0.2189,-0.0219,0.8887,-6.0,7.76,0.0,20.88
9660,0.2192,-0.0222,0.8901,-5.94,7.86,-0.08,20.88
9670,0.2162,-0.0215,0.8917,-6.05,7.73,-0.02,20.89
9680,0.213,-0.0239,0.8937,-6.08,7.65,0.02,20.9
9690,0.2144,-0.0239,0.8922,-6.03,7.8,0.02,20.89
9700,0.2163,-0.0247,0.8914,-6.02,7.73,0.03,20.92
9710,0.2147,-0.0233,0.8904,-6.03,7.82,-0.05,20.91
9720,0.2197,-0.0251,0.8871,-6.05,7.62,0.03,20.89
9730,0.218,-0.0209,0.8909,-6.0,7.63,-0.03,20.91
9740,0.2191,-0.0217,0.8879,-6.03,7.71,-0.08,20.9
9750,0.2194,-0.0242,0.8882,-6.02,7.65,-0.03,20.92
9760,0.2166,-0.0265,0.8871,-6.03,7.69,0.0,20.92
9770,0.2157,-0.0232,0.8901,-6.08,7.71,0.02,20.9
9780,0.2177,-0.0229,0.89,-6.08,7.69,-0.06,20.92
9790,0.2174,-0.0253,0.8889,-6.0,7.65,0.02,20.91
9800,0.2161,-0.026,0.8883,-6.08,7.65,-0.03,20.9
9810,0.2169,-0.0247,0.886,-6.0,7.76,-0.08,20.91
9820,0.2194,-0.0217,0.8895,-6.02,7.73,0.05,20.91
9830,0.2169,-0.0253,0.8894,-5.95,7.68,0.0,20.92
9840,0.219,-0.0232,0.8865,-6.11,7.68,-0.08,20.93
9850,0.2186,-0.0222,0.8899,-6.05,7.69,-0.02,20.89
9860,0.2183,-0.0217,0.8871,-6.02,7.76,-0.08,20.89
9870,0.2152,-0.0208,0.886,-5.95,7.73,-0.02,20.89
9880,0.2163,-0.0258,0.89,-6.02,7.66,0.02,20.92
9890,0.2158,-0.0215,0.8894,-5.94,7.76,-0.11,20.88
9900,0.2164,-0.0264,0.8867,-6.08,7.71,-0.03,20.94
9910,0.2173,-0.0237,0.889,-6.08,7.66,-0.14,20.9
9920,0.218,-0.0226,0.8898,-6.02,7.74,-0.08,20.91
9930,0.2141,-0.021,0.8872,-6.02,7.74,-0.06,20.93
9940,0.2158,-0.0233,0.8875,-6.02,7.65,-0.09,20.91
9950,0.2179,-0.0234,0.8892,-5.98,7.74,0.03,20.89
9960,0.2177,-0.0267,0.8848,-6.0,7.63,-0.05,20.91
9970,0.2184,-0.0243,0.8931,-6.05,7.69,0.03,20.9
9980,0.22,-0.0226,0.8867,-6.12,7.66,-0.08,20.9
9990,0.2189,-0.0253,0.8903,-6.06,7.69,-0.03,20.92
10000,0.217,-0.0216,0.887,-6.0,7.77,-0.06,20.89
10010,0.2153,-0.0231,0.8875,-5.97,7.62,-0.03,20.9
10020,0.2147,-0.0234,0.89,-6.05,7.68,-0.11,20.92
10030,0.2139,-0.0248,0.8864,-5.94,7.65,-0.03,20.89
10040,0.2175,-0.0254,0.8873,-6.02,7.66,-0.09,20.93
10050,0.2145,-0.026,0.8896,-5.94,7.68,-0.02,20.91
10060,0.2166,-0.0226,0.8899,-6.14,7.6,-0.08,20.9
10070,0.2194,-0.0222,0.8899,-6.05,7.69,0.03,20.92
10080,0.2217,-0.02,0.8887,-6.03,7.69,0.02,20.92
10090,0.2158,-0.024,0.8912,-5.98,7.74,-0.06,20.92
10100,0.2175,-0.0249,0.8892,-6.08,7.76,-0.09,20.92
10110,0.2163,-0.025,0.8859,-6.11,7.68,-0.03,20.9
10120,0.2167,-0.022,0.8867,-6.0,7.74,-0.08,20.92
10130,0.2194,-0.0212,0.8882,-6.02,7.71,0.03,20.92
10140,0.218,-0.0226,0.8901,-5.95,7.68,-0.03,20.9
10150,0.219,-0.0222,0.8894,-6.09,7.65,-0.12,20.94
10160,0.2131,-0.0217,0.8932,-6.08,7.66,-0.06,20.93
10170,0.2184,-0.0228,0.8888,-5.98,7.71,0.0,20.9
10180,0.2152,-0.025,0.8832,-5.92,7.65,-0.05,20.91
10190,0.217,-0.0259,0.8849,-6.03,7.65,0.0,20.91
10200,0.2148,-0.0236,0.8917,-6.02,7.62,-0.09,20.92
10210,0.2156,-0.0236,0.8896,-5.95,7.74,-0.03,20.93
10220,0.2186,-0.0221,0.887,-6.12,7.74,-0.02,20.91
10230,0.2179,-0.0237,0.8884,-6.03,7.71,-0.05,20.93
10240,0.2139,-0.0212,0.8909,-6.05,7.76,-0.02,20.93
10250,0.2189,-0.0225,0.8887,-6.0,7.66,-0.09,20.94
10260,0.2129,-0.0229,0.8893,-6.15,7.74,0.02,20.9
10270,0.2158,-0.0239,0.8903,-6.08,7.69,-0.06,20.92
10280,0.2186,-0.0255,0.889,-6.17,7.71,-0.05,20.94
10290,0.2186,-0.0245,0.8862,-6.03,7.65,0.03,20.93
10300,0.2178,-0.0255,0.8888,-5.97,7.66,0.0,20.9
10310,0.2174,-0.021,0.8844,-5.98,7.74,0.03,20.9
10320,0.2161,-0.0265,0.8882,-5.94,7.66,0.0,20.91
10330,0.2178,-0.0248,0.8882,-5.95,7.73,-0.02,20.92
10340,0.2153,-0.0242,0.8876,-6.06,7.77,-0.11,20.93
10350,0.2205,-0.0226,0.8909,-5.98,7.63,-0.03,20.93
10360,0.2229,-0.0225,0.8927,-5.97,7.66,0.0,20.94
10370,0.2223,-0.0233,0.8912,-6.05,7.66,-0.05,20.92
10380,0.2159,-0.0186,0.8912,-5.97,7.65,-0.03,20.94
10390,0.2179,-0.0212,0.8892,-5.92,7.69,0.02,20.94
10400,0.2177,-0.0204,0.8866,-5.98,7.74,-0.03,20.92
10410,0.2163,-0.0217,0.8849,-5.98,7.73,-0.08,20.92
10420,0.2148,-0.0277,0.8903,-6.08,7.76,-0.03,20.89
10430,0.2181,-0.0267,0.8864,-6.0,7.68,-0.06,20.94
10440,0.2192,-0.024,0.8898,-5.98,7.69,-0.03,20.93
10450,0.2185,-0.0239,0.889,-6.03,7.62,0.05,20.9
10460,0.2185,-0.0242,0.8903,-6.05,7.69,0.06,20.92
10470,0.2189,-0.0255,0.8933,-6.0,7.73,0.02,20.92
10480,0.2207,-0.022,0.8929,-5.97,7.63,0.06,20.93
10490,0.2234,-0.0239,0.8859,-5.98,7.68,0.0,20.9
10500,0.2183,-0.0216,0.8893,-6.09,7.74,-0.06,20.92
10510,0.2142,-0.0214,0.8894,-5.97,7.74,0.02,20.94
10521,0.214,-0.0187,0.8868,-5.97,7.6,-0.02,20.92
10531,0.2152,-0.026,0.8922,-5.98,7.71,-0.03,20.94
10541,0.2098,-0.0226,0.8879,-6.02,7.74,-0.02,20.92
10551,0.2119,-0.0267,0.8866,-6.03,7.65,-0.02,20.92
10561,0.212,-0.0244,0.8849,-6.03,7.66,0.03,20.95
10571,0.2173,-0.0254,0.886,-6.03,7.65,-0.02,20.94
10581,0.2223,-0.0217,0.8861,-5.95,7.66,-0.08,20.95
10591,0.2198,-0.0226,0.8879,-5.97,7.57,-0.08,20.92
10601,0.2216,-0.0249,0.8925,-5.95,7.68,-0.11,20.95
10611,0.2214,-0.024,0.8934,-6.03,7.79,-0.08,20.93
10621,0.2228,-0.0266,0.8923,-6.0,7.76,-0.08,20.92
10631,0.2184,-0.0247,0.8903,-5.98,7.71,-0.08,20.94
10641,0.2137,-0.0253,0.8925,-6.06,7.73,0.0,20.95
10651,0.2147,-0.0227,0.8918,-6.09,7.79,0.0,20.92
10661,0.2144,-0.0236,0.8876,-6.09,7.77,0.0,20.92
10671,0.2157,-0.0214,0.8928,-6.03,7.68,-0.08,20.94
10681,0.218,-0.0219,0.8922,-5.97,7.69,-0.05,20.94
10691,0.2155,-0.0229,0.8939,-6.05,7.71,-0.05,20.92
10701,0.2163,-0.0253,0.8917,-6.09,7.65,0.03,20.94
10711,0.2227,-0.0262,0.8901,-6.08,7.63,0.02,20.94
10721,0.2186,-0.025,0.8868,-6.02,7.76,-0.02,20.93
10731,0.2214,-0.0265,0.8912,-6.03,7.71,-0.02,20.92
10741,0.2158,-0.0254,0.8895,-6.03,7.73,-0.03,20.95
10751,0.2155,-0.0243,0.8881,-6.06,7.69,0.05,20.94
10761,0.2157,-0.0245,0.8912,-6.02,7.76,-0.08,20.92
10771,0.2137,-0.0249,0.8934,-6.0,7.74,-0.08,20.93
10781,0.2158,-0.0198,0.8899,-6.03,7.68,-0.06,20.92
10791,0.2162,-0.0248,0.8861,-6.06,7.71,-0.05,20.94
10801,0.2124,-0.0236,0.8892,-5.95,7.71,-0.06,20.95
10811,0.218,-0.022,0.89,-6.06,7.76,-0.05,20.93
10821,0.2185,-0.0227,0.8911,-6.09,7.74,-0.03,20.93
10831,0.2216,-0.0231,0.8936,-6.11,7.79,-0.05,20.94
10841,0.2188,-0.0272,0.8959,-5.92,7.69,0.06,20.94
10851,0.2194,-0.0232,0.8911,-5.98,7.69,-0.02,20.94
10861,0.2173,-0.0249,0.8868,-5.97,7.69,-0.14,20.94
10871,0.218,-0.0245,0.8879,-6.05,7.66,-0.05,20.92
10881,0.2159,-0.0226,0.8875,-6.05,7.74,-0.03,20.94
10891,0.2167,-0.0225,0.8881,-6.06,7.73,0.05,20.95
10901,0.2166,-0.0222,0.887,-5.98,7.73,-0.09,20.93
10911,0.2164,-0.0243,0.8862,-6.06,7.6,-0.08,20.94
10921,0.219,-0.0244,0.8881,-5.98,7.62,-0.03,20.95
10931,0.2184,-0.0234,0.8883,-6.06,7.6,-0.03,20.95
10941,0.2222,-0.0253,0.8896,-5.98,7.77,0.02,20.95
10951,0.2194,-0.0254,0.8927,-6.03,7.66,0.0,20.92
10961,0.2202,-0.0217,0.8949,-5.97,7.63,0.02,20.94
10971,0.2191,-0.0223,0.8895,-5.95,7.73,0.02,20.95
10981,0.2146,-0.0234,0.8928,-5.94,7.73,0.03,20.93
10991,0.2168,-0.0264,0.8899,-5.97,7.71,-0.03,20.94
11001,0.215,-0.0238,0.8859,-6.03,7.65,-0.03,20.94
11011,0.2162,-0.0243,0.8868,-6.02,7.62,0.0,20.93
11021,0.2163,-0.0255,0.8884,-6.09,7.65,-0.03,20.96
11031,0.2188,-0.0253,0.8864,-5.97,7.62,-0.08,20.97
11041,0.2178,-0.0248,0.8862,-6.03,7.71,-0.05,20.94
11051,0.2201,-0.0219,0.8888,-6.03,7.6,-0.02,20.96
11061,0.2217,-0.0242,0.8898,-6.06,7.63,0.0,20.94
11071,0.2161,-0.0222,0.8864,-6.11,7.71,0.02,20.96
11081,0.2144,-0.0225,0.8949,-6.05,7.8,-0.03,20.95
11091,0.2148,-0.0258,0.8943,-6.02,7.76,0.05,20.95
11101,0.2157,-0.0222,0.8907,-6.09,7.73,-0.08,20.94
11111,0.2155,-0.0247,0.8879,-6.0,7.69,-0.09,20.97
11121,0.2141,-0.0237,0.8893,-6.02,7.8,0.05,20.94
11131,0.2146,-0.0265,0.8907,-6.05,7.69,0.03,20.94
11141,0.2162,-0.0247,0.8912,-6.03,7.68,-0.03,20.95
11151,0.2195,-0.0219,0.8887,-5.97,7.62,-0.08,20.94
11161,0.2172,-0.026,0.8915,-6.0,7.68,-0.05,20.94
11171,0.2208,-0.0197,0.8915,-6.05,7.77,-0.11,20.95
11181,0.2192,-0.0221,0.8888,-6.06,7.73,-0.06,20.92
11191,0.2144,-0.0214,0.891,-6.05,7.73,-0.05,20.94
11201,0.2174,-0.0226,0.8896,-6.11,7.6,0.05,20.97
11211,0.2169,-0.0244,0.8899,-6.05,7.73,-0.02,20.97
11221,0.2145,-0.0261,0.889,-6.03,7.74,0.03,20.94
11232,0.2167,-0.0248,0.89,-5.98,7.68,-0.02,20.94
11242,0.2178,-0.0248,0.8855,-6.0,7.73,-0.02,20.97
11252,0.2172,-0.0267,0.8892,-6.06,7.79,-0.09,20.93
11262,0.2166,-0.025,0.8933,-6.05,7.73,-0.06,20.97
11272,0.2198,-0.027,0.8927,-6.02,7.76,-0.06,20.95
11282,0.2194,-0.024,0.8904,-5.91,7.69,-0.05,20.96
11292,0.2152,-0.0215,0.8876,-6.08,7.68,-0.05,20.96
11302,0.2189,-0.0222,0.8854,-6.08,7.73,0.02,20.95
11312,0.2173,-0.0223,0.8854,-6.02,7.77,0.0,20.93
11322,0.2167,-0.0228,0.8865,-6.06,7.71,-0.05,20.95
11332,0.2189,-0.0253,0.8864,-6.11,7.66,0.02,20.93
11342,0.2148,-0.0233,0.8893,-6.02,7.66,-0.11,20.94
11352,0.2146,-0.0217,0.8918,-5.97,7.8,0.0,20.96
11362,0.2163,-0.0256,0.8916,-5.92,7.68,0.03,20.96
11372,0.2219,-0.0264,0.8876,-6.03,7.73,-0.03,20.96
11382,0.2194,-0.0259,0.8895,-5.97,7.62,-0.08,20.97
11392,0.2198,-0.0215,0.8893,-6.05,7.66,-0.09,20.96
11402,0.22,-0.0242,0.8938,-5.92,7.73,-0.03,20.95
11412,0.2175,-0.0255,0.8893,-5.97,7.66,-0.02,20.94
11422,0.2196,-0.0239,0.8928,-6.06,7.73,0.0,20.97
11432,0.2188,-0.0219,0.8849,-6.05,7.77,-0.08,20.97
11442,0.2123,-0.0227,0.8887,-6.0,7.68,-0.03,20.96
11452,0.2146,-0.0233,0.891,-6.08,7.73,0.0,20.98
11462,0.2156,-0.0251,0.8901,-6.02,7.74,-0.08,20.94
11472,0.2141,-0.0242,0.8889,-6.11,7.73,0.02,20.97
11482,0.2158,-0.024,0.8887,-5.94,7.65,-0.08,20.96
11492,0.2172,-0.0269,0.8894,-6.03,7.68,-0.05,20.94
11502,0.2202,-0.0237,0.8916,-5.95,7.69,0.0,20.96
11512,0.2174,-0.0273,0.8873,-6.11,7.68,-0.03,20.95
11522,0.2218,-0.0243,0.8866,-6.02,7.74,-0.03,20.94
11532,0.2183,-0.0249,0.8906,-5.92,7.77,0.0,20.97
11542,0.2197,-0.0225,0.8912,-5.98,7.74,0.02,20.95
11552,0.2172,-0.0212,0.8885,-5.91,7.77,-0.03,20.95
11562,0.2152,-0.0214,0.8889,-5.92,7.68,0.0,20.95
11572,0.217,-0.0234,0.8909,-6.05,7.69,-0.03,20.98
11582,0.2162,-0.0229,0.8865,-6.03,7.69,0.03,20.94
11592,0.2164,-0.0262,0.8903,-6.06,7.62,-0.08,20.97
11602,0.2148,-0.0255,0.8878,-5.94,7.73,0.0,20.95
11612,0.2139,-0.0245,0.887,-6.11,7.73,0.0,20.96
11622,0.2178,-0.0232,0.8911,-6.02,7.74,-0.08,20.97
11632,0.2169,-0.0192,0.8871,-6.02,7.69,-0.02,20.96
11642,0.2156,-0.0178,0.8905,-6.03,7.82,-0.05,20.97
11652,0.2158,-0.0188,0.8889,-5.97,7.69,-0.02,20.95
11662,0.2133,-0.0234,0.8881,-5.97,7.69,-0.03,20.94
11672,0.2163,-0.0255,0.8887,-6.09,7.68,-0.02,20.96
11682,0.2144,-0.0239,0.8876,-6.06,7.82,-0.03,20.97
11692,0.2184,-0.0238,0.8826,-6.11,7.63,0.05,20.97
11702,0.2203,-0.0258,0.8854,-6.05,7.71,-0.05,20.96
11712,0.2195,-0.0259,0.8901,-5.92,7.68,-0.02,20.98
11722,0.218,-0.024,0.8894,-6.03,7.69,-0.15,20.95
11732,0.217,-0.0265,0.89,-5.95,7.73,-0.06,20.97
11742,0.2196,-0.024,0.8916,-6.02,7.69,-0.05,20.94
11752,0.2174,-0.024,0.8896,-5.92,7.83,0.0,20.95
11762,0.2186,-0.0175,0.8887,-6.08,7.68,-0.05,20.95
11772,0.2197,-0.0181,0.8909,-6.06,7.65,0.03,20.99
11782,0.2163,-0.019,0.8884,-6.02,7.62,-0.03,20.96
11792,0.2177,-0.0212,0.8899,-5.95,7.73,0.0,20.97
11802,0.2177,-0.0208,0.8873,-6.05,7.69,0.0,20.98
11812,0.2156,-0.0219,0.8837,-6.02,7.74,-0.03,20.97
11822,0.2183,-0.0244,0.8883,-6.03,7.65,-0.02,20.96
11832,0.2131,-0.0247,0.8922,-5.97,7.71,-0.02,20.95
11842,0.2188,-0.0249,0.8936,-5.95,7.59,-0.03,20.97
11852,0.2189,-0.0283,0.8909,-5.92,7.71,-0.02,20.97
11862,0.2197,-0.0225,0.8936,-5.98,7.65,-0.03,20.98
11872,0.2181,-0.022,0.8901,-5.97,7.69,-0.06,20.95
11882,0.2172,-0.0221,0.8892,-5.92,7.65,-0.02,20.96
11892,0.2174,-0.0211,0.8857,-6.03,7.63,-0.12,20.98
11902,0.2172,-0.0238,0.8879,-5.98,7.71,-0.03,20.95
11912,0.2166,-0.0208,0.8892,-6.05,7.71,0.03,20.95
11922,0.2179,-0.0227,0.8915,-5.97,7.71,0.02,20.98
11932,0.2157,-0.0234,0.8899,-6.05,7.69,0.0,20.96
11942,0.2168,-0.0215,0.8898,-5.98,7.65,-0.05,20.97
11952,0.2136,-0.0247,0.892,-6.06,7.66,-0.08,20.97
11962,0.2173,-0.0242,0.8923,-5.95,7.65,-0.08,20.96
11972,0.2163,-0.0248,0.8887,-5.98,7.74,-0.11,20.97
11982,0.2175,-0.0236,0.8901,-6.09,7.73,-0.11,20.96
11992,0.2173,-0.0234,0.8879,-6.18,7.76,-0.02,20.96
12002,0.2173,-0.0222,0.8876,-6.0,7.74,-0.11,20.97
12012,0.2153,-0.0239,0.8822,-6.02,7.66,-0.05,20.96
12022,0.2169,-0.0216,0.8875,-5.94,7.66,0.02,20.97
12032,0.2195,-0.0238,0.8901,-6.0,7.71,0.0,20.96
12042,0.2201,-0.0245,0.8868,-5.92,7.68,0.02,20.94
12052,0.2181,-0.0242,0.8884,-6.06,7.71,0.06,20.97
12062,0.2178,-0.0244,0.8889,-6.02,7.69,0.03,20.97
12072,0.2168,-0.0282,0.8898,-6.08,7.73,0.08,20.96
12082,0.2161,-0.0248,0.8912,-6.14,7.71,0.0,20.95
12092,0.2192,-0.0242,0.8894,-6.03,7.63,-0.12,20.95
12102,0.2194,-0.0206,0.8868,-6.05,7.76,-0.03,20.96
12112,0.2174,-0.0206,0.8943,-5.92,7.69,0.02,20.98
12122,0.2185,-0.0215,0.8877,-5.98,7.71,-0.02,20.95
12132,0.2223,-0.024,0.8876,-6.0,7.73,-0.11,20.97
12142,0.2186,-0.0254,0.8871,-6.08,7.77,0.0,20.95
12153,0.2174,-0.0222,0.8848,-5.92,7.65,-0.02,20.98
12163,0.2173,-0.0255,0.8866,-5.98,7.71,-0.09,20.99
12173,0.2174,-0.0242,0.8871,-6.11,7.68,0.0,20.96
12183,0.2186,-0.0249,0.8881,-6.05,7.74,-0.03,20.98
12193,0.2168,-0.0231,0.8895,-5.98,7.71,0.02,20.98
12203,0.2146,-0.0216,0.8911,-5.98,7.69,-0.03,20.97
12213,0.2156,-0.026,0.8873,-6.02,7.63,-0.06,20.99
12223,0.2134,-0.0245,0.8899,-6.08,7.74,-0.02,20.99
12233,0.2167,-0.025,0.8878,-5.98,7.74,0.0,20.99
12243,0.2175,-0.0222,0.8883,-6.18,7.76,-0.11,20.99
12253,0.2208,-0.0223,0.8879,-6.0,7.69,-0.05,21.02
12263,0.213,-0.0236,0.8922,-5.97,7.76,-0.11,20.98
12273,0.2185,-0.024,0.8879,-6.03,7.71,0.08,20.97
12283,0.2174,-0.0227,0.8856,-5.95,7.73,0.09,20.98
12293,0.2161,-0.0205,0.8866,-5.98,7.68,0.02,20.97
12303,0.2179,-0.0222,0.8883,-5.97,7.74,-0.02,20.96
12313,0.2177,-0.0238,0.8915,-5.94,7.76,-0.08,20.98
12323,0.2179,-0.0237,0.8915,-5.94,7.69,-0.11,20.97
12333,0.2174,-0.0255,0.8875,-6.03,7.73,0.03,20.95
12343,0.2183,-0.0214,0.891,-6.06,7.62,-0.09,20.98
12353,0.2173,-0.0232,0.8878,-5.95,7.83,-0.06,21.0
12363,0.2178,-0.0226,0.8851,-6.02,7.73,-0.06,20.99
12373,0.2164,-0.0233,0.8906,-6.05,7.76,0.03,20.99
12383,0.2178,-0.026,0.8881,-5.95,7.63,0.03,21.0
12393,0.219,-0.0253,0.8918,-5.91,7.71,0.03,20.99
12403,0.2192,-0.0254,0.8885,-5.98,7.65,-0.02,20.99
12413,0.2178,-0.0248,0.8871,-5.98,7.71,0.03,20.99
12423,0.2155,-0.0236,0.8911,-6.05,7.69,-0.03,20.98
12433,0.2161,-0.0245,0.8893,-6.06,7.74,0.0,20.99
12443,0.2189,-0.0222,0.8854,-6.03,7.74,-0.08,20.99
12453,0.2186,-0.0258,0.885,-6.02,7.74,-0.03,20.99
12463,0.2162,-0.0265,0.8876,-6.05,7.71,-0.12,20.97
12473,0.2142,-0.0231,0.89,-6.14,7.74,0.03,20.97
12483,0.2155,-0.0264,0.894,-6.03,7.8,-0.02,20.96
12493,0.2113,-0.025,0.8932,-6.05,7.85,-0.05,20.95
12503,0.2145,-0.025,0.8896,-5.94,7.79,-0.02,20.99
12513,0.2216,-0.0236,0.8893,-5.98,7.73,-0.09,20.98
12523,0.2209,-0.0237,0.8872,-5.94,7.66,-0.05,21.0
12533,0.2197,-0.0233,0.8856,-6.0,7.62,-0.08,21.0
12543,0.2175,-0.0221,0.885,-6.03,7.69,0.0,20.96
12553,0.2156,-0.0204,0.8862,-6.02,7.71,-0.05,20.96
12563,0.2129,-0.0234,0.8898,-6.05,7.71,-0.05,20.99
12573,0.2117,-0.0208,0.8907,-6.0,7.74,0.06,20.99
12583,0.2179,-0.0203,0.8912,-6.08,7.77,-0.03,21.0
12593,0.2195,-0.0231,0.8912,-5.91,7.68,0.03,21.0
12603,0.2217,-0.0249,0.8901,-6.02,7.59,0.0,20.98
12613,0.2184,-0.0229,0.8896,-6.03,7.76,-0.09,20.97
12623,0.2191,-0.0249,0.8878,-6.0,7.65,0.02,20.99
12633,0.2201,-0.0249,0.8871,-6.03,7.59,0.02,20.97
12643,0.2175,-0.0243,0.8873,-5.95,7.71,-0.02,20.99
12653,0.2179,-0.0226,0.8895,-6.09,7.69,0.0,20.98
12663,0.2169,-0.021,0.8826,-5.95,7.65,-0.06,20.99
12673,0.2164,-0.0226,0.8872,-6.0,7.71,-0.15,20.98
12683,0.2161,-0.024,0.8903,-5.97,7.8,-0.02,20.97
12693,0.2175,-0.0245,0.89,-6.0,7.73,0.02,20.99
12703,0.2163,-0.0236,0.8898,-6.08,7.76,-0.03,20.98
12713,0.2189,-0.0247,0.8873,-6.12,7.76,0.02,20.99
12723,0.219,-0.0222,0.8903,-6.0,7.68,-0.06,21.01
12733,0.2184,-0.0243,0.8922,-6.03,7.71,0.03,20.99
12743,0.218,-0.0232,0.8876,-5.98,7.71,0.02,21.0
12753,0.2212,-0.0216,0.8901,-6.09,7.62,-0.03,20.99
12763,0.2196,-0.025,0.8843,-5.98,7.73,-0.03,21.01
12773,0.2169,-0.0223,0.8912,-5.95,7.71,-0.11,20.99
12783,0.2163,-0.024,0.8906,-5.95,7.73,-0.06,20.99
12793,0.2179,-0.0229,0.8921,-6.0,7.77,-0.05,20.99
12803,0.219,-0.0203,0.8856,-5.97,7.76,-0.03,20.97
12813,0.219,-0.0262,0.887,-5.98,7.69,-0.08,20.99
12823,0.2158,-0.0242,0.8896,-6.0,7.85,-0.05,20.99
12833,0.2167,-0.0245,0.8884,-6.02,7.69,-0.06,20.98
12843,0.2158,-0.0232,0.8894,-6.05,7.71,-0.02,20.98
12853,0.2163,-0.024,0.8892,-6.05,7.63,-0.05,20.97
12863,0.2181,-0.024,0.884,-5.98,7.68,-0.08,20.98
12873,0.2137,-0.0251,0.8876,-5.98,7.68,0.03,20.99
12883,0.2167,-0.0242,0.8865,-5.98,7.83,-0.05,21.01
12893,0.2178,-0.0231,0.8892,-5.98,7.74,-0.03,21.0
12903,0.2194,-0.0256,0.8896,-5.98,7.71,-0.02,20.98
12913,0.2179,-0.0203,0.8895,-6.02,7.76,0.0,20.98
12923,0.2206,-0.0251,0.8889,-6.05,7.66,-0.03,21.0
12933,0.2186,-0.0223,0.8923,-6.06,7.62,-0.03,21.0
12943,0.214,-0.0236,0.8899,-5.95,7.76,0.05,21.02
12953,0.2166,-0.0217,0.8877,-6.03,7.74,0.03,21.01
12963,0.2175,-0.0209,0.8923,-6.03,7.71,-0.06,21.0
12973,0.2174,-0.0227,0.89,-6.02,7.68,-0.05,20.99
12983,0.2136,-0.024,0.8901,-6.02,7.73,-0.03,21.01
12993,0.219,-0.0244,0.8884,-5.98,7.69,-0.03,20.99
13003,0.2195,-0.0256,0.8883,-6.09,7.68,0.02,20.97
13013,0.2167,-0.0227,0.8893,-6.09,7.76,-0.03,20.98
13023,0.2158,-0.0232,0.891,-6.0,7.68,-0.08,20.99
13033,0.2177,-0.022,0.8903,-6.06,7.68,-0.06,21.0
13043,0.2186,-0.0251,0.8848,-6.06,7.69,0.0,20.97
13053,0.2174,-0.0215,0.8868,-6.09,7.71,-0.06,20.99
13063,0.2183,-0.0254,0.8883,-6.03,7.82,-0.03,20.99
13073,0.2161,-0.0225,0.8872,-6.02,7.71,-0.05,20.99
13083,0.2207,-0.0219,0.8845,-6.05,7.65,-0.08,21.0
13093,0.2168,-0.0232,0.8844,-6.06,7.73,-0.06,20.99
13103,0.2173,-0.022,0.8875,-6.0,7.68,-0.06,20.99
13113,0.215,-0.0219,0.8892,-6.03,7.66,-0.06,21.02
13123,0.2175,-0.0255,0.8901,-5.95,7.65,0.0,21.02
13133,0.2167,-0.0237,0.8925,-5.98,7.66,-0.05,20.99
13143,0.218,-0.0259,0.8907,-5.98,7.73,0.06,21.0
13153,0.2213,-0.022,0.8859,-6.02,7.69,0.02,21.0
13163,0.22,-0.0237,0.8843,-6.09,7.68,0.03,21.0
13173,0.2189,-0.0249,0.8875,-5.97,7.76,0.02,21.0
13183,0.2144,-0.0253,0.8899,-6.02,7.85,-0.12,20.97
13193,0.2141,-0.027,0.8873,-6.02,7.68,-0.09,21.01
13203,0.2155,-0.026,0.8872,-5.95,7.73,-0.03,20.99
13213,0.2155,-0.0242,0.892,-5.95,7.73,-0.02,20.99
13223,0.2172,-0.0258,0.8898,-5.98,7.69,-0.03,21.0
13233,0.2184,-0.0249,0.8938,-6.08,7.66,-0.09,20.99
13243,0.2196,-0.0203,0.8904,-6.08,7.73,0.0,21.0
13253,0.2194,-0.0212,0.8916,-5.97,7.65,-0.08,21.03
13263,0.218,-0.0216,0.8875,-5.91,7.66,-0.08,21.0
13273,0.2169,-0.0211,0.8865,-6.12,7.68,-0.06,21.01
13322,0.2139,-0.026,0.8884,-6.09,7.8,-0.09,21.01
13332,0.2161,-0.0233,0.8862,-6.05,7.66,-0.06,20.99
13342,0.2157,-0.0236,0.8838,-6.08,7.76,-0.05,21.02
13352,0.2185,-0.0217,0.8893,-6.0,7.69,-0.09,21.01
13362,0.218,-0.024,0.8895,-6.0,7.73,-0.03,20.99
13372,0.217,-0.0239,0.889,-6.06,7.63,-0.06,21.01
13382,0.2188,-0.0243,0.8895,-6.0,7.68,-0.03,21.0
13392,0.217,-0.0211,0.8916,-6.09,7.8,-0.08,21.02
13402,0.2177,-0.0225,0.8853,-6.14,7.73,-0.05,21.01
13412,0.2164,-0.0247,0.8871,-6.05,7.74,-0.06,20.99
13422,0.2178,-0.027,0.89,-5.98,7.74,0.05,21.02
13432,0.2155,-0.0244,0.8894,-6.0,7.73,0.0,21.02
13442,0.2163,-0.0232,0.8907,-6.05,7.63,-0.06,21.02
13452,0.2168,-0.0243,0.8895,-5.94,7.65,-0.09,21.01
13462,0.2141,-0.0223,0.8901,-6.03,7.69,0.03,21.02
13472,0.2155,-0.0223,0.8849,-6.02,7.65,-0.03,21.02
13482,0.2166,-0.0228,0.8933,-5.95,7.69,0.0,21.01
13492,0.2175,-0.0234,0.889,-6.09,7.73,-0.03,21.01
13503,0.2144,-0.0228,0.8883,-6.05,7.71,-0.06,21.01
13513,0.2169,-0.0238,0.891,-5.97,7.63,-0.06,20.97
13523,0.2159,-0.0258,0.8879,-5.95,7.6,-0.12,21.01
13533,0.2168,-0.0243,0.8868,-6.02,7.73,0.0,21.0
13543,0.2139,-0.0251,0.8853,-6.02,7.68,-0.05,21.02
13553,0.2151,-0.0206,0.889,-6.02,7.79,0.02,21.01
13563,0.2185,-0.0206,0.8901,-6.05,7.66,0.0,21.01
13573,0.217,-0.0227,0.8903,-6.15,7.74,0.0,21.0
13583,0.2167,-0.0232,0.8899,-6.05,7.62,-0.08,21.0
13593,0.2145,-0.0247,0.8911,-6.02,7.73,-0.08,21.02
13603,0.2163,-0.0251,0.8882,-6.03,7.69,-0.06,21.03
13613,0.2141,-0.0239,0.8894,-6.0,7.77,0.05,21.0
13623,0.2179,-0.0249,0.8853,-6.08,7.6,-0.08,21.02
13633,0.218,-0.022,0.8894,-6.05,7.71,-0.03,21.03
13643,0.2162,-0.0214,0.8905,-5.94,7.71,0.03,21.01
13653,0.2162,-0.0234,0.8895,-6.09,7.68,0.02,21.0
13663,0.2155,-0.0245,0.8903,-6.09,7.66,-0.09,21.04
13673,0.2211,-0.0201,0.8898,-6.06,7.76,0.02,21.0
13683,0.2185,-0.0229,0.8914,-6.03,7.66,-0.03,20.99
13693,0.2197,-0.0249,0.8872,-6.09,7.6,-0.02,21.01
13703,0.2186,-0.0249,0.8889,-6.08,7.76,-0.05,21.02
13713,0.2179,-0.0266,0.8932,-6.08,7.66,0.02,21.02
13723,0.218,-0.0265,0.8882,-6.03,7.71,-0.03,21.02
13733,0.2142,-0.0228,0.8905,-5.98,7.71,-0.02,21.0
13743,0.2191,-0.0236,0.8878,-5.95,7.83,-0.08,21.02
13753,0.2186,-0.0247,0.8861,-6.09,7.73,0.02,21.02
13763,0.2201,-0.0208,0.8899,-6.02,7.71,-0.02,21.0
13773,0.217,-0.0205,0.8877,-5.98,7.69,-0.08,20.99
13783,0.2178,-0.0182,0.89,-5.97,7.71,-0.12,21.02
13793,0.2156,-0.0211,0.89,-5.91,7.69,-0.08,21.02
13803,0.2174,-0.0208,0.889,-6.05,7.69,-0.08,21.03
13813,0.2196,-0.0227,0.8859,-6.06,7.66,-0.03,21.02
13823,0.2184,-0.0242,0.8845,-6.02,7.65,-0.05,21.01
13833,0.2184,-0.0265,0.8899,-6.12,7.73,-0.05,21.01
13843,0.2211,-0.0215,0.8894,-6.11,7.69,-0.02,21.02
13853,0.2169,-0.0248,0.8907,-6.0,7.71,-0.02,20.99
13863,0.2196,-0.0221,0.8878,-6.0,7.65,-0.03,21.03
13873,0.2191,-0.0234,0.8899,-6.03,7.82,-0.11,21.02
13883,0.2177,-0.0221,0.8875,-6.09,7.62,-0.06,21.01
13893,0.2163,-0.0231,0.8906,-6.03,7.71,-0.02,21.01
13903,0.2184,-0.0205,0.8915,-6.03,7.68,-0.03,21.01
13913,0.2195,-0.0203,0.8862,-6.23,7.65,-0.11,21.0
13923,0.2188,-0.0254,0.8925,-6.02,7.69,0.0,20.99
13933,0.2169,-0.0223,0.8851,-6.0,7.71,0.0,21.01
13943,0.215,-0.0232,0.8854,-5.94,7.69,-0.09,21.04
13953,0.2161,-0.0233,0.8867,-6.03,7.65,-0.02,21.02
13963,0.2189,-0.0223,0.8911,-6.05,7.73,0.0,21.01
13973,0.2179,-0.026,0.8875,-6.0,7.71,-0.06,21.02
13983,0.2185,-0.0245,0.8918,-6.06,7.73,-0.03,21.02
13993,0.2178,-0.0258,0.8873,-6.11,7.74,0.03,21.02
14003,0.2139,-0.0254,0.8892,-6.03,7.76,-0.02,21.03
14013,0.2183,-0.021,0.8867,-5.97,7.73,0.02,21.01
14023,0.2183,-0.0206,0.8857,-6.06,7.69,0.05,21.03
14033,0.2168,-0.0216,0.8881,-6.06,7.66,0.09,21.02
14043,0.2179,-0.0212,0.8907,-6.05,7.63,0.03,21.03
14053,0.2177,-0.0216,0.887,-6.09,7.77,0.09,21.02
14063,0.2163,-0.0248,0.8931,-6.08,7.74,-0.12,21.0
14073,0.2175,-0.0261,0.8855,-6.02,7.73,-0.02,21.03
14083,0.2159,-0.0232,0.8838,-5.98,7.66,-0.05,21.02
14093,0.2173,-0.0245,0.8857,-6.02,7.65,-0.05,21.02
14103,0.2156,-0.0228,0.8859,-6.12,7.6,0.0,21.02
14113,0.2189,-0.0245,0.8893,-6.05,7.73,0.05,21.02
14123,0.2177,-0.0208,0.889,-5.98,7.79,0.05,21.03
14133,0.2161,-0.0244,0.8882,-6.02,7.69,-0.03,21.02
14143,0.2155,-0.0232,0.8917,-6.03,7.82,0.05,21.02
14153,0.2179,-0.0243,0.8939,-6.06,7.69,-0.06,21.02
14163,0.2159,-0.0232,0.8918,-6.03,7.65,-0.08,21.02
14173,0.219,-0.0271,0.8883,-6.0,7.71,-0.11,21.05
14183,0.2173,-0.0249,0.8907,-6.02,7.76,0.0,21.03
14193,0.2192,-0.0242,0.8862,-6.05,7.71,-0.03,21.02
14203,0.2157,-0.0248,0.8846,-6.09,7.74,-0.02,21.03
14213,0.2164,-0.0231,0.8883,-5.97,7.71,0.06,21.02
14223,0.215,-0.0231,0.8899,-5.97,7.79,0.02,21.03
14233,0.218,-0.0226,0.891,-6.06,7.71,-0.03,21.02
14243,0.2192,-0.0248,0.8882,-6.14,7.74,-0.03,21.01
14253,0.2188,-0.0245,0.8917,-6.05,7.71,-0.03,21.04
14263,0.2183,-0.0239,0.891,-6.08,7.71,-0.03,21.04
14273,0.2161,-0.0231,0.89,-6.06,7.76,-0.02,21.06
14283,0.2197,-0.0262,0.8872,-6.03,7.68,-0.06,21.02
14293,0.2155,-0.0244,0.8879,-5.97,7.76,-0.02,21.02
14303,0.2155,-0.0254,0.8879,-6.05,7.65,-0.06,21.04
14313,0.2153,-0.0254,0.8882,-6.06,7.69,0.0,21.02
14323,0.2164,-0.0253,0.8885,-6.03,7.65,-0.03,21.01
14333,0.2188,-0.0238,0.8885,-6.0,7.63,-0.03,21.01
14343,0.2192,-0.024,0.887,-6.03,7.71,-0.11,21.05
14353,0.2167,-0.0233,0.8898,-6.02,7.79,-0.06,21.02
14363,0.2213,-0.0259,0.8899,-6.02,7.74,-0.06,21.04
14373,0.2159,-0.0255,0.8907,-6.09,7.73,-0.03,21.05
14383,0.2161,-0.0229,0.889,-5.97,7.73,-0.02,21.03
14393,0.2185,-0.0233,0.8879,-5.97,7.62,-0.02,21.04
14403,0.2147,-0.0236,0.8885,-5.92,7.66,-0.05,21.01
14413,0.2142,-0.0242,0.8915,-6.02,7.69,-0.11,21.05
14423,0.215,-0.0227,0.8931,-6.08,7.79,0.06,21.02
14433,0.2188,-0.0222,0.8912,-6.2,7.69,0.02,21.03
14443,0.2166,-0.0243,0.8937,-5.95,7.85,-0.08,21.03
14453,0.2188,-0.0248,0.8875,-6.05,7.68,-0.03,21.02
14463,0.2201,-0.0243,0.8871,-5.97,7.76,-0.05,21.03
14473,0.2172,-0.0237,0.8885,-6.03,7.71,0.02,21.04
14483,0.2161,-0.0237,0.8885,-6.08,7.71,0.06,21.02
14493,0.2169,-0.0229,0.8932,-6.02,7.69,-0.02,21.04
14503,0.2135,-0.0216,0.8909,-6.09,7.74,-0.06,21.05
14513,0.2162,-0.0225,0.8881,-6.05,7.69,-0.09,21.06
14523,0.2144,-0.022,0.8893,-6.12,7.69,-0.02,21.04
14533,0.2186,-0.022,0.8866,-5.98,7.65,-0.05,21.06
14543,0.218,-0.0233,0.8861,-6.06,7.74,-0.03,21.02
14553,0.2177,-0.0251,0.8904,-6.06,7.69,-0.05,21.03
14563,0.2245,-0.0254,0.8881,-6.09,7.68,-0.08,21.02
14573,0.2152,-0.0266,0.8936,-6.09,7.69,-0.12,21.04
14583,0.217,-0.0254,0.8892,-6.0,7.74,-0.06,21.03
14593,0.2222,-0.0238,0.8871,-6.0,7.77,0.02,21.04
14603,0.2169,-0.0262,0.8854,-6.05,7.77,-0.05,21.04
14613,0.2159,-0.0244,0.8864,-6.09,7.56,-0.03,21.02
14623,0.2153,-0.0201,0.8894,-6.02,7.63,-0.03,21.04
14633,0.215,-0.021,0.8875,-5.98,7.66,-0.03,21.02
14643,0.214,-0.0244,0.8903,-5.94,7.82,-0.02,21.02
14653,0.2166,-0.02,0.8943,-5.98,7.69,0.02,21.02
14663,0.2166,-0.0239,0.8888,-6.09,7.69,-0.05,21.02
14673,0.223,-0.0234,0.8875,-6.03,7.6,0.03,21.02
14683,0.2174,-0.0232,0.8878,-6.03,7.68,-0.02,21.03
14693,0.2192,-0.0245,0.8892,-6.09,7.68,0.02,21.03
14703,0.2178,-0.0212,0.887,-6.02,7.71,0.03,21.03
14713,0.2142,-0.0277,0.8889,-5.86,7.82,-0.06,21.03
14723,0.2174,-0.0283,0.8883,-5.97,7.69,-0.05,21.02
14733,0.2131,-0.0249,0.8873,-5.92,7.69,0.05,21.04
14743,0.2173,-0.0233,0.8883,-5.91,7.6,-0.05,21.03
14753,0.2163,-0.0248,0.8873,-6.05,7.68,0.08,21.05
14763,0.2196,-0.0208,0.8936,-6.0,7.73,-0.08,21.04
14773,0.2206,-0.0236,0.8867,-6.03,7.69,-0.06,21.04
14783,0.2194,-0.025,0.8918,-6.03,7.69,-0.03,21.04
14793,0.2173,-0.0255,0.8923,-6.05,7.8,-0.02,21.07
14803,0.2185,-0.0226,0.8956,-6.03,7.77,0.03,21.04
14813,0.2156,-0.0234,0.8848,-6.02,7.6,0.05,21.07
14823,0.214,-0.0249,0.8857,-6.12,7.82,-0.05,21.05
14833,0.2148,-0.0238,0.8885,-6.11,7.77,0.0,21.05
14843,0.2147,-0.0227,0.8895,-6.18,7.77,0.0,21.05
14853,0.2181,-0.0261,0.8868,-6.09,7.59,-0.08,21.06
14863,0.219,-0.0255,0.8883,-6.06,7.59,-0.03,21.04
14873,0.2137,-0.0221,0.8937,-6.05,7.77,-0.11,21.04
14883,0.217,-0.0259,0.8907,-6.03,7.76,0.0,21.06
14893,0.2185,-0.0243,0.8928,-6.09,7.62,-0.05,21.05
14903,0.2191,-0.0234,0.8928,-6.05,7.66,-0.05,21.05
14913,0.2192,-0.0238,0.8889,-6.06,7.76,-0.05,21.02
14923,0.2174,-0.0238,0.8872,-6.02,7.69,-0.05,21.03
14933,0.2198,-0.0231,0.8866,-6.0,7.71,-0.08,21.05
14943,0.2155,-0.025,0.8921,-6.03,7.69,-0.03,21.06
14953,0.2162,-0.0214,0.8893,-6.05,7.82,-0.02,21.06
14963,0.2201,-0.0255,0.89,-5.98,7.66,-0.08,21.07
14973,0.2184,-0.0244,0.8947,-6.09,7.62,-0.03,21.05
14983,0.2167,-0.0226,0.892,-6.08,7.73,0.0,21.05
14993,0.2172,-0.0232,0.8857,-5.97,7.65,-0.12,21.05
15003,0.2203,-0.0232,0.8878,-6.02,7.69,-0.02,21.05
15013,0.2195,-0.0226,0.8912,-6.06,7.66,-0.05,21.02
15023,0.2153,-0.024,0.8901,-6.08,7.68,-0.05,21.05
15033,0.2131,-0.0227,0.894,-5.91,7.76,-0.03,21.05
15043,0.2134,-0.0212,0.8922,-6.05,7.74,0.0,21.06
15053,0.2181,-0.0225,0.8857,-5.94,7.68,-0.03,21.06
15063,0.2173,-0.024,0.8885,-6.03,7.59,-0.02,21.04
15074,0.2189,-0.0248,0.8832,-6.05,7.62,-0.11,21.04
15084,0.222,-0.0249,0.8871,-5.94,7.69,0.0,21.02
15094,0.2203,-0.0225,0.8887,-6.09,7.76,0.0,21.06
15104,0.2164,-0.0219,0.8914,-5.97,7.66,-0.11,21.06
15114,0.2156,-0.0233,0.896,-6.09,7.69,-0.03,21.03
15124,0.22,-0.0238,0.8879,-6.02,7.68,-0.02,21.07
15134,0.218,-0.0219,0.8907,-6.0,7.69,-0.02,21.04
15144,0.2145,-0.0212,0.8923,-6.03,7.74,-0.05,21.04
15154,0.2131,-0.0244,0.8926,-5.95,7.8,-0.06,21.06
15164,0.2163,-0.025,0.8892,-6.08,7.88,-0.12,21.04
15174,0.2191,-0.0247,0.8854,-6.08,7.77,-0.02,21.04
15184,0.2189,-0.0238,0.8837,-6.06,7.54,-0.02,21.06
15194,0.2194,-0.0253,0.8834,-5.97,7.59,0.03,21.07
15204,0.2152,-0.0259,0.8895,-6.14,7.8,-0.03,21.04
15214,0.2177,-0.0245,0.8875,-6.0,7.8,-0.08,21.04
15224,0.2203,-0.0228,0.8909,-5.98,7.62,-0.02,21.06
15234,0.2195,-0.0229,0.8917,-6.06,7.71,-0.02,21.05
15244,0.2174,-0.0225,0.8906,-6.09,7.82,-0.08,21.07
15254,0.2202,-0.0236,0.891,-5.95,7.68,-0.09,21.04
15264,0.2152,-0.0226,0.8914,-6.11,7.69,0.02,21.04
15274,0.2175,-0.0253,0.8834,-6.02,7.68,0.02,21.06
