t_ms,accel_x_g,accel_y_g,accel_z_g,gyro_x_dps,gyro_y_dps,gyro_z_dps,imu_temp_c
3280,0.3324,-0.0253,0.8628,-6.09,7.79,-0.05,21.74
3290,0.3357,-0.0234,0.8618,-6.08,7.74,-0.09,21.75
3301,0.3358,-0.0232,0.8625,-6.05,7.76,-0.12,21.74
3311,0.3344,-0.0244,0.864,-6.12,7.73,-0.11,21.74
3321,0.3339,-0.0244,0.8619,-6.06,7.77,-0.02,21.74
3331,0.3333,-0.0219,0.8604,-6.18,7.77,0.02,21.73
3341,0.335,-0.0234,0.8632,-6.15,7.74,-0.09,21.75
3351,0.3324,-0.0233,0.8611,-6.11,7.79,-0.03,21.75
3361,0.3342,-0.0238,0.863,-6.12,7.74,-0.09,21.76
3371,0.3353,-0.0226,0.8618,-6.08,7.79,-0.06,21.76
3381,0.3328,-0.0273,0.8599,-6.08,7.74,-0.06,21.76
3391,0.3345,-0.0238,0.8604,-6.08,7.73,-0.11,21.75
3401,0.3331,-0.0242,0.8625,-6.12,7.76,-0.08,21.74
3411,0.334,-0.024,0.8628,-6.06,7.76,-0.03,21.77
3421,0.3334,-0.0251,0.859,-6.12,7.79,-0.02,21.76
3431,0.3353,-0.022,0.8597,-6.06,7.73,-0.03,21.74
3441,0.3337,-0.0233,0.861,-6.09,7.82,-0.03,21.74
3451,0.3331,-0.0233,0.8608,-6.17,7.77,-0.05,21.77
3461,0.3336,-0.0228,0.8612,-6.11,7.73,-0.03,21.78
3471,0.3334,-0.0226,0.8616,-6.0,7.79,-0.05,21.74
3481,0.338,-0.0243,0.8602,-6.12,7.74,-0.14,21.77
3491,0.3339,-0.0238,0.8553,-6.12,7.69,-0.05,21.75
3501,0.3323,-0.024,0.863,-6.12,7.71,-0.03,21.76
3511,0.3337,-0.024,0.8594,-6.08,7.77,-0.09,21.79
3521,0.3347,-0.026,0.8612,-6.18,7.79,-0.11,21.78
3531,0.3337,-0.0243,0.8649,-6.2,7.79,-0.06,21.76
3541,0.3354,-0.0244,0.8618,-6.15,7.85,0.02,21.79
3551,0.3359,-0.0215,0.8619,-6.09,7.73,0.06,21.77
3561,0.3364,-0.0222,0.8623,-6.11,7.74,-0.11,21.8
3571,0.3351,-0.0248,0.8632,-6.05,7.76,-0.03,21.76
3581,0.3358,-0.0225,0.8605,-6.12,7.71,0.02,21.79
3591,0.3329,-0.0231,0.8627,-6.18,7.83,-0.06,21.77
3601,0.3329,-0.0243,0.86,-6.02,7.73,0.02,21.77
3611,0.3348,-0.0236,0.8584,-6.17,7.77,-0.05,21.78
3621,0.3328,-0.0234,0.8595,-6.12,7.79,-0.03,21.8
3631,0.3331,-0.0242,0.8593,-6.17,7.76,-0.05,21.78
3641,0.3307,-0.0222,0.8643,-6.08,7.76,-0.05,21.78
3651,0.3335,-0.0247,0.8622,-6.17,7.76,-0.02,21.8
3661,0.3337,-0.0238,0.8627,-6.15,7.79,-0.09,21.79
3671,0.3359,-0.0254,0.8624,-6.09,7.77,-0.08,21.8
3681,0.334,-0.0215,0.8619,-6.15,7.79,-0.02,21.8
3691,0.3328,-0.022,0.8612,-6.03,7.83,-0.02,21.81
3701,0.333,-0.0229,0.8617,-6.09,7.85,0.05,21.79
3711,0.3329,-0.026,0.8622,-6.17,7.76,-0.02,21.81
3721,0.3352,-0.0228,0.8612,-6.08,7.76,-0.08,21.79
3731,0.3488,-0.0081,0.87,-6.17,7.76,0.0,21.79
3741,0.3423,-0.0522,0.8599,-6.14,7.74,0.02,21.8
3751,0.3344,-0.0277,0.8622,-6.08,7.76,-0.05,21.82
3761,0.3328,-0.0217,0.8654,-6.12,8.05,-0.08,21.83
3771,0.3242,-0.0125,0.8572,-6.09,8.0,-0.05,21.78
3781,0.326,-0.0308,0.8525,-6.12,7.69,0.08,21.79
3791,0.3276,-0.0209,0.8534,-6.09,7.69,-0.02,21.79
3801,0.3354,-0.024,0.8596,-6.03,7.66,-0.06,21.81
3811,0.3298,-0.0283,0.8624,-6.09,7.77,-0.06,21.81
3821,0.3387,-0.0287,0.8682,-6.2,7.76,-0.08,21.8
3831,0.3367,-0.0269,0.8643,-6.14,7.82,-0.05,21.8
3841,0.3357,-0.0282,0.8567,-6.09,7.85,-0.11,21.79
3851,0.3384,-0.0188,0.8651,-6.0,7.73,0.0,21.82
3861,0.335,-0.0253,0.8593,-6.12,7.76,-0.03,21.8
3871,0.3344,-0.0193,0.8588,-6.11,7.82,-0.05,21.81
3881,0.3356,-0.0168,0.8589,-6.09,7.79,-0.03,21.8
3891,0.3315,-0.0238,0.8638,-6.12,7.82,-0.05,21.81
3901,0.3328,-0.0256,0.8605,-6.12,7.69,-0.06,21.83
3911,0.3402,-0.0254,0.861,-6.14,7.69,-0.06,21.82
3921,0.3368,-0.0256,0.8652,-6.11,7.77,-0.05,21.8
3931,0.3298,-0.0297,0.8666,-6.11,7.79,-0.02,21.82
3941,0.335,-0.0261,0.8604,-6.2,7.77,-0.06,21.82
3951,0.3346,-0.0205,0.8601,-6.08,7.77,0.02,21.79
3961,0.3353,-0.0219,0.8594,-6.11,7.76,-0.06,21.82
3971,0.332,-0.0203,0.8571,-6.11,7.82,-0.11,21.8
3981,0.334,-0.0184,0.8622,-6.15,7.76,-0.08,21.83
3991,0.3365,-0.0221,0.8621,-6.11,7.73,-0.08,21.82
4001,0.3354,-0.0229,0.861,-6.11,7.76,-0.02,21.81
4011,0.3372,-0.0253,0.8621,-6.15,7.77,-0.02,21.81
4021,0.3363,-0.0245,0.8644,-6.09,7.8,-0.02,21.8
4031,0.3352,-0.0276,0.8643,-6.09,7.74,-0.08,21.8
4041,0.3348,-0.0272,0.8613,-5.97,7.77,-0.05,21.79
4051,0.3339,-0.0232,0.8601,-6.14,7.74,-0.03,21.81
4061,0.335,-0.0201,0.8593,-6.14,7.71,0.02,21.81
4071,0.3333,-0.0228,0.8567,-6.17,7.69,0.02,21.81
4081,0.3337,-0.0248,0.8577,-6.14,7.79,-0.05,21.8
4091,0.3375,-0.0221,0.8606,-6.12,7.76,-0.05,21.79
4101,0.335,-0.0249,0.8607,-6.11,7.79,-0.06,21.82
4111,0.3375,-0.0258,0.8615,-6.18,7.66,-0.05,21.82
4121,0.3363,-0.0239,0.8644,-6.11,7.73,0.0,21.83
4131,0.3345,-0.0223,0.8617,-6.09,7.85,0.0,21.82
4141,0.3363,-0.0261,0.8602,-6.12,7.73,-0.03,21.8
4151,0.3315,-0.0242,0.8605,-6.08,7.77,-0.05,21.84
4161,0.3309,-0.0238,0.8595,-6.11,7.74,-0.06,21.83
4171,0.3312,-0.0228,0.8585,-6.17,7.79,-0.08,21.81
4181,0.3333,-0.0262,0.8607,-6.08,7.73,-0.03,21.81
4191,0.3373,-0.0258,0.8574,-6.14,7.73,-0.06,21.79
4201,0.3348,-0.0216,0.8585,-6.06,7.76,0.03,21.83
4211,0.3364,-0.0212,0.865,-6.12,7.79,-0.11,21.84
4221,0.3351,-0.0244,0.8638,-6.08,7.8,-0.11,21.84
4231,0.3341,-0.0225,0.8636,-6.08,7.83,-0.09,21.83
4241,0.3336,-0.0203,0.8636,-6.17,7.79,-0.06,21.85
4251,0.3341,-0.0234,0.8594,-6.18,7.71,-0.03,21.83
4261,0.334,-0.0269,0.8617,-6.2,7.68,-0.09,21.82
4271,0.3336,-0.0245,0.8633,-6.09,7.76,-0.06,21.81
4282,0.3367,-0.0236,0.8611,-6.09,7.71,0.03,21.82
4292,0.3339,-0.0239,0.859,-6.17,7.79,0.0,21.84
4302,0.3351,-0.0243,0.8608,-6.14,7.74,-0.02,21.84
4312,0.335,-0.0216,0.8611,-6.12,7.79,-0.05,21.83
4322,0.3326,-0.0192,0.8632,-6.17,7.8,0.02,21.82
4333,0.3331,-0.0221,0.863,-6.12,7.8,-0.02,21.84
4343,0.3346,-0.0223,0.8573,-6.14,7.82,-0.08,21.83
4353,0.3336,-0.0228,0.8649,-6.09,7.77,-0.06,21.84
4363,0.3318,-0.0239,0.8606,-6.15,7.73,-0.08,21.83
4373,0.3352,-0.0264,0.8582,-6.06,7.74,-0.11,21.84
4383,0.3342,-0.0254,0.8638,-6.11,7.77,-0.06,21.84
4393,0.332,-0.0227,0.8624,-6.11,7.79,-0.08,21.83
4403,0.3329,-0.0215,0.8605,-6.09,7.8,-0.02,21.83
4413,0.3335,-0.0238,0.8556,-6.2,7.77,-0.03,21.82
4423,0.3333,-0.0237,0.8612,-6.09,7.79,-0.05,21.82
4433,0.3335,-0.0211,0.8612,-6.17,7.76,-0.09,21.84
4443,0.3358,-0.0244,0.8618,-6.17,7.71,0.0,21.82
4453,0.3361,-0.0219,0.8602,-6.09,7.74,0.06,21.84
4463,0.3353,-0.0253,0.8622,-6.11,7.77,-0.03,21.87
4473,0.3354,-0.0238,0.8624,-6.03,7.79,-0.05,21.85
4483,0.3344,-0.0237,0.861,-6.06,7.77,-0.03,21.84
4493,0.3339,-0.0221,0.8606,-6.14,7.73,-0.05,21.84
4503,0.3339,-0.026,0.8606,-6.15,7.8,-0.02,21.85
4513,0.3339,-0.0225,0.8585,-6.23,7.74,-0.11,21.86
4523,0.3324,-0.0221,0.8612,-6.09,7.76,-0.03,21.84
4533,0.3331,-0.0232,0.8602,-6.15,7.79,-0.02,21.84
4543,0.3356,-0.0206,0.8605,-6.15,7.77,0.02,21.85
4553,0.3347,-0.0236,0.8599,-6.11,7.74,-0.09,21.87
4563,0.3326,-0.0243,0.8629,-6.15,7.71,-0.12,21.83
4573,0.3363,-0.0244,0.8605,-6.08,7.77,-0.05,21.84
4583,0.3356,-0.0251,0.8605,-6.11,7.79,-0.03,21.85
4593,0.3318,-0.0222,0.8617,-6.08,7.76,-0.03,21.86
4603,0.3358,-0.0258,0.864,-6.15,7.74,-0.02,21.82
4613,0.3351,-0.0216,0.8594,-6.02,7.73,-0.12,21.89
4623,0.334,-0.0239,0.8601,-6.08,7.74,-0.02,21.84
4633,0.3356,-0.0237,0.8601,-6.09,7.68,0.03,21.85
4643,0.3364,-0.0243,0.8619,-6.12,7.73,-0.09,21.85
4653,0.3348,-0.0232,0.8617,-6.09,7.74,-0.08,21.88
4663,0.3341,-0.0276,0.8611,-6.17,7.74,0.0,21.86
4673,0.335,-0.0238,0.8607,-6.11,7.8,-0.09,21.87
4683,0.3336,-0.0258,0.8654,-6.15,7.77,-0.06,21.87
4693,0.3352,-0.025,0.8639,-6.15,7.76,-0.06,21.87
4703,0.3354,-0.024,0.8594,-6.06,7.73,-0.08,21.85
4713,0.3344,-0.0251,0.8602,-6.05,7.71,-0.05,21.88
4723,0.333,-0.0248,0.8601,-6.17,7.77,-0.08,21.83
4733,0.333,-0.0253,0.8617,-6.09,7.8,-0.06,21.85
4743,0.3335,-0.0232,0.8625,-6.05,7.76,-0.06,21.84
4753,0.3335,-0.0244,0.8596,-6.09,7.74,-0.05,21.83
4763,0.3333,-0.0227,0.8616,-6.14,7.74,-0.05,21.85
4773,0.3342,-0.0247,0.8645,-6.17,7.69,0.0,21.85
4783,0.3345,-0.0229,0.8616,-6.12,7.76,-0.02,21.86
4793,0.3313,-0.024,0.8588,-6.09,7.82,0.02,21.88
4803,0.3341,-0.0255,0.8636,-6.09,7.86,-0.03,21.84
4813,0.3335,-0.0232,0.8617,-6.05,7.76,-0.02,21.86
4824,0.3359,-0.0212,0.8624,-6.09,7.68,-0.06,21.86
4834,0.3346,-0.0229,0.8627,-6.15,7.79,0.02,21.87
4844,0.3367,-0.025,0.8635,-6.12,7.76,-0.08,21.87
4854,0.3341,-0.0236,0.8645,-6.18,7.85,-0.06,21.85
4864,0.3348,-0.026,0.8589,-6.21,7.74,-0.09,21.87
4874,0.3322,-0.0243,0.8594,-6.14,7.77,0.0,21.86
4885,0.3337,-0.0226,0.8617,-6.11,7.77,-0.09,21.88
4895,0.3375,-0.0214,0.8632,-6.17,7.76,-0.03,21.89
4905,0.3346,-0.0237,0.8635,-6.12,7.71,-0.12,21.87
4915,0.3358,-0.0219,0.86,-6.08,7.71,-0.08,21.86
4925,0.3325,-0.0233,0.8621,-6.14,7.76,-0.09,21.86
4935,0.3347,-0.0217,0.8639,-6.11,7.8,0.0,21.88
4945,0.3351,-0.0212,0.859,-6.06,7.79,0.06,21.86
4955,0.3413,-0.0256,0.8545,-6.12,7.47,-0.27,21.88
4965,0.3395,-0.0244,0.8574,-6.11,7.57,0.03,21.85
4975,0.3323,-0.0222,0.8633,-6.12,7.76,0.0,21.89
4985,0.33,-0.0249,0.8685,-6.17,7.79,-0.05,21.87
4995,0.3344,-0.0221,0.8629,-6.12,7.73,-0.06,21.88
5005,0.3363,-0.0223,0.858,-6.15,7.77,-0.06,21.89
5015,0.3385,-0.0234,0.86,-6.15,7.74,-0.11,21.87
5025,0.3334,-0.0239,0.8624,-6.11,7.8,0.05,21.89
5035,0.334,-0.0225,0.8669,-6.14,7.74,0.06,21.87
5045,0.3335,-0.0232,0.8591,-6.12,7.77,-0.09,21.85
5055,0.3337,-0.0259,0.8594,-6.12,7.73,-0.09,21.89
5065,0.3319,-0.0255,0.8605,-6.17,7.73,-0.02,21.87
5075,0.338,-0.0245,0.8639,-6.11,7.79,0.06,21.89
5085,0.3363,-0.0237,0.8663,-6.17,7.69,0.0,21.88
5095,0.3354,-0.0248,0.8645,-6.09,7.74,-0.03,21.9
5105,0.335,-0.0239,0.8615,-6.12,7.77,-0.06,21.89
5115,0.3312,-0.0231,0.8595,-6.18,7.85,-0.09,21.87
5125,0.3358,-0.0212,0.8604,-6.21,7.73,-0.03,21.87
5135,0.3335,-0.0262,0.8588,-6.15,7.71,-0.05,21.89
5145,0.3352,-0.0255,0.8607,-6.06,7.73,-0.15,21.89
5155,0.3334,-0.0231,0.8615,-6.09,7.76,0.0,21.89
5165,0.3353,-0.0236,0.8612,-6.09,7.74,-0.05,21.89
5175,0.3326,-0.0217,0.8638,-6.09,7.73,-0.02,21.91
5185,0.3319,-0.0221,0.8656,-6.12,7.83,-0.05,21.89
5195,0.3344,-0.0242,0.8629,-6.17,7.73,0.02,21.88
5205,0.334,-0.0215,0.8557,-6.02,7.69,0.03,21.87
5215,0.3347,-0.0239,0.8619,-6.09,7.76,0.06,21.88
5225,0.3337,-0.0232,0.8619,-6.06,7.8,0.02,21.89
5235,0.3339,-0.0187,0.8649,-6.09,7.73,-0.06,21.87
5245,0.3367,-0.0232,0.8651,-6.11,7.69,-0.03,21.88
5255,0.3341,-0.0229,0.8604,-6.15,7.73,-0.02,21.89
5265,0.3359,-0.0222,0.8608,-6.14,7.82,-0.05,21.87
5275,0.3339,-0.0243,0.8654,-6.11,7.82,-0.05,21.89
5285,0.3341,-0.0247,0.8629,-6.09,7.76,0.02,21.87
5295,0.335,-0.0198,0.8586,-6.14,7.79,-0.08,21.89
5305,0.3361,-0.0244,0.8629,-6.09,7.76,-0.05,21.88
5315,0.3347,-0.0209,0.861,-6.08,7.74,-0.03,21.92
5325,0.3348,-0.0223,0.861,-6.08,7.79,-0.02,21.91
5335,0.3337,-0.0225,0.8627,-6.18,7.79,-0.09,21.9
5345,0.3341,-0.0234,0.8621,-6.06,7.69,-0.05,21.92
5355,0.3342,-0.0242,0.8652,-6.12,7.74,-0.06,21.9
5365,0.3361,-0.0242,0.8607,-6.09,7.77,0.09,21.91
5375,0.3357,-0.0237,0.8639,-6.12,7.74,0.0,21.89
5385,0.3335,-0.0249,0.8617,-6.18,7.79,-0.03,21.88
5395,0.3341,-0.0272,0.8627,-6.21,7.69,-0.03,21.88
5405,0.3341,-0.0215,0.8599,-6.18,7.76,-0.02,21.91
5415,0.3364,-0.0248,0.8556,-6.14,7.79,0.05,21.9
5425,0.3344,-0.025,0.8567,-6.11,7.74,-0.08,21.89
5435,0.3353,-0.0234,0.86,-6.15,7.83,-0.03,21.88
5445,0.3351,-0.0223,0.8619,-6.15,7.76,-0.09,21.89
5455,0.3334,-0.0236,0.8612,-6.21,7.76,-0.09,21.9
5465,0.334,-0.0225,0.8597,-6.08,7.76,0.0,21.89
5475,0.3319,-0.025,0.8585,-6.08,7.76,-0.09,21.91
5485,0.3361,-0.0254,0.8636,-6.11,7.74,0.0,21.89
5495,0.3358,-0.0243,0.8623,-6.2,7.69,-0.02,21.91
5505,0.3328,-0.0231,0.8571,-6.15,7.71,0.06,21.9
5515,0.3346,-0.0238,0.8616,-6.05,7.79,0.03,21.92
5525,0.3337,-0.0217,0.8572,-6.05,7.77,-0.08,21.9
5535,0.3356,-0.0245,0.8605,-6.12,7.71,-0.09,21.89
5545,0.3367,-0.0232,0.8593,-6.11,7.79,-0.08,21.9
5555,0.3341,-0.0232,0.8594,-6.12,7.79,0.05,21.9
5565,0.3325,-0.0231,0.8606,-6.18,7.74,-0.06,21.9
5575,0.3298,-0.0221,0.8634,-6.09,7.73,-0.08,21.88
5585,0.3325,-0.0229,0.8643,-6.06,7.77,-0.03,21.88
5595,0.3336,-0.0221,0.8645,-6.15,7.76,-0.03,21.91
5605,0.332,-0.0253,0.8625,-6.09,7.82,-0.12,21.89
5615,0.3354,-0.0231,0.8621,-6.14,7.77,-0.09,21.89
5625,0.3341,-0.0255,0.8636,-6.05,7.79,-0.05,21.92
5635,0.3348,-0.0253,0.8622,-6.14,7.77,-0.11,21.91
5645,0.3335,-0.026,0.8606,-6.17,7.77,-0.02,21.92
5655,0.3379,-0.0203,0.8615,-6.14,7.79,-0.15,21.88
5665,0.3348,-0.0238,0.8611,-6.12,7.77,-0.05,21.9
5675,0.3344,-0.0227,0.8644,-6.09,7.74,-0.11,21.91
5685,0.3362,-0.0232,0.8654,-6.09,7.76,0.0,21.92
5695,0.3358,-0.0236,0.8585,-6.06,7.74,-0.05,21.91
5705,0.3351,-0.0248,0.8624,-6.11,7.71,-0.06,21.92
5715,0.3336,-0.025,0.8599,-6.08,7.85,-0.02,21.92
5725,0.3326,-0.0219,0.8596,-6.15,7.76,-0.02,21.93
5735,0.335,-0.0211,0.865,-6.17,7.82,-0.05,21.91
5745,0.3357,-0.0221,0.8645,-6.09,7.76,-0.09,21.92
5755,0.3331,-0.0249,0.8619,-6.12,7.76,0.0,21.89
5765,0.3347,-0.0225,0.8629,-6.15,7.74,0.02,21.92
5775,0.3329,-0.0227,0.8624,-6.12,7.79,-0.05,21.9
5785,0.3318,-0.0221,0.8582,-6.12,7.73,-0.02,21.91
5795,0.3347,-0.0236,0.8584,-6.17,7.73,-0.06,21.91
5805,0.335,-0.0226,0.8602,-6.14,7.82,-0.12,21.91
5815,0.3322,-0.0234,0.8602,-6.06,7.76,-0.02,21.93
5825,0.3354,-0.0217,0.8616,-6.21,7.77,-0.03,21.93
5835,0.3319,-0.0229,0.858,-6.14,7.77,0.0,21.92
5846,0.3354,-0.0236,0.8594,-6.21,7.79,-0.09,21.9
5856,0.334,-0.0219,0.8629,-6.15,7.74,-0.05,21.93
5866,0.3359,-0.0261,0.8618,-6.06,7.76,0.02,21.92
5876,0.3347,-0.0261,0.8639,-6.06,7.69,0.03,21.92
5886,0.3336,-0.0216,0.8617,-6.14,7.74,0.0,21.92
5896,0.3354,-0.0243,0.8606,-6.11,7.77,-0.05,21.92
5906,0.3347,-0.024,0.8615,-6.11,7.73,-0.09,21.92
5916,0.3308,-0.0229,0.8604,-6.23,7.71,-0.06,21.91
5926,0.3354,-0.025,0.8628,-6.17,7.85,-0.09,21.92
5936,0.3342,-0.0258,0.8632,-6.09,7.77,0.0,21.91
5946,0.3317,-0.0228,0.8597,-6.09,7.76,-0.05,21.94
5956,0.335,-0.0195,0.8632,-6.09,7.74,-0.12,21.9
5966,0.3333,-0.025,0.86,-6.12,7.79,-0.08,21.9
5976,0.3309,-0.0234,0.8661,-6.09,7.76,-0.02,21.92
5986,0.3339,-0.0232,0.8577,-6.2,7.76,-0.05,21.92
5996,0.3306,-0.0223,0.8615,-6.17,7.74,0.05,21.92
6006,0.3311,-0.0244,0.8674,-6.17,7.77,-0.05,21.92
6016,0.3326,-0.0266,0.8643,-6.05,7.73,0.0,21.92
6026,0.3367,-0.0221,0.8607,-6.15,7.69,0.0,21.93
6036,0.337,-0.025,0.861,-6.11,7.74,-0.05,21.91
6046,0.3362,-0.0227,0.8588,-6.12,7.76,-0.02,21.92
6056,0.3342,-0.0231,0.8627,-6.18,7.76,-0.03,21.93
6066,0.3374,-0.022,0.8578,-6.02,7.74,0.05,21.94
6076,0.3369,-0.0236,0.8629,-6.14,7.76,-0.03,21.95
6086,0.3329,-0.0229,0.8627,-6.2,7.83,-0.11,21.9
6097,0.333,-0.0216,0.8641,-6.2,7.8,-0.06,21.94
6107,0.337,-0.0249,0.8645,-6.11,7.76,-0.03,21.93
6117,0.3324,-0.0238,0.8623,-6.09,7.76,-0.03,21.94
6127,0.3328,-0.0228,0.8593,-6.18,7.76,0.02,21.94
6137,0.335,-0.0254,0.8624,-6.15,7.69,-0.02,21.9
6147,0.3362,-0.022,0.8552,-6.21,7.73,-0.03,21.9
6157,0.3372,-0.0231,0.8633,-6.14,7.74,-0.06,21.94
6167,0.3341,-0.0212,0.86,-6.14,7.77,-0.08,21.93
6177,0.3357,-0.0264,0.8589,-6.09,7.63,-0.11,21.94
6187,0.3336,-0.0233,0.8645,-6.15,7.73,-0.08,21.93
6197,0.3339,-0.0233,0.863,-6.12,7.74,-0.05,21.91
6207,0.3353,-0.0221,0.8636,-6.05,7.73,0.02,21.92
6217,0.3326,-0.0227,0.8617,-6.17,7.71,0.02,21.93
6227,0.3326,-0.026,0.8575,-6.14,7.77,-0.06,21.93
6237,0.3315,-0.0212,0.8583,-6.12,7.76,-0.05,21.93
6247,0.334,-0.0219,0.8632,-6.12,7.69,-0.03,21.93
6257,0.3345,-0.0231,0.8628,-6.14,7.69,-0.05,21.96
6267,0.3329,-0.0245,0.8627,-6.12,7.76,-0.05,21.94
6277,0.3319,-0.0248,0.8636,-6.15,7.77,-0.08,21.92
6287,0.3363,-0.0264,0.8586,-6.14,7.74,0.0,21.91
6297,0.3331,-0.026,0.864,-6.2,7.79,-0.03,21.94
6307,0.3342,-0.0216,0.8612,-6.18,7.76,-0.03,21.93
6317,0.3346,-0.0239,0.8615,-6.2,7.74,-0.03,21.92
6327,0.335,-0.0234,0.8638,-6.15,7.85,-0.03,21.93
6337,0.3326,-0.0244,0.8608,-6.11,7.77,-0.09,21.92
6347,0.3336,-0.0227,0.8621,-6.17,7.76,-0.09,21.92
6357,0.3341,-0.0217,0.8608,-6.06,7.77,0.08,21.93
6367,0.3344,-0.0253,0.8625,-6.08,7.85,-0.05,21.93
6377,0.3336,-0.0227,0.8647,-6.21,7.74,-0.03,21.94
6387,0.3347,-0.0239,0.8628,-6.14,7.74,-0.06,21.94
6397,0.3337,-0.0262,0.86,-6.23,7.73,-0.06,21.92
6407,0.3315,-0.0247,0.8595,-6.11,7.76,0.0,21.96
6417,0.3342,-0.021,0.8579,-6.21,7.74,-0.05,21.94
6427,0.3352,-0.0236,0.861,-6.17,7.76,0.0,21.93
6437,0.3344,-0.0237,0.8629,-6.06,7.68,0.02,21.96
6447,0.333,-0.0244,0.8599,-6.24,7.82,0.23,21.95
6457,0.3361,-0.0228,0.8582,-6.12,7.63,0.0,21.95
6467,0.3353,-0.0255,0.8607,-6.09,7.63,-0.09,21.94
6477,0.334,-0.0249,0.8633,-6.09,7.74,-0.03,21.94
6487,0.3334,-0.0228,0.8656,-6.18,7.77,-0.06,21.93
6497,0.3342,-0.0233,0.8633,-6.08,7.79,-0.02,21.94
6507,0.3346,-0.0259,0.8644,-6.18,7.74,-0.05,21.94
6517,0.3351,-0.0269,0.8604,-6.05,7.79,-0.12,21.94
6527,0.3335,-0.0238,0.858,-6.11,7.73,0.02,21.94
6537,0.3357,-0.0229,0.861,-6.17,7.71,0.02,21.93
6547,0.3326,-0.0245,0.8601,-6.12,7.76,-0.09,21.94
6557,0.3339,-0.0244,0.8606,-6.09,7.79,-0.06,21.94
6567,0.3359,-0.0248,0.8622,-6.05,7.69,-0.02,21.94
6577,0.3339,-0.0228,0.8615,-6.17,7.73,0.02,21.93
6587,0.3359,-0.0238,0.863,-6.21,7.71,0.03,21.94
6597,0.3331,-0.0237,0.8585,-6.12,7.74,-0.08,21.94
6607,0.3358,-0.0249,0.8583,-6.17,7.71,-0.02,21.95
6617,0.3361,-0.0237,0.8607,-6.17,7.71,-0.05,21.97
6627,0.3348,-0.0243,0.8611,-6.09,7.73,-0.06,21.92
6637,0.3334,-0.0236,0.8601,-6.06,7.76,0.02,21.94
6647,0.3347,-0.025,0.8606,-6.11,7.73,-0.03,21.94
6657,0.3331,-0.0231,0.8613,-6.11,7.77,0.0,21.95
6667,0.3357,-0.0258,0.8596,-6.11,7.74,-0.06,21.91
6677,0.3334,-0.0234,0.8634,-6.12,7.76,-0.02,21.95
6687,0.3319,-0.0248,0.8586,-6.17,7.71,-0.03,21.96
6697,0.3333,-0.0247,0.8595,-6.09,7.8,0.02,21.94
6707,0.3291,-0.0205,0.8595,-6.12,7.74,0.03,21.95
6717,0.3323,-0.0234,0.8638,-6.18,7.77,0.02,21.95
6727,0.3308,-0.0216,0.8616,-6.15,7.77,-0.12,21.93
6737,0.3364,-0.0215,0.8635,-6.09,7.79,-0.11,21.96
6747,0.3331,-0.025,0.8621,-6.2,7.82,-0.09,21.97
6757,0.3363,-0.0236,0.8585,-6.15,7.76,-0.02,21.94
6767,0.333,-0.024,0.8618,-6.15,7.82,0.03,21.94
6777,0.3337,-0.0247,0.8624,-6.06,7.77,-0.06,21.96
6787,0.335,-0.0228,0.8627,-6.11,7.73,-0.03,21.94
6797,0.3326,-0.0227,0.8647,-6.17,7.71,-0.05,21.95
6807,0.3341,-0.0222,0.8621,-6.18,7.73,-0.08,21.96
6817,0.3303,-0.0222,0.863,-6.14,7.74,0.0,21.94
6827,0.3331,-0.0237,0.864,-6.17,7.66,0.02,21.96
6837,0.3347,-0.0214,0.8596,-6.11,7.74,-0.06,21.96
6847,0.3365,-0.0232,0.8617,-6.09,7.74,-0.06,21.94
6857,0.3339,-0.0231,0.8571,-6.11,7.73,-0.03,21.95
6867,0.3339,-0.0239,0.8619,-6.14,7.79,-0.03,21.93
6877,0.332,-0.0228,0.8618,-6.09,7.76,-0.08,21.96
6887,0.3295,-0.0232,0.863,-6.15,7.76,-0.05,21.94
6897,0.3322,-0.0254,0.8612,-6.17,7.77,-0.06,21.95
6907,0.3322,-0.0255,0.8618,-6.17,7.82,0.05,21.96
6917,0.3337,-0.0243,0.8596,-6.14,7.77,-0.06,21.99
6927,0.335,-0.0244,0.8611,-6.18,7.76,0.0,21.97
6937,0.3344,-0.0236,0.8595,-6.05,7.69,0.03,21.96
6947,0.3345,-0.0243,0.8605,-6.2,7.74,-0.05,21.94
6957,0.3335,-0.0212,0.8622,-6.12,7.76,-0.02,21.95
6967,0.3359,-0.0229,0.8634,-6.12,7.77,-0.05,21.95
6977,0.3335,-0.0249,0.8628,-6.12,7.76,-0.09,21.95
6987,0.3351,-0.0247,0.8595,-6.12,7.73,-0.09,21.95
6997,0.3317,-0.0251,0.861,-6.15,7.79,-0.02,21.95
7007,0.333,-0.0251,0.8622,-6.21,7.79,-0.03,21.98
7017,0.3351,-0.0248,0.8636,-6.14,7.82,-0.08,21.95
7027,0.3359,-0.0237,0.8628,-6.09,7.82,-0.03,21.96
7037,0.3322,-0.021,0.8633,-6.05,7.83,-0.03,21.99
7047,0.3346,-0.0244,0.8569,-6.23,7.77,-0.08,21.97
7057,0.3356,-0.0251,0.863,-6.17,7.8,0.05,21.99
7067,0.3347,-0.0236,0.8602,-6.09,7.73,-0.06,21.97
7077,0.3367,-0.0236,0.8588,-6.12,7.66,-0.05,21.97
7087,0.3336,-0.0254,0.8613,-6.18,7.76,-0.05,21.98
7097,0.3346,-0.0214,0.8617,-6.08,7.71,-0.02,21.98
7107,0.3352,-0.0247,0.8593,-6.18,7.69,-0.08,21.99
7117,0.332,-0.0239,0.8635,-6.21,7.71,-0.08,21.98
7127,0.3346,-0.0237,0.8621,-6.18,7.79,-0.05,21.94
7138,0.3365,-0.025,0.866,-6.15,7.76,-0.08,21.97
7148,0.3337,-0.0238,0.8608,-6.17,7.74,-0.03,21.97
7159,0.3351,-0.0248,0.86,-6.15,7.74,0.0,21.94
7169,0.3318,-0.0261,0.8597,-6.15,7.76,-0.09,21.96
7179,0.3325,-0.0234,0.8591,-6.15,7.79,-0.06,21.97
7189,0.3319,-0.0225,0.863,-6.12,7.77,0.0,21.95
7199,0.3331,-0.0237,0.8638,-6.14,7.69,-0.05,21.97
7209,0.3344,-0.0238,0.8649,-6.15,7.76,-0.06,21.97
7219,0.3372,-0.0232,0.8602,-6.14,7.68,0.0,21.98
7229,0.3348,-0.0226,0.8599,-6.14,7.73,0.0,21.96
7239,0.3345,-0.0237,0.8623,-6.15,7.77,-0.02,21.96
7249,0.3334,-0.0237,0.8593,-6.15,7.79,-0.03,21.98
7259,0.3346,-0.0244,0.86,-6.18,7.85,0.0,21.98
7269,0.3341,-0.026,0.8618,-6.17,7.77,-0.03,21.97
7279,0.3339,-0.0222,0.8612,-6.14,7.69,0.02,21.94
7289,0.3358,-0.0243,0.8605,-6.08,7.74,0.0,21.95
7299,0.335,-0.0267,0.8602,-6.11,7.65,-0.05,21.97
7309,0.3346,-0.0233,0.8643,-6.14,7.76,0.0,21.97
7319,0.3372,-0.0232,0.8599,-6.15,7.76,0.03,21.97
7329,0.3341,-0.0244,0.8635,-6.14,7.77,-0.09,21.95
7339,0.3336,-0.0249,0.8593,-6.17,7.82,-0.05,21.97
7349,0.3352,-0.0228,0.8628,-6.06,7.76,0.03,21.96
7359,0.3337,-0.0237,0.8629,-6.02,7.76,-0.09,21.98
7369,0.3324,-0.0256,0.8617,-6.11,7.73,-0.05,21.96
7379,0.3344,-0.0245,0.8611,-6.11,7.76,-0.11,21.98
7389,0.3342,-0.0237,0.861,-6.05,7.74,-0.03,21.97
7399,0.3341,-0.0233,0.8654,-6.09,7.74,-0.03,21.96
7409,0.3333,-0.0247,0.8617,-6.17,7.74,-0.03,21.98
7419,0.3319,-0.0243,0.8605,-6.11,7.76,-0.02,21.97
7429,0.3356,-0.0256,0.8582,-6.2,7.79,-0.02,21.96
7439,0.3325,-0.0228,0.8602,-6.15,7.77,-0.03,21.96
7449,0.3353,-0.0237,0.8644,-6.15,7.74,-0.09,21.99
7459,0.3326,-0.0227,0.8619,-6.21,7.79,-0.03,21.98
7469,0.3359,-0.0215,0.864,-6.17,7.74,-0.05,21.96
7479,0.3326,-0.0232,0.8645,-6.14,7.73,-0.03,21.97
7489,0.3344,-0.0212,0.8632,-6.14,7.74,-0.02,21.98
7499,0.3335,-0.0237,0.8588,-6.15,7.74,-0.03,21.98
7509,0.3341,-0.025,0.8612,-6.12,7.8,-0.05,21.97
7519,0.3348,-0.0238,0.8593,-6.09,7.73,-0.09,21.96
7529,0.3323,-0.0237,0.8621,-6.11,7.79,-0.09,21.95
7539,0.335,-0.025,0.8647,-6.17,7.76,-0.06,21.98
7549,0.3362,-0.0234,0.8624,-6.08,7.79,-0.08,21.97
7560,0.3333,-0.0215,0.8604,-6.12,7.73,-0.02,21.97
7570,0.3352,-0.0225,0.8619,-6.15,7.8,-0.09,21.98
7580,0.3369,-0.0258,0.861,-6.17,7.8,-0.03,21.97
7591,0.3369,-0.0258,0.8611,-6.14,7.73,-0.06,21.96
7601,0.337,-0.0227,0.8636,-6.17,7.69,-0.05,21.96
7611,0.3347,-0.0238,0.8602,-6.15,7.79,0.0,21.97
7621,0.3328,-0.0248,0.8641,-6.09,7.69,-0.09,21.99
7631,0.3357,-0.0271,0.8643,-6.15,7.83,-0.03,21.98
7641,0.3341,-0.0255,0.8579,-6.12,7.8,-0.02,21.98
7651,0.3348,-0.025,0.8625,-6.11,7.74,-0.05,21.99
7661,0.3322,-0.0253,0.8624,-6.17,7.74,-0.02,21.98
7671,0.333,-0.0212,0.8563,-6.12,7.74,-0.06,21.97
7681,0.3339,-0.0275,0.8645,-6.03,7.77,0.02,21.98
7691,0.3333,-0.0245,0.8588,-6.06,7.77,0.0,21.99
7701,0.3344,-0.0232,0.8633,-6.11,7.74,0.0,22.0
7711,0.3329,-0.0222,0.8612,-6.2,7.66,-0.06,21.98
7721,0.3342,-0.0215,0.8613,-6.06,7.77,-0.02,21.99
7731,0.3353,-0.0261,0.8604,-6.09,7.73,0.0,21.98
7741,0.3333,-0.0231,0.8644,-6.17,7.71,-0.11,21.98
7751,0.3318,-0.0225,0.8628,-6.14,7.71,0.03,21.98
7761,0.3351,-0.024,0.8628,-6.17,7.77,-0.03,21.98
7771,0.3337,-0.0233,0.8599,-6.08,7.76,0.05,21.99
7781,0.3364,-0.0229,0.8606,-6.17,7.77,-0.08,21.98
7791,0.3334,-0.0237,0.8651,-6.18,7.76,-0.12,21.99
7801,0.3386,-0.0237,0.8617,-6.15,7.77,-0.17,21.97
7811,0.3356,-0.0222,0.8588,-6.14,7.73,-0.08,21.97
7821,0.3359,-0.0205,0.8607,-6.17,7.71,-0.09,21.99
7831,0.3336,-0.0242,0.8622,-6.09,7.76,0.03,21.99
7841,0.3367,-0.0238,0.8627,-6.18,7.68,0.0,21.98
7851,0.332,-0.0236,0.8596,-6.14,7.82,-0.08,21.99
7861,0.333,-0.0229,0.86,-6.15,7.76,-0.08,21.97
7871,0.3364,-0.0201,0.864,-6.12,7.71,0.05,21.98
7881,0.3345,-0.0219,0.8589,-6.17,7.65,-0.02,21.98
7891,0.3331,-0.0243,0.8604,-6.05,7.79,-0.05,21.98
7901,0.3331,-0.0226,0.8613,-6.12,7.74,-0.08,21.97
7911,0.3334,-0.0212,0.8627,-6.11,7.76,0.03,21.98
7921,0.3331,-0.0236,0.8618,-6.06,7.8,-0.03,21.95
7931,0.3344,-0.0222,0.8638,-6.09,7.77,0.0,22.0
7941,0.3335,-0.024,0.8616,-6.18,7.77,0.0,21.97
7951,0.3331,-0.0231,0.8641,-6.08,7.85,-0.03,21.97
7961,0.3368,-0.026,0.8618,-6.15,7.69,0.0,22.01
7971,0.3367,-0.0242,0.859,-6.08,7.73,-0.05,21.98
7981,0.3358,-0.0231,0.8616,-6.2,7.71,-0.08,21.99
7991,0.3347,-0.0233,0.8616,-6.12,7.77,-0.02,21.98
8001,0.3364,-0.0251,0.8606,-6.09,7.73,-0.03,21.99
8011,0.3353,-0.0215,0.8621,-6.14,7.8,-0.12,22.0
8021,0.3353,-0.0255,0.8655,-6.2,7.76,-0.14,21.98
8031,0.3363,-0.0234,0.8647,-6.23,7.76,0.0,22.0
8041,0.3341,-0.0231,0.8594,-6.15,7.76,-0.06,22.01
8051,0.3352,-0.0228,0.8621,-6.09,7.82,-0.06,22.01
8061,0.333,-0.0251,0.8608,-6.17,7.79,-0.06,21.99
8071,0.3367,-0.0251,0.8589,-6.09,7.74,-0.08,22.01
8081,0.3333,-0.0242,0.8655,-6.09,7.76,-0.11,22.02
8091,0.334,-0.0237,0.8608,-6.21,7.68,0.02,21.99
8101,0.3342,-0.0219,0.861,-6.23,7.66,-0.05,21.98
8111,0.3363,-0.0229,0.8643,-6.18,7.76,-0.05,21.99
8121,0.3364,-0.0234,0.8656,-6.08,7.79,-0.05,22.0
8131,0.3357,-0.0239,0.8599,-6.15,7.69,-0.03,22.03
8141,0.3345,-0.0236,0.8619,-6.12,7.73,-0.06,22.02
8151,0.3326,-0.0244,0.8582,-6.17,7.71,-0.02,21.99
8161,0.333,-0.0192,0.8593,-6.15,7.76,-0.03,22.01
8173,0.3345,-0.0256,0.86,-6.11,7.73,-0.08,21.99
8183,0.3334,-0.026,0.8597,-6.12,7.8,0.02,21.98
8193,0.333,-0.0228,0.8621,-6.2,7.83,-0.02,22.02
8203,0.3313,-0.0222,0.8619,-6.15,7.8,-0.05,22.01
8213,0.3356,-0.0256,0.8627,-6.11,7.77,-0.06,22.03
8223,0.3337,-0.0219,0.8655,-6.17,7.79,-0.06,22.0
8233,0.333,-0.0229,0.8612,-6.11,7.79,-0.02,22.0
8243,0.3345,-0.0206,0.8616,-6.14,7.79,-0.09,22.01
8253,0.3326,-0.0203,0.8583,-6.17,7.74,0.06,21.99
8263,0.3323,-0.0221,0.8617,-6.14,7.8,-0.05,22.0
8273,0.3326,-0.0222,0.8593,-6.08,7.74,0.0,22.02
8283,0.333,-0.0247,0.8606,-6.14,7.74,-0.06,22.02
8293,0.3319,-0.0234,0.8601,-6.21,7.74,-0.02,22.01
8303,0.3323,-0.0234,0.861,-6.0,7.69,0.02,21.99
8313,0.3367,-0.0217,0.8623,-6.09,7.74,-0.06,22.01
8323,0.3359,-0.0233,0.8591,-6.14,7.74,0.0,21.96
8333,0.3352,-0.0227,0.8672,-6.24,7.77,-0.06,22.03
8343,0.3369,-0.0243,0.8602,-6.23,7.76,-0.08,22.0
8353,0.3353,-0.0251,0.8662,-6.17,7.77,-0.06,22.0
8363,0.3331,-0.0237,0.8591,-6.11,7.74,-0.11,21.99
8373,0.3342,-0.0234,0.8623,-6.17,7.8,-0.02,21.99
8383,0.339,-0.0229,0.8601,-6.14,7.73,-0.11,22.01
8393,0.3346,-0.0245,0.8597,-6.18,7.73,-0.09,22.01
8403,0.3348,-0.024,0.8556,-6.15,7.74,-0.02,22.01
8413,0.3363,-0.024,0.8615,-6.17,7.74,-0.09,22.02
8423,0.3384,-0.0236,0.8612,-6.14,7.77,-0.09,22.01
8433,0.3331,-0.0221,0.8611,-6.23,7.79,-0.02,22.01
8443,0.335,-0.0229,0.865,-6.11,7.73,0.06,22.04
8453,0.3364,-0.0223,0.8656,-6.12,7.71,-0.03,22.02
8463,0.3337,-0.0217,0.8629,-6.14,7.8,0.03,22.02
8473,0.334,-0.0275,0.8605,-6.15,7.77,-0.08,22.02
8483,0.3314,-0.0233,0.8602,-6.14,7.8,0.0,22.04
8493,0.3339,-0.0208,0.8605,-6.06,7.68,0.05,22.02
8503,0.3361,-0.0237,0.8552,-6.11,7.76,0.05,22.02
8513,0.337,-0.0239,0.8584,-6.17,7.76,-0.05,22.02
8523,0.3326,-0.0233,0.8658,-6.24,7.79,0.02,22.01
8533,0.3326,-0.0259,0.861,-6.17,7.74,-0.02,22.04
8543,0.3336,-0.0238,0.8632,-6.17,7.69,-0.03,22.02
8553,0.3341,-0.0256,0.8604,-6.14,7.73,-0.02,22.01
8563,0.3359,-0.024,0.8621,-6.12,7.77,-0.03,22.01
8573,0.3312,-0.022,0.8636,-6.14,7.77,-0.05,21.97
8583,0.3368,-0.0212,0.8629,-6.09,7.77,-0.08,22.0
8593,0.3328,-0.0222,0.8579,-6.11,7.74,0.02,22.02
8603,0.334,-0.0269,0.8599,-6.09,7.79,-0.03,22.04
8613,0.3347,-0.0234,0.8624,-6.11,7.76,-0.03,22.01
8623,0.3361,-0.0228,0.8628,-6.09,7.73,-0.03,22.01
8633,0.3361,-0.0223,0.8606,-6.14,7.69,-0.06,22.02
8643,0.3345,-0.0231,0.8636,-6.18,7.76,-0.02,22.02
8653,0.3315,-0.0236,0.8639,-6.15,7.76,0.0,22.02
8663,0.3367,-0.0253,0.8636,-6.15,7.83,-0.02,22.02
8673,0.3357,-0.0233,0.8586,-6.27,7.71,-0.05,22.02
8683,0.334,-0.0266,0.8619,-6.21,7.73,-0.02,22.02
8693,0.3336,-0.024,0.8618,-6.18,7.8,0.0,22.02
8703,0.3348,-0.0237,0.8625,-6.09,7.74,-0.12,22.04
8713,0.3348,-0.0211,0.8627,-6.23,7.69,-0.03,22.03
8723,0.3348,-0.0247,0.863,-6.14,7.83,-0.08,22.01
8733,0.3342,-0.0258,0.8589,-6.14,7.73,-0.02,22.02
8743,0.3317,-0.025,0.8613,-6.15,7.73,0.0,22.02
8753,0.3339,-0.0248,0.8612,-6.11,7.8,0.0,22.0
8763,0.3368,-0.0237,0.8608,-6.14,7.73,0.02,22.03
8773,0.3375,-0.0249,0.8617,-6.09,7.66,-0.08,22.02
8783,0.3346,-0.0238,0.8644,-6.15,7.8,-0.03,22.03
8793,0.3357,-0.0234,0.8655,-6.15,7.79,-0.08,22.02
8803,0.337,-0.0244,0.8599,-6.18,7.73,-0.14,22.02
8813,0.3329,-0.0242,0.8613,-6.14,7.8,-0.05,22.03
8823,0.3325,-0.0259,0.8635,-6.11,7.79,-0.06,22.02
8833,0.3357,-0.024,0.8611,-6.15,7.8,-0.06,22.02
8843,0.334,-0.0231,0.8582,-6.09,7.8,0.05,22.02
8853,0.3354,-0.0237,0.8607,-6.11,7.69,0.0,22.0
8863,0.3314,-0.0234,0.8579,-6.12,7.77,-0.03,22.02
8873,0.3348,-0.0243,0.8624,-6.09,7.76,-0.14,22.04
8883,0.3358,-0.0233,0.8633,-6.14,7.77,-0.08,22.03
8893,0.3353,-0.025,0.8619,-6.15,7.8,-0.08,22.04
8903,0.3334,-0.0254,0.8652,-6.09,7.79,0.0,22.04
8913,0.3329,-0.0232,0.8621,-6.17,7.85,0.03,22.01
8923,0.333,-0.0249,0.8625,-6.08,7.76,-0.03,22.04
8933,0.3361,-0.0239,0.8597,-6.24,7.76,0.03,22.02
8943,0.334,-0.0232,0.863,-6.2,7.71,0.05,22.02
8953,0.3336,-0.0236,0.8602,-6.11,7.73,-0.03,22.05
8963,0.3347,-0.0255,0.8657,-6.23,7.71,-0.03,22.03
8973,0.3341,-0.0249,0.8643,-6.14,7.77,0.0,22.02
8983,0.3342,-0.0233,0.8615,-6.08,7.74,0.0,22.03
8993,0.334,-0.0247,0.8621,-6.15,7.73,-0.06,22.02
9003,0.334,-0.0243,0.8645,-6.24,7.8,-0.05,22.04
9013,0.3331,-0.0227,0.8613,-6.18,7.77,-0.02,22.02
9023,0.334,-0.0239,0.8636,-6.08,7.74,-0.06,22.02
9033,0.3329,-0.0216,0.8601,-6.14,7.82,0.02,22.03
9043,0.3335,-0.0225,0.8608,-6.15,7.74,-0.02,22.02
9053,0.3341,-0.0236,0.8608,-6.14,7.69,0.08,22.04
9063,0.334,-0.0242,0.8611,-6.18,7.74,0.03,22.03
9073,0.3356,-0.0226,0.8647,-6.18,7.71,-0.02,22.04
9083,0.3386,-0.0255,0.8618,-6.17,7.74,-0.03,22.04
9093,0.3348,-0.0229,0.8621,-6.12,7.8,-0.09,22.02
9103,0.3308,-0.0243,0.8601,-6.14,7.79,-0.05,22.04
9113,0.3331,-0.0253,0.8625,-6.12,7.74,-0.05,22.03
9123,0.3333,-0.0229,0.8604,-6.12,7.82,-0.11,22.03
9133,0.3348,-0.0206,0.861,-6.08,7.77,-0.02,22.04
9143,0.3335,-0.0242,0.8605,-6.2,7.76,-0.06,22.04
9153,0.3345,-0.025,0.8632,-6.12,7.69,-0.09,22.01
9163,0.3346,-0.0265,0.8618,-6.06,7.8,-0.05,22.04
9173,0.3325,-0.0228,0.8624,-6.11,7.73,-0.09,22.03
9183,0.3326,-0.0256,0.8583,-6.12,7.74,-0.08,22.03
9193,0.3308,-0.0223,0.8634,-6.08,7.76,-0.05,22.03
9203,0.3329,-0.0212,0.8634,-6.14,7.79,-0.05,22.03
9213,0.334,-0.0238,0.8645,-6.17,7.76,0.03,22.04
9223,0.3352,-0.0259,0.8589,-6.15,7.79,0.02,22.03
9233,0.3345,-0.0221,0.8658,-6.2,7.8,-0.05,22.05
9243,0.333,-0.0244,0.8646,-6.24,7.77,0.0,22.03
9253,0.3334,-0.0228,0.8652,-6.09,7.69,0.0,22.04
9263,0.3319,-0.0212,0.8645,-6.12,7.77,0.0,22.07
9273,0.3372,-0.0236,0.8632,-6.21,7.76,-0.09,22.04
9283,0.3341,-0.0226,0.8601,-6.21,7.76,0.05,22.05
9293,0.3337,-0.0244,0.8583,-6.17,7.68,0.0,22.02
9303,0.3353,-0.0247,0.8612,-6.2,7.77,-0.03,22.06
9313,0.3335,-0.0261,0.8618,-6.15,7.77,-0.03,22.04
9323,0.3367,-0.0249,0.8652,-6.05,7.77,-0.03,22.04
9333,0.3339,-0.0254,0.86,-6.21,7.79,-0.03,22.06
9343,0.3351,-0.0236,0.8638,-6.2,7.79,-0.06,22.04
9353,0.3337,-0.0234,0.8617,-6.14,7.71,-0.03,22.02
9363,0.3298,-0.0233,0.8606,-6.12,7.76,-0.03,22.05
9373,0.3365,-0.0201,0.8597,-6.17,7.82,-0.06,22.03
9383,0.3339,-0.0232,0.8621,-6.18,7.76,-0.11,22.03
9393,0.3318,-0.0221,0.8638,-6.15,7.73,-0.05,22.05
9403,0.3363,-0.0212,0.8606,-6.11,7.73,-0.05,22.04
9413,0.3325,-0.0242,0.865,-6.11,7.71,-0.05,22.06
9423,0.3311,-0.0228,0.8654,-6.11,7.74,-0.06,22.03
9433,0.3334,-0.0256,0.8605,-6.17,7.77,-0.08,22.04
9443,0.3341,-0.0229,0.8608,-6.08,7.74,-0.03,22.05
9453,0.3346,-0.0234,0.8621,-6.12,7.76,-0.03,22.05
9463,0.3359,-0.0254,0.8628,-6.09,7.77,-0.03,22.04
9473,0.3334,-0.0227,0.8586,-6.14,7.79,-0.02,22.03
9483,0.3333,-0.0228,0.8591,-6.15,7.82,-0.02,22.03
9493,0.3329,-0.0221,0.8611,-6.12,7.83,-0.03,22.03
9503,0.3339,-0.0231,0.8572,-6.09,7.77,0.14,22.05
9513,0.3323,-0.025,0.8602,-6.12,7.79,-0.08,22.04
9523,0.3329,-0.0219,0.8652,-6.18,7.69,-0.05,22.06
9533,0.3315,-0.0243,0.8619,-6.11,7.73,-0.08,22.06
9543,0.333,-0.0223,0.861,-6.12,7.79,-0.03,22.04
9553,0.3334,-0.0247,0.86,-6.08,7.79,0.0,22.06
9563,0.3345,-0.0238,0.8584,-6.17,7.69,-0.09,22.06
9573,0.3379,-0.0234,0.8613,-6.2,7.71,-0.02,22.06
9583,0.3334,-0.0236,0.861,-6.14,7.76,0.0,22.03
9593,0.3319,-0.0232,0.8656,-6.15,7.76,0.03,22.06
9603,0.3357,-0.025,0.8635,-6.11,7.79,-0.02,22.03
9613,0.3356,-0.0245,0.8654,-6.12,7.71,-0.03,22.07
9623,0.3351,-0.0247,0.8601,-6.15,7.77,-0.09,22.04
9633,0.334,-0.0256,0.8593,-6.14,7.73,0.0,22.04
9643,0.3344,-0.0228,0.8616,-6.18,7.74,-0.08,22.04
9653,0.3326,-0.025,0.8647,-6.23,7.76,-0.05,22.04
9663,0.3337,-0.0247,0.8646,-6.15,7.79,-0.09,22.06
9673,0.3351,-0.0254,0.864,-6.23,7.74,-0.09,22.04
9683,0.3328,-0.0212,0.8595,-6.2,7.76,-0.05,22.06
9693,0.3342,-0.0215,0.8624,-6.17,7.74,-0.06,22.04
9703,0.3318,-0.0237,0.8623,-6.2,7.83,-0.14,22.04
9713,0.3358,-0.024,0.8591,-6.05,7.79,-0.05,22.03
9723,0.3357,-0.0229,0.8617,-6.06,7.8,-0.05,22.05
9733,0.3323,-0.0239,0.8621,-6.17,7.71,-0.03,22.05
9743,0.3333,-0.0232,0.8594,-6.14,7.79,-0.05,22.05
9753,0.3342,-0.0249,0.861,-6.12,7.74,-0.05,22.05
9763,0.3324,-0.0228,0.8629,-6.18,7.83,-0.06,22.05
9773,0.335,-0.0234,0.8573,-6.17,7.73,-0.08,22.06
9783,0.3314,-0.0245,0.8643,-6.15,7.71,-0.08,22.04
9793,0.3351,-0.0242,0.8625,-6.12,7.79,-0.06,22.06
9804,0.3359,-0.0234,0.8617,-6.2,7.82,-0.09,22.07
9814,0.3356,-0.0222,0.8607,-6.12,7.8,-0.05,22.04
9824,0.3352,-0.024,0.8612,-6.11,7.8,0.02,22.05
9834,0.3345,-0.0229,0.861,-6.11,7.76,-0.06,22.06
9844,0.335,-0.0238,0.8611,-6.21,7.8,0.02,22.04
9854,0.3336,-0.0229,0.8602,-6.18,7.77,-0.05,22.05
9864,0.3361,-0.0258,0.8608,-6.27,7.83,-0.02,22.05
9874,0.333,-0.0225,0.8621,-6.14,7.74,0.0,22.05
9884,0.334,-0.025,0.8646,-6.09,7.79,-0.08,22.1
9894,0.3362,-0.0221,0.8584,-6.17,7.69,-0.11,22.06
9904,0.3346,-0.0234,0.8615,-6.21,7.8,0.03,22.07
9914,0.3342,-0.0211,0.8634,-6.2,7.77,-0.03,22.06
9924,0.3325,-0.0229,0.8655,-6.14,7.73,-0.08,22.06
9934,0.3328,-0.0243,0.864,-6.15,7.8,0.0,22.06
9944,0.3351,-0.0243,0.863,-6.17,7.79,-0.06,22.05
9954,0.3337,-0.0217,0.8665,-6.08,7.74,-0.06,22.06
9964,0.3344,-0.024,0.8632,-6.09,7.8,-0.08,22.04
9974,0.3346,-0.0205,0.8606,-6.12,7.85,-0.03,22.07
9984,0.3344,-0.0228,0.8617,-6.24,7.8,-0.02,22.06
9994,0.3341,-0.0229,0.8615,-6.21,7.82,-0.06,22.05
10004,0.3346,-0.025,0.8622,-6.14,7.77,-0.02,22.06
10014,0.3346,-0.0244,0.863,-6.17,7.76,-0.03,22.05
10024,0.3358,-0.0236,0.8612,-6.15,7.77,-0.02,22.06
10034,0.3352,-0.0251,0.8625,-6.05,7.8,-0.06,22.06
10044,0.3362,-0.0236,0.8634,-6.17,7.77,-0.02,22.06
10054,0.3351,-0.022,0.8605,-6.17,7.76,-0.02,22.06
10064,0.3348,-0.0236,0.86,-6.09,7.86,-0.03,22.06
10075,0.3354,-0.0226,0.8575,-6.11,7.82,-0.05,22.04
10085,0.337,-0.0248,0.8591,-6.17,7.73,-0.03,22.06
10095,0.3346,-0.0231,0.8633,-6.18,7.76,-0.06,22.04
10105,0.333,-0.0244,0.8604,-6.14,7.79,-0.05,22.05
10115,0.333,-0.0249,0.864,-6.18,7.71,-0.02,22.04
10125,0.3368,-0.0232,0.8666,-6.14,7.74,-0.05,22.07
10135,0.3291,-0.0232,0.8606,-6.23,7.85,-0.05,22.09
10145,0.3331,-0.0226,0.8597,-6.17,7.74,-0.03,22.07
10155,0.3351,-0.0255,0.8625,-6.15,7.79,-0.05,22.05
10165,0.335,-0.0258,0.8624,-6.18,7.76,-0.08,22.04
10175,0.3341,-0.024,0.8624,-6.14,7.73,-0.08,22.05
10185,0.3348,-0.026,0.8612,-6.17,7.74,-0.12,22.06
10195,0.3364,-0.0255,0.8613,-6.14,7.77,0.0,22.08
10205,0.3351,-0.0212,0.8628,-6.14,7.77,-0.11,22.07
10215,0.3359,-0.0255,0.8599,-6.09,7.8,-0.02,22.04
10225,0.333,-0.0215,0.8613,-6.18,7.76,-0.06,22.06
10235,0.3335,-0.0239,0.8604,-6.17,7.76,-0.05,22.07
10245,0.3362,-0.0239,0.8619,-6.15,7.77,-0.03,22.08
10255,0.3318,-0.0222,0.8628,-6.12,7.79,0.02,22.07
10265,0.3345,-0.0233,0.8657,-6.09,7.85,0.0,22.07
10275,0.3346,-0.0247,0.8616,-6.08,7.77,-0.09,22.07
10285,0.3336,-0.0239,0.8608,-6.18,7.69,-0.03,22.07
10295,0.3312,-0.0228,0.8646,-6.17,7.79,0.0,22.08
10305,0.3374,-0.0225,0.8657,-6.17,7.82,-0.05,22.08
10315,0.3333,-0.0214,0.8624,-6.11,7.79,-0.08,22.06
10325,0.3356,-0.022,0.8605,-6.11,7.68,-0.08,22.09
10335,0.3345,-0.0237,0.8612,-6.2,7.77,0.0,22.07
10345,0.3378,-0.0223,0.8625,-6.2,7.71,-0.03,22.07
10355,0.3341,-0.0221,0.8649,-6.05,7.73,-0.11,22.06
10365,0.3336,-0.0256,0.8605,-6.05,7.77,0.0,22.06
10375,0.3335,-0.0248,0.8564,-6.14,7.77,-0.05,22.07
10385,0.3336,-0.0238,0.8619,-6.24,7.69,-0.09,22.07
10395,0.3323,-0.0258,0.8599,-6.12,7.69,-0.06,22.04
10405,0.3333,-0.0231,0.8612,-6.17,7.79,-0.11,22.06
10416,0.3337,-0.0223,0.861,-6.18,7.76,-0.12,22.04
10426,0.3331,-0.0244,0.8622,-6.17,7.88,-0.03,22.05
10436,0.3314,-0.0259,0.8613,-6.09,7.79,-0.03,22.07
10447,0.3303,-0.024,0.8629,-6.17,7.79,-0.03,22.06
10457,0.3374,-0.0242,0.8613,-6.11,7.76,-0.05,22.07
10467,0.3325,-0.0225,0.8579,-6.11,7.77,-0.05,22.07
10477,0.3354,-0.0231,0.8584,-6.11,7.73,-0.08,22.06
10487,0.3334,-0.024,0.8595,-6.15,7.8,-0.11,22.06
10497,0.3333,-0.0238,0.8615,-6.12,7.68,-0.06,22.09
10507,0.3363,-0.0227,0.8628,-6.15,7.77,-0.02,22.06
10517,0.3323,-0.0244,0.8636,-6.14,7.77,-0.05,22.05
10527,0.3336,-0.024,0.8647,-6.23,7.77,-0.08,22.07
10537,0.3314,-0.0248,0.8623,-6.12,7.77,0.03,22.05
10547,0.3354,-0.0239,0.8645,-6.12,7.79,-0.05,22.09
10557,0.3344,-0.0223,0.8627,-6.21,7.74,-0.03,22.08
10567,0.3314,-0.0234,0.8604,-6.12,7.85,-0.02,22.09
10577,0.3353,-0.0243,0.8667,-6.17,7.79,0.0,22.08
10587,0.3347,-0.0243,0.8604,-6.17,7.73,-0.03,22.07
10597,0.335,-0.0197,0.8571,-6.15,7.79,-0.06,22.08
10607,0.3353,-0.0222,0.8646,-6.18,7.77,0.0,22.06
10617,0.3361,-0.0234,0.8617,-6.06,7.71,-0.05,22.06
10627,0.3351,-0.022,0.859,-6.17,7.77,-0.09,22.07
10637,0.3352,-0.024,0.8629,-6.23,7.73,-0.06,22.07
10647,0.3333,-0.0258,0.8616,-6.11,7.73,-0.05,22.07
10657,0.3331,-0.025,0.8602,-6.08,7.74,-0.03,22.09
10667,0.3347,-0.0209,0.8652,-6.12,7.73,-0.02,22.06
10677,0.3324,-0.0217,0.8629,-6.06,7.79,-0.05,22.09
10687,0.3367,-0.024,0.8608,-6.14,7.77,-0.02,22.09
10697,0.3359,-0.0256,0.8601,-6.14,7.82,0.03,22.07
10707,0.3358,-0.0245,0.8611,-6.21,7.74,-0.03,22.09
10717,0.3329,-0.0249,0.8613,-6.12,7.77,-0.02,22.09
10727,0.3328,-0.0255,0.8652,-6.23,7.8,-0.02,22.08
10737,0.333,-0.0247,0.8633,-6.21,7.71,-0.03,22.07
10748,0.3379,-0.0222,0.8625,-6.17,7.74,-0.11,22.08
10758,0.3326,-0.0231,0.8641,-6.21,7.82,-0.09,22.08
10768,0.3333,-0.0221,0.8593,-6.15,7.71,-0.08,22.07
10778,0.3347,-0.0225,0.8604,-6.12,7.66,-0.09,22.08
10788,0.3313,-0.0242,0.8618,-6.17,7.73,-0.05,22.08
10798,0.3322,-0.024,0.8596,-6.2,7.82,-0.06,22.09
10808,0.3302,-0.0221,0.8597,-6.21,7.71,0.0,22.09
10818,0.3337,-0.022,0.86,-6.21,7.79,-0.03,22.07
10828,0.3356,-0.0228,0.8612,-6.09,7.76,-0.05,22.08
10838,0.3335,-0.0243,0.8604,-6.12,7.76,-0.08,22.08
10848,0.3346,-0.0267,0.863,-6.12,7.71,-0.03,22.1
10858,0.333,-0.0238,0.8605,-6.17,7.83,-0.05,22.09
10868,0.335,-0.0228,0.8623,-6.14,7.79,-0.03,22.08
10878,0.3331,-0.024,0.8632,-6.06,7.76,-0.12,22.08
10888,0.335,-0.0245,0.8617,-6.14,7.83,-0.11,22.09
10898,0.332,-0.0217,0.8639,-6.11,7.77,-0.03,22.08
10908,0.3307,-0.0243,0.8623,-6.12,7.79,0.05,22.1
10918,0.3314,-0.0221,0.8596,-6.09,7.77,-0.03,22.07
10928,0.3361,-0.0245,0.8633,-6.15,7.74,-0.02,22.1
10938,0.3337,-0.0247,0.8647,-6.17,7.73,0.02,22.09
10948,0.3342,-0.0242,0.8585,-6.17,7.83,-0.09,22.08
10958,0.3364,-0.0258,0.8633,-6.11,7.76,-0.06,22.1
10968,0.3328,-0.0237,0.8616,-6.12,7.79,0.0,22.07
10978,0.3339,-0.0226,0.8611,-6.11,7.73,-0.03,22.08
10988,0.3339,-0.0243,0.8628,-6.12,7.76,-0.06,22.08
10998,0.3346,-0.0248,0.8633,-6.11,7.76,-0.05,22.09
11008,0.3361,-0.0225,0.8606,-6.14,7.8,-0.08,22.07
11018,0.3359,-0.0232,0.8571,-6.17,7.79,0.05,22.06
11028,0.3374,-0.0243,0.8624,-6.14,7.74,-0.02,22.09
11038,0.3309,-0.0245,0.863,-6.14,7.71,-0.06,22.07
11048,0.3314,-0.0251,0.865,-6.14,7.82,-0.02,22.08
11058,0.3315,-0.0255,0.8618,-6.17,7.73,-0.02,22.07
11068,0.3336,-0.0253,0.8596,-6.17,7.79,0.0,22.08
11078,0.3328,-0.0254,0.8665,-6.12,7.77,0.02,22.08
11088,0.3336,-0.0262,0.8605,-6.06,7.76,0.0,22.07
11098,0.3353,-0.0245,0.864,-6.09,7.79,-0.06,22.08
11108,0.3344,-0.0238,0.8635,-6.2,7.73,-0.09,22.09
11118,0.3334,-0.0249,0.8595,-6.15,7.76,-0.06,22.09
11128,0.3333,-0.0244,0.8599,-6.09,7.74,-0.06,22.1
11138,0.3335,-0.0211,0.8619,-6.15,7.74,-0.02,22.09
11148,0.3342,-0.0244,0.8628,-6.17,7.76,-0.03,22.09
11158,0.3341,-0.0253,0.861,-6.2,7.69,0.05,22.07
11168,0.3346,-0.0262,0.8604,-6.18,7.77,-0.03,22.1
11178,0.3344,-0.024,0.8593,-6.14,7.77,-0.03,22.09
11188,0.3337,-0.0227,0.8605,-6.17,7.74,0.02,22.09
11198,0.3375,-0.0281,0.8657,-6.21,7.79,-0.09,22.09
11208,0.3326,-0.0227,0.8636,-6.18,7.76,-0.02,22.08
11218,0.3331,-0.0217,0.8602,-6.12,7.79,-0.08,22.1
11228,0.3334,-0.022,0.8601,-6.12,7.8,-0.06,22.1
11238,0.333,-0.0215,0.8645,-6.09,7.74,-0.08,22.13
11248,0.3334,-0.0237,0.8638,-6.14,7.76,0.03,22.11
11258,0.3331,-0.0232,0.8599,-6.09,7.77,-0.03,22.1
11268,0.3325,-0.025,0.8628,-6.11,7.73,-0.09,22.07
11278,0.3336,-0.0215,0.8611,-6.12,7.74,-0.12,22.1
11288,0.333,-0.0242,0.8639,-6.17,7.73,-0.09,22.1
11298,0.3333,-0.0226,0.8651,-6.12,7.82,-0.06,22.1
11308,0.3314,-0.0236,0.8647,-6.17,7.8,-0.06,22.08
11318,0.3315,-0.0251,0.8586,-6.09,7.77,-0.06,22.09
11328,0.3315,-0.0211,0.864,-6.2,7.74,0.02,22.08
11338,0.3351,-0.0215,0.8582,-6.11,7.8,0.05,22.11
11348,0.3313,-0.0225,0.8652,-6.18,7.79,0.02,22.1
11359,0.3318,-0.0253,0.8583,-6.2,7.73,0.02,22.09
11369,0.3346,-0.0219,0.8622,-6.21,7.71,-0.06,22.09
11379,0.3356,-0.0239,0.8636,-6.15,7.77,-0.02,22.08
11389,0.3374,-0.0243,0.8661,-6.24,7.79,0.02,22.09
11399,0.3346,-0.0221,0.863,-6.18,7.73,0.0,22.1
11409,0.3341,-0.026,0.8595,-6.09,7.76,-0.05,22.08
11419,0.3373,-0.0243,0.8617,-6.12,7.79,-0.11,22.12
11429,0.3368,-0.025,0.8606,-6.14,7.71,-0.02,22.08
11439,0.3361,-0.026,0.859,-6.11,7.74,-0.03,22.1
11449,0.3319,-0.0236,0.8622,-6.14,7.76,-0.09,22.08
11459,0.3342,-0.025,0.8627,-6.17,7.82,0.02,22.08
11469,0.3347,-0.022,0.8622,-6.15,7.77,-0.02,22.09
11479,0.3385,-0.0229,0.8625,-6.14,7.76,-0.02,22.07
11489,0.3336,-0.0237,0.8588,-6.15,7.76,0.0,22.08
11499,0.3335,-0.0242,0.8616,-6.08,7.69,-0.06,22.1
11509,0.3374,-0.0266,0.8586,-6.14,7.77,-0.02,22.09
11519,0.3318,-0.0248,0.8613,-6.11,7.69,-0.08,22.1
11529,0.333,-0.0265,0.8673,-6.12,7.8,-0.11,22.09
11539,0.3334,-0.0217,0.8623,-6.14,7.8,-0.06,22.12
11549,0.3363,-0.0203,0.8627,-6.18,7.73,-0.08,22.1
11559,0.3374,-0.026,0.8607,-6.11,7.73,-0.05,22.11
11569,0.3378,-0.0236,0.8591,-6.18,7.73,-0.03,22.09
11579,0.3339,-0.0239,0.8628,-6.12,7.85,-0.03,22.09
11589,0.3348,-0.024,0.8613,-6.12,7.74,-0.02,22.1
11599,0.3319,-0.0253,0.8635,-6.14,7.77,-0.02,22.09
11609,0.3359,-0.0238,0.863,-6.17,7.73,-0.06,22.11
11619,0.3331,-0.0234,0.8621,-6.12,7.74,-0.09,22.1
11629,0.334,-0.0215,0.8584,-6.18,7.74,0.02,22.1
11639,0.3357,-0.0255,0.8624,-6.18,7.79,-0.06,22.09
11649,0.3323,-0.0233,0.8595,-6.17,7.73,-0.06,22.11
11659,0.3386,-0.0242,0.8594,-6.14,7.71,-0.02,22.1
11669,0.3333,-0.0247,0.8607,-6.09,7.69,0.06,22.1
11679,0.3325,-0.0251,0.864,-6.14,7.77,-0.06,22.1
11689,0.3346,-0.0247,0.8573,-6.17,7.71,-0.02,22.09
11699,0.3328,-0.0261,0.8619,-6.15,7.76,-0.06,22.1
11709,0.3356,-0.025,0.8586,-6.12,7.71,-0.02,22.1
11719,0.3352,-0.0228,0.8619,-6.17,7.79,-0.05,22.1
11729,0.3344,-0.024,0.8632,-6.14,7.73,-0.03,22.09
11739,0.3372,-0.0219,0.8643,-6.21,7.71,-0.02,22.1
11749,0.3344,-0.0231,0.8616,-6.2,7.82,-0.02,22.08
11759,0.3341,-0.0245,0.8644,-6.11,7.77,-0.09,22.11
11769,0.3346,-0.0229,0.8597,-6.14,7.77,-0.03,22.13
11779,0.3345,-0.0232,0.8645,-6.15,7.79,-0.06,22.11
11789,0.3345,-0.0244,0.8617,-6.17,7.89,-0.05,22.08
11799,0.3346,-0.0223,0.8572,-6.15,7.8,-0.02,22.11
11809,0.3363,-0.0254,0.8624,-6.18,7.68,-0.05,22.1
11819,0.3344,-0.0258,0.8595,-6.18,7.71,-0.03,22.09
11829,0.334,-0.0244,0.8623,-6.12,7.77,0.02,22.1
11839,0.3348,-0.0233,0.8617,-6.18,7.68,0.0,22.12
11849,0.3347,-0.0242,0.8591,-6.18,7.82,0.02,22.12
11859,0.3334,-0.0232,0.861,-6.05,7.8,-0.08,22.09
11869,0.3331,-0.0236,0.8608,-6.14,7.71,0.0,22.11
11879,0.3347,-0.0254,0.8622,-6.23,7.8,-0.09,22.09
11889,0.3342,-0.0238,0.8608,-6.17,7.74,-0.09,22.11
11899,0.3347,-0.0254,0.8621,-6.18,7.77,-0.02,22.09
11909,0.3312,-0.024,0.864,-6.2,7.79,0.02,22.11
11919,0.3322,-0.0244,0.8615,-6.21,7.79,0.0,22.12
11929,0.3351,-0.0229,0.8621,-6.12,7.74,-0.12,22.09
11939,0.3324,-0.0262,0.8632,-6.17,7.77,-0.08,22.1
11949,0.3346,-0.0233,0.864,-6.17,7.79,0.0,22.1
11959,0.3356,-0.0236,0.8589,-6.11,7.83,-0.08,22.12
11969,0.3344,-0.0226,0.8578,-6.14,7.73,-0.03,22.12
11979,0.3334,-0.025,0.8617,-6.26,7.73,0.0,22.1
11989,0.3354,-0.0234,0.864,-6.18,7.77,-0.02,22.11
11999,0.3367,-0.0226,0.8632,-6.12,7.79,-0.11,22.09
12009,0.3351,-0.026,0.8583,-6.14,7.79,-0.09,22.1
12019,0.3357,-0.0262,0.8582,-6.18,7.76,-0.05,22.1
12029,0.3356,-0.0239,0.8638,-6.15,7.69,-0.06,22.1
12039,0.3367,-0.0264,0.8602,-6.18,7.79,-0.02,22.1
12049,0.3359,-0.0239,0.8604,-6.08,7.76,-0.08,22.14
12059,0.3364,-0.0249,0.8613,-6.17,7.77,-0.09,22.09
12069,0.3339,-0.0226,0.8606,-6.17,7.74,-0.02,22.09
12079,0.3342,-0.0236,0.8611,-6.17,7.85,0.0,22.12
12089,0.3359,-0.0238,0.8647,-6.14,7.8,-0.03,22.1
12099,0.3348,-0.0248,0.8622,-6.09,7.74,-0.03,22.09
12109,0.334,-0.0236,0.8602,-6.12,7.77,-0.02,22.12
12119,0.3322,-0.0247,0.8625,-6.12,7.76,-0.06,22.11
12129,0.333,-0.0247,0.861,-6.23,7.77,-0.06,22.1
12139,0.3322,-0.0231,0.8621,-6.14,7.74,-0.02,22.12
12149,0.3336,-0.0232,0.8611,-6.23,7.83,0.03,22.11
12159,0.3353,-0.0247,0.8628,-6.12,7.74,0.02,22.11
12169,0.3354,-0.0228,0.8617,-6.18,7.77,-0.09,22.12
12179,0.3326,-0.0233,0.86,-6.14,7.79,0.02,22.14
12189,0.3331,-0.0227,0.8597,-6.18,7.8,-0.06,22.12
12199,0.332,-0.0232,0.8621,-6.12,7.83,-0.11,22.1
12209,0.3337,-0.0239,0.8599,-6.14,7.74,-0.12,22.12
12219,0.3357,-0.0226,0.8596,-6.18,7.74,-0.02,22.1
12229,0.3326,-0.022,0.8578,-6.14,7.74,-0.02,22.11
12239,0.3346,-0.0247,0.8606,-6.15,7.68,-0.03,22.15
12249,0.3341,-0.0229,0.8607,-6.17,7.76,-0.03,22.12
12259,0.3352,-0.0259,0.8618,-6.11,7.73,-0.08,22.14
12269,0.334,-0.0229,0.8622,-6.18,7.71,-0.06,22.13
12279,0.3341,-0.0204,0.8644,-6.15,7.77,-0.08,22.12
12289,0.3339,-0.0243,0.8562,-6.27,7.73,-0.05,22.12
12299,0.3311,-0.0237,0.8645,-6.17,7.82,-0.08,22.11
12310,0.3342,-0.0228,0.8627,-6.2,7.77,-0.05,22.1
12320,0.3339,-0.024,0.8628,-6.18,7.71,-0.08,22.11
12331,0.3356,-0.0229,0.8646,-6.2,7.77,-0.03,22.11
12341,0.3346,-0.0258,0.8597,-6.15,7.73,-0.08,22.12
12351,0.3367,-0.0244,0.8593,-6.18,7.73,-0.08,22.11
12361,0.333,-0.0272,0.8594,-6.27,7.79,-0.06,22.12
12371,0.3337,-0.0212,0.8611,-6.17,7.85,0.02,22.11
12381,0.3352,-0.0232,0.8607,-6.17,7.73,-0.02,22.12
12391,0.3357,-0.0239,0.8584,-6.21,7.74,0.0,22.12
12401,0.3319,-0.0237,0.8597,-6.17,7.8,-0.03,22.11
12411,0.3325,-0.0236,0.8593,-6.14,7.83,-0.08,22.13
12421,0.3363,-0.0223,0.8624,-6.08,7.85,0.02,22.14
12431,0.3358,-0.0253,0.8593,-6.2,7.73,0.06,22.1
12441,0.3342,-0.0244,0.8574,-6.23,7.76,-0.05,22.1
12451,0.3351,-0.0237,0.8599,-6.14,7.74,-0.03,22.12
12461,0.335,-0.0237,0.8647,-6.15,7.73,-0.02,22.12
12471,0.3365,-0.0249,0.8636,-6.18,7.69,-0.05,22.11
12481,0.3326,-0.0221,0.8604,-6.14,7.86,-0.05,22.12
12491,0.334,-0.0229,0.8597,-6.2,7.79,-0.09,22.12
12501,0.3347,-0.025,0.863,-6.24,7.83,-0.03,22.12
12511,0.3318,-0.0261,0.8572,-6.12,7.71,0.05,22.11
12521,0.3328,-0.0254,0.8654,-6.21,7.76,-0.03,22.13
12531,0.3356,-0.0206,0.86,-6.18,7.82,-0.06,22.12
12541,0.3365,-0.0223,0.8633,-6.14,7.74,-0.02,22.12
12551,0.3348,-0.0227,0.8625,-6.23,7.71,-0.05,22.14
12561,0.3331,-0.0215,0.8616,-6.17,7.68,-0.05,22.12
12571,0.3318,-0.0234,0.8645,-6.11,7.74,-0.02,22.13
12581,0.3352,-0.0251,0.8618,-6.15,7.86,-0.03,22.13
12591,0.3319,-0.0239,0.8602,-6.12,7.85,-0.03,22.14
12601,0.3326,-0.0238,0.861,-6.18,7.74,0.02,22.15
12611,0.3363,-0.0247,0.8579,-6.14,7.69,-0.05,22.16
12621,0.3354,-0.0214,0.8633,-6.17,7.8,-0.05,22.13
12631,0.3335,-0.0239,0.858,-6.18,7.8,-0.06,22.11
12641,0.3333,-0.0234,0.8624,-6.21,7.74,0.03,22.13
12651,0.3354,-0.0248,0.8611,-6.17,7.76,-0.08,22.13
12661,0.3342,-0.0232,0.8607,-6.2,7.79,0.0,22.11
12671,0.333,-0.025,0.8617,-6.2,7.83,0.02,22.16
12681,0.3311,-0.0219,0.8646,-6.18,7.79,0.02,22.14
12691,0.335,-0.0242,0.8612,-6.2,7.82,-0.06,22.13
12701,0.3361,-0.0251,0.8629,-6.06,7.68,0.0,22.13
12711,0.3342,-0.0221,0.8611,-6.14,7.76,-0.02,22.14
12721,0.3352,-0.0217,0.8601,-6.21,7.82,-0.03,22.14
12731,0.3323,-0.0242,0.8602,-6.15,7.82,-0.03,22.13
12741,0.337,-0.0253,0.8616,-6.2,7.71,-0.08,22.12
12751,0.3369,-0.0253,0.8638,-6.11,7.76,-0.02,22.13
12761,0.3361,-0.0244,0.8641,-6.12,7.82,0.02,22.12
12771,0.3348,-0.0234,0.864,-6.17,7.8,0.0,22.12
12781,0.334,-0.0253,0.8616,-6.24,7.82,0.0,22.14
12791,0.3353,-0.0232,0.8625,-6.17,7.71,-0.08,22.12
12801,0.3356,-0.0226,0.86,-6.23,7.77,-0.09,22.13
12811,0.3356,-0.0237,0.8652,-6.21,7.73,-0.08,22.14
12821,0.3351,-0.0242,0.8644,-6.23,7.73,0.03,22.12
12831,0.335,-0.026,0.8605,-6.02,7.82,0.03,22.11
12841,0.3378,-0.0228,0.8618,-6.15,7.77,0.0,22.14
12851,0.3344,-0.0236,0.8625,-6.12,7.79,0.08,22.12
12861,0.3339,-0.0247,0.8634,-6.12,7.79,-0.08,22.13
12871,0.3359,-0.0225,0.8636,-6.09,7.76,-0.06,22.14
12881,0.3347,-0.027,0.8604,-6.11,7.79,-0.03,22.14
12891,0.3337,-0.0234,0.8596,-6.11,7.77,-0.08,22.14
12901,0.3333,-0.0239,0.8604,-6.15,7.83,-0.08,22.14
12911,0.3328,-0.0231,0.8612,-6.23,7.77,-0.05,22.13
12921,0.3348,-0.024,0.861,-6.18,7.77,-0.02,22.14
12931,0.3331,-0.0226,0.8597,-6.14,7.82,-0.06,22.12
12941,0.3323,-0.0243,0.8655,-6.18,7.76,-0.05,22.12
12951,0.3333,-0.0231,0.8651,-6.14,7.79,-0.08,22.14
12961,0.3357,-0.024,0.8602,-6.29,7.73,-0.02,22.15
12971,0.3378,-0.0225,0.8615,-6.14,7.77,-0.11,22.12
12981,0.3386,-0.0228,0.8579,-6.11,7.74,-0.05,22.12
12991,0.3372,-0.0228,0.8625,-6.12,7.77,-0.02,22.13
13001,0.3347,-0.0232,0.858,-6.12,7.77,0.05,22.14
13011,0.3341,-0.0251,0.8602,-6.2,7.85,-0.08,22.11
13021,0.3357,-0.0269,0.8606,-6.17,7.82,-0.08,22.15
13031,0.3345,-0.025,0.8611,-6.12,7.86,-0.03,22.15
13041,0.3326,-0.0228,0.8601,-6.09,7.82,-0.05,22.15
13051,0.333,-0.0221,0.8605,-6.11,7.83,-0.05,22.13
13061,0.3331,-0.0264,0.8665,-6.18,7.82,-0.08,22.12
13071,0.3314,-0.0251,0.8604,-6.18,7.74,0.08,22.13
13081,0.3315,-0.0242,0.8635,-6.11,7.74,0.05,22.1
13091,0.3318,-0.0239,0.8623,-6.15,7.8,0.0,22.12
13101,0.3322,-0.0226,0.86,-6.15,7.8,-0.12,22.11
13111,0.3342,-0.0229,0.8629,-6.18,7.79,-0.09,22.13
13121,0.335,-0.0216,0.8624,-6.12,7.79,-0.08,22.12
13131,0.3331,-0.0233,0.8605,-6.18,7.86,-0.08,22.14
13141,0.3358,-0.0243,0.8619,-6.15,7.76,-0.03,22.13
13151,0.3346,-0.0255,0.8656,-6.21,7.8,-0.08,22.14
13161,0.3344,-0.0253,0.8651,-6.15,7.74,0.0,22.11
13171,0.3312,-0.0227,0.859,-6.18,7.8,-0.05,22.13
13181,0.3341,-0.0244,0.8656,-6.14,7.79,-0.05,22.14
13191,0.334,-0.0217,0.8634,-6.09,7.8,-0.03,22.13
13201,0.3368,-0.0248,0.8593,-6.21,7.77,0.02,22.15
13211,0.3347,-0.0232,0.8591,-6.14,7.77,-0.02,22.13
13221,0.3319,-0.027,0.866,-6.21,7.79,-0.03,22.12
13231,0.3329,-0.0248,0.8604,-6.2,7.77,-0.03,22.13
13241,0.3328,-0.0239,0.8561,-6.14,7.73,-0.06,22.14
13251,0.3354,-0.019,0.8627,-6.23,7.8,-0.05,22.15
13261,0.33,-0.024,0.8646,-6.2,7.8,-0.08,22.15
13271,0.3339,-0.0258,0.8615,-6.11,7.82,-0.11,22.16
13281,0.3342,-0.025,0.8606,-6.21,7.83,-0.08,22.14
13291,0.332,-0.0232,0.8656,-6.11,7.74,-0.02,22.16
13301,0.3306,-0.0251,0.8602,-6.21,7.71,-0.06,22.12
13312,0.3331,-0.0239,0.8644,-6.12,7.82,-0.02,22.14
13322,0.3346,-0.0249,0.8615,-6.2,7.82,-0.08,22.12
13332,0.3322,-0.0242,0.8636,-6.29,7.83,-0.02,22.17
13342,0.338,-0.0233,0.8589,-6.18,7.73,-0.08,22.15
13352,0.3352,-0.025,0.8593,-6.11,7.74,0.0,22.16
13362,0.3361,-0.0238,0.8628,-6.2,7.71,-0.02,22.15
13372,0.3342,-0.0215,0.8639,-6.11,7.79,-0.06,22.14
13382,0.3354,-0.0244,0.8599,-6.15,7.77,0.02,22.13
13393,0.3369,-0.0258,0.8577,-6.14,7.74,-0.05,22.15
13403,0.3346,-0.025,0.8608,-6.11,7.8,-0.02,22.16
13413,0.3329,-0.0237,0.8646,-6.14,7.74,-0.08,22.14
13423,0.334,-0.0244,0.8635,-6.21,7.8,-0.05,22.13
13433,0.3333,-0.0247,0.8613,-6.17,7.8,-0.09,22.13
13443,0.3374,-0.0205,0.861,-6.12,7.85,-0.05,22.16
13453,0.3308,-0.0234,0.8588,-6.17,7.74,-0.02,22.14
13463,0.3356,-0.0223,0.8638,-6.17,7.83,-0.06,22.15
13473,0.3361,-0.0262,0.8594,-6.12,7.79,-0.08,22.12
13483,0.3356,-0.024,0.8652,-6.15,7.79,-0.05,22.12
13493,0.332,-0.0225,0.8625,-6.24,7.77,-0.02,22.14
13503,0.3322,-0.0262,0.8627,-6.21,7.69,-0.02,22.14
13513,0.3341,-0.0256,0.8617,-6.18,7.77,-0.08,22.15
13523,0.3348,-0.0253,0.8644,-6.21,7.68,-0.08,22.15
13533,0.335,-0.0238,0.8621,-6.17,7.68,-0.08,22.14
13543,0.3317,-0.0239,0.8629,-6.14,7.76,-0.03,22.15
13553,0.3337,-0.0222,0.8606,-6.11,7.77,0.0,22.14
13563,0.3335,-0.0229,0.8625,-6.18,7.83,-0.02,22.14
13573,0.3339,-0.0239,0.868,-6.18,7.76,-0.09,22.15
13583,0.3339,-0.0205,0.8615,-6.17,7.83,-0.08,22.15
13593,0.3351,-0.0232,0.8623,-6.15,7.76,-0.09,22.14
13603,0.3348,-0.0253,0.8619,-6.18,7.68,-0.05,22.14
13613,0.3307,-0.0233,0.8625,-6.17,7.77,0.02,22.15
13623,0.333,-0.0269,0.8638,-6.2,7.71,-0.02,22.16
13633,0.3336,-0.024,0.8617,-6.12,7.79,-0.06,22.16
13643,0.3344,-0.0237,0.8611,-6.17,7.8,0.03,22.12
13653,0.3348,-0.0215,0.8661,-6.18,7.74,-0.05,22.14
13663,0.3369,-0.0245,0.8624,-6.12,7.83,0.0,22.14
13673,0.3352,-0.0265,0.864,-6.18,7.77,-0.03,22.14
13683,0.3312,-0.0265,0.863,-6.12,7.77,-0.12,22.17
13693,0.3308,-0.0236,0.8627,-6.23,7.73,0.02,22.15
13703,0.3344,-0.0219,0.8619,-6.12,7.76,0.0,22.14
13713,0.3351,-0.0236,0.8655,-6.17,7.74,0.06,22.14
13723,0.3324,-0.0227,0.8611,-6.23,7.76,-0.05,22.14
13733,0.3342,-0.0253,0.8608,-6.12,7.79,-0.05,22.16
13743,0.3331,-0.0226,0.8599,-6.2,7.83,-0.08,22.14
13753,0.3312,-0.0219,0.8649,-6.17,7.73,0.0,22.16
13763,0.3358,-0.0217,0.8618,-6.14,7.79,-0.06,22.14
13773,0.335,-0.0229,0.8594,-6.11,7.74,-0.03,22.14
13783,0.3339,-0.0247,0.8622,-6.05,7.79,-0.03,22.16
13793,0.3329,-0.0248,0.8579,-6.17,7.77,-0.09,22.15
13803,0.3346,-0.024,0.861,-6.09,7.71,-0.05,22.15
13813,0.3319,-0.021,0.8613,-6.18,7.79,-0.02,22.16
13823,0.3315,-0.0262,0.8596,-6.14,7.83,-0.06,22.14
13833,0.3323,-0.0228,0.866,-6.18,7.82,-0.05,22.15
13843,0.3339,-0.0226,0.8649,-6.2,7.76,-0.06,22.15
13853,0.335,-0.0245,0.8625,-6.17,7.79,-0.14,22.16
13863,0.3359,-0.0239,0.8634,-6.17,7.66,-0.14,22.16
13873,0.3358,-0.0229,0.8612,-6.15,7.69,0.0,22.17
13883,0.3354,-0.0232,0.8638,-6.17,7.68,-0.05,22.17
13893,0.3348,-0.0215,0.8617,-6.17,7.76,-0.05,22.14
13903,0.3333,-0.0232,0.8636,-6.17,7.77,-0.12,22.15
13913,0.3342,-0.0229,0.8633,-6.12,7.74,0.0,22.13
13923,0.3346,-0.0238,0.8589,-6.09,7.77,-0.02,22.17
13933,0.3309,-0.0222,0.8636,-6.11,7.82,-0.05,22.15
13943,0.3334,-0.0219,0.8627,-6.11,7.77,-0.12,22.16
13953,0.3323,-0.0222,0.8635,-6.15,7.77,-0.05,22.16
13963,0.3333,-0.0242,0.861,-6.23,7.77,-0.12,22.16
13973,0.3357,-0.0227,0.8612,-6.2,7.77,-0.11,22.16
13984,0.3348,-0.024,0.8652,-6.18,7.88,-0.09,22.17
13994,0.3341,-0.0198,0.865,-6.15,7.83,-0.14,22.17
14004,0.3344,-0.0228,0.8607,-6.14,7.68,-0.08,22.16
14014,0.3344,-0.0229,0.8645,-6.14,7.82,-0.08,22.15
14024,0.3334,-0.0247,0.8623,-6.15,7.83,-0.03,22.16
14034,0.3347,-0.0221,0.864,-6.24,7.79,-0.05,22.14
14044,0.3344,-0.0244,0.8617,-6.21,7.77,-0.02,22.14
14054,0.3353,-0.0229,0.8608,-6.09,7.77,-0.08,22.15
14065,0.3389,-0.0237,0.8611,-6.21,7.74,-0.06,22.18
14075,0.3358,-0.0233,0.8629,-6.12,7.8,-0.11,22.17
14085,0.3341,-0.0261,0.8607,-6.18,7.8,-0.05,22.18
14095,0.3334,-0.0233,0.8644,-6.18,7.8,-0.05,22.16
14105,0.3362,-0.0264,0.8643,-6.15,7.82,-0.09,22.14
14115,0.3314,-0.0265,0.8619,-6.15,7.76,-0.02,22.16
14125,0.3344,-0.0234,0.8607,-6.2,7.83,-0.17,22.15
14135,0.3339,-0.0211,0.8615,-6.15,7.77,0.0,22.15
14145,0.3313,-0.0221,0.8655,-6.2,7.74,-0.06,22.17
14155,0.3347,-0.0249,0.8596,-6.09,7.79,-0.08,22.18
14165,0.332,-0.0253,0.8628,-6.08,7.77,0.02,22.17
14175,0.3346,-0.0227,0.8671,-6.18,7.77,-0.03,22.16
14185,0.3359,-0.0222,0.8633,-6.12,7.82,-0.02,22.15
14195,0.3347,-0.0239,0.8667,-6.09,7.8,-0.06,22.17
14205,0.3347,-0.0256,0.864,-6.15,7.77,0.0,22.18
14215,0.3352,-0.0248,0.8611,-6.18,7.77,-0.11,22.17
14225,0.3336,-0.0242,0.8629,-6.2,7.85,-0.05,22.17
14235,0.3329,-0.0233,0.8597,-6.12,7.79,-0.08,22.17
14245,0.3383,-0.0228,0.8633,-6.14,7.77,-0.02,22.17
14255,0.3344,-0.0236,0.8586,-6.11,7.73,-0.06,22.17
14265,0.333,-0.0227,0.8618,-6.21,7.71,-0.03,22.16
14275,0.3352,-0.0214,0.8639,-6.2,7.8,-0.05,22.17
14328,0.3358,-0.0255,0.8602,-6.2,7.79,-0.12,22.16
14338,0.3359,-0.0262,0.8632,-6.11,7.77,-0.08,22.16
14348,0.3359,-0.0232,0.8618,-6.18,7.77,-0.03,22.15
14358,0.3344,-0.0234,0.8632,-6.09,7.76,0.05,22.15
14368,0.3375,-0.0266,0.8586,-6.09,7.73,-0.05,22.16
14378,0.3352,-0.0234,0.8623,-6.15,7.76,0.0,22.16
14388,0.3337,-0.0238,0.8633,-6.24,7.77,-0.05,22.15
14398,0.3331,-0.021,0.8636,-6.24,7.8,0.02,22.17
14408,0.3323,-0.0226,0.8602,-6.15,7.8,-0.05,22.16
14418,0.3331,-0.024,0.8596,-6.15,7.79,-0.05,22.16
14428,0.3339,-0.0226,0.8635,-6.21,7.8,-0.11,22.17
14438,0.334,-0.0245,0.8647,-6.17,7.76,-0.12,22.17
14448,0.3345,-0.0237,0.8644,-6.14,7.76,-0.06,22.16
14458,0.3317,-0.0239,0.8638,-6.11,7.8,-0.09,22.16
14468,0.3324,-0.0244,0.8611,-6.09,7.83,-0.06,22.16
14478,0.3361,-0.0215,0.861,-6.12,7.74,-0.05,22.15
14488,0.3326,-0.0222,0.8618,-6.2,7.8,-0.09,22.16
14498,0.3342,-0.0244,0.8658,-6.24,7.74,-0.11,22.16
14508,0.334,-0.0222,0.8619,-6.2,7.73,-0.06,22.16
14518,0.334,-0.022,0.8612,-6.18,7.83,0.0,22.14
14528,0.3345,-0.0217,0.8597,-6.14,7.79,-0.03,22.14
14538,0.3331,-0.0244,0.8627,-6.23,7.77,-0.05,22.15
14548,0.3368,-0.021,0.8628,-6.18,7.77,-0.02,22.15
14558,0.3329,-0.0215,0.8618,-6.23,7.76,0.0,22.14
14569,0.3358,-0.0229,0.8629,-6.17,7.71,-0.06,22.16
14579,0.3353,-0.0222,0.8606,-6.17,7.77,-0.06,22.18
14589,0.3358,-0.0253,0.8589,-6.23,7.71,-0.05,22.19
14599,0.3341,-0.0238,0.8625,-6.18,7.76,-0.14,22.17
14609,0.3358,-0.0249,0.8624,-6.18,7.71,-0.14,22.16
14619,0.335,-0.0226,0.8611,-6.09,7.8,0.0,22.14
14629,0.3322,-0.0228,0.8594,-6.15,7.8,0.0,22.14
14639,0.3344,-0.0244,0.8608,-6.2,7.73,-0.03,22.16
14649,0.334,-0.0242,0.8634,-6.18,7.79,0.06,22.18
14659,0.335,-0.0238,0.8613,-6.18,7.74,-0.02,22.16
14669,0.3352,-0.0239,0.8617,-6.17,7.76,-0.05,22.17
14679,0.3357,-0.0231,0.8646,-6.17,7.77,-0.05,22.16
14689,0.3337,-0.0272,0.8615,-6.18,7.79,-0.02,22.17
14699,0.3352,-0.0256,0.8613,-6.23,7.73,0.03,22.15
14709,0.3352,-0.0216,0.8627,-6.14,7.73,-0.06,22.17
14719,0.3336,-0.0251,0.8658,-6.14,7.73,0.06,22.17
14729,0.3337,-0.0234,0.8615,-6.17,7.69,0.03,22.15
14739,0.3333,-0.025,0.8636,-6.15,7.8,0.0,22.16
14749,0.337,-0.0226,0.8625,-6.23,7.69,-0.05,22.19
14759,0.3359,-0.0203,0.8641,-6.23,7.76,-0.05,22.17
14769,0.3341,-0.0243,0.8624,-6.12,7.82,-0.06,22.15
14779,0.3353,-0.0244,0.8635,-6.17,7.76,-0.09,22.17
14789,0.3344,-0.0231,0.8618,-6.05,7.8,-0.05,22.17
14799,0.3295,-0.0234,0.8625,-6.12,7.8,-0.06,22.16
14809,0.3342,-0.0237,0.8618,-6.12,7.76,-0.05,22.19
14819,0.3322,-0.026,0.8616,-6.21,7.74,-0.09,22.18
14829,0.332,-0.0236,0.8593,-6.09,7.76,-0.02,22.17
14839,0.332,-0.0215,0.863,-6.11,7.79,-0.06,22.17
14849,0.3328,-0.0229,0.8615,-6.15,7.69,-0.05,22.19
14859,0.3351,-0.0231,0.8615,-6.18,7.82,-0.08,22.18
14869,0.3323,-0.0211,0.8649,-6.15,7.83,-0.02,22.19
14879,0.3352,-0.0209,0.8564,-6.12,7.74,-0.02,22.17
14889,0.3333,-0.0262,0.8606,-6.14,7.8,-0.03,22.19
14901,0.3328,-0.0244,0.8588,-6.18,7.74,-0.06,22.18
14911,0.3322,-0.0232,0.8623,-6.14,7.86,0.06,22.17
14921,0.3325,-0.0231,0.8601,-6.15,7.83,-0.05,22.17
14931,0.334,-0.0251,0.8644,-6.17,7.76,-0.06,22.19
14941,0.3368,-0.0243,0.8602,-6.17,7.79,-0.09,22.19
14951,0.334,-0.0243,0.8641,-6.14,7.73,-0.02,22.19
14961,0.333,-0.0232,0.8638,-6.08,7.73,-0.09,22.19
14971,0.3331,-0.0239,0.8615,-6.17,7.76,-0.08,22.17
14981,0.333,-0.0214,0.859,-6.03,7.8,0.02,22.15
14991,0.337,-0.0243,0.861,-6.18,7.77,-0.05,22.18
15001,0.3347,-0.0226,0.8604,-6.14,7.71,0.0,22.18
15011,0.3337,-0.0233,0.8661,-6.12,7.69,-0.11,22.19
15021,0.3357,-0.0261,0.8611,-6.21,7.77,-0.02,22.17
15031,0.3323,-0.0253,0.8641,-6.14,7.76,-0.02,22.16
15041,0.333,-0.0244,0.8618,-6.18,7.8,-0.05,22.19
15051,0.3368,-0.0236,0.8621,-6.11,7.8,-0.09,22.19
15061,0.3358,-0.0229,0.861,-6.12,7.77,-0.06,22.18
15071,0.3314,-0.0232,0.8629,-6.14,7.79,-0.06,22.17
15081,0.3344,-0.0244,0.8618,-6.09,7.74,-0.14,22.17
15091,0.3345,-0.0243,0.861,-6.2,7.76,-0.05,22.16
15101,0.3335,-0.0243,0.8625,-6.24,7.79,-0.03,22.16
15111,0.3341,-0.0227,0.8586,-6.15,7.79,0.03,22.18
15121,0.3347,-0.0215,0.8645,-6.03,7.73,-0.05,22.19
15131,0.3367,-0.0223,0.8604,-6.11,7.73,0.0,22.19
15141,0.3361,-0.022,0.8601,-6.17,7.77,-0.08,22.18
15151,0.3328,-0.0238,0.8597,-6.18,7.85,-0.02,22.18
15161,0.3335,-0.0228,0.8597,-6.15,7.8,-0.08,22.15
15171,0.333,-0.0212,0.8605,-6.11,7.69,-0.08,22.19
15181,0.3345,-0.0236,0.865,-6.18,7.76,-0.08,22.19
15191,0.3337,-0.0244,0.8615,-6.18,7.77,-0.02,22.18
15201,0.3352,-0.025,0.8634,-6.15,7.77,-0.09,22.19
15211,0.3335,-0.0273,0.8611,-6.09,7.74,-0.05,22.19
15221,0.3356,-0.0255,0.8604,-6.17,7.69,0.03,22.19
15231,0.3336,-0.0238,0.864,-6.14,7.76,-0.05,22.19
15241,0.3365,-0.0248,0.859,-6.21,7.77,-0.08,22.2
15251,0.3344,-0.0237,0.8632,-6.18,7.85,0.0,22.16
15261,0.3374,-0.0245,0.8613,-6.11,7.77,-0.02,22.19
15271,0.3339,-0.022,0.8604,-6.2,7.74,0.03,22.2
15281,0.3358,-0.0217,0.8619,-6.21,7.82,0.0,22.2
15291,0.3328,-0.0219,0.8685,-6.2,7.83,-0.03,22.2
15301,0.335,-0.0211,0.8584,-6.17,7.71,-0.08,22.18
15311,0.3358,-0.0223,0.861,-6.14,7.8,-0.05,22.19
15321,0.3348,-0.0231,0.8595,-6.18,7.77,-0.05,22.2
15331,0.3351,-0.0245,0.8591,-6.15,7.8,-0.09,22.19
15341,0.337,-0.0223,0.8553,-6.14,7.77,-0.06,22.19
15351,0.3307,-0.0231,0.8613,-6.08,7.79,0.03,22.17
15361,0.3339,-0.0254,0.8638,-6.08,7.74,-0.08,22.19
15371,0.3363,-0.024,0.8585,-6.12,7.74,-0.08,22.18
15381,0.333,-0.0223,0.8624,-6.15,7.79,-0.02,22.21
15391,0.3314,-0.0219,0.8623,-6.14,7.83,0.0,22.21
15401,0.3333,-0.0231,0.8644,-6.18,7.76,-0.02,22.17
15411,0.3344,-0.0215,0.8621,-6.14,7.74,0.03,22.18
15421,0.3356,-0.0253,0.8597,-6.23,7.77,-0.06,22.17
15431,0.3315,-0.0203,0.8607,-6.12,7.8,0.0,22.19
15441,0.3347,-0.0256,0.8608,-6.15,7.69,-0.05,22.19
15451,0.3346,-0.0248,0.8618,-6.08,7.76,-0.11,22.18
15461,0.3379,-0.0232,0.8651,-6.18,7.74,-0.03,22.19
15471,0.3351,-0.021,0.8616,-6.14,7.71,0.0,22.2
15481,0.3359,-0.025,0.8597,-6.12,7.74,-0.08,22.15
15491,0.3345,-0.0233,0.8654,-6.17,7.79,-0.03,22.18
15501,0.3335,-0.0228,0.863,-6.12,7.8,0.0,22.19
15511,0.3346,-0.024,0.8594,-6.17,7.8,-0.08,22.2
15521,0.3359,-0.0211,0.8636,-6.15,7.8,-0.09,22.19
15531,0.3345,-0.0226,0.8639,-6.15,7.76,-0.06,22.18
15541,0.3358,-0.0199,0.8649,-6.15,7.77,-0.03,22.19
15551,0.3309,-0.022,0.8596,-6.21,7.68,-0.05,22.19
15561,0.3359,-0.0228,0.8588,-6.14,7.69,-0.08,22.22
15571,0.3362,-0.0271,0.8589,-6.24,7.76,-0.05,22.19
15581,0.3346,-0.0237,0.8604,-6.15,7.76,0.0,22.22
15591,0.3345,-0.0233,0.858,-6.15,7.77,-0.05,22.19
15601,0.335,-0.0234,0.8573,-6.15,7.74,0.02,22.2
15611,0.3307,-0.0237,0.8633,-6.09,7.77,-0.03,22.21
15621,0.3337,-0.026,0.8616,-6.23,7.79,-0.06,22.2
15631,0.337,-0.0233,0.8602,-6.14,7.77,-0.02,22.21
15641,0.3339,-0.0259,0.8622,-6.12,7.71,0.02,22.19
15651,0.3346,-0.0237,0.8628,-6.15,7.76,-0.11,22.22
15661,0.337,-0.0199,0.8616,-6.09,7.69,-0.02,22.19
15671,0.3333,-0.0223,0.8625,-6.15,7.79,-0.02,22.17
15681,0.3335,-0.0239,0.8623,-6.11,7.8,-0.09,22.2
15691,0.3347,-0.0259,0.8604,-6.2,7.69,-0.05,22.19
15701,0.3335,-0.0251,0.8622,-6.15,7.79,0.03,22.2
15711,0.3336,-0.0234,0.8633,-6.18,7.8,-0.02,22.21
15721,0.3331,-0.0219,0.8616,-6.15,7.74,-0.03,22.21
15731,0.3339,-0.0249,0.8608,-6.05,7.77,-0.05,22.19
15741,0.3347,-0.0212,0.8602,-6.17,7.71,-0.02,22.18
15751,0.3337,-0.0238,0.8662,-6.18,7.68,-0.09,22.2
15761,0.334,-0.0231,0.8601,-6.09,7.8,0.0,22.2
15771,0.3363,-0.0239,0.8601,-6.21,7.74,-0.05,22.2
15781,0.3347,-0.0249,0.8593,-6.15,7.74,-0.03,22.19
15791,0.3331,-0.0232,0.8624,-6.21,7.74,-0.09,22.21
15801,0.3351,-0.0211,0.8644,-6.26,7.76,-0.09,22.17
15811,0.3337,-0.0253,0.8645,-6.2,7.71,-0.09,22.22
15821,0.3333,-0.0248,0.8622,-6.24,7.79,0.0,22.2
15831,0.3342,-0.0243,0.8615,-6.11,7.76,-0.06,22.16
15841,0.3354,-0.024,0.8599,-6.17,7.79,-0.08,22.18
15851,0.334,-0.0236,0.8629,-6.12,7.74,-0.02,22.2
15861,0.3311,-0.025,0.863,-6.14,7.71,-0.03,22.19
15871,0.3309,-0.0271,0.863,-6.12,7.79,0.03,22.2
15881,0.3365,-0.0243,0.8605,-6.14,7.79,-0.14,22.2
15891,0.3347,-0.0231,0.863,-6.11,7.77,0.0,22.21
15901,0.3328,-0.0258,0.8564,-6.17,7.8,-0.03,22.19
15911,0.3367,-0.022,0.8638,-6.08,7.77,-0.05,22.21
15921,0.3344,-0.0236,0.8632,-6.18,7.77,-0.03,22.19
15931,0.3339,-0.022,0.8601,-6.15,7.79,-0.03,22.2
15941,0.3328,-0.0214,0.8666,-6.2,7.77,-0.06,22.19
15951,0.3373,-0.0227,0.8621,-6.11,7.8,-0.09,22.21
15961,0.3367,-0.0231,0.865,-6.14,7.76,-0.09,22.2
15971,0.3347,-0.0253,0.8641,-6.14,7.82,-0.09,22.19
15981,0.3337,-0.0228,0.8635,-6.14,7.83,-0.08,22.21
15991,0.332,-0.0226,0.8636,-6.2,7.8,0.03,22.21
16001,0.3361,-0.0249,0.8628,-6.17,7.71,-0.03,22.2
16011,0.3373,-0.0245,0.8585,-6.09,7.73,-0.14,22.2
16021,0.3347,-0.0244,0.8611,-6.17,7.74,0.0,22.21
16031,0.3341,-0.0222,0.8652,-6.14,7.77,-0.03,22.23
16041,0.3325,-0.0239,0.8619,-6.12,7.79,-0.05,22.18
16051,0.3361,-0.0221,0.8625,-6.08,7.76,-0.09,22.19
16061,0.3333,-0.0259,0.86,-6.18,7.76,-0.09,22.19
16071,0.335,-0.0233,0.8623,-6.14,7.82,-0.05,22.18
16081,0.3329,-0.0256,0.8608,-6.15,7.74,-0.03,22.22
16091,0.3323,-0.024,0.8645,-6.15,7.8,-0.11,22.21
16101,0.3341,-0.021,0.8635,-6.15,7.76,0.03,22.23
16111,0.3352,-0.0253,0.8607,-6.18,7.69,-0.09,22.2
16122,0.3335,-0.0232,0.8571,-6.15,7.77,-0.06,22.19
16132,0.3361,-0.0231,0.8567,-6.15,7.79,-0.06,22.21
16142,0.3351,-0.0226,0.8605,-6.14,7.79,0.0,22.22
16152,0.3345,-0.0245,0.861,-6.18,7.79,0.0,22.19
16162,0.3336,-0.0243,0.8579,-6.18,7.85,-0.02,22.2
16172,0.3358,-0.0247,0.8584,-6.15,7.8,-0.03,22.19
16182,0.3351,-0.0271,0.8628,-6.17,7.76,-0.06,22.22
16192,0.3353,-0.0237,0.8606,-6.14,7.71,0.02,22.22
16202,0.3367,-0.025,0.8621,-6.21,7.79,-0.06,22.22
16212,0.3352,-0.0225,0.8643,-6.2,7.73,-0.06,22.2
16222,0.3334,-0.0261,0.8632,-6.18,7.8,-0.03,22.21
16232,0.3317,-0.0233,0.8629,-6.17,7.73,-0.09,22.22
16242,0.3346,-0.0251,0.8643,-6.17,7.77,-0.11,22.22
16252,0.3348,-0.0238,0.8634,-6.09,7.77,-0.05,22.19
16262,0.333,-0.0259,0.8595,-6.11,7.8,-0.14,22.21
16272,0.335,-0.0226,0.8613,-6.15,7.76,-0.06,22.19
16282,0.3323,-0.0223,0.8599,-6.23,7.74,-0.03,22.21
16292,0.3354,-0.0229,0.8615,-6.2,7.76,-0.02,22.22
16302,0.3341,-0.0233,0.8619,-6.12,7.85,-0.05,22.19
16312,0.3317,-0.0253,0.8644,-6.17,7.77,-0.02,22.23
16322,0.3335,-0.0254,0.8644,-6.09,7.76,0.03,22.18
16332,0.334,-0.0211,0.8619,-6.18,7.76,-0.09,22.21
16342,0.3344,-0.0237,0.8595,-6.23,7.79,-0.03,22.2
16352,0.3365,-0.0258,0.8621,-6.18,7.76,-0.03,22.21
16362,0.3364,-0.0266,0.8625,-6.17,7.8,-0.05,22.22
16372,0.3328,-0.0265,0.8597,-6.17,7.76,-0.06,22.21
16382,0.3328,-0.0236,0.8624,-6.17,7.76,-0.08,22.22
16392,0.3344,-0.0258,0.8606,-6.11,7.74,-0.05,22.25
16402,0.333,-0.0216,0.8638,-6.14,7.76,-0.03,22.21
16412,0.3341,-0.0238,0.8628,-6.12,7.76,-0.03,22.22
16422,0.3354,-0.0222,0.8604,-6.18,7.76,-0.03,22.2
16432,0.3357,-0.025,0.8618,-6.12,7.79,-0.05,22.22
16442,0.3347,-0.0247,0.859,-6.24,7.77,-0.09,22.21
16452,0.3337,-0.0226,0.8602,-6.15,7.71,-0.14,22.23
16462,0.3346,-0.0245,0.8638,-6.2,7.79,-0.12,22.2
16472,0.3361,-0.0234,0.8633,-6.08,7.71,-0.08,22.2
16482,0.3333,-0.0209,0.8647,-6.14,7.73,-0.03,22.22
16492,0.3356,-0.0233,0.8579,-6.11,7.76,-0.05,22.2
16502,0.3373,-0.022,0.8558,-6.18,7.76,0.0,22.19
16512,0.3311,-0.0227,0.8601,-6.24,7.83,-0.05,22.2
16522,0.3353,-0.0222,0.8634,-6.14,7.76,-0.02,22.22
16532,0.3319,-0.0236,0.8623,-6.15,7.79,-0.12,22.21
16542,0.3342,-0.0217,0.8607,-6.15,7.71,-0.05,22.21
16552,0.3347,-0.0249,0.8636,-6.24,7.76,0.02,22.19
16562,0.3331,-0.0223,0.8615,-6.03,7.69,-0.02,22.21
16572,0.3339,-0.025,0.8632,-6.14,7.82,-0.02,22.21
16582,0.332,-0.0272,0.8633,-6.18,7.74,-0.03,22.2
16592,0.3348,-0.0226,0.8602,-6.14,7.8,-0.02,22.21
16602,0.3317,-0.0233,0.8604,-6.12,7.85,0.02,22.24
16612,0.3363,-0.0239,0.8636,-6.17,7.83,-0.11,22.22
16622,0.3345,-0.0216,0.8633,-6.14,7.79,-0.02,22.22
16632,0.3315,-0.0233,0.8654,-6.14,7.76,0.0,22.21
16642,0.3363,-0.0249,0.8618,-6.17,7.76,-0.03,22.23
16652,0.3329,-0.021,0.8647,-6.17,7.79,-0.08,22.19
16662,0.3345,-0.0238,0.8636,-6.11,7.77,-0.08,22.23
16672,0.3335,-0.0209,0.8628,-6.18,7.74,-0.06,22.2
16682,0.3328,-0.0245,0.8615,-6.11,7.77,-0.03,22.2
16693,0.3303,-0.0221,0.8639,-6.15,7.76,-0.05,22.21
16703,0.3342,-0.0225,0.8586,-6.23,7.8,0.0,22.19
16713,0.3344,-0.0212,0.8605,-6.12,7.73,-0.05,22.21
16723,0.3353,-0.0253,0.863,-6.05,7.71,-0.02,22.21
16733,0.3329,-0.0204,0.8615,-6.12,7.65,-0.03,22.21
16743,0.3329,-0.0228,0.8643,-6.17,7.83,-0.02,22.22
16753,0.3314,-0.0251,0.8619,-6.17,7.74,0.0,22.21
16763,0.3324,-0.0229,0.8622,-6.23,7.74,-0.03,22.2
16773,0.3365,-0.0234,0.863,-6.18,7.68,-0.06,22.19
16783,0.3362,-0.0249,0.8624,-6.24,7.73,-0.11,22.2
16793,0.335,-0.0211,0.8634,-6.21,7.69,-0.05,22.22
16803,0.3344,-0.0254,0.8632,-6.17,7.73,-0.12,22.22
16813,0.3315,-0.024,0.8597,-6.17,7.79,-0.05,22.24
16823,0.337,-0.0229,0.8569,-6.18,7.73,-0.09,22.19
16833,0.3348,-0.0233,0.8595,-6.23,7.73,0.0,22.22
16843,0.3364,-0.0215,0.8661,-6.2,7.74,0.0,22.24
16853,0.3354,-0.0245,0.8613,-6.17,7.77,-0.05,22.22
16863,0.3357,-0.0239,0.8617,-6.06,7.68,-0.05,22.19
16873,0.3348,-0.0225,0.854,-6.15,7.74,-0.06,22.2
16883,0.3325,-0.0211,0.861,-6.09,7.69,-0.06,22.21
16893,0.3326,-0.0228,0.8623,-6.18,7.79,-0.05,22.22
16903,0.3326,-0.0234,0.8604,-6.12,7.73,0.02,22.23
16913,0.3337,-0.0247,0.865,-6.12,7.77,-0.12,22.22
16923,0.3323,-0.0247,0.8579,-6.18,7.83,-0.08,22.21
16933,0.3329,-0.0239,0.8635,-6.09,7.77,-0.02,22.21
16943,0.3352,-0.0244,0.8646,-6.11,7.8,-0.05,22.21
16953,0.3354,-0.024,0.8693,-6.08,7.8,-0.03,22.22
16963,0.334,-0.024,0.8657,-6.12,7.8,-0.06,22.22
16973,0.3341,-0.0232,0.861,-6.09,7.77,0.05,22.22
16983,0.3334,-0.0237,0.863,-6.14,7.83,-0.05,22.21
16993,0.3319,-0.0206,0.8647,-6.14,7.79,-0.14,22.23
17003,0.3364,-0.0242,0.8574,-6.17,7.79,-0.03,22.23
17013,0.3346,-0.0249,0.8627,-6.12,7.76,-0.03,22.22
17023,0.3363,-0.0247,0.863,-6.12,7.73,-0.02,22.22
17033,0.3318,-0.0219,0.868,-6.05,7.76,-0.08,22.23
17043,0.3347,-0.0215,0.8635,-6.15,7.74,0.0,22.25
17053,0.334,-0.0256,0.8641,-6.12,7.76,-0.05,22.26
17063,0.3346,-0.0232,0.8644,-6.15,7.85,-0.11,22.21
17073,0.334,-0.0253,0.8622,-6.11,7.71,-0.14,22.21
17083,0.3337,-0.0261,0.8625,-6.15,7.73,-0.05,22.23
17093,0.335,-0.0223,0.8612,-6.05,7.76,-0.03,22.24
17103,0.3346,-0.0234,0.8629,-6.12,7.8,-0.02,22.24
17113,0.334,-0.0251,0.8618,-6.24,7.82,-0.06,22.25
17123,0.3367,-0.022,0.86,-6.12,7.8,-0.05,22.24
17133,0.3341,-0.0259,0.861,-6.14,7.76,-0.09,22.23
17143,0.3368,-0.0234,0.8607,-6.12,7.76,-0.03,22.24
17153,0.3341,-0.0245,0.864,-6.18,7.73,-0.03,22.27
17163,0.3347,-0.0237,0.8634,-6.15,7.74,-0.09,22.25
17173,0.3335,-0.0219,0.8594,-6.12,7.85,-0.06,22.23
17183,0.3314,-0.0234,0.8597,-6.2,7.76,0.02,22.24
17193,0.3334,-0.0247,0.8639,-6.09,7.76,-0.05,22.22
17203,0.3351,-0.0243,0.8641,-6.12,7.82,0.0,22.22
17213,0.3358,-0.0247,0.8622,-6.14,7.82,-0.06,22.22
17223,0.3344,-0.025,0.8652,-6.06,7.8,-0.06,22.24
17233,0.335,-0.0249,0.8635,-6.08,7.82,-0.03,22.21
17243,0.334,-0.0223,0.8658,-6.14,7.76,-0.12,22.19
17253,0.3325,-0.0256,0.8591,-6.08,7.79,-0.05,22.2
17263,0.335,-0.0211,0.8588,-6.21,7.77,-0.06,22.22
17273,0.3317,-0.0234,0.859,-6.23,7.77,-0.08,22.25
17285,0.3342,-0.0245,0.8611,-6.2,7.76,-0.15,22.25
17295,0.3347,-0.0205,0.8619,-6.18,7.76,-0.03,22.21
17305,0.3346,-0.0243,0.8623,-6.14,7.77,-0.06,22.23
17315,0.3335,-0.0237,0.8619,-6.15,7.76,-0.05,22.23
17325,0.3352,-0.0226,0.8638,-6.2,7.82,0.02,22.23
17335,0.3344,-0.024,0.8607,-6.17,7.79,-0.05,22.23
17346,0.3342,-0.028,0.8605,-6.18,7.76,-0.03,22.22
17356,0.3325,-0.0211,0.8597,-6.21,7.74,-0.05,22.24
17366,0.3339,-0.0215,0.8627,-6.12,7.77,-0.05,22.21
17377,0.3344,-0.0222,0.8606,-6.11,7.8,0.0,22.21
17387,0.3351,-0.0217,0.8618,-6.12,7.77,-0.06,22.23
17397,0.3329,-0.0227,0.8606,-6.17,7.83,-0.02,22.22
17407,0.3334,-0.0243,0.8638,-6.08,7.77,0.05,22.23
17417,0.3335,-0.0233,0.8589,-6.15,7.82,-0.02,22.23
17427,0.3345,-0.0244,0.8613,-6.14,7.73,-0.05,22.23
17437,0.3331,-0.0247,0.8611,-6.14,7.79,-0.09,22.26
17447,0.3333,-0.0244,0.8584,-6.06,7.8,-0.05,22.24
17457,0.3293,-0.0254,0.8624,-6.15,7.82,-0.03,22.25
17467,0.3344,-0.0227,0.8628,-6.12,7.77,0.0,22.25
17477,0.3344,-0.0248,0.8634,-6.15,7.74,-0.11,22.25
17487,0.3344,-0.022,0.8602,-6.17,7.77,-0.12,22.24
17497,0.3354,-0.0249,0.8644,-6.17,7.77,-0.12,22.24
17507,0.3334,-0.0225,0.8627,-6.2,7.8,-0.06,22.27
17517,0.3347,-0.0232,0.8627,-6.05,7.77,-0.09,22.23
17527,0.3354,-0.0243,0.8644,-6.15,7.76,-0.03,22.24
17537,0.3331,-0.0219,0.8633,-6.14,7.77,-0.02,22.25
17547,0.3344,-0.0248,0.8639,-6.18,7.79,-0.09,22.25
17557,0.3328,-0.0232,0.8611,-6.17,7.73,-0.06,22.24
17567,0.3337,-0.0231,0.8597,-6.18,7.82,-0.05,22.22
17577,0.333,-0.0245,0.863,-6.17,7.79,-0.05,22.23
17587,0.3339,-0.0266,0.8589,-6.17,7.8,-0.12,22.22
17597,0.3324,-0.0236,0.8627,-6.15,7.73,-0.08,22.2
17607,0.3367,-0.0261,0.8624,-6.11,7.77,-0.03,22.22
17617,0.3344,-0.0262,0.8645,-6.15,7.76,-0.02,22.24
17627,0.3313,-0.0234,0.8597,-6.14,7.76,0.03,22.25
17637,0.3322,-0.025,0.8624,-6.14,7.71,-0.09,22.22
17647,0.3325,-0.0222,0.8612,-6.11,7.74,-0.05,22.22
17657,0.334,-0.0206,0.863,-6.12,7.76,0.0,22.22
17667,0.3329,-0.0227,0.8644,-6.2,7.82,-0.02,22.22
17677,0.3336,-0.022,0.8622,-6.08,7.77,-0.11,22.24
17687,0.333,-0.0239,0.8628,-6.15,7.74,-0.02,22.24
17697,0.334,-0.0234,0.8607,-6.23,7.77,-0.02,22.23
17707,0.333,-0.0255,0.863,-6.08,7.79,-0.06,22.23
17717,0.3337,-0.0215,0.8613,-6.21,7.74,-0.09,22.24
17727,0.3336,-0.0259,0.8624,-6.09,7.79,0.05,22.26
17737,0.3354,-0.0231,0.8599,-6.12,7.8,-0.05,22.25
17747,0.3335,-0.0233,0.8606,-6.15,7.77,0.02,22.24
17757,0.3334,-0.0233,0.8607,-6.15,7.79,-0.06,22.24
17767,0.3361,-0.0229,0.8621,-6.21,7.86,-0.11,22.24
17777,0.3337,-0.0228,0.8621,-6.11,7.77,-0.12,22.21
17787,0.3354,-0.024,0.8613,-6.15,7.76,-0.05,22.25
17797,0.3342,-0.0262,0.8605,-6.11,7.77,0.03,22.26
17807,0.3341,-0.0255,0.8621,-6.18,7.76,-0.02,22.25
17817,0.3345,-0.0228,0.8622,-6.12,7.82,0.05,22.26
17827,0.3326,-0.0212,0.8641,-6.12,7.79,0.0,22.24
17837,0.3362,-0.0223,0.8632,-6.17,7.8,-0.05,22.24
17847,0.3334,-0.0244,0.8651,-6.15,7.74,-0.06,22.25
17857,0.3336,-0.0238,0.8619,-6.26,7.83,-0.03,22.25
17867,0.3331,-0.0209,0.8618,-6.12,7.8,-0.02,22.24
17877,0.3328,-0.0236,0.8632,-6.11,7.77,-0.03,22.24
17887,0.3326,-0.0238,0.8625,-6.18,7.76,-0.02,22.24
17897,0.3358,-0.0248,0.8618,-6.15,7.79,-0.02,22.24
17907,0.3336,-0.0237,0.8643,-6.14,7.8,-0.08,22.24
17917,0.3378,-0.0227,0.861,-6.15,7.76,-0.03,22.26
17927,0.3367,-0.0217,0.8644,-6.17,7.85,-0.05,22.26
17937,0.3326,-0.0237,0.8586,-6.15,7.73,-0.09,22.24
17947,0.3345,-0.0236,0.8594,-6.14,7.77,-0.02,22.23
17957,0.3353,-0.0255,0.8607,-6.15,7.76,-0.08,22.24
17967,0.3351,-0.0231,0.8617,-6.12,7.74,-0.03,22.26
17977,0.3347,-0.0237,0.8584,-6.17,7.74,-0.05,22.23
17987,0.3342,-0.025,0.861,-6.17,7.79,-0.09,22.23
17997,0.3308,-0.0258,0.8622,-6.11,7.8,0.06,22.24
18007,0.3325,-0.024,0.8607,-6.17,7.68,0.0,22.23
18017,0.333,-0.0259,0.861,-6.15,7.82,0.02,22.22
18027,0.3348,-0.0261,0.8613,-6.12,7.77,0.0,22.26
18037,0.3347,-0.0244,0.8607,-6.17,7.71,-0.02,22.27
18047,0.3353,-0.0239,0.8595,-6.12,7.63,-0.06,22.26
18057,0.3334,-0.0205,0.8616,-6.06,7.77,0.0,22.24
18067,0.3331,-0.0238,0.8623,-6.18,7.76,-0.05,22.26
18077,0.3328,-0.0237,0.864,-6.23,7.74,0.0,22.25
18087,0.3356,-0.0238,0.8632,-6.05,7.8,0.02,22.23
18097,0.335,-0.0219,0.8608,-6.14,7.8,0.0,22.26
18107,0.334,-0.026,0.8624,-6.11,7.85,-0.03,22.25
18117,0.3344,-0.0233,0.864,-6.09,7.79,-0.03,22.27
18127,0.3348,-0.0228,0.8608,-6.17,7.73,0.0,22.25
18137,0.335,-0.0233,0.8669,-6.12,7.71,-0.05,22.23
18147,0.333,-0.0228,0.8622,-6.12,7.76,0.03,22.25
18157,0.3372,-0.0238,0.8591,-6.11,7.73,-0.06,22.24
18167,0.3334,-0.0242,0.86,-6.17,7.74,0.02,22.24
18177,0.3348,-0.0242,0.8619,-6.15,7.69,-0.09,22.23
18187,0.3359,-0.0222,0.8617,-6.08,7.85,-0.08,22.23
18197,0.3325,-0.0245,0.8621,-6.11,7.79,-0.14,22.24
18207,0.334,-0.0226,0.8611,-6.17,7.73,-0.12,22.22
18217,0.3328,-0.0247,0.863,-6.12,7.83,-0.03,22.24
18227,0.3325,-0.0228,0.8634,-6.14,7.76,-0.09,22.24
18237,0.3356,-0.0248,0.8636,-6.15,7.73,0.0,22.22
18247,0.3344,-0.0247,0.8612,-6.15,7.83,-0.05,22.24
18257,0.3345,-0.0242,0.8627,-6.11,7.76,0.0,22.23
18267,0.3319,-0.0249,0.8623,-6.12,7.77,-0.03,22.24
18277,0.3348,-0.0228,0.8574,-6.11,7.76,-0.09,22.24
18287,0.3347,-0.0233,0.8584,-6.18,7.74,-0.08,22.27
18297,0.3356,-0.0201,0.863,-6.21,7.79,-0.02,22.24
18307,0.3335,-0.0237,0.8589,-6.17,7.79,-0.06,22.23
18317,0.3339,-0.0273,0.866,-6.18,7.79,-0.02,22.24
18327,0.3337,-0.022,0.8624,-6.14,7.82,0.0,22.22
18337,0.3341,-0.025,0.8666,-6.2,7.82,-0.05,22.24
18347,0.3346,-0.0256,0.8591,-6.24,7.83,-0.02,22.24
18357,0.335,-0.0237,0.859,-6.15,7.73,-0.08,22.23
18367,0.3337,-0.0264,0.8594,-6.23,7.73,-0.03,22.26
18377,0.3358,-0.0259,0.8589,-6.11,7.8,-0.09,22.25
18387,0.3356,-0.024,0.8616,-6.12,7.71,-0.08,22.24
18397,0.3333,-0.0239,0.8624,-6.18,7.74,-0.05,22.23
18407,0.3319,-0.0226,0.8619,-6.09,7.76,0.06,22.27
18417,0.3324,-0.0237,0.86,-6.14,7.83,-0.06,22.28
18427,0.3345,-0.0248,0.8612,-6.17,7.8,-0.06,22.24
18437,0.3356,-0.0244,0.8635,-6.24,7.85,-0.03,22.27
18447,0.3342,-0.0254,0.8635,-6.17,7.76,-0.03,22.26
18457,0.3325,-0.0225,0.8639,-6.18,7.79,-0.03,22.26
18467,0.3357,-0.0243,0.8646,-6.08,7.76,-0.12,22.27
18477,0.3326,-0.0217,0.8612,-6.17,7.71,-0.06,22.24
18487,0.3358,-0.0265,0.8606,-6.24,7.73,-0.05,22.26
18497,0.3317,-0.0249,0.863,-6.21,7.77,-0.11,22.23
18507,0.3339,-0.0229,0.8633,-6.18,7.79,0.02,22.23
18517,0.334,-0.0239,0.8651,-6.18,7.85,-0.03,22.25
18527,0.3336,-0.021,0.8625,-6.15,7.74,-0.08,22.26
18537,0.3357,-0.0244,0.8632,-6.17,7.68,0.02,22.27
18547,0.334,-0.0234,0.8585,-6.26,7.79,-0.03,22.27
18557,0.3368,-0.0214,0.8615,-6.12,7.8,-0.03,22.27
18567,0.3322,-0.0231,0.859,-6.18,7.79,-0.06,22.27
18577,0.3357,-0.0251,0.8635,-6.11,7.77,-0.03,22.25
18587,0.338,-0.0231,0.8613,-6.12,7.76,-0.03,22.25
18597,0.3341,-0.0226,0.8644,-6.15,7.76,-0.02,22.25
18607,0.3347,-0.0267,0.8634,-6.12,7.79,0.0,22.27
18617,0.3379,-0.0225,0.8652,-6.11,7.77,0.02,22.29
18627,0.3363,-0.0239,0.8628,-6.17,7.73,-0.05,22.24
18637,0.3344,-0.025,0.8643,-6.15,7.79,0.03,22.27
18647,0.3362,-0.0216,0.8613,-6.09,7.76,0.0,22.25
18657,0.332,-0.022,0.8629,-6.12,7.73,-0.06,22.26
18667,0.3323,-0.0234,0.8597,-6.17,7.76,-0.08,22.25
18677,0.3337,-0.0236,0.8578,-6.18,7.79,-0.09,22.27
18687,0.3329,-0.0255,0.8607,-6.15,7.77,-0.06,22.28
18697,0.3347,-0.0221,0.8604,-6.11,7.83,-0.03,22.26
18707,0.3373,-0.0221,0.8629,-6.29,7.79,0.02,22.27
18717,0.3339,-0.0236,0.8625,-6.14,7.76,-0.03,22.24
18727,0.3317,-0.0212,0.8582,-6.14,7.73,-0.05,22.27
18737,0.3315,-0.0226,0.8629,-6.17,7.82,-0.02,22.26
18747,0.3339,-0.0239,0.8635,-6.17,7.79,-0.05,22.29
18757,0.3346,-0.024,0.8635,-6.17,7.73,0.0,22.26
18767,0.3313,-0.0271,0.8619,-6.15,7.74,-0.09,22.27
18777,0.3342,-0.0237,0.866,-6.11,7.76,-0.05,22.25
18787,0.3337,-0.0229,0.8654,-6.15,7.83,0.03,22.24
18797,0.3335,-0.0249,0.8619,-6.12,7.8,-0.06,22.26
18807,0.334,-0.0248,0.8646,-6.17,7.69,-0.08,22.25
18817,0.3341,-0.0237,0.863,-6.09,7.77,-0.02,22.26
18827,0.3331,-0.0226,0.859,-6.17,7.73,-0.05,22.26
18837,0.3333,-0.0273,0.8608,-6.14,7.88,-0.02,22.24
18847,0.3342,-0.022,0.861,-6.11,7.76,-0.03,22.26
18857,0.3329,-0.0236,0.8635,-6.14,7.82,0.02,22.27
18867,0.3333,-0.0236,0.8628,-6.23,7.77,0.0,22.25
18877,0.3322,-0.0239,0.8596,-6.18,7.76,-0.03,22.26
18887,0.3328,-0.0219,0.8611,-6.21,7.8,-0.03,22.26
18897,0.3356,-0.0228,0.8622,-6.11,7.76,-0.02,22.27
18907,0.334,-0.0223,0.8622,-6.17,7.74,-0.06,22.25
18917,0.3342,-0.0225,0.8606,-6.12,7.79,-0.03,22.22
18927,0.337,-0.0237,0.8625,-6.12,7.77,-0.09,22.27
18937,0.3345,-0.0254,0.8624,-6.2,7.79,-0.09,22.28
18947,0.3346,-0.0222,0.8618,-6.18,7.82,0.0,22.24
18957,0.3339,-0.0232,0.865,-6.18,7.76,0.0,22.25
18967,0.3353,-0.0238,0.8604,-6.17,7.77,-0.08,22.28
18978,0.3358,-0.0226,0.8635,-6.23,7.8,0.0,22.28
18988,0.3375,-0.0228,0.8628,-6.09,7.77,0.02,22.28
18998,0.333,-0.0242,0.8617,-6.17,7.76,-0.05,22.27
19009,0.3353,-0.0249,0.8619,-6.17,7.74,-0.09,22.25
19019,0.3325,-0.0226,0.8636,-6.2,7.8,-0.03,22.28
19029,0.3335,-0.0217,0.8608,-6.21,7.8,-0.02,22.27
19039,0.3369,-0.0243,0.8618,-6.14,7.79,0.05,22.27
19049,0.3368,-0.0233,0.866,-6.17,7.76,-0.05,22.27
19059,0.3357,-0.0256,0.863,-6.03,7.69,-0.03,22.24
19069,0.3341,-0.0267,0.8641,-6.12,7.79,0.05,22.24
19079,0.3346,-0.0269,0.8633,-6.09,7.82,-0.02,22.25
19089,0.3328,-0.0238,0.8617,-6.24,7.76,-0.03,22.25
19099,0.3373,-0.0223,0.8591,-6.12,7.79,-0.09,22.26
19109,0.3373,-0.0244,0.8601,-6.15,7.77,0.02,22.27
19119,0.3352,-0.025,0.8563,-6.17,7.82,-0.08,22.24
19129,0.3348,-0.0245,0.8568,-6.18,7.73,-0.11,22.26
19139,0.3359,-0.0232,0.8625,-6.15,7.76,-0.05,22.27
19149,0.3354,-0.0229,0.8613,-6.12,7.71,-0.02,22.3
19159,0.333,-0.0243,0.8597,-6.14,7.74,-0.09,22.27
19169,0.3337,-0.0231,0.8645,-6.15,7.82,-0.03,22.28
19179,0.3319,-0.0247,0.8568,-6.18,7.79,0.02,22.27
19189,0.3359,-0.0237,0.8599,-6.12,7.76,0.0,22.28
19199,0.3334,-0.0234,0.8591,-6.11,7.79,-0.11,22.26
19209,0.3329,-0.0219,0.8595,-6.12,7.69,0.02,22.29
19219,0.3323,-0.0212,0.863,-6.11,7.79,0.0,22.27
19229,0.3335,-0.02,0.8613,-6.15,7.85,-0.03,22.27
19239,0.3359,-0.0212,0.861,-6.12,7.8,-0.11,22.29
19249,0.3325,-0.0212,0.8607,-6.15,7.74,-0.12,22.29
19259,0.332,-0.0243,0.8633,-6.15,7.76,-0.09,22.27
19269,0.3333,-0.0247,0.8621,-6.14,7.79,-0.03,22.24
19279,0.3351,-0.0262,0.864,-6.17,7.8,-0.06,22.26
19289,0.3317,-0.0248,0.865,-6.15,7.76,-0.06,22.25
19299,0.3351,-0.0229,0.8606,-6.18,7.69,-0.06,22.28
19309,0.3372,-0.0219,0.8615,-6.17,7.79,-0.02,22.26
19319,0.3336,-0.0219,0.8586,-6.08,7.77,0.0,22.29
19329,0.3324,-0.0226,0.8575,-6.24,7.79,-0.05,22.29
19339,0.335,-0.0223,0.8655,-6.11,7.77,-0.05,22.24
19349,0.3368,-0.0266,0.8617,-6.29,7.79,-0.08,22.27
19359,0.3347,-0.0232,0.8575,-6.15,7.73,-0.06,22.27
19369,0.3334,-0.0234,0.8572,-6.09,7.68,-0.05,22.29
19379,0.335,-0.0242,0.86,-6.15,7.77,0.0,22.28
19389,0.3326,-0.0234,0.8668,-6.03,7.76,-0.05,22.28
19399,0.3328,-0.025,0.8652,-6.17,7.74,-0.06,22.28
19409,0.334,-0.0259,0.8613,-6.09,7.77,0.03,22.29
19419,0.3336,-0.0265,0.8596,-6.12,7.79,-0.03,22.29
19429,0.3346,-0.0229,0.8632,-6.15,7.76,-0.03,22.28
19439,0.3346,-0.0237,0.8641,-6.12,7.69,-0.03,22.27
19450,0.3337,-0.024,0.8629,-6.15,7.77,-0.05,22.27
19460,0.3367,-0.0239,0.8597,-6.21,7.76,-0.08,22.28
19470,0.3353,-0.0225,0.861,-6.08,7.82,-0.08,22.27
19480,0.3335,-0.0247,0.8582,-6.2,7.8,-0.06,22.26
19490,0.3328,-0.0239,0.863,-6.21,7.71,-0.06,22.27
19500,0.334,-0.0243,0.8617,-6.12,7.76,-0.02,22.25
19510,0.3348,-0.0236,0.8629,-6.17,7.73,-0.02,22.29
19520,0.3364,-0.0245,0.8628,-6.17,7.79,-0.03,22.29
19530,0.333,-0.022,0.8617,-6.18,7.74,-0.09,22.28
19540,0.3337,-0.0239,0.8636,-6.17,7.79,-0.05,22.26
19550,0.3334,-0.0247,0.8635,-6.14,7.77,-0.02,22.26
19560,0.3364,-0.0269,0.8597,-6.2,7.71,0.0,22.24
19570,0.334,-0.0264,0.8627,-6.17,7.76,-0.06,22.28
19580,0.3356,-0.0222,0.8566,-6.14,7.76,-0.06,22.3
19590,0.3352,-0.0242,0.8628,-6.14,7.8,-0.06,22.28
19600,0.3342,-0.0255,0.8599,-6.17,7.76,-0.14,22.28
19610,0.3348,-0.0228,0.8635,-6.09,7.83,-0.08,22.29
19620,0.3348,-0.0247,0.8636,-6.15,7.77,0.0,22.29
19630,0.3373,-0.0242,0.861,-6.14,7.83,-0.09,22.28
19640,0.3346,-0.024,0.8628,-6.14,7.8,-0.03,22.27
19651,0.3353,-0.0232,0.8621,-6.18,7.77,-0.06,22.28
19661,0.3322,-0.0254,0.8621,-6.18,7.79,-0.02,22.29
19671,0.335,-0.0243,0.8644,-6.15,7.77,-0.12,22.28
19681,0.3328,-0.0249,0.8628,-6.15,7.8,-0.03,22.27
19691,0.332,-0.0225,0.8618,-6.06,7.82,-0.02,22.27
19701,0.3313,-0.0238,0.8616,-6.09,7.83,-0.09,22.28
19711,0.3353,-0.0217,0.8635,-6.12,7.82,-0.06,22.28
19721,0.3334,-0.0255,0.8601,-6.17,7.85,-0.06,22.3
19731,0.3333,-0.0228,0.8617,-6.11,7.69,-0.03,22.26
19741,0.3335,-0.0247,0.8655,-6.15,7.8,-0.08,22.27
19751,0.3351,-0.0238,0.8593,-6.11,7.74,-0.08,22.27
19761,0.3358,-0.0233,0.8627,-6.2,7.79,-0.02,22.27
19771,0.332,-0.0234,0.8677,-6.2,7.8,-0.08,22.3
19781,0.3331,-0.0237,0.8651,-6.18,7.73,-0.06,22.28
19791,0.3357,-0.0248,0.8655,-6.14,7.76,-0.08,22.29
19801,0.3383,-0.0258,0.8611,-6.11,7.73,-0.08,22.28
19811,0.3345,-0.0227,0.8615,-6.12,7.79,0.02,22.28
19821,0.3335,-0.0227,0.8606,-6.2,7.76,-0.03,22.27
19831,0.3352,-0.0237,0.8582,-6.11,7.77,-0.09,22.27
19841,0.3341,-0.0243,0.8613,-6.11,7.74,-0.11,22.27
19851,0.335,-0.0229,0.8586,-6.2,7.69,-0.02,22.27
19861,0.3336,-0.0247,0.8613,-6.08,7.77,-0.02,22.29
19871,0.3351,-0.0261,0.8628,-6.06,7.79,-0.06,22.29
19881,0.3351,-0.0229,0.8589,-6.12,7.76,0.0,22.29
19891,0.3358,-0.0256,0.861,-6.14,7.74,-0.12,22.29
19901,0.3364,-0.0208,0.8622,-6.08,7.83,-0.08,22.26
19911,0.3323,-0.0223,0.858,-6.08,7.71,-0.06,22.28
19921,0.3329,-0.024,0.859,-6.09,7.77,-0.03,22.29
19931,0.3359,-0.0238,0.8621,-6.2,7.71,-0.02,22.28
19941,0.3354,-0.0243,0.8644,-6.15,7.76,0.0,22.31
19951,0.3329,-0.0232,0.8646,-6.17,7.74,-0.08,22.29
19961,0.337,-0.0242,0.8607,-6.2,7.77,-0.03,22.28
19971,0.3334,-0.0239,0.8612,-6.15,7.76,-0.06,22.29
19981,0.3322,-0.024,0.8611,-6.09,7.74,-0.12,22.29
19992,0.3348,-0.0217,0.8607,-6.12,7.76,-0.08,22.29
20002,0.3331,-0.0233,0.864,-6.08,7.74,0.0,22.31
20012,0.3365,-0.0217,0.8629,-6.15,7.77,-0.08,22.28
20023,0.3341,-0.0216,0.8624,-6.21,7.82,-0.03,22.26
20033,0.3369,-0.0239,0.8654,-6.12,7.76,-0.03,22.28
20043,0.3326,-0.0254,0.86,-6.18,7.83,-0.02,22.29
20053,0.3341,-0.0266,0.8629,-6.09,7.74,-0.08,22.28
20063,0.3358,-0.0262,0.8605,-6.18,7.73,-0.03,22.3
20073,0.3312,-0.0226,0.8618,-6.18,7.77,0.02,22.29
20083,0.3334,-0.0221,0.864,-6.15,7.74,-0.03,22.29
20093,0.3344,-0.022,0.8632,-6.11,7.77,-0.05,22.3
20103,0.3362,-0.0247,0.8582,-6.17,7.79,0.0,22.3
20113,0.3319,-0.0259,0.8638,-6.15,7.73,-0.03,22.28
20123,0.3362,-0.0236,0.8634,-6.14,7.77,-0.02,22.28
20133,0.3342,-0.0227,0.8599,-6.17,7.79,-0.08,22.25
20143,0.3352,-0.0227,0.8632,-6.12,7.74,0.0,22.27
20153,0.3348,-0.0247,0.859,-6.11,7.8,-0.03,22.28
20163,0.3322,-0.0255,0.8629,-6.17,7.82,-0.02,22.3
20173,0.334,-0.0255,0.8624,-6.17,7.76,0.0,22.3
20183,0.3339,-0.0248,0.861,-6.12,7.74,-0.06,22.26
20193,0.3331,-0.026,0.8605,-6.08,7.73,-0.14,22.28
20203,0.3372,-0.0239,0.8615,-6.15,7.85,-0.02,22.27
20213,0.3346,-0.0258,0.8606,-6.15,7.71,-0.03,22.27
20223,0.3324,-0.0242,0.8655,-6.2,7.82,-0.02,22.3
20233,0.3344,-0.0253,0.8638,-6.12,7.77,-0.03,22.3
20243,0.3342,-0.0237,0.8617,-6.17,7.73,-0.15,22.29
20253,0.3335,-0.0216,0.864,-6.14,7.79,-0.06,22.29
20263,0.3323,-0.0214,0.8644,-6.2,7.8,-0.09,22.29
20273,0.3353,-0.0245,0.8625,-6.06,7.76,-0.06,22.28
20283,0.3323,-0.0247,0.8628,-6.24,7.76,0.0,22.28
20293,0.3336,-0.0282,0.86,-6.14,7.73,-0.02,22.29
20303,0.3346,-0.0229,0.8605,-6.15,7.79,-0.08,22.28
20313,0.334,-0.0243,0.8605,-6.15,7.73,-0.09,22.28
20323,0.3361,-0.0254,0.8641,-6.09,7.68,-0.03,22.3
20333,0.3339,-0.0256,0.8606,-6.12,7.74,-0.05,22.31
20343,0.3318,-0.0243,0.8616,-6.11,7.83,-0.08,22.3
20353,0.3365,-0.0211,0.8569,-6.11,7.77,0.0,22.28
20363,0.3315,-0.0223,0.8627,-6.17,7.71,-0.08,22.28
20373,0.3336,-0.0226,0.8589,-6.12,7.8,-0.05,22.32
20383,0.3357,-0.0211,0.8658,-6.2,7.77,0.0,22.29
20393,0.3357,-0.0226,0.8586,-6.14,7.76,-0.02,22.3
20403,0.3357,-0.0238,0.8623,-6.15,7.69,-0.02,22.28
20413,0.334,-0.0254,0.8599,-6.06,7.77,0.0,22.29
20423,0.3328,-0.026,0.8623,-6.14,7.71,0.03,22.28
20433,0.3352,-0.0247,0.8605,-6.08,7.79,-0.08,22.29
20443,0.3342,-0.022,0.8615,-6.11,7.76,-0.06,22.32
20453,0.3326,-0.0233,0.8611,-6.08,7.8,0.03,22.29
20463,0.3348,-0.0234,0.8639,-6.15,7.77,-0.03,22.29
20473,0.3301,-0.0254,0.8615,-6.06,7.77,-0.06,22.29
20483,0.3337,-0.0251,0.8621,-6.2,7.79,-0.09,22.3
20493,0.3339,-0.0209,0.8624,-6.21,7.73,-0.06,22.31
20503,0.3394,-0.024,0.8624,-6.09,7.71,-0.08,22.31
20513,0.3339,-0.0243,0.8595,-6.17,7.83,-0.12,22.31
20523,0.335,-0.0231,0.8615,-6.17,7.82,-0.05,22.27
20533,0.3342,-0.0189,0.8607,-6.18,7.8,-0.02,22.29
20543,0.3368,-0.0223,0.8633,-6.11,7.77,0.0,22.31
20553,0.3341,-0.0253,0.8644,-6.17,7.74,0.02,22.3
20563,0.3352,-0.0208,0.8602,-6.14,7.79,0.02,22.32
20573,0.3344,-0.0226,0.8639,-6.2,7.76,-0.08,22.28
20583,0.3356,-0.0249,0.8629,-6.21,7.71,-0.08,22.29
20593,0.3328,-0.0231,0.8591,-6.2,7.69,-0.09,22.29
20603,0.3337,-0.0233,0.8608,-6.08,7.8,-0.02,22.26
20613,0.3334,-0.0229,0.8622,-6.14,7.79,-0.05,22.29
20623,0.3314,-0.027,0.8646,-6.11,7.77,-0.03,22.27
20633,0.3352,-0.0254,0.861,-6.11,7.74,0.0,22.29
20643,0.3315,-0.0234,0.8628,-6.09,7.79,-0.09,22.3
20653,0.335,-0.0227,0.8605,-6.18,7.73,0.0,22.31
20663,0.335,-0.0215,0.858,-6.15,7.79,-0.14,22.3
20673,0.3354,-0.0256,0.8651,-6.17,7.73,-0.03,22.29
20683,0.3375,-0.0242,0.8612,-6.11,7.77,-0.05,22.3
20693,0.3376,-0.0206,0.8649,-6.11,7.79,-0.12,22.3
20703,0.3342,-0.0231,0.86,-6.11,7.74,-0.08,22.32
20713,0.3347,-0.0231,0.8608,-6.06,7.8,-0.03,22.3
20723,0.3326,-0.0258,0.8619,-6.23,7.8,-0.02,22.29
20733,0.3344,-0.0226,0.8634,-6.18,7.76,0.0,22.31
20743,0.335,-0.0238,0.8579,-6.14,7.77,-0.09,22.31
20753,0.3359,-0.0265,0.8566,-6.17,7.8,-0.05,22.31
20763,0.3357,-0.0242,0.8569,-6.14,7.68,0.02,22.31
20773,0.3348,-0.0231,0.865,-6.14,7.76,0.05,22.33
20783,0.3334,-0.0229,0.8655,-6.15,7.76,-0.05,22.29
20793,0.3335,-0.0228,0.8638,-6.11,7.77,-0.05,22.29
20803,0.3331,-0.0253,0.863,-6.18,7.76,-0.03,22.3
20813,0.3337,-0.0254,0.8591,-6.17,7.88,-0.08,22.3
20823,0.3339,-0.0227,0.8629,-6.12,7.82,-0.08,22.31
20833,0.3348,-0.0237,0.8597,-6.11,7.74,-0.08,22.3
20843,0.3351,-0.0248,0.8623,-6.15,7.76,0.0,22.29
20853,0.3347,-0.0237,0.8621,-6.15,7.77,0.02,22.31
20863,0.3334,-0.0223,0.8627,-6.09,7.8,-0.03,22.32
20873,0.3353,-0.0255,0.8591,-6.15,7.77,0.03,22.32
20883,0.3329,-0.0238,0.8615,-6.11,7.79,0.03,22.32
20893,0.3345,-0.0234,0.8604,-6.15,7.8,-0.12,22.32
20903,0.3351,-0.0243,0.8611,-6.17,7.77,-0.05,22.29
20913,0.3337,-0.0214,0.8617,-6.23,7.77,-0.03,22.3
20923,0.3287,-0.022,0.8644,-6.21,7.85,-0.02,22.31
20933,0.333,-0.0228,0.8572,-6.17,7.79,-0.05,22.33
20943,0.3325,-0.0236,0.8599,-6.05,7.79,-0.09,22.32
20953,0.3325,-0.0227,0.8644,-6.15,7.74,-0.08,22.32
20963,0.3328,-0.0237,0.8623,-6.09,7.69,-0.11,22.31
20973,0.3324,-0.0232,0.8624,-6.29,7.8,-0.08,22.32
20983,0.3339,-0.0232,0.8612,-6.15,7.8,-0.02,22.33
20993,0.334,-0.0234,0.8633,-6.09,7.79,-0.03,22.3
21003,0.3341,-0.0233,0.8597,-6.18,7.83,0.03,22.31
21013,0.3351,-0.0242,0.8616,-6.21,7.79,-0.05,22.3
21023,0.3334,-0.0242,0.8624,-6.12,7.8,-0.08,22.33
21033,0.3333,-0.0239,0.8608,-6.12,7.77,-0.06,22.3
21043,0.333,-0.0232,0.859,-6.15,7.79,-0.08,22.32
21053,0.3324,-0.0247,0.8638,-6.15,7.73,-0.06,22.3
21063,0.3346,-0.0231,0.8661,-6.11,7.8,-0.09,22.3
21073,0.3358,-0.0262,0.8568,-6.12,7.8,-0.02,22.28
21083,0.3354,-0.0265,0.8655,-6.17,7.76,-0.05,22.27
21093,0.3334,-0.0236,0.8646,-6.11,7.74,-0.02,22.3
21103,0.3335,-0.0233,0.8635,-6.08,7.76,-0.11,22.31
21113,0.3325,-0.0234,0.8616,-6.17,7.71,-0.02,22.32
21123,0.3358,-0.0242,0.8593,-6.2,7.76,-0.02,22.3
21133,0.335,-0.0242,0.8649,-6.18,7.77,-0.05,22.33
21143,0.3335,-0.021,0.8606,-6.12,7.83,-0.09,22.29
21153,0.3337,-0.0232,0.8588,-6.14,7.76,-0.05,22.28
21163,0.3335,-0.0247,0.8638,-6.14,7.74,-0.09,22.32
21173,0.3347,-0.0255,0.8604,-6.03,7.74,-0.09,22.32
21183,0.3323,-0.0204,0.8662,-6.09,7.76,0.0,22.33
21193,0.3297,-0.0239,0.8618,-6.12,7.82,0.02,22.3
21203,0.3314,-0.0231,0.8634,-6.11,7.76,0.0,22.29
21213,0.3328,-0.024,0.8623,-6.12,7.74,-0.02,22.32
21223,0.3384,-0.0209,0.8615,-6.14,7.83,-0.06,22.31
21233,0.3357,-0.0253,0.8617,-6.14,7.76,-0.09,22.31
21243,0.3342,-0.0221,0.8605,-6.15,7.77,0.0,22.32
21253,0.3339,-0.0227,0.8624,-6.15,7.82,0.02,22.32
21263,0.3324,-0.0229,0.8617,-6.11,7.8,0.06,22.29
21273,0.3367,-0.0245,0.8596,-6.11,7.77,-0.02,22.32
21285,0.333,-0.0232,0.8627,-6.09,7.74,-0.02,22.32
21295,0.3342,-0.0223,0.8633,-6.09,7.76,-0.05,22.33
21305,0.3326,-0.0247,0.8562,-6.14,7.74,-0.06,22.31
21315,0.334,-0.0248,0.8605,-6.14,7.76,-0.06,22.31
21325,0.3324,-0.0258,0.8596,-6.09,7.77,-0.05,22.32
21335,0.3362,-0.0226,0.8654,-6.18,7.76,0.0,22.3
21345,0.3342,-0.0225,0.8629,-6.12,7.76,-0.06,22.3
21355,0.3324,-0.0242,0.8624,-6.12,7.77,-0.03,22.32
21365,0.3336,-0.0206,0.8628,-6.14,7.76,-0.05,22.31
21375,0.3326,-0.024,0.8645,-6.08,7.71,-0.05,22.31
21385,0.3339,-0.0221,0.8624,-6.12,7.79,0.02,22.35
21395,0.3346,-0.0231,0.8568,-6.15,7.74,-0.06,22.31
21405,0.3342,-0.0227,0.8599,-6.15,7.82,-0.17,22.32
21415,0.3344,-0.0229,0.8641,-6.2,7.79,-0.11,22.3
21425,0.3334,-0.024,0.8595,-6.17,7.74,-0.03,22.31
21435,0.3331,-0.0225,0.8589,-6.14,7.77,-0.09,22.32
21445,0.332,-0.0239,0.8558,-6.09,7.74,-0.06,22.3
21455,0.3328,-0.0214,0.8615,-6.15,7.71,-0.06,22.31
21465,0.3373,-0.0215,0.8638,-6.11,7.82,-0.08,22.29
21475,0.3346,-0.0222,0.8612,-6.14,7.69,-0.03,22.3
21485,0.333,-0.0242,0.8596,-6.21,7.76,0.03,22.33
21495,0.334,-0.0232,0.8613,-6.09,7.73,-0.02,22.33
21505,0.3336,-0.025,0.863,-6.17,7.76,-0.12,22.3
21515,0.3341,-0.0239,0.8649,-6.11,7.71,-0.14,22.32
21525,0.333,-0.0237,0.8619,-6.06,7.76,0.02,22.3
21536,0.3341,-0.0238,0.8593,-6.23,7.76,-0.09,22.3
21546,0.3341,-0.0253,0.8641,-6.17,7.79,0.0,22.3
21556,0.3344,-0.0245,0.8643,-6.11,7.8,-0.03,22.32
21566,0.3372,-0.026,0.863,-6.09,7.77,0.03,22.31
21576,0.3357,-0.024,0.8643,-6.11,7.71,-0.08,22.32
21586,0.3342,-0.024,0.8616,-6.14,7.76,-0.08,22.32
21596,0.3335,-0.0223,0.8643,-6.11,7.76,-0.02,22.32
21606,0.3346,-0.0236,0.8619,-6.18,7.73,-0.03,22.33
21616,0.3353,-0.0214,0.866,-6.23,7.79,-0.08,22.3
21626,0.3339,-0.0244,0.8616,-6.17,7.82,-0.05,22.29
21636,0.3354,-0.024,0.8624,-6.03,7.82,-0.03,22.31
21646,0.3369,-0.0238,0.8617,-6.09,7.83,0.0,22.32
21656,0.3337,-0.0233,0.865,-6.11,7.82,0.02,22.32
21666,0.3342,-0.0221,0.8621,-6.18,7.74,-0.05,22.33
21676,0.3326,-0.0237,0.8604,-6.15,7.79,-0.03,22.33
21686,0.3334,-0.0258,0.8575,-6.17,7.71,-0.15,22.34
21696,0.3353,-0.0229,0.8606,-6.18,7.73,-0.08,22.32
21706,0.3369,-0.0237,0.8602,-6.11,7.77,-0.09,22.32
21716,0.3337,-0.0247,0.8612,-6.09,7.74,-0.02,22.33
21726,0.3324,-0.0228,0.864,-6.17,7.76,0.0,22.32
21736,0.3345,-0.0248,0.8593,-6.18,7.76,0.0,22.32
21746,0.3341,-0.0256,0.859,-6.11,7.74,-0.03,22.31
21756,0.334,-0.0236,0.8606,-6.21,7.76,-0.03,22.32
21766,0.3336,-0.0243,0.8595,-6.23,7.79,-0.05,22.33
21776,0.3358,-0.0251,0.8635,-6.17,7.77,-0.02,22.33
21787,0.3308,-0.025,0.8596,-6.2,7.73,-0.05,22.35
21797,0.3333,-0.0247,0.8608,-6.23,7.79,-0.03,22.33
21807,0.3342,-0.0214,0.8616,-6.2,7.74,0.0,22.33
21817,0.3309,-0.0209,0.8639,-6.12,7.77,0.0,22.35
21827,0.3348,-0.0227,0.859,-6.18,7.74,-0.02,22.32
21837,0.335,-0.0251,0.8608,-6.24,7.85,-0.08,22.33
21847,0.3351,-0.0229,0.8615,-6.14,7.68,-0.09,22.35
21857,0.3363,-0.0225,0.8589,-6.18,7.73,-0.09,22.33
21867,0.334,-0.0237,0.8635,-6.11,7.76,-0.03,22.3
21877,0.3336,-0.0221,0.8601,-6.15,7.73,-0.02,22.32
21887,0.3335,-0.0236,0.8597,-6.17,7.76,-0.05,22.34
21897,0.3353,-0.0251,0.8649,-6.17,7.79,-0.11,22.34
21907,0.3328,-0.0225,0.8616,-6.14,7.79,-0.09,22.34
21917,0.3351,-0.0216,0.8632,-6.12,7.76,-0.11,22.33
21927,0.3315,-0.0212,0.8605,-6.12,7.8,0.0,22.34
21937,0.3339,-0.0231,0.8616,-6.2,7.8,-0.02,22.32
21947,0.3336,-0.0231,0.8632,-6.14,7.82,0.02,22.33
21957,0.3329,-0.0216,0.8628,-6.23,7.74,-0.02,22.32
21967,0.3354,-0.0206,0.8601,-6.18,7.73,0.0,22.3
21977,0.3354,-0.0222,0.8584,-6.06,7.77,-0.02,22.31
21987,0.3336,-0.0262,0.8656,-6.17,7.82,-0.02,22.32
21997,0.3345,-0.0237,0.8638,-6.14,7.76,-0.09,22.33
22007,0.3328,-0.0258,0.8632,-6.15,7.79,0.0,22.3
22017,0.335,-0.0229,0.8574,-6.08,7.82,-0.05,22.33
22027,0.3323,-0.0233,0.8607,-6.17,7.71,-0.06,22.33
22037,0.3357,-0.024,0.8605,-6.11,7.74,-0.06,22.34
22047,0.3308,-0.0221,0.8619,-6.2,7.77,-0.02,22.35
22057,0.3354,-0.0216,0.8612,-6.17,7.77,-0.02,22.34
22067,0.3359,-0.0239,0.8654,-6.31,7.8,-0.06,22.35
22077,0.335,-0.027,0.8633,-6.27,7.8,-0.02,22.35
22087,0.3347,-0.0225,0.8622,-6.11,7.82,-0.08,22.3
22097,0.3342,-0.0211,0.8615,-6.14,7.77,-0.05,22.33
22107,0.3362,-0.0228,0.8616,-6.17,7.77,0.0,22.33
22117,0.3333,-0.0244,0.8627,-6.17,7.83,0.0,22.34
22127,0.3336,-0.0208,0.8628,-6.17,7.76,-0.03,22.36
22137,0.335,-0.0212,0.8618,-6.18,7.68,0.0,22.31
22147,0.3362,-0.0238,0.8623,-6.09,7.74,-0.06,22.32
22157,0.339,-0.0243,0.8627,-6.12,7.68,0.0,22.34
22167,0.3356,-0.0212,0.8649,-6.08,7.8,-0.09,22.35
22177,0.3341,-0.0244,0.8579,-6.21,7.8,-0.02,22.34
22187,0.3348,-0.0227,0.8639,-6.14,7.73,-0.06,22.32
22197,0.335,-0.0217,0.8628,-6.17,7.77,-0.08,22.33
22207,0.3345,-0.0236,0.8672,-6.03,7.82,0.0,22.32
22217,0.3344,-0.0227,0.8608,-6.23,7.77,-0.03,22.34
22227,0.3336,-0.0238,0.8588,-6.2,7.74,-0.09,22.33
22237,0.3391,-0.0256,0.8655,-6.15,7.63,-0.08,22.33
22247,0.3362,-0.0244,0.8634,-6.11,7.73,-0.02,22.35
22257,0.3341,-0.0231,0.8624,-6.14,7.71,-0.08,22.32
22267,0.335,-0.0234,0.8636,-6.15,7.82,0.03,22.33
22277,0.3318,-0.0259,0.8612,-6.11,7.73,0.0,22.35
22326,0.3345,-0.0205,0.86,-6.15,7.83,-0.02,22.31
22336,0.3324,-0.0228,0.8623,-6.18,7.74,-0.02,22.32
22346,0.333,-0.0211,0.859,-6.2,7.8,-0.02,22.32
22356,0.3344,-0.0248,0.8615,-6.12,7.74,-0.09,22.32
22366,0.3345,-0.0254,0.8564,-6.12,7.71,-0.06,22.32
22376,0.3347,-0.0217,0.8623,-6.15,7.79,0.0,22.33
22387,0.333,-0.0231,0.8578,-6.09,7.74,-0.08,22.3
22397,0.3356,-0.0264,0.8602,-6.18,7.74,-0.03,22.32
22407,0.3342,-0.024,0.8639,-6.2,7.76,-0.08,22.3
22417,0.3351,-0.0277,0.8625,-6.15,7.74,-0.09,22.29
22427,0.3336,-0.0249,0.8632,-6.2,7.79,-0.03,22.33
22437,0.3351,-0.0232,0.8608,-6.17,7.74,-0.03,22.34
22447,0.3337,-0.0222,0.8606,-6.15,7.73,-0.03,22.32
22457,0.3353,-0.0245,0.8622,-6.12,7.79,-0.05,22.34
22467,0.3344,-0.025,0.8607,-6.15,7.76,-0.02,22.34
22477,0.3312,-0.0225,0.8636,-6.15,7.83,-0.05,22.32
22487,0.3342,-0.0232,0.8621,-6.14,7.76,-0.06,22.33
22497,0.3356,-0.0237,0.8602,-6.17,7.74,0.03,22.29
22507,0.3344,-0.0253,0.8618,-6.18,7.8,-0.02,22.31
22517,0.3356,-0.0236,0.8627,-6.11,7.74,-0.06,22.34
22527,0.3324,-0.0248,0.8635,-6.18,7.86,-0.03,22.34
22537,0.3347,-0.0226,0.8605,-6.2,7.79,-0.03,22.33
22547,0.335,-0.0217,0.8624,-6.2,7.79,-0.03,22.32
22557,0.3352,-0.0236,0.8625,-6.21,7.74,-0.06,22.29
22567,0.3331,-0.0267,0.8632,-6.12,7.86,-0.03,22.37
22577,0.3328,-0.0253,0.8618,-6.15,7.92,-0.05,22.35
22587,0.3323,-0.0266,0.8607,-6.2,7.79,0.02,22.32
22597,0.3331,-0.0234,0.8622,-6.12,7.71,-0.06,22.32
22607,0.3333,-0.0272,0.8635,-6.17,7.76,-0.05,22.34
22617,0.3365,-0.0223,0.8611,-6.17,7.68,-0.05,22.32
22627,0.3331,-0.0232,0.8622,-6.18,7.74,-0.06,22.34
22637,0.3369,-0.024,0.8585,-6.14,7.71,-0.03,22.33
22647,0.335,-0.0234,0.8623,-6.21,7.71,-0.03,22.33
22657,0.3324,-0.024,0.8611,-6.17,7.74,-0.02,22.38
22667,0.3341,-0.0216,0.8639,-6.12,7.68,0.0,22.35
22677,0.3339,-0.0238,0.8596,-6.18,7.77,-0.11,22.31
22687,0.3331,-0.0259,0.8601,-6.18,7.76,0.02,22.34
22697,0.3357,-0.0255,0.8646,-6.21,7.76,-0.05,22.34
22707,0.3328,-0.0229,0.8607,-6.23,7.77,-0.12,22.33
22717,0.3359,-0.0247,0.8624,-6.12,7.69,-0.05,22.34
22727,0.3359,-0.0217,0.8625,-6.12,7.79,-0.03,22.33
22737,0.3336,-0.0236,0.8621,-6.18,7.74,-0.11,22.34
22747,0.3386,-0.0204,0.8601,-6.11,7.76,-0.02,22.34
22757,0.3347,-0.0225,0.8625,-6.14,7.69,-0.02,22.33
22767,0.3318,-0.0203,0.8613,-6.15,7.73,-0.09,22.32
22777,0.3352,-0.022,0.8635,-6.26,7.88,-0.09,22.33
22787,0.334,-0.0228,0.8644,-6.15,7.79,-0.09,22.34
22797,0.3341,-0.0249,0.8619,-6.12,7.8,-0.06,22.33
22807,0.3329,-0.025,0.8622,-6.2,7.76,-0.02,22.31
22817,0.3333,-0.0245,0.8628,-6.18,7.77,-0.06,22.34
22827,0.3345,-0.0232,0.8607,-6.17,7.74,-0.08,22.36
22837,0.3341,-0.0228,0.8602,-6.15,7.76,0.03,22.36
22847,0.3372,-0.022,0.8619,-6.17,7.77,0.02,22.34
22857,0.3329,-0.0236,0.86,-6.14,7.73,-0.02,22.34
22867,0.3339,-0.0239,0.8647,-6.18,7.74,-0.06,22.35
22877,0.3346,-0.0227,0.8611,-6.23,7.74,-0.03,22.37
22887,0.3361,-0.0221,0.8621,-6.17,7.8,0.05,22.34
22897,0.3376,-0.0233,0.8573,-6.17,7.76,-0.02,22.35
22907,0.3337,-0.0258,0.8591,-6.17,7.73,-0.06,22.34
22917,0.3329,-0.0256,0.8636,-6.17,7.79,-0.05,22.34
22927,0.3353,-0.0219,0.8624,-6.18,7.85,-0.02,22.32
22937,0.3333,-0.0256,0.8593,-6.18,7.8,0.0,22.32
22947,0.3339,-0.0214,0.8582,-6.27,7.69,-0.03,22.32
22957,0.3334,-0.0228,0.8589,-6.14,7.79,-0.08,22.35
22967,0.3365,-0.0245,0.8616,-6.23,7.62,-0.05,22.34
22977,0.3354,-0.0216,0.863,-6.12,7.74,-0.03,22.34
22987,0.3352,-0.0227,0.8627,-6.15,7.77,0.03,22.32
22997,0.3348,-0.0215,0.8629,-6.15,7.82,-0.03,22.35
23007,0.3356,-0.0183,0.8606,-6.2,7.74,0.02,22.32
23017,0.3351,-0.0222,0.8621,-6.14,7.82,-0.06,22.32
23027,0.3328,-0.0233,0.8633,-6.2,7.71,0.0,22.36
23037,0.3352,-0.0223,0.8604,-6.09,7.8,-0.06,22.35
23047,0.3342,-0.0248,0.8595,-6.12,7.71,-0.06,22.37
23057,0.3357,-0.0243,0.8602,-6.21,7.77,-0.03,22.34
23067,0.3342,-0.0216,0.8673,-6.2,7.73,-0.08,22.36
23077,0.3354,-0.0231,0.8634,-6.2,7.76,0.02,22.36
23087,0.3339,-0.024,0.8615,-6.21,7.69,0.05,22.35
23097,0.334,-0.0234,0.8595,-6.18,7.76,0.03,22.34
23107,0.3334,-0.0249,0.86,-6.21,7.76,-0.03,22.35
23117,0.3363,-0.0225,0.8622,-6.14,7.76,-0.11,22.33
23127,0.3358,-0.0238,0.8604,-6.09,7.83,-0.08,22.37
23137,0.3362,-0.0219,0.863,-6.15,7.77,-0.06,22.37
23147,0.3346,-0.025,0.8606,-6.09,7.8,-0.06,22.38
23157,0.3372,-0.0237,0.8589,-6.2,7.74,-0.08,22.37
23167,0.3346,-0.0264,0.8634,-6.11,7.79,0.0,22.34
23177,0.334,-0.0245,0.8628,-6.12,7.71,-0.09,22.38
23187,0.3348,-0.0219,0.8578,-6.15,7.76,-0.05,22.37
23197,0.3342,-0.0222,0.864,-6.2,7.82,-0.05,22.36
23207,0.3353,-0.0222,0.8608,-6.17,7.76,0.02,22.36
23217,0.3345,-0.0223,0.8595,-6.14,7.69,-0.05,22.35
23227,0.3336,-0.021,0.8632,-6.17,7.68,-0.09,22.34
23237,0.3329,-0.0211,0.8596,-6.12,7.85,-0.02,22.35
23247,0.334,-0.022,0.8632,-6.23,7.85,0.02,22.36
23257,0.3341,-0.0237,0.8636,-6.23,7.73,-0.03,22.34
23267,0.333,-0.0216,0.8582,-6.23,7.73,0.02,22.33
23277,0.3347,-0.0233,0.8658,-6.15,7.8,0.02,22.37
23287,0.3334,-0.0243,0.8636,-6.18,7.82,0.0,22.37
23297,0.3354,-0.0233,0.8602,-6.08,7.76,-0.02,22.38
23307,0.3324,-0.0272,0.8584,-6.2,7.66,-0.03,22.36
23317,0.3328,-0.0211,0.8622,-6.09,7.82,0.03,22.37
23327,0.3312,-0.0217,0.8623,-6.17,7.76,-0.03,22.35
23337,0.338,-0.0253,0.8647,-6.11,7.82,-0.06,22.36
23347,0.3356,-0.0227,0.8611,-6.14,7.73,-0.03,22.35
23357,0.3292,-0.0214,0.859,-6.08,7.73,-0.02,22.36
23367,0.3335,-0.0232,0.8655,-6.21,7.66,0.06,22.35
23377,0.335,-0.0222,0.8621,-6.15,7.74,-0.03,22.36
23387,0.3335,-0.0237,0.8633,-6.11,7.79,0.05,22.35
23397,0.3318,-0.0222,0.8623,-6.09,7.71,-0.02,22.36
23407,0.3341,-0.0238,0.8638,-6.17,7.79,-0.03,22.34
23417,0.3354,-0.0226,0.8645,-6.21,7.74,-0.02,22.36
23427,0.334,-0.0233,0.8621,-6.14,7.73,-0.08,22.36
23437,0.3357,-0.0248,0.8679,-6.09,7.82,0.02,22.34
23447,0.3328,-0.0244,0.8623,-6.23,7.83,-0.02,22.34
23457,0.3351,-0.0232,0.8643,-6.21,7.71,-0.05,22.36
23467,0.3334,-0.0232,0.8622,-6.15,7.69,-0.06,22.35
23477,0.3328,-0.0225,0.8632,-6.12,7.76,-0.05,22.36
23487,0.3315,-0.0247,0.8636,-6.2,7.79,0.05,22.39
23497,0.3368,-0.0248,0.8651,-6.09,7.86,-0.14,22.36
23507,0.3333,-0.0248,0.8635,-6.14,7.74,-0.09,22.37
23517,0.3344,-0.0216,0.8615,-6.23,7.79,-0.03,22.37
23527,0.3342,-0.0209,0.8632,-6.23,7.74,0.03,22.37
23537,0.3335,-0.0222,0.8615,-6.12,7.74,-0.06,22.37
23547,0.3344,-0.0248,0.8617,-6.11,7.74,0.0,22.34
23557,0.3342,-0.0212,0.8665,-6.11,7.8,0.03,22.34
23567,0.3344,-0.0219,0.8636,-6.18,7.68,-0.03,22.34
23577,0.3323,-0.0232,0.8633,-6.15,7.83,-0.05,22.39
23587,0.3358,-0.0219,0.8613,-6.17,7.77,0.02,22.36
23597,0.3372,-0.0253,0.8606,-6.17,7.76,-0.06,22.36
23607,0.3325,-0.0239,0.8643,-6.2,7.68,-0.09,22.35
23617,0.3346,-0.0243,0.8632,-6.11,7.77,-0.03,22.35
23627,0.333,-0.0258,0.8596,-6.2,7.79,-0.08,22.34
23637,0.3357,-0.0276,0.8615,-6.21,7.82,-0.09,22.34
23647,0.3348,-0.0222,0.8623,-6.12,7.79,-0.03,22.36
23657,0.3358,-0.022,0.8623,-6.17,7.79,-0.05,22.39
23667,0.3339,-0.0195,0.8586,-6.23,7.76,-0.06,22.37
23677,0.3348,-0.0251,0.8599,-6.15,7.77,-0.06,22.37
23687,0.3352,-0.0242,0.8627,-6.17,7.73,-0.06,22.34
23697,0.3348,-0.0214,0.8646,-6.15,7.77,-0.05,22.36
23707,0.3344,-0.0216,0.861,-6.23,7.79,-0.08,22.35
23717,0.3365,-0.0204,0.8563,-6.2,7.77,-0.03,22.37
23727,0.3372,-0.0248,0.8644,-6.18,7.73,-0.02,22.34
23737,0.3337,-0.0238,0.8658,-6.2,7.79,-0.02,22.34
23747,0.3345,-0.0239,0.8647,-6.12,7.79,-0.03,22.35
23757,0.3354,-0.0247,0.8644,-6.21,7.73,-0.02,22.34
23767,0.335,-0.0245,0.8655,-6.17,7.66,0.02,22.39
23777,0.3329,-0.0221,0.8621,-6.17,7.73,-0.06,22.37
23787,0.335,-0.0238,0.8651,-6.12,7.8,-0.06,22.36
23797,0.3336,-0.0249,0.8605,-6.03,7.85,0.02,22.36
23807,0.3346,-0.0243,0.8583,-6.11,7.85,-0.03,22.37
23817,0.3354,-0.0249,0.8569,-6.12,7.73,-0.06,22.37
23827,0.3342,-0.0262,0.8618,-6.18,7.77,-0.05,22.36
23837,0.3359,-0.0222,0.8646,-6.17,7.71,-0.08,22.38
23847,0.3369,-0.0228,0.8619,-6.12,7.68,-0.05,22.35
23857,0.3345,-0.0232,0.8599,-6.17,7.69,-0.03,22.33
23868,0.3342,-0.0249,0.8632,-6.15,7.82,-0.06,22.35
23878,0.3339,-0.0248,0.8635,-6.14,7.77,-0.02,22.36
23888,0.3329,-0.0238,0.8625,-6.15,7.71,-0.05,22.37
23898,0.3386,-0.0243,0.8615,-6.18,7.74,0.0,22.36
23908,0.3347,-0.0212,0.8662,-6.14,7.79,-0.02,22.33
23918,0.3357,-0.0232,0.8594,-6.11,7.77,0.05,22.36
23928,0.332,-0.0258,0.865,-6.17,7.76,0.02,22.35
23938,0.3317,-0.0247,0.86,-6.18,7.79,-0.03,22.39
23948,0.3335,-0.024,0.8617,-6.14,7.76,-0.08,22.36
23958,0.3356,-0.0239,0.8601,-6.14,7.83,0.0,22.4
23968,0.3361,-0.0259,0.8652,-6.03,7.76,-0.05,22.39
23978,0.3363,-0.0259,0.8645,-6.17,7.79,-0.03,22.38
23988,0.3353,-0.0236,0.8641,-6.2,7.83,0.02,22.37
23998,0.3317,-0.0197,0.8619,-6.17,7.74,-0.02,22.38
24008,0.3358,-0.0239,0.8602,-6.2,7.66,0.02,22.35
24018,0.3344,-0.0234,0.8619,-6.09,7.85,-0.03,22.38
24028,0.3361,-0.0223,0.8601,-6.14,7.69,-0.06,22.37
24038,0.3325,-0.0248,0.8583,-6.21,7.73,-0.03,22.37
24048,0.3356,-0.0231,0.8635,-6.14,7.74,0.0,22.36
24058,0.335,-0.0225,0.86,-6.17,7.74,-0.06,22.34
24068,0.3373,-0.0223,0.8611,-6.15,7.77,-0.08,22.39
24078,0.3334,-0.0236,0.8667,-6.08,7.74,-0.09,22.37
24088,0.3356,-0.0239,0.8661,-6.23,7.76,-0.09,22.38
24098,0.3367,-0.0232,0.866,-6.15,7.73,-0.06,22.39
24108,0.3347,-0.0221,0.864,-6.15,7.77,-0.09,22.36
24118,0.3362,-0.0251,0.8644,-6.14,7.73,-0.08,22.35
24128,0.3333,-0.0243,0.8604,-6.21,7.79,-0.14,22.35
24139,0.3345,-0.0245,0.8619,-6.17,7.73,-0.05,22.35
24149,0.3353,-0.0222,0.8574,-6.14,7.76,-0.12,22.35
24159,0.3387,-0.0223,0.8624,-6.12,7.76,-0.09,22.35
24169,0.3347,-0.0236,0.8618,-6.14,7.76,-0.05,22.37
24179,0.3356,-0.0232,0.859,-6.12,7.69,-0.03,22.36
24189,0.3357,-0.025,0.8558,-6.18,7.71,-0.05,22.37
24199,0.3345,-0.0272,0.8585,-6.17,7.74,-0.06,22.39
24209,0.3344,-0.0244,0.8608,-6.18,7.69,-0.03,22.38
24219,0.3345,-0.0231,0.8646,-6.18,7.79,0.03,22.37
24229,0.3335,-0.0233,0.8617,-6.14,7.79,-0.05,22.36
24239,0.3335,-0.0237,0.8635,-6.11,7.8,-0.09,22.37
24249,0.3329,-0.026,0.8638,-6.08,7.74,-0.05,22.4
24259,0.3334,-0.0225,0.8601,-6.2,7.69,0.06,22.38
24269,0.3325,-0.0259,0.86,-6.2,7.79,-0.05,22.37
24279,0.3339,-0.0239,0.8633,-6.14,7.76,-0.02,22.37
24289,0.335,-0.0223,0.8616,-6.18,7.79,-0.06,22.37
24299,0.3333,-0.024,0.8634,-6.12,7.68,-0.05,22.37
24309,0.3314,-0.0236,0.8647,-6.08,7.76,-0.02,22.36
24319,0.3374,-0.0233,0.8655,-6.05,7.79,-0.02,22.39
24329,0.3336,-0.0259,0.8623,-6.12,7.76,-0.03,22.37
24339,0.3359,-0.022,0.8615,-6.2,7.76,-0.06,22.38
24349,0.3365,-0.0243,0.8654,-6.11,7.69,-0.06,22.37
24359,0.3356,-0.0256,0.8607,-6.09,7.83,0.05,22.37
24369,0.3314,-0.0226,0.8651,-6.15,7.8,0.0,22.36
24379,0.3351,-0.0254,0.8632,-6.24,7.77,-0.02,22.37
24389,0.3346,-0.0237,0.8617,-6.21,7.73,-0.05,22.37
24399,0.3333,-0.0247,0.8618,-6.18,7.77,-0.05,22.38
24409,0.334,-0.0236,0.8628,-6.2,7.74,-0.05,22.38
24419,0.3344,-0.0237,0.8607,-6.17,7.77,-0.05,22.37
24429,0.3363,-0.0247,0.8652,-6.14,7.79,-0.05,22.37
24439,0.3341,-0.0237,0.8647,-6.12,7.73,0.02,22.39
24449,0.3348,-0.0243,0.8641,-6.15,7.76,-0.03,22.37
24459,0.3329,-0.0237,0.8621,-6.15,7.73,-0.06,22.37
24469,0.3351,-0.0237,0.8627,-6.18,7.79,0.03,22.39
24480,0.3364,-0.0229,0.861,-6.09,7.69,-0.02,22.38
24490,0.3328,-0.0261,0.8616,-6.08,7.79,-0.05,22.39
24500,0.3365,-0.0227,0.8645,-6.12,7.76,0.0,22.36
24511,0.3352,-0.0248,0.8623,-6.23,7.8,-0.03,22.4
24521,0.3336,-0.026,0.8556,-6.21,7.76,-0.02,22.39
24531,0.3337,-0.0249,0.8645,-6.18,7.73,-0.09,22.39
24541,0.3358,-0.0231,0.861,-6.09,7.76,-0.03,22.38
24551,0.3331,-0.0251,0.8607,-6.12,7.69,0.02,22.39
24561,0.3335,-0.0243,0.8623,-6.18,7.79,-0.03,22.37
24571,0.3345,-0.022,0.8628,-6.21,7.76,-0.11,22.38
24581,0.3348,-0.0242,0.8589,-6.17,7.74,0.06,22.39
24591,0.335,-0.0233,0.8605,-6.12,7.76,0.05,22.38
24601,0.3353,-0.0251,0.8618,-6.11,7.76,-0.06,22.38
24611,0.3345,-0.0243,0.859,-6.06,7.76,0.03,22.39
24621,0.3351,-0.0229,0.8619,-6.11,7.71,0.02,22.37
24631,0.3333,-0.0228,0.8622,-6.2,7.63,0.0,22.39
24641,0.3331,-0.0245,0.8646,-6.23,7.74,-0.03,22.37
24651,0.3309,-0.0232,0.8615,-6.26,7.8,-0.06,22.4
24661,0.332,-0.0243,0.8596,-6.14,7.76,-0.05,22.4
24671,0.333,-0.0242,0.8633,-6.17,7.79,-0.08,22.39
24681,0.3369,-0.024,0.8585,-6.12,7.77,-0.06,22.37
24691,0.3331,-0.0236,0.8602,-6.11,7.79,-0.02,22.38
24701,0.3326,-0.0236,0.8597,-6.23,7.8,-0.06,22.38
24711,0.3362,-0.0222,0.8668,-6.17,7.76,0.0,22.37
24721,0.3328,-0.0226,0.8643,-6.18,7.77,0.0,22.4
24731,0.3342,-0.0227,0.8652,-6.21,7.77,-0.06,22.39
24741,0.3369,-0.0242,0.8618,-6.12,7.74,-0.05,22.38
24751,0.3376,-0.0239,0.864,-6.12,7.62,-0.11,22.42
24761,0.3328,-0.0192,0.8629,-6.18,7.8,-0.14,22.37
24771,0.3369,-0.025,0.8611,-6.21,7.77,-0.05,22.37
24781,0.337,-0.0236,0.8646,-6.09,7.79,-0.03,22.39
24791,0.3346,-0.0229,0.8617,-6.12,7.83,-0.06,22.4
24801,0.3341,-0.0234,0.8634,-6.09,7.85,-0.03,22.39
24811,0.3352,-0.0217,0.8615,-6.17,7.76,-0.02,22.4
24821,0.3339,-0.0234,0.8616,-6.15,7.8,-0.02,22.38
24831,0.3358,-0.025,0.8597,-6.2,7.82,0.05,22.4
24841,0.3352,-0.0232,0.8622,-6.14,7.76,-0.11,22.39
24851,0.3354,-0.0251,0.8618,-6.14,7.77,-0.08,22.39
24861,0.3325,-0.0237,0.865,-6.2,7.77,0.02,22.37
24871,0.3361,-0.0226,0.8599,-6.06,7.83,-0.03,22.4
24881,0.3337,-0.0248,0.8595,-6.08,7.83,0.03,22.38
24891,0.3352,-0.0242,0.8647,-6.17,7.8,0.03,22.37
24901,0.3331,-0.0237,0.8605,-6.12,7.79,-0.02,22.38
24911,0.3303,-0.0237,0.8612,-6.2,7.73,-0.05,22.39
24921,0.3347,-0.0223,0.8611,-6.15,7.74,-0.03,22.4
24931,0.3335,-0.0236,0.861,-6.17,7.71,-0.08,22.38
24941,0.3339,-0.0231,0.8628,-6.12,7.74,-0.06,22.37
24951,0.3326,-0.0229,0.8644,-6.15,7.77,-0.02,22.38
24961,0.3345,-0.0226,0.8635,-6.18,7.83,-0.05,22.39
24971,0.3348,-0.0243,0.8622,-6.14,7.8,-0.02,22.39
24981,0.334,-0.0266,0.8663,-6.15,7.71,-0.05,22.39
24991,0.3365,-0.0243,0.8591,-6.09,7.79,0.0,22.39
25001,0.3331,-0.0242,0.8625,-6.09,7.8,0.02,22.42
25011,0.3352,-0.0254,0.8599,-6.2,7.76,-0.09,22.37
25021,0.3337,-0.0251,0.8641,-6.14,7.76,0.02,22.39
25031,0.3368,-0.0259,0.8677,-6.17,7.73,-0.06,22.38
25041,0.3341,-0.025,0.8661,-6.17,7.76,-0.15,22.37
25051,0.3336,-0.0221,0.8591,-6.21,7.74,0.0,22.41
25061,0.3346,-0.0216,0.8641,-6.11,7.76,-0.03,22.39
25071,0.334,-0.024,0.8632,-6.14,7.71,-0.02,22.37
25081,0.3353,-0.0232,0.8594,-6.2,7.69,-0.05,22.41
25091,0.3346,-0.022,0.8618,-6.18,7.71,-0.05,22.42
25101,0.3346,-0.0237,0.8601,-6.26,7.74,-0.05,22.37
25111,0.3336,-0.0212,0.8663,-6.14,7.79,-0.03,22.4
25121,0.3314,-0.0212,0.8621,-6.11,7.8,-0.05,22.39
25131,0.3341,-0.0227,0.8591,-6.12,7.79,-0.02,22.4
25141,0.3357,-0.0229,0.864,-6.08,7.74,-0.06,22.39
25151,0.3342,-0.0232,0.8605,-6.18,7.74,-0.08,22.41
25161,0.3359,-0.0236,0.8639,-6.11,7.74,-0.06,22.38
25171,0.3364,-0.0231,0.8618,-6.09,7.76,-0.05,22.39
25181,0.3334,-0.0229,0.8636,-6.15,7.71,0.02,22.39
25191,0.3335,-0.024,0.863,-6.14,7.82,-0.02,22.39
25201,0.3317,-0.0251,0.8595,-6.15,7.71,0.0,22.38
25211,0.3331,-0.0254,0.8643,-6.06,7.76,0.0,22.39
25221,0.3341,-0.0209,0.856,-6.17,7.77,-0.05,22.39
25231,0.335,-0.0239,0.8612,-6.17,7.74,-0.05,22.41
25241,0.3342,-0.0239,0.8589,-6.11,7.77,-0.05,22.4
25251,0.3344,-0.0222,0.8591,-6.21,7.74,-0.02,22.39
25261,0.3344,-0.0267,0.8606,-6.14,7.79,0.03,22.39
25271,0.335,-0.0245,0.8594,-6.24,7.77,-0.06,22.41
25281,0.3352,-0.0254,0.8615,-6.12,7.82,-0.02,22.4
25291,0.333,-0.022,0.8612,-6.09,7.85,-0.02,22.39
25301,0.3358,-0.0231,0.8624,-6.17,7.77,-0.06,22.41
25311,0.3335,-0.0232,0.8624,-6.21,7.77,-0.03,22.37
25321,0.3375,-0.0264,0.86,-6.14,7.76,-0.03,22.38
25331,0.3337,-0.0236,0.86,-6.18,7.73,-0.08,22.38
25341,0.3323,-0.0229,0.8618,-6.12,7.82,-0.12,22.37
25351,0.3352,-0.0233,0.8615,-6.14,7.8,0.0,22.41
25361,0.3326,-0.025,0.8632,-6.11,7.79,-0.02,22.39
25371,0.3348,-0.0242,0.8582,-6.18,7.76,-0.03,22.42
25381,0.3333,-0.0228,0.8644,-6.15,7.79,-0.03,22.39
25391,0.3337,-0.0234,0.8613,-6.06,7.79,0.06,22.41
25401,0.3346,-0.0217,0.8619,-6.17,7.73,0.06,22.37
25411,0.333,-0.0239,0.8629,-6.18,7.79,-0.03,22.39
25421,0.3376,-0.0226,0.86,-6.2,7.8,-0.03,22.37
25431,0.3369,-0.0223,0.8618,-6.14,7.74,0.05,22.39
25441,0.334,-0.0206,0.8594,-6.17,7.76,0.0,22.4
25451,0.3359,-0.0237,0.863,-6.17,7.79,-0.06,22.39
25461,0.3353,-0.0249,0.8616,-6.15,7.79,-0.03,22.41
25471,0.3353,-0.0227,0.8613,-6.15,7.76,-0.03,22.38
25481,0.3325,-0.022,0.8613,-6.17,7.85,-0.05,22.39
25491,0.3325,-0.0272,0.864,-6.18,7.73,0.02,22.39
25501,0.333,-0.0242,0.8623,-6.17,7.73,0.02,22.39
25511,0.3324,-0.0231,0.8617,-6.14,7.86,0.0,22.4
25521,0.335,-0.025,0.8607,-6.11,7.79,-0.02,22.39
25531,0.3342,-0.0245,0.8627,-6.09,7.74,-0.08,22.39
25541,0.3323,-0.024,0.8633,-6.18,7.77,0.0,22.4
25551,0.3325,-0.0214,0.8611,-6.14,7.76,-0.02,22.39
25561,0.3323,-0.0234,0.8613,-6.18,7.77,-0.03,22.4
25571,0.3358,-0.0223,0.8588,-6.21,7.79,-0.03,22.39
25581,0.3347,-0.0216,0.8634,-6.18,7.79,-0.03,22.4
25591,0.3339,-0.0234,0.8613,-6.14,7.83,-0.05,22.41
25601,0.3375,-0.0245,0.8639,-6.17,7.79,-0.02,22.42
25611,0.335,-0.0231,0.8621,-6.18,7.8,-0.03,22.39
25621,0.3326,-0.0244,0.8607,-6.21,7.77,-0.06,22.4
25631,0.3359,-0.0245,0.8611,-6.15,7.76,0.0,22.39
25641,0.3353,-0.0214,0.8584,-6.11,7.71,0.0,22.39
25651,0.3331,-0.0211,0.8564,-6.14,7.77,-0.05,22.4
25661,0.3344,-0.0227,0.864,-6.15,7.8,-0.02,22.38
25671,0.3354,-0.0226,0.8607,-6.2,7.79,-0.12,22.4
25681,0.3346,-0.0244,0.8644,-6.11,7.73,-0.05,22.39
25691,0.335,-0.0233,0.863,-6.11,7.79,-0.06,22.4
25701,0.3326,-0.0219,0.8619,-6.12,7.73,-0.08,22.38
25711,0.3304,-0.0266,0.8629,-6.2,7.8,-0.12,22.4
25721,0.3346,-0.0256,0.8657,-6.17,7.85,-0.03,22.39
25731,0.3322,-0.0287,0.8618,-6.17,7.79,0.0,22.4
25741,0.3342,-0.0254,0.8611,-6.09,7.82,-0.03,22.4
25751,0.3333,-0.0238,0.8575,-6.2,7.83,-0.05,22.39
25761,0.3364,-0.0229,0.8608,-6.08,7.79,-0.05,22.41
25771,0.3328,-0.0244,0.8599,-6.11,7.79,0.0,22.42
25781,0.3351,-0.0234,0.8613,-6.17,7.76,-0.05,22.39
25791,0.3335,-0.0232,0.8624,-6.11,7.76,-0.09,22.41
25801,0.3354,-0.0236,0.8628,-6.21,7.79,-0.09,22.39
25811,0.3361,-0.0256,0.8601,-6.27,7.76,-0.02,22.4
25821,0.3351,-0.024,0.8623,-6.2,7.71,-0.14,22.4
25831,0.3352,-0.0232,0.8612,-6.12,7.74,0.03,22.4
25841,0.3357,-0.0272,0.8618,-6.11,7.86,0.0,22.4
25851,0.3352,-0.0223,0.864,-6.11,7.73,-0.06,22.38
25861,0.333,-0.021,0.8645,-6.23,7.76,-0.02,22.38
25871,0.3351,-0.0208,0.8656,-6.18,7.82,-0.08,22.39
25881,0.3341,-0.024,0.8633,-6.24,7.77,-0.09,22.4
25891,0.3336,-0.0232,0.8661,-6.21,7.76,-0.09,22.37
25901,0.3341,-0.022,0.8594,-6.24,7.68,0.05,22.39
25911,0.3356,-0.0219,0.8621,-6.2,7.82,-0.03,22.39
25921,0.3363,-0.0243,0.8672,-6.21,7.76,-0.05,22.39
25931,0.3353,-0.0247,0.8608,-6.18,7.83,0.02,22.4
25941,0.3345,-0.0281,0.859,-6.2,7.71,0.03,22.42
25951,0.3351,-0.0242,0.8644,-6.2,7.79,-0.11,22.4
25961,0.3348,-0.0212,0.865,-6.2,7.73,-0.08,22.41
25971,0.3337,-0.0199,0.865,-6.21,7.82,-0.05,22.4
25981,0.335,-0.0208,0.8613,-6.15,7.77,-0.05,22.41
25991,0.3346,-0.0225,0.8629,-6.21,7.76,-0.06,22.39
26001,0.3361,-0.0238,0.8621,-6.14,7.76,-0.11,22.38
26011,0.3347,-0.0255,0.8588,-6.14,7.73,-0.11,22.4
26021,0.3337,-0.0245,0.8577,-6.18,7.8,-0.06,22.41
26031,0.3319,-0.025,0.8651,-6.18,7.8,-0.08,22.42
26041,0.3372,-0.0243,0.8596,-6.18,7.76,-0.02,22.44
26051,0.3357,-0.0228,0.8617,-6.12,7.8,-0.08,22.4
26061,0.3335,-0.0248,0.8594,-6.21,7.8,0.0,22.4
26071,0.3319,-0.0211,0.8657,-6.15,7.83,0.0,22.42
26081,0.332,-0.0223,0.8634,-6.09,7.8,-0.05,22.42
26091,0.3344,-0.0216,0.8602,-6.06,7.83,-0.08,22.42
26101,0.333,-0.0242,0.8625,-6.12,7.74,-0.05,22.4
26111,0.3314,-0.0254,0.8611,-6.18,7.8,-0.03,22.4
26121,0.3334,-0.0248,0.8651,-6.18,7.76,-0.02,22.38
26131,0.3347,-0.0219,0.859,-6.18,7.77,-0.06,22.4
26141,0.3345,-0.0205,0.8574,-6.18,7.74,0.02,22.38
26151,0.337,-0.0227,0.8671,-6.14,7.77,0.03,22.39
26161,0.335,-0.0226,0.866,-6.17,7.73,-0.06,22.4
26171,0.3326,-0.0223,0.8632,-6.14,7.8,-0.06,22.39
26181,0.33,-0.025,0.8605,-6.2,7.82,-0.08,22.43
26191,0.3311,-0.0262,0.8601,-6.18,7.8,-0.03,22.39
26201,0.3325,-0.0245,0.8623,-6.17,7.79,-0.11,22.41
26211,0.3331,-0.0256,0.8606,-6.24,7.73,-0.05,22.4
26221,0.3342,-0.0208,0.8635,-6.11,7.77,0.0,22.41
26231,0.3346,-0.0197,0.8635,-6.17,7.82,-0.11,22.4
26241,0.3345,-0.0175,0.865,-6.18,7.83,-0.08,22.39
26251,0.3357,-0.0168,0.8622,-6.2,7.79,-0.09,22.41
26261,0.3362,-0.0225,0.8594,-6.11,7.79,-0.05,22.4
26271,0.3364,-0.025,0.8568,-6.15,7.73,0.0,22.41
26281,0.3339,-0.0266,0.8601,-6.14,7.76,-0.12,22.45
26291,0.3353,-0.0264,0.8608,-6.23,7.73,-0.03,22.41
26301,0.335,-0.0245,0.8658,-6.12,7.86,-0.02,22.41
26311,0.3358,-0.0228,0.8661,-6.17,7.76,-0.03,22.4
26321,0.3335,-0.0217,0.8677,-6.11,7.83,-0.06,22.42
26331,0.3345,-0.0225,0.8623,-6.17,7.77,-0.06,22.4
26341,0.3326,-0.0215,0.8572,-6.14,7.8,-0.02,22.42
26351,0.3289,-0.025,0.8599,-6.12,7.77,-0.03,22.42
26361,0.3339,-0.0204,0.8606,-6.08,7.82,0.0,22.39
26371,0.3318,-0.022,0.8622,-6.17,7.68,-0.03,22.4
26381,0.3346,-0.0236,0.8611,-6.21,7.73,-0.05,22.4
26391,0.3357,-0.0227,0.8627,-6.17,7.69,0.02,22.4
26401,0.3369,-0.0208,0.8619,-6.17,7.71,-0.06,22.4
26411,0.3354,-0.0239,0.8621,-6.09,7.82,-0.09,22.41
26421,0.3344,-0.0234,0.8634,-6.11,7.77,-0.11,22.41
26431,0.3347,-0.0245,0.8633,-6.11,7.77,-0.06,22.42
26441,0.337,-0.0231,0.86,-6.21,7.74,-0.08,22.42
26451,0.3356,-0.0229,0.8591,-6.14,7.76,-0.08,22.43
26461,0.3358,-0.0238,0.8604,-6.11,7.8,0.06,22.43
26471,0.3333,-0.0243,0.8588,-6.17,7.77,-0.03,22.39
26481,0.334,-0.0229,0.8621,-6.17,7.82,-0.02,22.42
26491,0.3336,-0.0258,0.864,-6.18,7.83,0.02,22.44
26501,0.3306,-0.0253,0.8625,-6.18,7.74,-0.02,22.42
26511,0.3324,-0.0215,0.8635,-6.15,7.74,-0.03,22.41
26521,0.3336,-0.0225,0.8655,-6.21,7.83,-0.08,22.4
26531,0.3322,-0.0271,0.8632,-6.23,7.71,-0.05,22.39
26541,0.332,-0.0249,0.8632,-6.18,7.74,0.0,22.42
26551,0.3328,-0.0229,0.8604,-6.21,7.68,-0.02,22.42
26561,0.3337,-0.0245,0.8606,-6.18,7.79,-0.14,22.4
26571,0.3324,-0.0231,0.8624,-6.14,7.83,-0.06,22.39
26581,0.3345,-0.022,0.864,-6.2,7.8,-0.03,22.39
26591,0.338,-0.0248,0.8635,-6.09,7.77,-0.18,22.39
26601,0.3362,-0.0253,0.8605,-6.18,7.73,0.0,22.43
26611,0.3356,-0.0251,0.8599,-6.17,7.71,-0.08,22.43
26621,0.3368,-0.0278,0.8645,-6.17,7.76,0.03,22.39
26631,0.3363,-0.0251,0.8649,-6.09,7.8,-0.05,22.41
26641,0.3346,-0.0253,0.8627,-6.12,7.77,-0.08,22.41
26651,0.3356,-0.0227,0.8591,-6.14,7.77,-0.02,22.39
26661,0.33,-0.0237,0.8593,-6.12,7.76,0.0,22.41
26671,0.3307,-0.0234,0.8643,-6.2,7.86,-0.05,22.42
26681,0.333,-0.0187,0.863,-6.21,7.83,-0.12,22.4
26691,0.3383,-0.0236,0.8599,-6.15,7.69,-0.09,22.42
26701,0.3401,-0.0187,0.8607,-6.17,7.66,-0.09,22.43
26711,0.3335,-0.0208,0.8612,-6.14,7.77,-0.06,22.41
26721,0.3302,-0.0205,0.8683,-6.2,7.79,-0.12,22.41
26731,0.3364,-0.0181,0.8667,-6.15,7.89,-0.05,22.4
26741,0.3378,-0.0243,0.8618,-6.14,7.85,-0.05,22.41
26751,0.3354,-0.0272,0.8627,-6.17,7.76,-0.05,22.41
26761,0.3358,-0.0304,0.8655,-6.08,7.73,-0.11,22.44
26771,0.3331,-0.0271,0.8645,-6.17,7.62,-0.03,22.42
26781,0.3307,-0.0233,0.8521,-6.2,7.85,0.0,22.43
26791,0.3398,-0.0284,0.85,-6.23,7.77,-0.03,22.41
26801,0.3301,-0.0286,0.8673,-6.02,7.88,-0.03,22.42
26811,0.3339,-0.0187,0.8672,-6.27,7.59,0.0,22.43
26821,0.3363,-0.0142,0.8619,-6.17,7.71,-0.03,22.42
26831,0.3383,-0.0194,0.8607,-6.15,7.62,-0.06,22.43
26841,0.3341,-0.0232,0.8672,-6.11,7.94,-0.08,22.44
26851,0.3309,-0.0205,0.8691,-6.18,7.88,0.02,22.43
26861,0.335,-0.0251,0.8545,-6.32,7.76,0.0,22.44
26871,0.334,-0.0339,0.8531,-6.11,7.76,-0.06,22.41
26881,0.3368,-0.0333,0.8539,-6.05,7.79,-0.05,22.4
26891,0.3352,-0.0249,0.8594,-6.15,7.71,-0.06,22.44
26901,0.3336,-0.0193,0.8635,-6.18,7.85,0.08,22.44
26911,0.3319,-0.0234,0.8655,-6.09,7.85,0.02,22.44
26921,0.3324,-0.017,0.8663,-6.12,7.74,-0.05,22.44
26931,0.334,-0.0164,0.8647,-6.2,7.71,-0.09,22.43
26941,0.3369,-0.0203,0.8608,-6.17,7.79,-0.08,22.46
26951,0.3337,-0.0261,0.8612,-6.2,7.82,-0.03,22.42
26961,0.3313,-0.0259,0.8586,-6.17,7.73,-0.06,22.41
26971,0.334,-0.0256,0.8589,-6.09,7.76,-0.03,22.42
26981,0.3357,-0.0303,0.8574,-6.21,7.82,-0.02,22.42
26991,0.3374,-0.0258,0.8575,-6.2,7.69,-0.03,22.43
27001,0.3359,-0.0214,0.8672,-6.0,7.79,-0.03,22.43
27011,0.3331,-0.0186,0.8658,-6.17,7.74,0.02,22.43
27021,0.3328,-0.0188,0.8679,-6.21,7.8,-0.06,22.43
27031,0.3325,-0.0203,0.8682,-6.06,7.74,-0.05,22.43
27041,0.3312,-0.0214,0.8611,-6.17,7.77,-0.11,22.41
27051,0.3344,-0.0249,0.8639,-6.17,7.79,0.0,22.41
27061,0.3333,-0.025,0.8584,-6.11,7.77,-0.03,22.42
27071,0.3341,-0.0286,0.8561,-6.17,7.83,-0.08,22.41
27081,0.3353,-0.0266,0.8617,-6.14,7.74,-0.08,22.42
27091,0.3373,-0.0259,0.8658,-6.21,7.82,-0.09,22.44
27101,0.3353,-0.0278,0.8673,-6.2,7.82,-0.05,22.44
27111,0.3356,-0.0217,0.863,-6.08,7.8,-0.03,22.43
27121,0.3336,-0.0189,0.8656,-6.18,7.8,0.03,22.44
27131,0.3336,-0.026,0.8641,-6.15,7.79,-0.03,22.44
27141,0.334,-0.0247,0.8666,-6.2,7.71,-0.06,22.43
27151,0.3337,-0.0233,0.8604,-6.14,7.71,-0.06,22.43
27161,0.3311,-0.0255,0.8604,-6.17,7.79,0.05,22.44
27171,0.3328,-0.0244,0.863,-6.18,7.76,0.0,22.44
27181,0.3323,-0.0255,0.8651,-6.18,7.73,-0.03,22.42
27191,0.3315,-0.022,0.8612,-6.2,7.73,-0.02,22.45
27201,0.3318,-0.0239,0.8662,-6.09,7.73,-0.08,22.44
27211,0.3334,-0.0238,0.8684,-6.18,7.86,0.03,22.44
27221,0.3333,-0.0212,0.8591,-6.17,7.76,-0.06,22.44
27231,0.3356,-0.0201,0.8622,-6.14,7.76,-0.03,22.42
27241,0.3346,-0.0249,0.8657,-6.15,7.74,-0.02,22.43
27251,0.3337,-0.0251,0.8607,-6.23,7.79,-0.06,22.44
27261,0.3364,-0.026,0.8618,-6.18,7.76,0.08,22.42
27271,0.3348,-0.0247,0.8602,-6.05,7.74,0.0,22.43
27281,0.3325,-0.0245,0.8632,-6.12,7.71,0.03,22.43
27291,0.3364,-0.021,0.8632,-6.18,7.82,-0.09,22.44
27301,0.3323,-0.0243,0.8647,-6.2,7.79,-0.08,22.43
27311,0.3325,-0.0243,0.8619,-6.09,7.73,-0.06,22.43
27321,0.3362,-0.0227,0.8618,-6.15,7.77,0.0,22.44
27331,0.3346,-0.0251,0.8597,-6.21,7.74,-0.14,22.42
27341,0.3309,-0.0238,0.8633,-6.06,7.71,-0.05,22.44
27351,0.3356,-0.0248,0.8655,-6.14,7.66,-0.09,22.43
27361,0.3348,-0.0226,0.8619,-6.18,7.83,-0.11,22.42
27371,0.3345,-0.021,0.8639,-6.17,7.82,-0.02,22.43
27381,0.3362,-0.0226,0.8649,-6.27,7.82,0.05,22.43
27391,0.3385,-0.0232,0.8644,-6.29,7.77,0.0,22.42
27401,0.3361,-0.025,0.8641,-6.2,7.76,-0.06,22.43
27411,0.3324,-0.0239,0.8629,-6.18,7.74,-0.12,22.44
27421,0.3335,-0.0282,0.8584,-6.26,7.77,-0.05,22.44
27431,0.3323,-0.0226,0.8586,-6.17,7.8,-0.06,22.44
27441,0.3348,-0.0249,0.8606,-6.18,7.79,-0.03,22.46
27451,0.3341,-0.0222,0.8613,-6.2,7.77,-0.08,22.44
27461,0.3335,-0.024,0.8635,-6.2,7.76,0.0,22.42
