t_ms,accel_x_g,accel_y_g,accel_z_g,gyro_x_dps,gyro_y_dps,gyro_z_dps,imu_temp_c
3288,0.3325,-0.0223,0.8643,-6.55,7.92,0.06,27.37
3298,0.3329,-0.0227,0.8672,-6.49,7.86,0.0,27.35
3308,0.3328,-0.0242,0.8624,-6.55,7.83,-0.03,27.37
3318,0.3336,-0.0215,0.864,-6.5,7.85,0.02,27.35
3328,0.3306,-0.0222,0.8657,-6.58,7.91,-0.03,27.37
3338,0.3344,-0.0255,0.8652,-6.53,7.91,-0.02,27.37
3348,0.3331,-0.0245,0.8671,-6.55,7.83,0.0,27.38
3358,0.3318,-0.0229,0.8658,-6.47,7.86,-0.11,27.38
3368,0.3318,-0.0223,0.8649,-6.6,7.82,0.0,27.38
3378,0.3323,-0.0221,0.8649,-6.53,7.85,-0.03,27.38
3388,0.332,-0.0229,0.8669,-6.58,7.94,-0.08,27.37
3398,0.3331,-0.0217,0.8643,-6.55,7.95,-0.08,27.39
3408,0.3318,-0.0221,0.8667,-6.55,7.85,-0.03,27.37
3418,0.3352,-0.0232,0.8641,-6.49,7.89,-0.08,27.38
3428,0.3351,-0.0243,0.8658,-6.52,7.91,-0.05,27.39
3438,0.3336,-0.0217,0.8638,-6.55,7.88,-0.05,27.39
3448,0.3325,-0.0232,0.8685,-6.58,7.88,-0.09,27.37
3458,0.3318,-0.0219,0.8672,-6.53,7.83,-0.02,27.39
3468,0.3325,-0.0245,0.8612,-6.5,7.91,-0.06,27.37
3478,0.3329,-0.0194,0.8602,-6.5,7.89,-0.14,27.37
3488,0.3347,-0.0216,0.8625,-6.52,7.86,-0.05,27.39
3498,0.3335,-0.0227,0.8668,-6.52,7.83,-0.02,27.39
3508,0.3326,-0.0221,0.8639,-6.56,7.83,-0.02,27.39
3518,0.3351,-0.0209,0.8632,-6.6,7.8,-0.06,27.37
3528,0.3342,-0.0226,0.8641,-6.58,7.86,-0.02,27.38
3538,0.3312,-0.0219,0.8657,-6.53,7.92,-0.02,27.38
3548,0.3346,-0.0245,0.8644,-6.56,7.85,-0.05,27.39
3558,0.333,-0.0244,0.8661,-6.5,7.89,-0.06,27.39
3568,0.334,-0.0255,0.8634,-6.49,7.89,0.0,27.37
3578,0.3317,-0.0245,0.8661,-6.58,7.79,-0.05,27.37
3588,0.3333,-0.024,0.8644,-6.53,7.83,-0.02,27.38
3598,0.3329,-0.0226,0.864,-6.5,7.85,-0.03,27.37
3608,0.3312,-0.021,0.8662,-6.6,7.89,0.0,27.4
3618,0.3339,-0.0242,0.8651,-6.53,7.83,-0.03,27.38
3628,0.3315,-0.0234,0.864,-6.52,7.94,0.02,27.39
3638,0.3297,-0.0204,0.863,-6.6,7.95,-0.11,27.38
3648,0.3322,-0.0222,0.8632,-6.6,7.97,-0.08,27.39
3658,0.3326,-0.022,0.8652,-6.6,7.91,-0.08,27.39
3668,0.3341,-0.0232,0.8641,-6.67,7.86,-0.09,27.39
3678,0.3347,-0.0222,0.8633,-6.55,7.92,-0.05,27.41
3688,0.3331,-0.0203,0.8658,-6.49,7.94,0.05,27.37
3698,0.3351,-0.025,0.8682,-6.46,7.8,-0.08,27.38
3708,0.3334,-0.0244,0.8624,-6.52,7.83,-0.09,27.4
3718,0.3308,-0.0214,0.8625,-6.53,7.92,-0.02,27.39
3728,0.3328,-0.0229,0.866,-6.61,7.89,-0.08,27.39
3738,0.332,-0.022,0.8645,-6.53,7.85,0.0,27.37
3748,0.332,-0.0214,0.8646,-6.56,7.92,0.05,27.4
3758,0.3318,-0.0234,0.8685,-6.6,7.89,-0.05,27.37
3768,0.3275,-0.0248,0.8706,-6.6,8.06,-0.02,27.39
3778,0.3315,-0.0231,0.8668,-6.58,8.02,-0.09,27.38
3788,0.3354,-0.0204,0.8651,-6.58,7.77,-0.08,27.39
3798,0.3336,-0.0197,0.8612,-6.49,7.82,-0.12,27.37
3808,0.3348,-0.0215,0.8643,-6.49,7.88,-0.06,27.4
3818,0.3353,-0.02,0.8605,-6.61,7.88,-0.06,27.42
3828,0.3336,-0.0226,0.8644,-6.55,7.91,-0.05,27.38
3838,0.3337,-0.0223,0.8643,-6.61,7.83,-0.06,27.38
3848,0.3329,-0.0229,0.8682,-6.58,7.86,-0.11,27.39
3858,0.334,-0.0238,0.8662,-6.47,7.85,-0.05,27.38
3868,0.335,-0.0212,0.8669,-6.52,7.88,-0.11,27.39
3878,0.3335,-0.0214,0.8677,-6.52,7.88,0.05,27.39
3888,0.3315,-0.0259,0.864,-6.49,7.85,-0.02,27.38
3898,0.3334,-0.0211,0.8644,-6.56,7.92,-0.03,27.39
3908,0.3337,-0.0228,0.8647,-6.53,7.83,-0.05,27.4
3918,0.3314,-0.0215,0.8669,-6.5,7.85,-0.14,27.39
3928,0.3361,-0.0222,0.8683,-6.56,7.83,-0.03,27.4
3938,0.3375,-0.0219,0.8632,-6.49,7.89,-0.08,27.39
3948,0.3337,-0.0211,0.8641,-6.47,7.89,-0.02,27.39
3958,0.3342,-0.0228,0.8657,-6.49,7.91,-0.03,27.42
3968,0.3364,-0.0205,0.8621,-6.56,7.94,-0.03,27.39
3978,0.3291,-0.0215,0.8672,-6.58,7.86,-0.06,27.4
3988,0.334,-0.0249,0.8679,-6.47,7.83,-0.08,27.4
3998,0.3318,-0.0211,0.8628,-6.56,7.89,0.0,27.41
4008,0.3334,-0.025,0.8638,-6.5,7.88,-0.08,27.41
4018,0.3333,-0.0212,0.8624,-6.55,7.83,-0.09,27.4
4028,0.3348,-0.021,0.8638,-6.6,7.89,-0.06,27.41
4038,0.3354,-0.0249,0.8657,-6.52,7.83,-0.06,27.39
4048,0.3337,-0.0226,0.8632,-6.47,7.86,-0.08,27.39
4058,0.3307,-0.0245,0.865,-6.5,7.92,-0.06,27.4
4068,0.3326,-0.0238,0.8658,-6.46,7.86,-0.06,27.42
4078,0.3333,-0.0221,0.8625,-6.6,7.82,-0.08,27.41
4088,0.3326,-0.0261,0.8698,-6.6,7.86,-0.06,27.41
4098,0.3347,-0.0232,0.8645,-6.55,7.91,-0.05,27.4
4108,0.3323,-0.0227,0.8674,-6.49,7.88,-0.02,27.4
4118,0.3344,-0.022,0.8657,-6.49,7.89,-0.08,27.41
4128,0.3373,-0.0227,0.8617,-6.5,7.89,-0.05,27.39
4138,0.3313,-0.0237,0.8625,-6.5,7.89,0.05,27.42
4148,0.3331,-0.0254,0.8615,-6.5,7.88,0.02,27.42
4158,0.3351,-0.0233,0.865,-6.53,7.89,-0.08,27.4
4168,0.3319,-0.0231,0.8634,-6.56,7.88,-0.09,27.44
4178,0.3331,-0.025,0.8629,-6.55,7.89,-0.03,27.42
4188,0.3309,-0.0206,0.8622,-6.55,7.86,-0.05,27.42
4198,0.33,-0.0225,0.8657,-6.56,7.83,-0.06,27.41
4208,0.3356,-0.0215,0.8643,-6.58,7.92,-0.11,27.41
4218,0.3323,-0.0231,0.8629,-6.55,7.92,-0.09,27.41
4228,0.3307,-0.024,0.8632,-6.49,7.91,-0.08,27.41
4238,0.3317,-0.0233,0.8646,-6.53,7.82,-0.06,27.44
4248,0.3319,-0.0208,0.864,-6.56,7.89,-0.11,27.39
4258,0.3326,-0.0225,0.8623,-6.56,7.88,-0.06,27.42
4268,0.3323,-0.0242,0.864,-6.55,7.83,-0.05,27.42
4278,0.3335,-0.0248,0.8635,-6.6,7.83,-0.05,27.4
4288,0.3345,-0.025,0.8668,-6.52,7.86,-0.03,27.43
4298,0.3353,-0.0221,0.8688,-6.6,7.85,-0.05,27.46
4308,0.3362,-0.0229,0.8647,-6.52,7.89,-0.06,27.43
4318,0.3348,-0.021,0.8646,-6.52,7.86,-0.11,27.43
4328,0.3362,-0.0215,0.8633,-6.6,7.92,0.02,27.41
4338,0.3336,-0.0223,0.8638,-6.52,7.91,-0.14,27.41
4348,0.3334,-0.0233,0.8639,-6.55,7.82,-0.08,27.44
4358,0.3335,-0.0212,0.8623,-6.55,7.97,-0.06,27.43
4368,0.3328,-0.0211,0.866,-6.6,7.94,0.02,27.42
4378,0.3324,-0.0211,0.8649,-6.56,7.83,-0.05,27.41
4388,0.3335,-0.0242,0.8667,-6.61,7.89,-0.02,27.44
4398,0.3358,-0.0237,0.8655,-6.61,7.92,0.0,27.42
4408,0.3345,-0.0226,0.8682,-6.56,7.88,-0.06,27.43
4418,0.3334,-0.0205,0.8638,-6.55,7.91,-0.05,27.42
4428,0.3312,-0.0228,0.8683,-6.61,7.91,-0.06,27.43
4438,0.3304,-0.0226,0.8688,-6.53,7.83,-0.08,27.41
4448,0.3329,-0.0198,0.866,-6.49,7.89,-0.08,27.44
4458,0.3339,-0.0226,0.8636,-6.56,7.85,-0.09,27.42
4468,0.3323,-0.0226,0.8654,-6.52,7.88,-0.06,27.42
4478,0.3348,-0.0234,0.8655,-6.63,7.83,-0.02,27.42
4488,0.3334,-0.0259,0.8652,-6.53,7.88,0.0,27.41
4498,0.3326,-0.0238,0.8647,-6.61,7.91,-0.02,27.44
4508,0.3336,-0.0219,0.8639,-6.55,7.92,0.02,27.42
4518,0.3312,-0.0233,0.8658,-6.56,7.83,-0.06,27.45
4528,0.3312,-0.0216,0.8623,-6.56,7.88,-0.06,27.44
4538,0.3329,-0.0269,0.8638,-6.61,7.85,-0.03,27.45
4548,0.3337,-0.0234,0.8636,-6.55,7.86,-0.08,27.44
4558,0.335,-0.0233,0.8633,-6.64,7.85,-0.05,27.44
4568,0.3313,-0.0205,0.8635,-6.56,7.92,0.02,27.4
4578,0.3348,-0.0195,0.8632,-6.64,7.86,-0.06,27.41
4588,0.3337,-0.0205,0.8646,-6.56,7.91,-0.06,27.41
4598,0.3328,-0.0222,0.8639,-6.58,7.91,0.02,27.43
4608,0.3334,-0.022,0.8639,-6.58,7.94,-0.03,27.42
4618,0.3324,-0.022,0.8621,-6.67,7.88,-0.03,27.42
4628,0.3336,-0.0205,0.8685,-6.6,7.91,-0.08,27.43
4638,0.3336,-0.0243,0.8674,-6.6,7.91,-0.03,27.44
4648,0.334,-0.0216,0.8647,-6.61,7.92,-0.02,27.45
4658,0.334,-0.022,0.8606,-6.61,7.85,0.02,27.43
4668,0.335,-0.0233,0.8645,-6.55,7.85,-0.02,27.44
4678,0.3345,-0.0249,0.8613,-6.58,7.91,-0.02,27.41
4688,0.3339,-0.0228,0.8662,-6.63,7.88,0.03,27.41
4698,0.3344,-0.021,0.8665,-6.58,7.85,0.08,27.42
4708,0.3337,-0.0245,0.8666,-6.56,7.89,-0.02,27.43
4718,0.3341,-0.0212,0.8658,-6.56,7.88,-0.03,27.42
4728,0.3317,-0.0219,0.868,-6.56,7.91,-0.06,27.42
4738,0.3335,-0.0228,0.8606,-6.63,7.94,-0.05,27.43
4748,0.3335,-0.0223,0.8678,-6.52,7.91,-0.06,27.42
4758,0.3323,-0.0228,0.8687,-6.47,7.91,-0.05,27.43
4768,0.3324,-0.0221,0.8624,-6.58,7.83,-0.12,27.42
4778,0.3348,-0.0233,0.8652,-6.56,7.91,-0.05,27.44
4788,0.3333,-0.0236,0.8643,-6.58,7.86,-0.06,27.43
4798,0.3345,-0.0216,0.8667,-6.6,7.92,-0.05,27.43
4808,0.3353,-0.0201,0.8663,-6.56,7.91,-0.05,27.42
4818,0.3368,-0.0258,0.8636,-6.56,7.8,-0.08,27.42
4828,0.3331,-0.0229,0.8628,-6.53,7.83,-0.08,27.44
4838,0.3346,-0.0251,0.8679,-6.46,7.85,-0.06,27.44
4848,0.3373,-0.0249,0.8649,-6.5,7.85,0.0,27.43
4858,0.3345,-0.0234,0.8649,-6.53,7.86,-0.08,27.44
4868,0.3313,-0.0236,0.868,-6.5,7.94,-0.12,27.42
4878,0.3348,-0.0222,0.8634,-6.47,7.92,0.02,27.45
4888,0.3344,-0.0222,0.8624,-6.53,7.89,-0.02,27.43
4898,0.3356,-0.0236,0.8601,-6.61,7.89,-0.08,27.42
4908,0.3323,-0.0221,0.8605,-6.61,7.83,-0.06,27.43
4918,0.3314,-0.0204,0.8622,-6.5,7.97,-0.08,27.44
4928,0.335,-0.025,0.863,-6.55,7.86,0.02,27.43
4938,0.3336,-0.0233,0.865,-6.64,7.89,-0.03,27.43
4948,0.3364,-0.0249,0.8667,-6.66,7.85,-0.08,27.42
4958,0.3341,-0.0243,0.8645,-6.55,7.86,-0.06,27.46
4968,0.3333,-0.0216,0.8634,-6.52,7.85,-0.12,27.44
4978,0.3344,-0.0226,0.8618,-6.61,7.88,-0.12,27.43
4988,0.3328,-0.021,0.8658,-6.56,7.86,0.0,27.45
4998,0.3351,-0.0214,0.8661,-6.6,7.86,0.0,27.43
5008,0.3313,-0.0237,0.8655,-6.67,7.89,-0.05,27.42
5018,0.3341,-0.024,0.8655,-6.49,7.94,-0.02,27.42
5028,0.3323,-0.0254,0.8634,-6.55,7.88,-0.05,27.44
5038,0.3352,-0.0243,0.8636,-6.47,7.86,-0.08,27.44
5048,0.3347,-0.0233,0.8698,-6.58,7.91,-0.08,27.43
5058,0.3339,-0.0197,0.865,-6.6,7.92,-0.03,27.44
5068,0.335,-0.0219,0.8627,-6.55,7.94,-0.02,27.44
5078,0.334,-0.0229,0.8613,-6.56,7.89,-0.02,27.42
5088,0.3329,-0.0232,0.8622,-6.47,7.86,0.0,27.46
5098,0.3345,-0.0223,0.8629,-6.58,7.86,-0.08,27.46
5108,0.3331,-0.0232,0.8676,-6.52,7.88,-0.09,27.45
5118,0.3335,-0.0233,0.8698,-6.55,7.89,-0.02,27.47
5128,0.3346,-0.0225,0.8632,-6.53,7.83,-0.02,27.44
5138,0.3317,-0.0222,0.866,-6.5,7.88,-0.06,27.46
5148,0.3287,-0.0238,0.8634,-6.58,7.92,-0.05,27.45
5158,0.3335,-0.0208,0.8634,-6.5,7.85,0.03,27.45
5168,0.3342,-0.0232,0.8667,-6.58,7.85,-0.03,27.44
5178,0.3346,-0.0223,0.8656,-6.53,7.94,0.02,27.42
5188,0.3347,-0.0248,0.8608,-6.53,7.85,-0.02,27.44
5198,0.3342,-0.0209,0.8684,-6.58,7.86,-0.05,27.44
5208,0.3317,-0.0215,0.8624,-6.52,7.86,-0.02,27.46
5218,0.3319,-0.0214,0.8663,-6.53,7.89,-0.05,27.45
5228,0.3347,-0.0253,0.865,-6.5,7.85,-0.05,27.44
5238,0.3317,-0.0244,0.8661,-6.49,7.94,-0.09,27.44
5248,0.3351,-0.0233,0.8665,-6.5,7.88,-0.09,27.45
5258,0.3374,-0.0251,0.8652,-6.66,7.88,-0.09,27.46
5268,0.3331,-0.0201,0.8618,-6.64,7.95,0.02,27.48
5278,0.3336,-0.0231,0.864,-6.49,7.85,-0.05,27.47
5288,0.3337,-0.0226,0.8645,-6.55,7.88,-0.03,27.47
5298,0.3354,-0.0267,0.8633,-6.55,7.88,-0.06,27.44
5308,0.3342,-0.0236,0.8677,-6.61,7.85,-0.03,27.44
5318,0.3342,-0.0245,0.865,-6.55,7.91,0.0,27.45
5328,0.3339,-0.0231,0.8641,-6.61,7.92,-0.03,27.45
5338,0.3325,-0.0244,0.864,-6.49,7.92,-0.02,27.45
5348,0.3331,-0.0245,0.866,-6.56,7.79,-0.02,27.44
5358,0.3337,-0.0221,0.8661,-6.56,7.82,0.0,27.46
5368,0.3347,-0.0231,0.8643,-6.55,7.88,0.05,27.44
5378,0.3312,-0.0228,0.8657,-6.44,7.95,-0.06,27.44
5388,0.3331,-0.0242,0.863,-6.6,7.92,-0.08,27.46
5398,0.3353,-0.0228,0.8663,-6.56,7.86,0.0,27.44
5408,0.3346,-0.0221,0.8658,-6.53,7.88,0.05,27.43
5418,0.3331,-0.02,0.8643,-6.58,7.8,-0.02,27.42
5428,0.3328,-0.0244,0.8651,-6.5,7.91,-0.08,27.46
5438,0.3339,-0.0215,0.8658,-6.56,7.86,-0.06,27.44
5448,0.3308,-0.0197,0.8639,-6.61,7.92,-0.02,27.44
5458,0.3342,-0.0231,0.8645,-6.55,7.85,-0.05,27.43
5468,0.3347,-0.0212,0.8597,-6.6,7.91,0.0,27.44
5478,0.3353,-0.026,0.863,-6.56,7.83,-0.03,27.44
5488,0.3348,-0.0232,0.8652,-6.5,7.89,-0.03,27.45
5498,0.3359,-0.022,0.8674,-6.6,7.82,-0.05,27.43
5508,0.3331,-0.0239,0.8636,-6.63,7.85,-0.09,27.46
5518,0.332,-0.0243,0.866,-6.49,7.94,-0.05,27.46
5528,0.3318,-0.0227,0.8652,-6.61,7.85,0.02,27.45
5538,0.3334,-0.0197,0.8666,-6.47,7.88,-0.06,27.45
5548,0.3328,-0.0232,0.8633,-6.56,7.82,-0.08,27.45
5558,0.3345,-0.0214,0.8622,-6.52,7.88,-0.06,27.45
5568,0.3315,-0.021,0.865,-6.53,7.94,-0.08,27.44
5578,0.335,-0.0229,0.8623,-6.58,7.85,-0.06,27.45
5588,0.3357,-0.021,0.8623,-6.56,7.91,-0.06,27.47
5598,0.3339,-0.0249,0.8643,-6.55,7.92,-0.05,27.45
5608,0.3325,-0.0264,0.8662,-6.56,7.95,-0.05,27.46
5618,0.332,-0.0243,0.8608,-6.67,7.85,-0.08,27.43
5628,0.3353,-0.0227,0.8646,-6.52,7.91,-0.11,27.44
5638,0.3324,-0.0204,0.8634,-6.55,7.88,-0.05,27.44
5648,0.3334,-0.0223,0.8687,-6.52,7.89,-0.02,27.47
5658,0.3329,-0.0231,0.8662,-6.56,7.92,-0.05,27.46
5668,0.3323,-0.0245,0.8634,-6.56,7.88,0.02,27.44
5678,0.3346,-0.0227,0.8645,-6.6,7.94,-0.02,27.46
5688,0.3322,-0.0248,0.8672,-6.53,7.89,0.02,27.44
5698,0.3358,-0.0225,0.8674,-6.61,7.92,0.0,27.44
5708,0.3328,-0.0231,0.8639,-6.6,7.98,-0.03,27.45
5718,0.3337,-0.021,0.8628,-6.56,7.83,-0.08,27.43
5728,0.3309,-0.0229,0.8656,-6.58,7.91,-0.05,27.45
5738,0.332,-0.0238,0.865,-6.58,7.88,-0.03,27.45
5748,0.3328,-0.0199,0.8643,-6.6,7.86,0.03,27.47
5758,0.3324,-0.0214,0.8687,-6.58,7.89,-0.06,27.45
5768,0.3346,-0.0248,0.8682,-6.55,7.89,-0.02,27.42
5778,0.3348,-0.0249,0.8636,-6.56,7.83,-0.02,27.45
5788,0.3361,-0.0214,0.8623,-6.53,7.94,-0.02,27.43
5798,0.3361,-0.0229,0.8643,-6.52,7.86,-0.03,27.47
5808,0.3335,-0.0214,0.8633,-6.55,7.83,-0.02,27.45
5818,0.3367,-0.0229,0.8625,-6.64,7.91,-0.06,27.45
5828,0.3357,-0.0211,0.8651,-6.53,7.89,-0.03,27.47
5838,0.3319,-0.0259,0.8663,-6.56,7.89,-0.03,27.44
5848,0.3328,-0.0212,0.8668,-6.58,7.83,-0.06,27.46
5858,0.333,-0.0229,0.8649,-6.52,7.91,0.05,27.44
5868,0.3341,-0.0225,0.8669,-6.56,7.83,-0.08,27.47
5878,0.3362,-0.0239,0.8633,-6.55,7.88,-0.06,27.47
5888,0.3354,-0.0243,0.8679,-6.63,7.95,0.0,27.44
5898,0.3351,-0.0234,0.8667,-6.63,7.88,-0.11,27.48
5908,0.3348,-0.0227,0.866,-6.58,7.92,0.0,27.44
5918,0.3323,-0.0209,0.8652,-6.52,7.88,-0.03,27.46
5928,0.3317,-0.0234,0.8644,-6.5,7.85,-0.03,27.45
5938,0.3333,-0.022,0.8627,-6.58,7.95,-0.12,27.45
5948,0.3345,-0.0249,0.8672,-6.58,7.88,0.02,27.45
5958,0.3344,-0.0237,0.8643,-6.53,7.89,-0.06,27.48
5968,0.3325,-0.0201,0.8622,-6.64,7.89,-0.02,27.44
5978,0.332,-0.0237,0.8635,-6.58,7.86,-0.08,27.46
5988,0.3337,-0.0248,0.8704,-6.53,7.89,0.02,27.45
5998,0.3351,-0.0238,0.8632,-6.6,7.91,0.03,27.44
6008,0.3342,-0.024,0.8628,-6.61,7.91,-0.09,27.45
6018,0.3351,-0.0238,0.8635,-6.58,7.89,-0.09,27.47
6028,0.3333,-0.0227,0.8622,-6.66,7.92,-0.03,27.47
6038,0.3346,-0.0227,0.8652,-6.53,7.92,-0.03,27.47
6048,0.3351,-0.0219,0.8638,-6.53,7.91,-0.03,27.47
6058,0.3367,-0.0226,0.8636,-6.58,7.91,0.02,27.46
6068,0.3323,-0.0198,0.8636,-6.61,7.92,-0.06,27.48
6078,0.3345,-0.024,0.8668,-6.52,7.89,-0.05,27.45
6088,0.3386,-0.0204,0.8666,-6.55,7.86,0.02,27.45
6098,0.3344,-0.0238,0.8655,-6.66,7.77,-0.02,27.47
6108,0.3319,-0.0221,0.8619,-6.61,7.95,0.03,27.47
6118,0.3315,-0.025,0.8624,-6.55,7.94,0.02,27.46
6128,0.3345,-0.0225,0.8634,-6.55,7.88,-0.03,27.48
6138,0.3309,-0.0249,0.8651,-6.47,7.98,-0.08,27.45
6148,0.3306,-0.0217,0.8629,-6.63,7.86,-0.03,27.44
6158,0.3329,-0.0243,0.8649,-6.61,7.8,-0.03,27.44
6168,0.335,-0.0244,0.8656,-6.6,7.83,0.03,27.44
6178,0.3345,-0.0228,0.8606,-6.63,7.95,-0.03,27.47
6188,0.3335,-0.0259,0.8633,-6.55,7.92,-0.08,27.47
6198,0.3322,-0.0221,0.8621,-6.56,7.86,-0.08,27.46
6208,0.3365,-0.0226,0.8599,-6.6,7.92,0.05,27.47
6218,0.3326,-0.0231,0.8636,-6.6,7.82,-0.12,27.46
6228,0.3347,-0.022,0.8572,-6.53,7.88,0.05,27.48
6238,0.3306,-0.021,0.8654,-6.53,7.86,-0.06,27.47
6248,0.3336,-0.0225,0.8658,-6.66,7.83,-0.05,27.47
6258,0.3333,-0.0233,0.8671,-6.61,7.88,-0.03,27.47
6268,0.3348,-0.0216,0.8649,-6.6,7.86,-0.05,27.5
6278,0.3328,-0.0214,0.8643,-6.56,7.88,-0.05,27.47
6288,0.3357,-0.0214,0.8647,-6.58,7.85,-0.03,27.49
6298,0.3322,-0.0217,0.8651,-6.58,7.89,-0.02,27.47
6308,0.3342,-0.0237,0.8621,-6.53,7.92,-0.11,27.47
6318,0.3354,-0.0214,0.8639,-6.55,7.83,-0.05,27.46
6328,0.3337,-0.0221,0.8677,-6.56,7.95,-0.11,27.46
6338,0.3341,-0.0238,0.8638,-6.53,7.92,-0.09,27.46
6348,0.3326,-0.0226,0.8661,-6.53,7.88,-0.09,27.47
6358,0.3313,-0.0253,0.8634,-6.49,7.89,-0.02,27.46
6368,0.3323,-0.024,0.8651,-6.55,7.92,-0.03,27.47
6378,0.3348,-0.0217,0.8661,-6.5,7.88,0.0,27.47
6388,0.333,-0.0243,0.8619,-6.63,7.88,-0.11,27.43
6398,0.334,-0.0231,0.8624,-6.53,7.88,-0.06,27.46
6408,0.3339,-0.0231,0.8607,-6.55,7.88,0.0,27.45
6418,0.3304,-0.0254,0.8639,-6.52,7.88,0.03,27.49
6428,0.3333,-0.0205,0.8677,-6.55,7.94,-0.03,27.48
6445,0.3383,-0.0227,0.8649,-6.52,7.77,-0.02,27.47
6455,0.3284,-0.0197,0.8654,-6.56,7.95,-0.03,27.46
6465,0.3345,-0.0226,0.8655,-6.58,7.91,-0.11,27.46
6475,0.3361,-0.0228,0.8632,-6.58,7.91,-0.09,27.48
6485,0.3345,-0.0244,0.8633,-6.55,7.88,-0.08,27.49
6495,0.333,-0.0227,0.8636,-6.6,7.88,-0.02,27.47
6505,0.3336,-0.021,0.8651,-6.56,7.88,-0.05,27.48
6515,0.3311,-0.0205,0.8636,-6.63,7.86,0.0,27.46
6525,0.3331,-0.0234,0.8618,-6.5,7.82,-0.05,27.47
6535,0.3347,-0.0242,0.8652,-6.58,7.89,-0.09,27.47
6545,0.3348,-0.0243,0.8668,-6.63,7.89,-0.11,27.47
6555,0.3354,-0.0205,0.8658,-6.49,7.85,-0.09,27.45
6565,0.3357,-0.0239,0.8647,-6.55,7.88,-0.06,27.49
6575,0.3331,-0.0232,0.8627,-6.46,7.89,-0.06,27.45
6585,0.3347,-0.0227,0.8611,-6.52,7.91,-0.14,27.47
6595,0.3381,-0.0201,0.8638,-6.56,7.94,0.0,27.47
6605,0.3342,-0.0233,0.869,-6.46,7.89,0.02,27.45
6615,0.335,-0.0208,0.8643,-6.5,7.95,-0.06,27.47
6625,0.3353,-0.0243,0.8652,-6.53,7.91,-0.06,27.45
6636,0.3354,-0.0231,0.8625,-6.6,7.92,0.03,27.46
6646,0.3317,-0.0222,0.8615,-6.55,7.91,-0.02,27.45
6656,0.3329,-0.0256,0.8633,-6.58,7.86,-0.05,27.46
6666,0.3341,-0.0229,0.8649,-6.55,7.85,0.02,27.46
6676,0.3333,-0.0236,0.8602,-6.53,7.89,-0.05,27.47
6686,0.334,-0.0259,0.8656,-6.61,7.94,0.03,27.46
6696,0.3322,-0.0236,0.8657,-6.61,7.88,-0.08,27.47
6706,0.3331,-0.021,0.8616,-6.6,7.94,-0.08,27.46
6716,0.3359,-0.022,0.8655,-6.56,7.94,-0.03,27.45
6726,0.3336,-0.0217,0.8669,-6.58,7.92,0.06,27.46
6736,0.3301,-0.0233,0.8643,-6.6,7.92,-0.02,27.47
6746,0.3358,-0.0262,0.8606,-6.52,7.94,-0.02,27.46
6756,0.3348,-0.022,0.8635,-6.6,7.95,0.0,27.47
6766,0.3344,-0.0206,0.8663,-6.58,7.85,-0.05,27.47
6776,0.3337,-0.0227,0.8641,-6.56,7.86,-0.02,27.47
6786,0.3329,-0.0242,0.8651,-6.63,7.97,-0.11,27.45
6796,0.3322,-0.0221,0.8647,-6.56,7.89,-0.05,27.47
6806,0.3329,-0.0188,0.8627,-6.52,7.94,-0.05,27.48
6816,0.3336,-0.0221,0.8656,-6.58,7.89,0.0,27.49
6826,0.3356,-0.0239,0.8633,-6.5,7.85,0.02,27.45
6836,0.3337,-0.0216,0.8665,-6.55,7.92,-0.05,27.48
6846,0.3356,-0.022,0.8678,-6.61,7.88,-0.09,27.47
6856,0.3311,-0.0243,0.8676,-6.61,7.92,-0.05,27.48
6866,0.337,-0.0222,0.8649,-6.63,7.86,0.0,27.49
6876,0.3326,-0.0225,0.8701,-6.69,7.86,-0.06,27.49
6886,0.3309,-0.0225,0.8652,-6.63,7.92,-0.09,27.49
6896,0.3342,-0.0221,0.8685,-6.6,7.91,0.0,27.47
6906,0.332,-0.0226,0.8669,-6.64,7.89,-0.02,27.48
6916,0.3314,-0.0236,0.8639,-6.5,7.91,0.06,27.49
6926,0.3326,-0.0226,0.8666,-6.6,7.95,0.0,27.46
6936,0.3357,-0.0222,0.8646,-6.61,7.82,-0.05,27.47
6946,0.3363,-0.0249,0.8635,-6.61,7.85,-0.03,27.47
6956,0.3361,-0.0216,0.865,-6.6,7.85,-0.05,27.48
6966,0.3351,-0.0228,0.8661,-6.56,7.85,-0.02,27.49
6976,0.3356,-0.0245,0.8634,-6.6,7.86,-0.03,27.46
6986,0.3317,-0.021,0.8654,-6.5,7.91,-0.12,27.45
6996,0.3337,-0.0206,0.865,-6.56,7.86,-0.03,27.49
7006,0.3361,-0.0243,0.8593,-6.53,7.88,-0.03,27.47
7016,0.3329,-0.0239,0.865,-6.63,7.86,-0.03,27.48
7026,0.332,-0.0222,0.8649,-6.53,7.85,0.0,27.45
7036,0.3341,-0.0222,0.865,-6.6,7.88,0.02,27.47
7046,0.3339,-0.0219,0.8633,-6.58,7.86,-0.09,27.5
7056,0.3345,-0.0236,0.8635,-6.58,7.85,-0.05,27.48
7066,0.3348,-0.0228,0.8613,-6.58,7.83,-0.06,27.49
7076,0.3331,-0.0238,0.8627,-6.6,7.91,-0.03,27.5
7086,0.3339,-0.0262,0.8662,-6.6,7.92,-0.08,27.47
7096,0.3331,-0.0225,0.8632,-6.61,7.92,-0.05,27.47
7106,0.3317,-0.0221,0.8621,-6.55,7.85,-0.03,27.49
7116,0.3334,-0.025,0.8606,-6.55,7.88,-0.03,27.46
7126,0.3339,-0.0216,0.8641,-6.52,7.89,-0.05,27.49
7136,0.3326,-0.0232,0.8647,-6.58,7.8,-0.03,27.48
7146,0.3351,-0.0238,0.865,-6.56,7.88,-0.12,27.48
7156,0.3345,-0.022,0.8613,-6.64,7.91,0.05,27.5
7166,0.3318,-0.0199,0.8669,-6.6,7.94,-0.06,27.5
7176,0.3324,-0.0237,0.8644,-6.56,7.82,-0.05,27.47
7186,0.3303,-0.0232,0.8639,-6.58,7.85,-0.02,27.49
7196,0.3351,-0.0239,0.8624,-6.55,7.89,-0.03,27.47
7206,0.3361,-0.0236,0.8654,-6.6,7.94,0.0,27.5
7216,0.3328,-0.0227,0.8689,-6.61,7.83,-0.03,27.5
7226,0.3354,-0.0208,0.8599,-6.5,7.88,0.03,27.51
7236,0.3364,-0.0245,0.8633,-6.55,7.83,-0.08,27.5
7246,0.333,-0.0234,0.8689,-6.6,7.8,-0.05,27.5
7256,0.3334,-0.0249,0.8665,-6.61,7.79,-0.05,27.49
7266,0.334,-0.0242,0.866,-6.56,7.89,-0.11,27.47
7276,0.3344,-0.0248,0.8619,-6.61,7.91,-0.08,27.49
7286,0.332,-0.0272,0.8683,-6.52,7.89,-0.11,27.48
7296,0.3325,-0.0233,0.8611,-6.55,7.89,-0.02,27.49
7306,0.3322,-0.0201,0.8644,-6.53,7.88,-0.05,27.49
7316,0.3315,-0.025,0.8624,-6.61,7.83,-0.02,27.48
7326,0.3337,-0.0251,0.8645,-6.56,7.85,-0.09,27.47
7336,0.3335,-0.0267,0.8617,-6.58,7.94,-0.05,27.5
7346,0.3312,-0.0216,0.8649,-6.55,7.86,-0.05,27.49
7357,0.3315,-0.0212,0.8667,-6.58,7.94,-0.08,27.49
7367,0.3298,-0.0231,0.8646,-6.64,7.92,-0.06,27.48
7377,0.3329,-0.0222,0.8621,-6.6,7.79,-0.06,27.49
7387,0.3344,-0.0229,0.8646,-6.6,7.86,-0.05,27.48
7397,0.3334,-0.0253,0.8623,-6.6,7.88,-0.08,27.51
7407,0.3319,-0.022,0.864,-6.52,7.82,-0.08,27.49
7417,0.3333,-0.0214,0.8629,-6.56,7.91,-0.08,27.49
7427,0.3331,-0.0223,0.8644,-6.58,7.95,-0.08,27.47
7437,0.3329,-0.0229,0.865,-6.58,7.89,-0.09,27.49
7447,0.3341,-0.0203,0.8618,-6.61,7.88,-0.08,27.5
7457,0.3325,-0.0247,0.8644,-6.61,7.89,-0.02,27.48
7467,0.3328,-0.0233,0.8645,-6.55,7.89,-0.03,27.49
7477,0.3333,-0.0221,0.8607,-6.56,7.88,-0.03,27.48
7487,0.3319,-0.0222,0.8666,-6.6,7.89,-0.12,27.49
7497,0.3341,-0.0197,0.8699,-6.53,7.86,-0.03,27.48
7507,0.3365,-0.0225,0.8634,-6.55,7.91,-0.08,27.48
7517,0.335,-0.0247,0.8663,-6.55,7.88,-0.02,27.48
7527,0.3307,-0.0214,0.8646,-6.61,7.88,-0.08,27.49
7537,0.3326,-0.0232,0.8635,-6.6,7.89,-0.05,27.5
7547,0.332,-0.0225,0.8633,-6.5,7.83,-0.08,27.51
7557,0.3324,-0.0244,0.8658,-6.58,7.92,-0.09,27.49
7567,0.3315,-0.0232,0.8669,-6.53,7.86,-0.03,27.49
7577,0.3297,-0.028,0.8667,-6.6,7.89,-0.05,27.5
7587,0.3333,-0.0251,0.8627,-6.56,7.86,-0.03,27.49
7597,0.3356,-0.0248,0.8639,-6.64,7.89,-0.06,27.48
7607,0.3342,-0.0226,0.8671,-6.55,7.88,-0.06,27.49
7617,0.3376,-0.0228,0.8666,-6.63,7.89,-0.05,27.49
7627,0.333,-0.024,0.8662,-6.66,7.91,0.0,27.5
7637,0.3335,-0.0231,0.8632,-6.66,7.85,-0.03,27.5
7647,0.3331,-0.0244,0.8658,-6.6,7.89,-0.06,27.49
7657,0.3348,-0.0232,0.8639,-6.64,7.91,0.02,27.48
7667,0.3312,-0.024,0.8618,-6.69,7.89,-0.09,27.49
7677,0.3339,-0.0229,0.8639,-6.52,7.91,-0.03,27.5
7687,0.3353,-0.0254,0.8622,-6.64,7.89,-0.05,27.5
7697,0.3358,-0.0219,0.8644,-6.63,7.89,0.0,27.49
7707,0.3346,-0.0219,0.8638,-6.55,7.92,0.02,27.5
7717,0.3341,-0.0192,0.8655,-6.58,7.91,-0.09,27.48
7727,0.3334,-0.0188,0.8685,-6.63,7.92,-0.06,27.49
7737,0.3335,-0.0236,0.8645,-6.56,7.91,-0.02,27.49
7747,0.3325,-0.0209,0.8658,-6.58,7.88,-0.08,27.47
7757,0.333,-0.0223,0.8662,-6.58,7.89,-0.06,27.47
7767,0.3346,-0.0215,0.8624,-6.55,7.98,-0.09,27.47
7777,0.3326,-0.0222,0.8629,-6.55,7.88,-0.06,27.49
7787,0.3329,-0.0204,0.8634,-6.53,7.85,0.0,27.46
7797,0.3345,-0.0226,0.8668,-6.53,7.89,-0.06,27.49
7807,0.3347,-0.0233,0.8671,-6.53,7.86,-0.05,27.48
7818,0.3313,-0.0247,0.8667,-6.63,7.88,-0.02,27.5
7828,0.334,-0.0222,0.8636,-6.55,7.88,0.0,27.5
7838,0.332,-0.0254,0.8647,-6.6,7.89,-0.08,27.48
7848,0.3323,-0.0243,0.8634,-6.6,7.91,0.02,27.46
7858,0.3336,-0.0258,0.8604,-6.56,7.85,-0.09,27.51
7869,0.3359,-0.0223,0.8652,-6.61,7.88,-0.09,27.49
7879,0.3368,-0.0225,0.8639,-6.58,7.91,-0.09,27.51
7889,0.3348,-0.0237,0.8627,-6.61,7.89,0.0,27.51
7899,0.3372,-0.0277,0.8658,-6.66,7.95,-0.05,27.5
7909,0.3352,-0.0248,0.8634,-6.6,7.97,-0.02,27.51
7919,0.3347,-0.0236,0.8633,-6.64,7.91,0.02,27.5
7929,0.334,-0.0222,0.8633,-6.52,7.88,-0.06,27.49
7939,0.3331,-0.0204,0.8656,-6.63,7.85,-0.08,27.51
7949,0.3306,-0.0239,0.8668,-6.56,7.86,-0.05,27.51
7959,0.3347,-0.0259,0.8654,-6.55,7.89,-0.11,27.49
7969,0.3319,-0.0228,0.8633,-6.58,7.86,-0.03,27.49
7979,0.3318,-0.0248,0.8674,-6.56,7.85,-0.05,27.49
7989,0.334,-0.026,0.8674,-6.58,7.91,0.03,27.47
7999,0.332,-0.0219,0.8661,-6.56,7.83,-0.03,27.49
8009,0.3359,-0.0214,0.8646,-6.63,7.85,-0.03,27.49
8019,0.332,-0.0206,0.8633,-6.6,7.85,-0.05,27.49
8029,0.3323,-0.0214,0.8643,-6.53,7.91,0.0,27.52
8039,0.3352,-0.0211,0.8667,-6.69,7.86,0.02,27.49
8049,0.3344,-0.0199,0.8632,-6.56,7.86,-0.09,27.52
8059,0.3337,-0.0248,0.8628,-6.58,7.91,-0.05,27.51
8069,0.3346,-0.0228,0.8658,-6.55,7.83,-0.06,27.49
8079,0.3339,-0.0227,0.8691,-6.61,7.79,-0.02,27.48
8089,0.3322,-0.022,0.8638,-6.67,7.89,-0.02,27.49
8099,0.3315,-0.0236,0.8624,-6.55,7.86,-0.08,27.5
8109,0.3314,-0.0238,0.8673,-6.55,7.89,-0.05,27.49
8119,0.3339,-0.0223,0.8684,-6.58,7.91,0.02,27.49
8129,0.335,-0.0258,0.8611,-6.58,7.92,-0.05,27.47
8139,0.3368,-0.0231,0.8595,-6.52,7.86,-0.09,27.51
8149,0.3314,-0.0223,0.8656,-6.56,7.83,-0.11,27.48
8159,0.335,-0.0239,0.8641,-6.55,7.88,0.06,27.49
8170,0.3324,-0.026,0.8636,-6.58,7.89,-0.08,27.51
8180,0.3306,-0.0251,0.8624,-6.56,7.88,-0.05,27.5
8190,0.3314,-0.0243,0.8668,-6.56,7.91,-0.08,27.48
8200,0.3357,-0.0227,0.8673,-6.53,7.85,-0.03,27.51
8210,0.3325,-0.0248,0.8633,-6.58,7.88,-0.08,27.51
8220,0.3315,-0.0242,0.87,-6.58,7.86,-0.08,27.47
8230,0.3324,-0.025,0.8635,-6.61,7.86,-0.09,27.47
8240,0.3347,-0.0249,0.8613,-6.66,7.83,-0.06,27.49
8250,0.3319,-0.0219,0.8655,-6.6,7.88,-0.03,27.5
8260,0.3304,-0.0244,0.8625,-6.58,7.98,-0.03,27.5
8270,0.3353,-0.0256,0.8611,-6.55,7.89,-0.02,27.48
8280,0.3339,-0.0234,0.8644,-6.52,7.83,0.02,27.52
8290,0.3325,-0.0253,0.8602,-6.6,7.82,0.02,27.51
8300,0.3345,-0.0231,0.8696,-6.64,7.86,-0.05,27.49
8310,0.3335,-0.0216,0.8649,-6.58,7.89,-0.09,27.49
8320,0.334,-0.0238,0.8674,-6.55,7.83,-0.02,27.51
8330,0.3357,-0.0254,0.8669,-6.5,7.88,-0.06,27.52
8340,0.335,-0.0225,0.8646,-6.49,7.91,-0.03,27.5
8350,0.3337,-0.0208,0.8693,-6.58,7.85,-0.06,27.48
8360,0.333,-0.0233,0.8671,-6.55,7.89,0.02,27.5
8370,0.3307,-0.0242,0.8662,-6.56,7.92,0.03,27.49
8380,0.3362,-0.0211,0.8661,-6.6,7.92,0.02,27.5
8390,0.337,-0.0245,0.8624,-6.52,7.91,-0.11,27.48
8400,0.3329,-0.0249,0.8687,-6.6,7.88,0.03,27.5
8410,0.3347,-0.0243,0.8652,-6.56,7.83,-0.02,27.49
8420,0.3356,-0.024,0.859,-6.58,7.89,-0.06,27.48
8430,0.334,-0.0227,0.8666,-6.58,7.89,-0.02,27.49
8440,0.3333,-0.0223,0.87,-6.61,8.02,-0.03,27.48
8450,0.3318,-0.0226,0.8677,-6.56,7.88,-0.09,27.5
8460,0.3334,-0.0233,0.8662,-6.53,7.91,-0.05,27.49
8470,0.3326,-0.019,0.8644,-6.56,7.88,0.0,27.51
8480,0.3315,-0.0249,0.8649,-6.66,7.91,-0.03,27.49
8490,0.3329,-0.0239,0.8655,-6.67,7.88,-0.05,27.5
8500,0.3342,-0.0231,0.8667,-6.64,7.91,-0.05,27.51
8510,0.3324,-0.024,0.8629,-6.58,7.82,-0.11,27.51
8520,0.3323,-0.0255,0.8649,-6.58,7.91,0.0,27.49
8530,0.3352,-0.0225,0.8691,-6.58,7.95,0.0,27.5
8540,0.3342,-0.0228,0.8658,-6.58,7.85,-0.05,27.53
8550,0.335,-0.0262,0.8667,-6.61,7.88,0.03,27.5
8560,0.3313,-0.0232,0.866,-6.56,7.8,0.0,27.5
8570,0.3362,-0.0215,0.8597,-6.6,7.85,-0.03,27.51
8580,0.3363,-0.0225,0.8641,-6.53,7.88,-0.08,27.52
8590,0.3348,-0.02,0.8693,-6.63,7.92,-0.05,27.49
8600,0.3334,-0.022,0.8646,-6.58,7.85,-0.08,27.52
8610,0.3312,-0.0201,0.8654,-6.5,7.85,-0.05,27.49
8620,0.3313,-0.0247,0.8638,-6.58,7.92,-0.05,27.5
8630,0.3306,-0.0237,0.8651,-6.6,7.85,-0.03,27.53
8640,0.3344,-0.022,0.8639,-6.56,7.77,-0.05,27.54
8650,0.3304,-0.0256,0.8629,-6.61,7.85,-0.08,27.47
8660,0.3296,-0.0192,0.8657,-6.47,7.86,-0.02,27.49
8670,0.3308,-0.0229,0.8624,-6.6,7.88,0.02,27.51
8680,0.3333,-0.0187,0.8627,-6.52,7.83,-0.08,27.49
8690,0.3361,-0.0233,0.868,-6.6,7.89,-0.03,27.5
8700,0.3347,-0.0244,0.8646,-6.53,7.82,-0.06,27.53
8710,0.3373,-0.0205,0.8621,-6.53,7.83,-0.06,27.52
8720,0.3365,-0.0254,0.8589,-6.61,7.85,-0.03,27.51
8730,0.3334,-0.0222,0.8647,-6.5,7.94,-0.05,27.52
8740,0.3356,-0.0205,0.8633,-6.5,7.89,0.0,27.53
8750,0.3314,-0.0234,0.8673,-6.56,7.91,0.02,27.52
8760,0.3309,-0.0233,0.8666,-6.6,7.89,-0.05,27.51
8770,0.333,-0.0248,0.8629,-6.56,7.97,-0.05,27.52
8780,0.3312,-0.0231,0.8611,-6.53,7.86,-0.09,27.51
8790,0.3309,-0.0238,0.8643,-6.56,7.8,-0.05,27.5
8800,0.3336,-0.0238,0.8654,-6.61,7.83,-0.08,27.5
8810,0.3323,-0.0244,0.8652,-6.55,7.92,-0.08,27.5
8820,0.3324,-0.0258,0.8645,-6.61,7.91,-0.12,27.5
8830,0.3381,-0.021,0.8655,-6.5,7.88,-0.02,27.51
8840,0.3359,-0.0223,0.8673,-6.63,7.91,-0.02,27.51
8850,0.3339,-0.0214,0.8651,-6.58,7.88,-0.06,27.52
8860,0.3342,-0.0178,0.8643,-6.63,7.79,-0.05,27.5
8870,0.3365,-0.0187,0.8644,-6.58,7.89,-0.06,27.53
8880,0.3326,-0.0245,0.8644,-6.56,7.91,-0.06,27.51
8890,0.3339,-0.0248,0.8646,-6.66,7.88,-0.05,27.52
8900,0.3323,-0.0237,0.8655,-6.6,7.85,-0.11,27.49
8910,0.3315,-0.0239,0.8623,-6.56,7.91,-0.06,27.51
8920,0.3293,-0.0248,0.8654,-6.5,7.88,0.03,27.52
8930,0.3347,-0.0259,0.8605,-6.6,7.85,-0.03,27.52
8940,0.3298,-0.022,0.8607,-6.63,7.91,-0.09,27.52
8950,0.3325,-0.022,0.8643,-6.53,7.92,-0.06,27.53
8960,0.3322,-0.0212,0.866,-6.53,7.82,-0.03,27.52
8970,0.3364,-0.0243,0.8661,-6.58,7.89,-0.09,27.53
8980,0.3351,-0.0228,0.8678,-6.58,7.82,-0.08,27.52
8990,0.3342,-0.0233,0.866,-6.55,7.92,-0.05,27.51
9000,0.3374,-0.0244,0.8679,-6.58,7.88,-0.11,27.5
9010,0.3341,-0.026,0.866,-6.56,7.92,0.02,27.49
9020,0.3312,-0.0238,0.8684,-6.53,7.91,-0.03,27.49
9030,0.334,-0.0247,0.864,-6.58,7.94,0.03,27.52
9040,0.3315,-0.0228,0.8607,-6.56,7.91,-0.03,27.51
9050,0.3313,-0.022,0.8647,-6.56,7.89,-0.05,27.5
9060,0.3315,-0.0236,0.8643,-6.52,7.91,-0.08,27.5
9070,0.3336,-0.0223,0.8643,-6.61,7.94,-0.02,27.51
9080,0.3337,-0.0245,0.8655,-6.61,7.86,0.0,27.52
9090,0.3359,-0.0221,0.8651,-6.52,7.94,-0.02,27.5
9100,0.3356,-0.0223,0.8646,-6.55,7.94,-0.03,27.48
9110,0.3372,-0.0249,0.8644,-6.55,7.88,-0.06,27.49
9120,0.333,-0.0217,0.8646,-6.43,7.8,0.0,27.53
9130,0.3329,-0.0217,0.8615,-6.53,7.85,-0.05,27.5
9140,0.3358,-0.0242,0.8627,-6.49,7.88,-0.08,27.48
9150,0.3361,-0.0226,0.8678,-6.6,7.95,-0.11,27.51
9160,0.3326,-0.0243,0.8641,-6.6,7.91,0.02,27.49
9170,0.3353,-0.0216,0.8649,-6.6,7.85,-0.02,27.5
9180,0.3317,-0.0203,0.8655,-6.46,7.92,-0.06,27.49
9190,0.3347,-0.0244,0.8667,-6.52,7.94,-0.11,27.52
9200,0.3313,-0.0226,0.8618,-6.6,7.94,-0.02,27.51
9210,0.3314,-0.0253,0.8628,-6.63,7.95,-0.05,27.51
9220,0.3315,-0.0232,0.8661,-6.6,7.98,-0.02,27.49
9230,0.3323,-0.022,0.8661,-6.64,7.88,-0.05,27.49
9240,0.3341,-0.0236,0.8635,-6.61,7.88,-0.06,27.5
9250,0.3329,-0.0234,0.8582,-6.55,7.88,-0.08,27.49
9260,0.3307,-0.0232,0.8594,-6.6,7.89,0.02,27.5
9270,0.3304,-0.0264,0.8665,-6.58,7.95,-0.02,27.52
9280,0.3335,-0.0222,0.866,-6.6,7.82,-0.08,27.49
9290,0.3339,-0.0227,0.8662,-6.46,7.82,-0.12,27.5
9300,0.3337,-0.0216,0.8622,-6.53,7.77,-0.11,27.52
9310,0.3346,-0.0215,0.8668,-6.52,7.82,-0.02,27.51
9320,0.335,-0.0214,0.8657,-6.6,7.89,-0.05,27.5
9330,0.3323,-0.0226,0.8643,-6.6,7.83,0.02,27.51
9340,0.3325,-0.022,0.8627,-6.56,7.91,-0.09,27.51
9350,0.3347,-0.0239,0.864,-6.63,7.97,-0.09,27.52
9360,0.332,-0.0225,0.8632,-6.66,7.98,-0.06,27.51
9370,0.3318,-0.0227,0.866,-6.69,7.88,0.03,27.5
9380,0.3326,-0.0231,0.863,-6.66,7.89,0.0,27.51
9390,0.3317,-0.022,0.8652,-6.53,7.88,-0.08,27.53
9400,0.3348,-0.0236,0.8632,-6.66,7.86,-0.05,27.5
9410,0.3313,-0.0259,0.8671,-6.66,7.83,-0.06,27.49
9420,0.3358,-0.0205,0.8649,-6.56,7.85,-0.09,27.51
9430,0.3323,-0.0212,0.8649,-6.58,7.91,-0.05,27.5
9440,0.3324,-0.0215,0.8661,-6.63,7.89,-0.06,27.5
9450,0.334,-0.0227,0.8643,-6.63,7.92,0.0,27.5
9460,0.3331,-0.0234,0.8643,-6.67,7.88,-0.02,27.47
9470,0.3374,-0.0243,0.8646,-6.67,7.86,-0.12,27.52
9480,0.3348,-0.0265,0.8667,-6.66,7.8,-0.05,27.52
9490,0.3331,-0.0227,0.865,-6.55,7.86,-0.03,27.51
9500,0.3324,-0.0234,0.8667,-6.58,7.94,0.02,27.52
9510,0.3325,-0.0214,0.8665,-6.61,7.88,0.02,27.5
9520,0.3336,-0.0236,0.8669,-6.52,7.91,-0.05,27.51
9530,0.3308,-0.0225,0.8671,-6.58,7.88,-0.05,27.53
9540,0.3335,-0.0239,0.8636,-6.56,7.86,-0.09,27.51
9550,0.3324,-0.0289,0.8661,-6.61,7.88,-0.03,27.52
9560,0.3348,-0.024,0.8672,-6.6,7.88,0.03,27.51
9570,0.3347,-0.0187,0.8655,-6.58,7.88,0.0,27.54
9580,0.3344,-0.0217,0.8673,-6.56,7.94,-0.08,27.52
9590,0.3368,-0.0234,0.8644,-6.53,7.83,0.03,27.51
9600,0.3372,-0.0243,0.8634,-6.5,7.8,-0.06,27.53
9610,0.3347,-0.0214,0.8625,-6.61,7.8,-0.08,27.51
9620,0.334,-0.0233,0.8665,-6.58,7.86,-0.02,27.53
9630,0.3339,-0.024,0.8641,-6.61,7.89,-0.02,27.51
9640,0.3284,-0.0236,0.8656,-6.58,7.89,-0.03,27.52
9650,0.3336,-0.0225,0.8674,-6.55,7.88,0.0,27.53
9660,0.3333,-0.0234,0.8634,-6.55,7.82,-0.03,27.54
9670,0.3372,-0.0239,0.8627,-6.6,7.91,-0.06,27.51
9680,0.3368,-0.0219,0.8672,-6.64,7.89,-0.09,27.51
9690,0.3363,-0.0219,0.8669,-6.56,7.88,-0.06,27.51
9700,0.3345,-0.0216,0.865,-6.52,7.89,-0.03,27.51
9710,0.3313,-0.0223,0.8652,-6.6,7.79,-0.03,27.51
9720,0.3354,-0.0226,0.8646,-6.56,7.85,-0.06,27.53
9730,0.3317,-0.0236,0.8635,-6.69,7.94,-0.03,27.49
9740,0.3317,-0.0238,0.8662,-6.58,7.91,0.05,27.5
9750,0.3301,-0.0245,0.8632,-6.6,7.94,-0.05,27.51
9760,0.3307,-0.0231,0.8704,-6.58,7.89,-0.06,27.54
9770,0.3324,-0.0216,0.8693,-6.53,7.91,-0.14,27.52
9780,0.3312,-0.0212,0.8645,-6.55,7.85,-0.08,27.52
9790,0.335,-0.0222,0.8634,-6.66,7.89,0.05,27.51
9800,0.334,-0.0228,0.8632,-6.64,7.88,-0.08,27.5
9810,0.3351,-0.0255,0.8669,-6.6,7.97,0.03,27.51
9820,0.335,-0.0226,0.8658,-6.53,7.91,0.02,27.51
9830,0.3326,-0.0237,0.8632,-6.61,7.88,-0.03,27.51
9840,0.335,-0.0234,0.8638,-6.56,7.89,-0.11,27.51
9850,0.3335,-0.025,0.8634,-6.55,7.92,-0.08,27.5
9860,0.3353,-0.0237,0.8651,-6.56,7.92,-0.06,27.53
9870,0.3346,-0.024,0.8638,-6.53,7.91,-0.08,27.52
9880,0.3339,-0.0239,0.8615,-6.64,7.89,0.02,27.52
9890,0.3317,-0.0233,0.8604,-6.56,7.86,-0.05,27.5
9900,0.3323,-0.0247,0.8639,-6.56,7.86,-0.06,27.52
9910,0.3323,-0.0231,0.8618,-6.56,7.88,-0.11,27.5
9920,0.3344,-0.024,0.8662,-6.52,7.86,-0.05,27.5
9930,0.3314,-0.0237,0.8666,-6.66,7.85,0.0,27.54
9940,0.3362,-0.0232,0.8662,-6.66,7.88,-0.05,27.5
9950,0.3356,-0.022,0.8665,-6.58,7.85,0.03,27.49
9960,0.3353,-0.0253,0.864,-6.56,7.89,-0.05,27.52
9970,0.3367,-0.0249,0.8663,-6.61,7.86,-0.08,27.53
9980,0.3328,-0.0209,0.865,-6.52,7.83,-0.03,27.49
9990,0.3344,-0.0199,0.8624,-6.5,7.88,-0.08,27.51
10000,0.3335,-0.0243,0.864,-6.58,7.88,-0.08,27.51
10010,0.3308,-0.0244,0.8636,-6.61,7.89,-0.05,27.52
10020,0.3346,-0.0215,0.8615,-6.52,7.82,-0.05,27.52
10030,0.3357,-0.0232,0.8652,-6.49,7.91,-0.02,27.54
10040,0.3334,-0.0229,0.8651,-6.66,7.94,-0.05,27.54
10050,0.3325,-0.0216,0.8623,-6.66,7.89,-0.02,27.52
10060,0.3353,-0.0239,0.8656,-6.66,7.91,-0.05,27.5
10070,0.3357,-0.0226,0.8654,-6.63,7.85,-0.03,27.52
10080,0.3345,-0.0221,0.8654,-6.52,7.98,-0.08,27.53
10090,0.3356,-0.0236,0.8677,-6.49,7.91,-0.02,27.52
10100,0.3325,-0.0244,0.8684,-6.61,7.85,-0.06,27.52
10110,0.3304,-0.0227,0.8649,-6.64,7.83,-0.12,27.51
10120,0.3313,-0.0225,0.8616,-6.58,7.83,-0.11,27.51
10130,0.332,-0.0225,0.8657,-6.64,7.97,0.0,27.51
10140,0.337,-0.0229,0.8666,-6.55,7.86,-0.02,27.52
10150,0.3334,-0.0226,0.866,-6.53,7.92,-0.08,27.5
10160,0.3322,-0.0266,0.8624,-6.64,7.92,-0.02,27.49
10170,0.3336,-0.0244,0.8661,-6.58,7.89,-0.05,27.54
10180,0.3329,-0.0195,0.8654,-6.6,7.91,-0.09,27.51
10190,0.3318,-0.0222,0.866,-6.56,7.85,-0.05,27.53
10200,0.3331,-0.0243,0.8695,-6.6,7.86,-0.08,27.5
10210,0.3353,-0.0233,0.8691,-6.63,7.86,-0.02,27.54
10220,0.3329,-0.0244,0.8688,-6.58,7.89,-0.05,27.54
10230,0.3314,-0.024,0.8671,-6.61,7.88,-0.06,27.52
10240,0.3342,-0.0228,0.8654,-6.61,7.85,-0.03,27.54
10250,0.3334,-0.0254,0.8617,-6.7,7.82,-0.09,27.52
10260,0.3315,-0.0272,0.8665,-6.66,7.85,-0.05,27.51
10270,0.3347,-0.0243,0.8644,-6.47,7.83,-0.05,27.52
10280,0.337,-0.0236,0.864,-6.61,7.79,0.0,27.52
10294,0.3351,-0.0227,0.8601,-6.52,7.91,-0.09,27.52
10304,0.3339,-0.0217,0.8667,-6.67,7.85,-0.08,27.51
10314,0.3344,-0.0219,0.8694,-6.55,7.89,0.0,27.5
10325,0.3331,-0.0247,0.865,-6.61,7.86,-0.03,27.55
10335,0.3334,-0.026,0.8679,-6.63,7.88,0.05,27.55
10345,0.3353,-0.024,0.8674,-6.64,7.79,0.03,27.54
10355,0.3346,-0.024,0.8669,-6.58,7.88,-0.11,27.53
10365,0.334,-0.021,0.8696,-6.52,7.98,-0.08,27.53
10375,0.3353,-0.0216,0.8674,-6.67,7.92,-0.03,27.53
10385,0.3333,-0.0237,0.861,-6.58,7.91,-0.03,27.52
10395,0.3326,-0.025,0.8661,-6.66,7.83,-0.11,27.54
10405,0.332,-0.0255,0.8608,-6.6,7.8,-0.12,27.54
10415,0.3326,-0.024,0.8669,-6.58,7.83,0.0,27.52
10425,0.3317,-0.0245,0.8638,-6.52,7.85,-0.03,27.52
10435,0.3318,-0.0236,0.8658,-6.63,7.89,0.0,27.53
10445,0.3333,-0.0226,0.8645,-6.55,7.88,0.03,27.54
10455,0.3356,-0.0198,0.8628,-6.63,7.88,0.0,27.53
10465,0.3348,-0.0239,0.8662,-6.61,7.91,-0.02,27.53
10475,0.3353,-0.0228,0.8608,-6.63,7.88,-0.02,27.53
10485,0.3368,-0.0247,0.8662,-6.58,7.86,-0.09,27.52
10495,0.3337,-0.028,0.8649,-6.61,7.94,0.0,27.55
10505,0.3319,-0.0242,0.8634,-6.58,7.94,0.02,27.53
10515,0.3334,-0.0248,0.8629,-6.58,7.85,0.0,27.52
10525,0.3351,-0.0212,0.8624,-6.61,7.88,-0.03,27.53
10535,0.3337,-0.0227,0.8656,-6.58,7.94,-0.02,27.52
10545,0.3325,-0.0226,0.8671,-6.58,7.8,-0.05,27.54
10555,0.3336,-0.0242,0.8638,-6.52,7.88,-0.05,27.53
10565,0.3308,-0.025,0.8615,-6.6,7.95,-0.06,27.52
10575,0.333,-0.0231,0.8651,-6.6,7.94,-0.05,27.55
10585,0.3359,-0.0219,0.8621,-6.58,7.83,-0.09,27.53
10595,0.3386,-0.0167,0.8652,-6.56,7.86,-0.05,27.55
10605,0.3358,-0.0217,0.8617,-6.56,7.91,-0.03,27.52
10615,0.3314,-0.0228,0.871,-6.67,7.94,0.03,27.53
10625,0.3394,-0.0129,0.8762,-6.53,7.76,-0.09,27.54
10635,0.3293,-0.0161,0.8615,-6.73,7.97,-0.03,27.54
10645,0.3246,-0.0333,0.8602,-6.61,8.09,-0.03,27.52
10655,0.3258,-0.0392,0.8669,-6.52,7.8,-0.05,27.53
10665,0.3326,-0.027,0.8698,-6.55,7.8,-0.06,27.54
10675,0.3384,-0.0233,0.8585,-6.52,7.8,0.05,27.52
10685,0.3429,-0.0292,0.8547,-6.47,7.65,-0.02,27.51
10695,0.3374,-0.0226,0.8734,-6.5,7.85,-0.09,27.54
10705,0.3362,-0.0096,0.8732,-6.52,7.97,-0.12,27.54
10715,0.3359,-0.0122,0.8615,-6.53,7.89,0.0,27.53
10725,0.337,-0.0291,0.8623,-6.56,7.91,-0.08,27.55
10735,0.3319,-0.0344,0.8568,-6.55,8.0,-0.14,27.53
10745,0.333,-0.0264,0.8577,-6.61,7.91,0.0,27.51
10755,0.3351,-0.0261,0.8582,-6.66,7.77,0.06,27.54
10765,0.333,-0.0304,0.864,-6.61,7.91,0.02,27.54
10775,0.3324,-0.0222,0.8698,-6.5,7.82,-0.08,27.54
10785,0.3352,-0.0123,0.8734,-6.6,7.91,0.02,27.5
10795,0.3314,-0.0167,0.869,-6.64,7.86,0.05,27.53
10805,0.3324,-0.025,0.8733,-6.52,7.89,-0.05,27.56
10815,0.3339,-0.021,0.864,-6.52,7.88,-0.05,27.54
10825,0.3314,-0.0215,0.8604,-6.55,7.88,-0.06,27.55
10835,0.3331,-0.0289,0.8579,-6.66,7.83,-0.06,27.52
10845,0.3325,-0.0331,0.8582,-6.61,7.82,0.05,27.53
10855,0.3369,-0.0254,0.861,-6.56,7.89,-0.12,27.53
10865,0.3361,-0.0199,0.8623,-6.56,7.82,0.06,27.54
10875,0.3379,-0.0229,0.8719,-6.64,7.86,0.06,27.55
10885,0.3383,-0.0231,0.8711,-6.6,7.91,-0.05,27.54
10895,0.3364,-0.0183,0.869,-6.52,7.88,-0.14,27.54
10905,0.3329,-0.0173,0.869,-6.61,7.85,-0.03,27.54
10915,0.3314,-0.0234,0.8654,-6.53,7.88,-0.08,27.55
10925,0.3326,-0.0262,0.8564,-6.64,7.89,-0.11,27.54
10935,0.3302,-0.027,0.8595,-6.56,7.82,-0.05,27.54
10945,0.3322,-0.0277,0.8568,-6.58,7.89,-0.03,27.53
10955,0.3319,-0.0245,0.8621,-6.55,7.88,-0.06,27.54
10965,0.3384,-0.0242,0.8644,-6.56,7.88,-0.08,27.52
10975,0.3365,-0.0188,0.8678,-6.56,7.8,-0.06,27.53
10985,0.3346,-0.014,0.8708,-6.55,7.91,-0.02,27.53
10995,0.337,-0.0176,0.8682,-6.64,7.94,-0.02,27.54
11005,0.3352,-0.0271,0.8627,-6.63,7.88,-0.05,27.56
11015,0.3351,-0.0251,0.8623,-6.56,7.89,-0.11,27.53
11026,0.335,-0.0233,0.8612,-6.61,7.88,-0.06,27.54
11036,0.333,-0.0245,0.8617,-6.58,7.88,0.03,27.56
11046,0.3311,-0.0253,0.8594,-6.53,7.88,0.05,27.53
11056,0.3315,-0.0211,0.8627,-6.5,7.88,-0.12,27.53
11066,0.3335,-0.0193,0.8689,-6.58,7.91,-0.05,27.54
11076,0.3337,-0.0203,0.8667,-6.61,7.89,-0.03,27.54
11086,0.3329,-0.0236,0.87,-6.6,7.82,-0.08,27.55
11096,0.3323,-0.0231,0.8677,-6.55,7.88,-0.08,27.54
11106,0.3367,-0.0206,0.8636,-6.66,7.83,-0.02,27.54
11116,0.3326,-0.0264,0.86,-6.55,7.89,-0.03,27.54
11126,0.3345,-0.0248,0.8635,-6.56,7.86,-0.11,27.55
11136,0.3354,-0.0215,0.8641,-6.56,7.85,0.03,27.54
11146,0.3341,-0.0234,0.8605,-6.58,7.88,0.02,27.52
11156,0.3319,-0.021,0.865,-6.52,7.88,-0.06,27.55
11166,0.3336,-0.0182,0.8687,-6.5,7.8,-0.05,27.53
11176,0.3359,-0.0233,0.8705,-6.56,7.85,0.02,27.5
11186,0.3322,-0.0248,0.8666,-6.66,7.92,-0.06,27.54
11196,0.3347,-0.025,0.8677,-6.6,7.88,-0.11,27.53
11206,0.3304,-0.024,0.8629,-6.6,7.85,-0.08,27.52
11216,0.3337,-0.0234,0.8618,-6.58,7.92,-0.02,27.52
11226,0.3346,-0.0236,0.8623,-6.53,7.82,-0.14,27.53
11236,0.3359,-0.0229,0.8589,-6.52,7.82,-0.05,27.54
11246,0.3322,-0.0226,0.8654,-6.61,7.86,-0.11,27.56
11256,0.333,-0.0204,0.868,-6.63,7.85,-0.03,27.55
11266,0.3352,-0.0204,0.8663,-6.61,7.88,-0.05,27.54
11276,0.3358,-0.0223,0.8668,-6.64,7.92,-0.05,27.57
11286,0.3344,-0.0261,0.869,-6.55,7.91,-0.09,27.56
11296,0.3333,-0.025,0.8625,-6.61,7.88,0.0,27.54
11306,0.3318,-0.024,0.86,-6.58,7.91,0.0,27.55
11316,0.3324,-0.0256,0.8639,-6.56,7.85,0.0,27.51
11326,0.3342,-0.0244,0.8677,-6.52,7.85,-0.03,27.55
11336,0.3339,-0.0229,0.8689,-6.58,7.94,-0.05,27.54
11346,0.3333,-0.0215,0.866,-6.6,7.91,-0.09,27.57
11356,0.3328,-0.0237,0.8656,-6.58,7.88,-0.17,27.57
11366,0.3315,-0.0234,0.8691,-6.56,7.86,-0.06,27.56
11376,0.3352,-0.0226,0.8656,-6.64,7.89,-0.02,27.55
11386,0.3328,-0.0232,0.8632,-6.52,7.85,-0.09,27.54
11396,0.3335,-0.0244,0.8615,-6.58,7.91,0.0,27.58
11406,0.3362,-0.0239,0.8666,-6.56,7.89,-0.05,27.55
11416,0.333,-0.0221,0.8656,-6.58,7.86,-0.15,27.54
11426,0.3312,-0.0214,0.8616,-6.6,7.86,-0.03,27.54
11436,0.334,-0.0216,0.865,-6.58,7.85,-0.06,27.53
11446,0.3306,-0.0221,0.8639,-6.61,7.85,-0.05,27.54
11456,0.3337,-0.0217,0.8668,-6.63,7.88,-0.08,27.55
11466,0.3328,-0.024,0.8679,-6.6,7.92,-0.05,27.54
11476,0.3341,-0.0225,0.8683,-6.6,7.97,0.02,27.5
11486,0.335,-0.0216,0.8667,-6.58,7.95,-0.06,27.54
11496,0.3339,-0.0232,0.8621,-6.49,7.95,-0.08,27.52
11506,0.334,-0.0215,0.8638,-6.56,7.89,-0.03,27.55
11516,0.3335,-0.0231,0.861,-6.53,7.82,-0.09,27.5
11526,0.3341,-0.0215,0.8665,-6.6,7.83,-0.06,27.53
11536,0.3347,-0.0216,0.8684,-6.67,7.83,-0.17,27.54
11546,0.3339,-0.0206,0.8646,-6.6,7.85,-0.08,27.58
11556,0.3317,-0.0238,0.8668,-6.53,7.86,-0.05,27.55
11566,0.3336,-0.0247,0.8641,-6.56,7.85,-0.06,27.55
11576,0.3331,-0.0265,0.8621,-6.6,7.85,-0.09,27.55
11586,0.3374,-0.0258,0.8628,-6.63,7.83,-0.05,27.55
11596,0.3314,-0.0229,0.8685,-6.55,7.86,-0.09,27.53
11606,0.3333,-0.0214,0.8682,-6.55,7.92,-0.02,27.52
11616,0.3317,-0.0203,0.8623,-6.58,7.92,-0.05,27.57
11626,0.3346,-0.0226,0.8665,-6.6,7.91,-0.05,27.53
11636,0.3308,-0.0232,0.8673,-6.6,7.92,-0.08,27.55
11646,0.3361,-0.0248,0.8641,-6.55,7.91,-0.05,27.54
11656,0.3342,-0.0234,0.8651,-6.61,7.85,-0.02,27.51
11666,0.3322,-0.0236,0.864,-6.63,7.91,-0.06,27.54
11676,0.3313,-0.0247,0.8651,-6.56,7.92,0.02,27.54
11686,0.3356,-0.0223,0.8641,-6.52,7.88,-0.06,27.53
11696,0.3287,-0.0228,0.8668,-6.53,7.88,0.02,27.53
11706,0.3313,-0.02,0.8643,-6.55,7.89,-0.05,27.52
11716,0.3344,-0.0225,0.8665,-6.55,7.85,-0.06,27.54
11726,0.333,-0.022,0.8633,-6.52,7.91,-0.17,27.54
11736,0.3324,-0.0232,0.8607,-6.6,7.83,-0.02,27.54
11746,0.3362,-0.0221,0.8702,-6.55,7.92,0.0,27.57
11756,0.3353,-0.0223,0.8682,-6.6,7.89,-0.06,27.54
11766,0.3348,-0.0216,0.8688,-6.58,7.94,-0.02,27.54
11776,0.3341,-0.0228,0.8651,-6.6,7.89,-0.03,27.52
11786,0.3356,-0.0233,0.8636,-6.6,7.92,-0.05,27.56
11796,0.3322,-0.0254,0.8644,-6.55,7.89,-0.05,27.55
11806,0.335,-0.0231,0.8596,-6.52,7.86,-0.08,27.55
11816,0.3353,-0.0243,0.8652,-6.56,7.88,-0.05,27.55
11826,0.334,-0.0236,0.8623,-6.49,7.92,-0.06,27.55
11836,0.3326,-0.0226,0.8647,-6.49,7.88,-0.08,27.55
11846,0.334,-0.0231,0.8645,-6.53,7.97,-0.05,27.56
11856,0.3342,-0.0221,0.8654,-6.56,7.97,0.05,27.52
11866,0.3359,-0.0226,0.8667,-6.64,7.94,-0.11,27.56
11876,0.337,-0.0206,0.865,-6.58,7.86,-0.08,27.55
11886,0.3319,-0.0203,0.8624,-6.52,7.85,-0.11,27.56
11896,0.3357,-0.0233,0.8674,-6.55,7.88,-0.06,27.53
11906,0.3363,-0.0253,0.8669,-6.58,7.86,-0.08,27.55
11916,0.334,-0.0206,0.866,-6.52,7.89,-0.03,27.53
11926,0.3296,-0.0231,0.8684,-6.6,7.88,-0.03,27.54
11936,0.3307,-0.025,0.865,-6.6,7.89,-0.02,27.54
11946,0.3361,-0.0222,0.8683,-6.63,7.91,-0.09,27.56
11956,0.3328,-0.0228,0.8694,-6.58,7.94,-0.03,27.54
11966,0.3328,-0.0242,0.8665,-6.52,7.95,0.03,27.55
11976,0.3361,-0.0227,0.8636,-6.6,7.92,-0.08,27.52
11986,0.333,-0.0243,0.8617,-6.55,7.89,-0.11,27.54
11996,0.3311,-0.0223,0.8605,-6.5,7.86,-0.09,27.54
12006,0.333,-0.0219,0.864,-6.55,7.95,-0.06,27.54
12016,0.3339,-0.0227,0.8624,-6.56,7.8,-0.02,27.55
12026,0.3314,-0.0223,0.8658,-6.58,7.89,-0.03,27.57
12036,0.3318,-0.0238,0.866,-6.6,7.83,-0.08,27.55
12046,0.3335,-0.0232,0.8633,-6.6,7.85,-0.02,27.54
12056,0.335,-0.0228,0.8655,-6.66,7.86,0.03,27.55
12066,0.3329,-0.0236,0.8628,-6.53,7.92,-0.02,27.57
12076,0.3345,-0.0254,0.8651,-6.53,7.91,-0.08,27.53
12086,0.3317,-0.0219,0.8654,-6.61,7.89,-0.08,27.57
12096,0.3326,-0.0228,0.8684,-6.5,7.88,-0.03,27.55
12106,0.3315,-0.0208,0.863,-6.61,7.88,-0.02,27.54
12116,0.3352,-0.0259,0.8634,-6.58,7.86,-0.03,27.54
12126,0.3353,-0.025,0.863,-6.55,7.88,-0.03,27.54
12136,0.3348,-0.0208,0.8658,-6.7,7.86,-0.06,27.54
12146,0.3341,-0.0228,0.865,-6.53,7.91,-0.02,27.54
12156,0.3348,-0.0258,0.8657,-6.6,7.86,-0.06,27.56
12166,0.3309,-0.0221,0.8634,-6.58,7.92,0.0,27.58
12176,0.3339,-0.0248,0.8635,-6.63,7.82,-0.06,27.55
12186,0.3318,-0.0217,0.8679,-6.58,7.86,-0.05,27.53
12196,0.3298,-0.0232,0.8669,-6.56,7.89,-0.06,27.54
12206,0.3361,-0.0237,0.8617,-6.58,7.92,0.0,27.57
12216,0.3348,-0.0229,0.861,-6.6,7.79,-0.11,27.55
12226,0.3348,-0.0256,0.8622,-6.58,7.88,-0.12,27.53
12236,0.335,-0.0239,0.8655,-6.52,7.92,-0.14,27.56
12246,0.3308,-0.0264,0.8651,-6.58,7.88,-0.09,27.57
12256,0.3329,-0.0243,0.8652,-6.6,7.86,-0.09,27.52
12266,0.3361,-0.0238,0.8668,-6.56,7.86,-0.08,27.55
12276,0.3359,-0.0228,0.8641,-6.53,8.0,0.0,27.54
12286,0.3342,-0.0244,0.8639,-6.49,7.91,-0.06,27.54
12296,0.3326,-0.0205,0.8624,-6.49,7.89,-0.12,27.54
12308,0.3334,-0.0237,0.8657,-6.64,7.8,0.0,27.58
12318,0.3308,-0.024,0.863,-6.47,7.89,-0.06,27.54
12328,0.3342,-0.0227,0.8634,-6.61,7.89,0.02,27.54
12338,0.3362,-0.0229,0.866,-6.61,7.88,-0.12,27.54
12348,0.3357,-0.0262,0.8628,-6.53,7.91,-0.09,27.58
12358,0.3329,-0.0236,0.8639,-6.69,7.91,0.0,27.54
12368,0.3315,-0.0238,0.8629,-6.6,7.86,0.02,27.56
12378,0.3325,-0.022,0.8599,-6.6,7.85,0.0,27.56
12388,0.3369,-0.0243,0.8632,-6.58,7.85,-0.03,27.57
12398,0.3337,-0.0251,0.8636,-6.55,7.95,-0.08,27.56
12408,0.3347,-0.0243,0.8639,-6.61,7.91,-0.08,27.57
12418,0.3314,-0.0197,0.8683,-6.53,7.88,-0.03,27.55
12428,0.3328,-0.0229,0.868,-6.53,7.91,-0.03,27.55
12438,0.3361,-0.0231,0.8657,-6.55,7.92,-0.03,27.54
12448,0.3365,-0.0239,0.8656,-6.49,7.88,-0.14,27.56
12458,0.3331,-0.0221,0.8639,-6.6,7.88,0.0,27.55
12468,0.3369,-0.0255,0.8707,-6.52,7.85,-0.14,27.54
12478,0.3337,-0.0243,0.8643,-6.63,7.86,-0.06,27.55
12488,0.3314,-0.0219,0.8617,-6.67,7.89,-0.08,27.53
12498,0.332,-0.0229,0.869,-6.56,7.89,0.02,27.52
12508,0.3341,-0.0232,0.8638,-6.67,7.89,0.0,27.56
12518,0.3358,-0.0226,0.8611,-6.63,7.88,-0.05,27.54
12528,0.334,-0.0227,0.8662,-6.6,7.85,-0.06,27.57
12538,0.3337,-0.0238,0.8662,-6.6,7.89,-0.05,27.54
12548,0.3331,-0.0258,0.8634,-6.6,7.89,0.02,27.56
12558,0.3308,-0.0232,0.8654,-6.53,7.92,-0.14,27.54
12568,0.334,-0.0216,0.861,-6.6,7.89,-0.08,27.53
12578,0.3333,-0.0228,0.8638,-6.44,7.8,-0.05,27.55
12588,0.3311,-0.021,0.8667,-6.58,7.95,0.05,27.57
12598,0.3357,-0.0226,0.8635,-6.55,7.86,-0.03,27.54
12608,0.333,-0.0229,0.8682,-6.61,7.82,-0.08,27.57
12618,0.3342,-0.0209,0.8634,-6.6,7.86,0.0,27.58
12628,0.3341,-0.0229,0.8638,-6.49,7.88,-0.06,27.56
12638,0.3362,-0.0245,0.8682,-6.56,7.83,0.0,27.58
12648,0.3329,-0.0231,0.8658,-6.61,7.86,-0.09,27.55
12659,0.3361,-0.0256,0.865,-6.63,7.91,-0.09,27.55
12669,0.3329,-0.0229,0.8624,-6.55,7.92,0.0,27.54
12679,0.3337,-0.0203,0.8621,-6.67,7.92,-0.03,27.52
12689,0.3326,-0.0219,0.8613,-6.64,7.83,0.02,27.53
12699,0.3347,-0.0237,0.8638,-6.61,7.94,-0.06,27.53
12709,0.335,-0.0225,0.8645,-6.6,7.89,-0.08,27.55
12719,0.3342,-0.0222,0.8658,-6.53,7.83,-0.05,27.55
12729,0.3344,-0.0219,0.8671,-6.61,7.91,-0.03,27.54
12739,0.3364,-0.0233,0.868,-6.52,7.86,0.03,27.55
12749,0.332,-0.0234,0.8662,-6.5,7.91,-0.03,27.56
12759,0.333,-0.0244,0.8682,-6.61,7.95,-0.03,27.54
12769,0.3311,-0.0229,0.8656,-6.58,7.95,-0.06,27.57
12779,0.3325,-0.0259,0.8652,-6.55,7.86,-0.09,27.56
12789,0.3303,-0.0245,0.8672,-6.55,7.89,-0.02,27.57
12799,0.3339,-0.0234,0.8641,-6.52,7.82,-0.11,27.56
12809,0.332,-0.0237,0.8651,-6.64,7.89,0.03,27.55
12819,0.333,-0.0212,0.864,-6.55,7.82,-0.03,27.55
12829,0.3367,-0.0212,0.8638,-6.61,7.83,0.0,27.55
12839,0.3318,-0.0215,0.8656,-6.61,7.94,-0.05,27.57
12849,0.3314,-0.0232,0.8639,-6.64,7.86,-0.02,27.55
12859,0.332,-0.022,0.8677,-6.56,7.89,-0.08,27.55
12869,0.333,-0.0212,0.8613,-6.6,7.86,-0.06,27.54
12879,0.333,-0.0223,0.8661,-6.55,7.88,-0.05,27.55
12889,0.3353,-0.0212,0.8645,-6.5,7.83,-0.14,27.55
12899,0.3317,-0.024,0.8634,-6.63,7.89,-0.05,27.57
12909,0.3341,-0.02,0.864,-6.58,7.88,0.03,27.55
12919,0.3354,-0.0229,0.8616,-6.56,7.92,0.05,27.55
12929,0.3306,-0.0211,0.8619,-6.56,7.91,-0.11,27.54
12939,0.3337,-0.0249,0.864,-6.53,7.88,-0.05,27.54
12949,0.3339,-0.0232,0.8636,-6.53,7.91,-0.09,27.55
12959,0.3351,-0.0232,0.865,-6.53,7.89,-0.06,27.55
12969,0.3344,-0.0238,0.8674,-6.56,7.89,0.0,27.54
12979,0.3351,-0.0236,0.866,-6.55,7.91,-0.05,27.55
12989,0.3339,-0.0236,0.8644,-6.58,7.89,0.0,27.55
12999,0.3337,-0.0232,0.8623,-6.56,7.86,-0.06,27.54
13009,0.335,-0.0234,0.8669,-6.52,7.86,0.0,27.57
13019,0.3351,-0.0264,0.8665,-6.53,7.88,0.02,27.54
13029,0.3353,-0.0223,0.8621,-6.46,7.92,-0.05,27.55
13039,0.3329,-0.0256,0.865,-6.58,7.85,-0.15,27.54
13050,0.3356,-0.0244,0.8672,-6.53,7.86,-0.08,27.54
13060,0.3352,-0.022,0.8678,-6.56,7.89,0.0,27.56
13070,0.3302,-0.0228,0.8647,-6.61,7.82,-0.08,27.54
13080,0.3347,-0.0229,0.869,-6.58,7.85,-0.02,27.58
13090,0.3335,-0.0211,0.8693,-6.56,7.85,-0.02,27.55
13100,0.3318,-0.0225,0.8628,-6.72,7.85,-0.05,27.56
13110,0.3325,-0.0225,0.8635,-6.56,7.89,-0.06,27.57
13120,0.332,-0.0228,0.864,-6.69,7.95,-0.03,27.56
13130,0.3328,-0.0211,0.8636,-6.61,7.92,-0.03,27.53
13140,0.3337,-0.0259,0.866,-6.56,7.85,0.0,27.55
13150,0.335,-0.0231,0.8691,-6.53,7.89,-0.08,27.55
13160,0.3352,-0.0211,0.8636,-6.63,7.94,-0.08,27.54
13170,0.333,-0.0194,0.8636,-6.53,7.91,0.0,27.57
13180,0.3341,-0.0217,0.863,-6.55,7.91,-0.11,27.56
13190,0.3336,-0.022,0.8638,-6.6,7.95,-0.03,27.57
13200,0.3333,-0.0239,0.8641,-6.56,7.88,0.03,27.56
13210,0.333,-0.0216,0.8666,-6.6,7.91,-0.02,27.57
13220,0.335,-0.0237,0.8669,-6.56,7.89,0.03,27.54
13230,0.3341,-0.0248,0.8634,-6.58,7.91,-0.06,27.56
13240,0.3328,-0.0198,0.865,-6.6,7.94,-0.09,27.55
13250,0.334,-0.0204,0.8645,-6.63,7.97,-0.05,27.55
13260,0.3328,-0.0242,0.8634,-6.56,7.89,-0.11,27.56
13270,0.334,-0.0255,0.8644,-6.5,7.94,-0.05,27.54
13280,0.3339,-0.0242,0.8654,-6.53,7.88,0.02,27.57
13290,0.3335,-0.0206,0.8624,-6.53,7.88,-0.03,27.59
13300,0.3304,-0.0244,0.8663,-6.63,7.88,-0.06,27.57
13310,0.3345,-0.0255,0.8635,-6.64,7.88,-0.02,27.57
13320,0.3347,-0.0239,0.8636,-6.6,7.83,-0.08,27.58
13330,0.3337,-0.0233,0.8651,-6.55,7.91,-0.03,27.59
13340,0.3325,-0.0216,0.8683,-6.58,7.88,-0.05,27.56
13350,0.3373,-0.0264,0.8622,-6.56,7.85,0.02,27.56
13360,0.3346,-0.0247,0.8616,-6.61,7.95,-0.06,27.58
13370,0.3336,-0.0225,0.8607,-6.6,7.92,-0.06,27.59
13380,0.3354,-0.0239,0.8651,-6.61,7.91,-0.08,27.57
13390,0.3328,-0.0248,0.8636,-6.6,7.89,-0.06,27.54
13400,0.3297,-0.0216,0.8644,-6.6,7.89,0.02,27.56
13410,0.3341,-0.0254,0.8668,-6.66,7.83,-0.06,27.59
13420,0.3326,-0.0229,0.8624,-6.61,7.86,-0.05,27.55
13430,0.3336,-0.0232,0.8654,-6.52,7.88,-0.05,27.55
13440,0.3348,-0.0234,0.8658,-6.55,7.86,0.03,27.57
13450,0.3319,-0.024,0.8684,-6.58,7.88,-0.03,27.55
13460,0.3353,-0.0238,0.8674,-6.56,7.92,-0.06,27.55
13470,0.335,-0.021,0.8655,-6.53,7.88,-0.03,27.54
13480,0.3324,-0.024,0.868,-6.56,7.91,-0.03,27.58
13490,0.3346,-0.0227,0.8628,-6.55,7.92,-0.15,27.59
13500,0.3357,-0.0227,0.8673,-6.56,7.94,-0.08,27.57
13510,0.3325,-0.021,0.8678,-6.5,7.89,0.03,27.57
13520,0.3337,-0.0239,0.8604,-6.53,7.82,0.02,27.56
13530,0.3339,-0.0221,0.8673,-6.55,7.88,-0.06,27.57
13540,0.335,-0.0209,0.8625,-6.53,7.86,-0.08,27.56
13550,0.3335,-0.0232,0.8647,-6.52,7.89,0.0,27.59
13560,0.3337,-0.0253,0.8641,-6.61,7.91,-0.06,27.57
13570,0.3344,-0.0251,0.8643,-6.55,7.89,-0.05,27.57
13580,0.3334,-0.0239,0.863,-6.53,7.85,0.05,27.57
13590,0.3347,-0.0228,0.8665,-6.55,7.89,0.03,27.54
13600,0.3335,-0.0222,0.865,-6.56,7.89,0.02,27.58
13610,0.3329,-0.0222,0.8679,-6.53,7.86,0.02,27.55
13620,0.3341,-0.0215,0.8656,-6.55,7.83,-0.09,27.57
13630,0.3324,-0.0226,0.8639,-6.52,7.88,-0.02,27.56
13640,0.3325,-0.0237,0.866,-6.6,7.88,-0.06,27.58
13650,0.3335,-0.0228,0.8677,-6.56,7.88,-0.12,27.61
13660,0.332,-0.0242,0.865,-6.5,7.89,-0.05,27.57
13670,0.3312,-0.0251,0.8654,-6.66,7.91,-0.05,27.58
13680,0.3365,-0.0231,0.8623,-6.58,7.83,-0.03,27.58
13690,0.3334,-0.0234,0.8654,-6.6,7.88,-0.14,27.58
13700,0.333,-0.0253,0.8655,-6.6,7.91,-0.09,27.59
13710,0.3331,-0.0212,0.863,-6.61,7.8,-0.03,27.59
13720,0.3353,-0.0236,0.8633,-6.63,7.92,0.0,27.57
13730,0.3336,-0.0219,0.8656,-6.61,7.86,-0.06,27.57
13740,0.3308,-0.0219,0.8663,-6.53,7.86,-0.03,27.56
13750,0.3334,-0.0214,0.8677,-6.6,7.91,-0.08,27.57
13760,0.3311,-0.0226,0.864,-6.53,7.88,0.03,27.56
13770,0.3323,-0.0225,0.8677,-6.6,7.92,-0.03,27.58
13780,0.3333,-0.0233,0.865,-6.63,7.8,-0.03,27.59
13790,0.3337,-0.0231,0.8673,-6.5,7.89,-0.06,27.56
13800,0.3322,-0.0225,0.8636,-6.63,7.88,-0.02,27.55
13810,0.3328,-0.0237,0.8633,-6.55,7.85,-0.11,27.57
13820,0.3334,-0.0223,0.8665,-6.5,7.92,-0.02,27.59
13830,0.3337,-0.0225,0.8665,-6.64,7.89,-0.02,27.58
13840,0.3311,-0.0242,0.8667,-6.53,7.91,-0.06,27.56
13850,0.3341,-0.0216,0.8632,-6.5,7.88,-0.09,27.56
13860,0.3333,-0.022,0.8654,-6.53,7.85,-0.05,27.56
13870,0.3318,-0.0239,0.8647,-6.52,7.88,-0.09,27.57
13880,0.3351,-0.0233,0.8635,-6.56,7.85,-0.03,27.55
13890,0.3351,-0.0222,0.8627,-6.6,7.91,-0.05,27.54
13900,0.3334,-0.0234,0.8676,-6.6,7.94,0.03,27.56
13910,0.3326,-0.0242,0.866,-6.61,7.89,0.02,27.57
13920,0.3347,-0.025,0.8667,-6.63,7.79,-0.05,27.57
13930,0.3325,-0.0249,0.8628,-6.63,7.85,-0.06,27.59
13940,0.3319,-0.0229,0.8673,-6.6,7.97,-0.02,27.57
13950,0.3334,-0.0223,0.8632,-6.61,7.91,-0.09,27.56
13960,0.3359,-0.0221,0.8668,-6.56,7.88,-0.05,27.57
13970,0.334,-0.0205,0.8726,-6.6,7.88,-0.03,27.56
13980,0.339,-0.0222,0.8644,-6.58,7.88,-0.05,27.57
13990,0.333,-0.022,0.8636,-6.58,7.88,-0.03,27.56
14000,0.3347,-0.0228,0.8647,-6.55,7.92,-0.02,27.58
14010,0.3324,-0.0245,0.8632,-6.56,7.82,-0.06,27.58
14020,0.3324,-0.0221,0.8647,-6.49,7.89,-0.03,27.59
14030,0.3314,-0.0205,0.8635,-6.53,7.85,-0.09,27.54
14040,0.3339,-0.022,0.8654,-6.44,7.83,0.02,27.57
14050,0.3337,-0.0214,0.8632,-6.6,7.85,-0.03,27.6
14060,0.3347,-0.022,0.8619,-6.58,7.92,-0.11,27.56
14070,0.3311,-0.0187,0.8656,-6.55,7.88,-0.08,27.56
14080,0.3342,-0.0206,0.8607,-6.58,7.8,-0.03,27.56
14090,0.3352,-0.0194,0.8617,-6.56,7.88,-0.06,27.56
14100,0.334,-0.0232,0.8665,-6.53,7.85,0.02,27.57
14110,0.3325,-0.0237,0.8654,-6.6,7.88,0.05,27.57
14120,0.3345,-0.0236,0.8658,-6.52,7.88,-0.03,27.57
14130,0.3347,-0.0238,0.8645,-6.49,7.85,-0.02,27.56
14140,0.3337,-0.0217,0.8645,-6.64,7.85,-0.03,27.54
14150,0.3347,-0.022,0.865,-6.55,7.85,0.0,27.56
14160,0.3329,-0.0227,0.8605,-6.55,7.85,-0.11,27.56
14170,0.3367,-0.0227,0.8625,-6.6,7.91,-0.06,27.57
14180,0.3329,-0.0232,0.8621,-6.61,7.85,0.0,27.57
14190,0.3348,-0.0253,0.8657,-6.53,7.92,-0.08,27.55
14200,0.3344,-0.0204,0.8654,-6.6,7.86,-0.06,27.57
14210,0.3353,-0.0225,0.8629,-6.58,7.86,-0.15,27.58
14220,0.3319,-0.0227,0.8634,-6.64,7.94,0.0,27.57
14230,0.3326,-0.0227,0.8687,-6.63,7.83,-0.11,27.56
14240,0.335,-0.024,0.8662,-6.63,7.91,-0.02,27.58
14250,0.3333,-0.0216,0.8716,-6.61,7.91,-0.02,27.57
14260,0.3359,-0.0248,0.8646,-6.6,7.86,-0.06,27.56
14270,0.3352,-0.0192,0.8639,-6.67,7.91,-0.03,27.58
14280,0.3345,-0.0229,0.8607,-6.61,7.88,0.0,27.59
14340,0.3341,-0.0265,0.8635,-6.55,7.85,-0.14,27.58
14350,0.3353,-0.0211,0.8644,-6.61,7.85,-0.06,27.57
14360,0.3363,-0.0223,0.8707,-6.61,7.88,-0.11,27.57
14370,0.3358,-0.0219,0.8636,-6.6,7.89,-0.12,27.56
14380,0.3324,-0.025,0.8622,-6.61,7.91,-0.08,27.56
14391,0.3313,-0.0258,0.8624,-6.58,7.89,0.0,27.58
14401,0.334,-0.021,0.8669,-6.61,7.88,-0.05,27.57
14411,0.3341,-0.025,0.8607,-6.64,7.92,-0.08,27.58
14421,0.3336,-0.0238,0.861,-6.5,7.83,-0.08,27.58
14431,0.3337,-0.0242,0.8643,-6.5,7.85,-0.05,27.57
14441,0.334,-0.0237,0.8635,-6.56,7.88,-0.06,27.57
14451,0.333,-0.0234,0.8646,-6.5,7.86,-0.05,27.56
14461,0.3358,-0.0244,0.8616,-6.55,7.86,-0.06,27.57
14472,0.3311,-0.0249,0.8689,-6.58,7.88,0.0,27.6
14482,0.3344,-0.0242,0.8667,-6.58,7.85,-0.05,27.6
14492,0.3331,-0.0216,0.8658,-6.52,7.82,-0.05,27.57
14502,0.3345,-0.0226,0.861,-6.61,7.95,-0.06,27.55
14512,0.3351,-0.0232,0.8624,-6.56,7.91,-0.08,27.56
14522,0.3329,-0.0228,0.861,-6.55,7.88,-0.09,27.6
14532,0.3322,-0.022,0.8645,-6.6,7.91,-0.02,27.58
14542,0.3392,-0.0238,0.8611,-6.56,7.88,-0.03,27.58
14552,0.3323,-0.0208,0.8633,-6.55,7.92,0.0,27.58
14562,0.3318,-0.0219,0.8657,-6.61,7.91,-0.06,27.57
14572,0.3328,-0.0223,0.8667,-6.6,7.88,0.02,27.62
14582,0.3318,-0.0225,0.8666,-6.6,7.92,-0.05,27.59
14592,0.3346,-0.0228,0.8667,-6.63,7.88,0.0,27.59
14602,0.3342,-0.0217,0.8677,-6.69,7.86,-0.03,27.59
14612,0.3328,-0.0239,0.8661,-6.56,7.86,-0.03,27.58
14622,0.3341,-0.024,0.8635,-6.55,7.89,0.0,27.57
14632,0.3319,-0.0214,0.8663,-6.6,7.89,-0.02,27.57
14642,0.3309,-0.025,0.8634,-6.66,7.89,-0.09,27.57
14652,0.3301,-0.0198,0.8627,-6.69,7.91,-0.03,27.59
14662,0.3344,-0.0205,0.8655,-6.61,7.91,-0.08,27.57
14672,0.3367,-0.0238,0.8644,-6.52,7.86,-0.05,27.59
14682,0.3319,-0.0221,0.8666,-6.6,7.91,-0.03,27.57
14692,0.3324,-0.0234,0.8672,-6.6,7.88,-0.08,27.56
14702,0.3314,-0.0247,0.8615,-6.63,7.89,-0.06,27.59
14712,0.329,-0.0204,0.8658,-6.55,7.91,-0.06,27.57
14722,0.335,-0.0248,0.8641,-6.56,7.88,-0.02,27.57
14732,0.3348,-0.0258,0.8621,-6.55,7.85,-0.02,27.57
14742,0.335,-0.0237,0.8632,-6.49,7.88,0.03,27.58
14752,0.334,-0.0208,0.8654,-6.56,7.88,-0.06,27.6
14762,0.3339,-0.0211,0.8688,-6.56,7.86,-0.08,27.56
14772,0.3328,-0.0244,0.8597,-6.6,7.89,-0.06,27.57
14782,0.3314,-0.0222,0.8636,-6.56,7.89,0.0,27.6
14792,0.337,-0.0237,0.8641,-6.64,7.83,0.05,27.59
14802,0.3342,-0.0229,0.8673,-6.64,7.88,-0.02,27.59
14812,0.3328,-0.0234,0.8634,-6.63,7.85,-0.05,27.57
14822,0.3358,-0.0221,0.8647,-6.61,7.86,-0.09,27.57
14832,0.3328,-0.0232,0.8635,-6.58,7.83,-0.09,27.57
14842,0.334,-0.0232,0.8634,-6.63,7.86,-0.08,27.54
14852,0.333,-0.0228,0.8668,-6.61,7.83,-0.05,27.55
14862,0.3326,-0.0244,0.8635,-6.55,7.92,-0.08,27.58
14872,0.3341,-0.0227,0.8601,-6.56,7.8,-0.05,27.57
14882,0.3326,-0.0231,0.8647,-6.6,7.88,-0.06,27.57
14892,0.3334,-0.022,0.864,-6.64,7.88,-0.09,27.59
14902,0.3334,-0.0233,0.8623,-6.63,7.94,-0.08,27.58
14912,0.335,-0.0229,0.8662,-6.56,7.88,0.02,27.57
14922,0.3372,-0.0227,0.8676,-6.53,7.88,0.02,27.58
14932,0.3344,-0.0236,0.8651,-6.61,7.85,-0.06,27.59
14942,0.3368,-0.0237,0.8679,-6.52,7.91,-0.03,27.59
14952,0.3357,-0.024,0.8667,-6.53,7.88,-0.08,27.58
14962,0.3347,-0.0243,0.8606,-6.58,7.88,0.02,27.55
14972,0.3357,-0.0225,0.8645,-6.61,7.91,-0.03,27.57
14982,0.3361,-0.0233,0.8671,-6.6,7.94,-0.03,27.58
14992,0.3345,-0.0192,0.8657,-6.6,7.95,-0.06,27.57
15002,0.3341,-0.0206,0.8656,-6.53,7.88,0.0,27.57
15012,0.3339,-0.0204,0.8669,-6.61,7.8,-0.09,27.56
15022,0.3331,-0.0253,0.8623,-6.52,7.85,0.03,27.57
15032,0.3354,-0.0254,0.864,-6.53,7.91,-0.03,27.58
15042,0.3348,-0.0214,0.8658,-6.5,7.85,-0.03,27.57
15052,0.335,-0.0264,0.8597,-6.56,7.89,0.0,27.59
15062,0.3331,-0.0216,0.866,-6.63,7.92,0.0,27.57
15072,0.3352,-0.0231,0.8606,-6.56,7.86,0.03,27.59
15082,0.3364,-0.021,0.8656,-6.56,7.88,-0.11,27.58
15092,0.3336,-0.0229,0.8627,-6.58,7.88,-0.02,27.57
15103,0.334,-0.0197,0.8679,-6.56,7.86,-0.09,27.55
15113,0.3331,-0.0233,0.8678,-6.64,7.86,0.06,27.56
15123,0.3329,-0.0211,0.8654,-6.55,7.89,0.03,27.56
15133,0.3336,-0.0219,0.869,-6.61,7.86,0.0,27.56
15143,0.3346,-0.0242,0.8633,-6.52,7.85,-0.02,27.57
15153,0.3322,-0.024,0.8644,-6.66,7.86,-0.06,27.57
15163,0.3325,-0.0254,0.8698,-6.56,7.95,-0.08,27.57
15173,0.3309,-0.0244,0.8662,-6.63,7.88,-0.05,27.58
15183,0.3347,-0.0231,0.8599,-6.61,7.89,-0.03,27.56
15193,0.3326,-0.0255,0.8663,-6.63,7.86,-0.05,27.59
15204,0.3353,-0.0258,0.8625,-6.6,7.91,-0.09,27.57
15214,0.3348,-0.022,0.8611,-6.56,7.89,-0.03,27.59
15224,0.3335,-0.0223,0.8632,-6.58,7.85,-0.09,27.56
15234,0.3325,-0.0256,0.8658,-6.52,7.88,-0.05,27.56
15244,0.3318,-0.0243,0.8672,-6.53,7.88,-0.08,27.57
15254,0.3351,-0.0225,0.8624,-6.46,7.85,0.0,27.56
15264,0.3325,-0.0237,0.8616,-6.58,7.88,-0.02,27.58
15274,0.3319,-0.0239,0.8652,-6.53,7.92,-0.09,27.57
15284,0.3298,-0.0269,0.8665,-6.6,7.92,-0.02,27.58
15294,0.3304,-0.024,0.8678,-6.55,7.86,0.0,27.58
15304,0.3359,-0.0232,0.8615,-6.56,7.89,-0.02,27.58
15314,0.3348,-0.0243,0.8655,-6.64,7.86,-0.08,27.57
15324,0.3351,-0.0221,0.861,-6.56,7.94,-0.03,27.58
15334,0.3337,-0.0233,0.8629,-6.49,7.88,-0.05,27.57
15344,0.3337,-0.0254,0.8641,-6.53,7.86,-0.08,27.58
15354,0.3348,-0.0245,0.8636,-6.6,7.86,-0.05,27.57
15364,0.3342,-0.0259,0.8602,-6.61,7.92,-0.03,27.59
15374,0.3361,-0.0242,0.8644,-6.53,7.92,-0.06,27.56
15384,0.3339,-0.0209,0.8639,-6.58,7.94,0.0,27.57
15394,0.3326,-0.0238,0.8667,-6.64,7.88,-0.09,27.57
15404,0.3328,-0.0243,0.8662,-6.52,7.88,-0.08,27.59
15414,0.333,-0.0258,0.8623,-6.63,7.91,-0.03,27.57
15424,0.3324,-0.0229,0.8663,-6.67,7.94,-0.05,27.56
15434,0.3365,-0.0244,0.8651,-6.55,7.85,-0.09,27.57
15444,0.3328,-0.0206,0.8625,-6.58,7.91,-0.08,27.55
15454,0.3354,-0.0234,0.8629,-6.56,7.91,-0.06,27.57
15464,0.3325,-0.0229,0.8667,-6.64,7.94,-0.05,27.57
15474,0.3341,-0.0238,0.8666,-6.52,7.91,0.0,27.57
15484,0.3354,-0.021,0.8673,-6.5,7.88,-0.05,27.56
15494,0.3319,-0.0245,0.8635,-6.56,7.88,-0.02,27.56
15504,0.3318,-0.0221,0.8639,-6.5,7.91,-0.02,27.59
15514,0.3328,-0.0242,0.8599,-6.55,7.82,-0.06,27.58
15524,0.3334,-0.0227,0.8656,-6.58,7.94,-0.03,27.57
15534,0.3346,-0.0242,0.8676,-6.52,7.94,-0.02,27.58
15544,0.3329,-0.0239,0.8613,-6.53,7.89,-0.05,27.57
15554,0.3341,-0.0233,0.8646,-6.56,7.83,-0.03,27.57
15564,0.3344,-0.0216,0.8652,-6.55,7.83,-0.08,27.57
15574,0.3356,-0.0201,0.8641,-6.63,7.89,0.0,27.57
15584,0.3325,-0.0222,0.8669,-6.61,7.88,-0.06,27.57
15594,0.3363,-0.0247,0.864,-6.56,7.89,-0.03,27.57
15604,0.3334,-0.021,0.8669,-6.52,7.89,-0.05,27.6
15614,0.3341,-0.0249,0.8677,-6.53,7.85,0.0,27.57
15624,0.3326,-0.0237,0.8669,-6.58,7.91,0.0,27.58
15634,0.3312,-0.021,0.8662,-6.6,7.89,-0.03,27.58
15644,0.3308,-0.0234,0.8662,-6.58,7.92,-0.08,27.57
15654,0.3336,-0.0237,0.8638,-6.6,7.89,-0.03,27.58
15664,0.3345,-0.0233,0.8652,-6.52,7.86,0.06,27.58
15674,0.3322,-0.0255,0.8634,-6.66,7.86,-0.02,27.58
15684,0.334,-0.0227,0.8658,-6.63,7.92,-0.08,27.56
15694,0.3328,-0.022,0.8624,-6.63,7.89,-0.08,27.56
15704,0.3342,-0.0237,0.8623,-6.6,7.91,-0.05,27.58
15714,0.3341,-0.0226,0.864,-6.56,7.91,-0.05,27.58
15724,0.3311,-0.0242,0.8641,-6.58,7.83,-0.06,27.57
15734,0.3344,-0.0232,0.8663,-6.61,7.91,-0.12,27.59
15744,0.3346,-0.0239,0.8689,-6.69,7.88,-0.03,27.58
15754,0.3361,-0.0226,0.8649,-6.63,7.83,0.0,27.58
15764,0.334,-0.0206,0.8644,-6.53,7.85,-0.06,27.58
15774,0.3367,-0.0217,0.8634,-6.63,7.88,-0.03,27.59
15784,0.3339,-0.0264,0.8643,-6.53,7.82,0.02,27.57
15794,0.3315,-0.0222,0.8639,-6.66,7.89,-0.08,27.59
15804,0.3339,-0.0243,0.8667,-6.6,7.86,-0.02,27.57
15814,0.3339,-0.0219,0.8667,-6.63,7.95,-0.08,27.58
15824,0.3351,-0.0211,0.8625,-6.61,7.92,-0.05,27.58
15834,0.333,-0.0244,0.8641,-6.58,7.91,-0.06,27.59
15844,0.3378,-0.0242,0.8658,-6.61,7.86,0.0,27.58
15854,0.3304,-0.0262,0.8672,-6.52,7.8,-0.11,27.59
15864,0.3359,-0.0226,0.8647,-6.5,7.83,-0.09,27.59
15874,0.3342,-0.0205,0.8636,-6.6,7.86,-0.03,27.6
15884,0.3342,-0.025,0.8627,-6.52,7.92,-0.03,27.6
15894,0.3335,-0.0217,0.8652,-6.55,7.92,0.03,27.57
15904,0.334,-0.0238,0.8657,-6.56,7.88,-0.03,27.58
15914,0.3324,-0.0229,0.8623,-6.6,7.91,-0.06,27.57
15924,0.3337,-0.0223,0.8671,-6.6,7.85,-0.08,27.57
15934,0.3348,-0.0233,0.8656,-6.63,7.88,-0.06,27.56
15944,0.3322,-0.0215,0.8673,-6.61,7.97,-0.14,27.59
15954,0.3333,-0.0216,0.866,-6.55,7.88,-0.06,27.59
15964,0.3357,-0.0214,0.8645,-6.6,7.89,0.02,27.59
15974,0.3345,-0.0203,0.8669,-6.52,7.88,-0.08,27.58
15984,0.3328,-0.0269,0.8643,-6.55,7.83,-0.02,27.58
15994,0.3311,-0.0233,0.8679,-6.6,7.86,0.0,27.56
16004,0.3334,-0.0234,0.8652,-6.64,7.89,0.03,27.57
16014,0.3333,-0.0242,0.8661,-6.67,7.86,-0.06,27.57
16024,0.333,-0.0238,0.8649,-6.64,7.88,-0.03,27.59
16034,0.3325,-0.022,0.866,-6.58,7.91,-0.05,27.57
16044,0.3317,-0.0231,0.8666,-6.58,7.85,-0.05,27.57
16054,0.3324,-0.0226,0.8693,-6.61,7.94,-0.09,27.58
16064,0.3324,-0.0234,0.8646,-6.63,7.86,-0.03,27.59
16074,0.3339,-0.0244,0.8647,-6.53,7.89,0.02,27.59
16084,0.3318,-0.0249,0.863,-6.66,7.86,-0.02,27.6
16094,0.3325,-0.0219,0.864,-6.58,7.89,-0.05,27.57
16104,0.3339,-0.0217,0.8643,-6.6,7.91,-0.09,27.57
16114,0.3323,-0.0219,0.866,-6.7,7.88,-0.03,27.59
16124,0.3347,-0.0217,0.8676,-6.52,7.91,-0.09,27.6
16134,0.3372,-0.025,0.8663,-6.56,7.88,-0.02,27.59
16144,0.3326,-0.0244,0.8645,-6.64,7.85,-0.06,27.58
16154,0.335,-0.0216,0.8613,-6.52,7.85,-0.03,27.58
16164,0.3336,-0.0253,0.8632,-6.66,7.89,-0.18,27.6
16174,0.334,-0.0227,0.865,-6.52,7.86,-0.14,27.59
16184,0.3345,-0.0243,0.8649,-6.55,7.82,-0.12,27.59
16194,0.3329,-0.0229,0.8673,-6.5,7.92,-0.08,27.59
16204,0.3341,-0.0204,0.8658,-6.61,7.92,-0.03,27.57
16214,0.3339,-0.0243,0.8663,-6.58,7.88,-0.02,27.59
16225,0.3348,-0.0247,0.8668,-6.64,7.86,0.0,27.59
16236,0.3322,-0.021,0.8655,-6.66,7.86,-0.06,27.61
16246,0.3346,-0.024,0.8639,-6.66,7.88,-0.05,27.57
16256,0.3314,-0.0212,0.8627,-6.61,7.89,-0.05,27.58
16266,0.3342,-0.0204,0.8656,-6.6,7.91,-0.03,27.59
16276,0.3336,-0.0225,0.8618,-6.6,7.91,-0.03,27.6
16286,0.334,-0.0245,0.8671,-6.63,7.94,-0.03,27.59
16296,0.334,-0.0238,0.8651,-6.53,7.92,-0.05,27.61
16306,0.3335,-0.0203,0.8629,-6.61,7.91,-0.03,27.58
16316,0.3309,-0.0219,0.8658,-6.6,7.89,-0.03,27.59
16326,0.332,-0.0217,0.8583,-6.64,7.92,-0.03,27.62
16336,0.3356,-0.0239,0.864,-6.6,7.94,-0.05,27.59
16346,0.3328,-0.0222,0.8666,-6.64,7.82,-0.02,27.59
16356,0.3335,-0.021,0.8641,-6.64,7.85,-0.09,27.6
16366,0.335,-0.024,0.8652,-6.6,7.91,-0.05,27.58
16376,0.3325,-0.0243,0.8678,-6.56,7.91,-0.02,27.59
16386,0.3298,-0.0242,0.866,-6.53,7.92,-0.09,27.61
16396,0.3339,-0.0215,0.8676,-6.64,7.89,-0.06,27.6
16406,0.332,-0.0212,0.8677,-6.53,7.89,-0.03,27.58
16416,0.3342,-0.0238,0.8632,-6.52,7.88,0.02,27.59
16426,0.3329,-0.0234,0.8649,-6.6,7.89,-0.05,27.59
16436,0.3331,-0.0208,0.8644,-6.58,7.85,-0.05,27.6
16446,0.3341,-0.0253,0.8629,-6.6,7.91,-0.08,27.59
16456,0.3313,-0.0242,0.8647,-6.6,7.91,0.0,27.59
16466,0.3356,-0.0239,0.8643,-6.53,7.89,-0.02,27.58
16476,0.3333,-0.0236,0.8619,-6.58,7.82,-0.05,27.6
16486,0.3358,-0.0254,0.8644,-6.53,7.85,-0.05,27.59
16496,0.3325,-0.0223,0.861,-6.61,7.91,-0.12,27.6
16506,0.3331,-0.0234,0.8644,-6.52,7.86,0.0,27.57
16516,0.3308,-0.0219,0.865,-6.61,7.89,-0.05,27.6
16526,0.3373,-0.0232,0.8646,-6.56,7.89,-0.02,27.57
16536,0.3345,-0.024,0.8644,-6.61,7.83,-0.08,27.6
16546,0.3363,-0.0242,0.8651,-6.61,7.91,-0.09,27.6
16556,0.3357,-0.0216,0.8656,-6.63,7.88,-0.05,27.6
16566,0.3344,-0.0221,0.8641,-6.64,7.89,-0.09,27.6
16576,0.3306,-0.0219,0.864,-6.58,7.88,-0.02,27.56
16586,0.3337,-0.0243,0.8663,-6.55,7.83,-0.05,27.6
16596,0.3333,-0.0253,0.8645,-6.61,7.85,-0.05,27.59
16606,0.3348,-0.0211,0.8643,-6.58,7.86,0.0,27.61
16616,0.3341,-0.0226,0.8667,-6.55,7.89,-0.08,27.58
16626,0.3322,-0.0234,0.864,-6.56,7.89,-0.11,27.59
16636,0.3329,-0.0238,0.8701,-6.6,7.89,-0.06,27.6
16646,0.334,-0.0238,0.8629,-6.55,7.88,-0.02,27.57
16656,0.3397,-0.0212,0.8651,-6.56,7.88,0.05,27.61
16666,0.3324,-0.0209,0.8665,-6.61,7.89,-0.02,27.57
16676,0.3325,-0.0229,0.8684,-6.52,7.89,-0.05,27.59
16686,0.3312,-0.0232,0.8672,-6.5,7.88,0.02,27.59
16696,0.3315,-0.024,0.8651,-6.58,7.85,-0.02,27.61
16706,0.3291,-0.0222,0.8684,-6.56,7.91,0.05,27.58
16716,0.3364,-0.0231,0.86,-6.55,8.0,0.02,27.59
16726,0.3315,-0.0264,0.8746,-6.44,7.91,-0.03,27.59
16736,0.3325,-0.0232,0.8665,-6.63,7.83,-0.02,27.59
16746,0.3347,-0.0255,0.8586,-6.53,7.94,-0.02,27.6
16756,0.3339,-0.0259,0.8652,-6.56,7.89,0.03,27.61
16766,0.334,-0.0239,0.8683,-6.53,7.83,-0.05,27.58
16776,0.3306,-0.0242,0.8647,-6.58,7.94,-0.06,27.58
16786,0.3323,-0.0258,0.8666,-6.63,7.97,-0.05,27.62
16796,0.3357,-0.0183,0.8646,-6.56,7.8,-0.03,27.62
16806,0.3313,-0.0231,0.8613,-6.64,7.95,-0.03,27.61
16816,0.3342,-0.0244,0.8643,-6.58,7.95,0.0,27.61
16826,0.3325,-0.0234,0.864,-6.58,7.89,0.03,27.57
16836,0.334,-0.0243,0.8693,-6.64,7.91,-0.05,27.6
16846,0.3354,-0.0231,0.8638,-6.58,7.86,-0.05,27.6
16856,0.3328,-0.0211,0.8682,-6.58,7.85,-0.03,27.62
16866,0.3364,-0.0211,0.8663,-6.63,7.95,-0.05,27.58
16876,0.3329,-0.0242,0.8657,-6.53,7.89,0.02,27.6
16886,0.3333,-0.0238,0.859,-6.63,7.83,-0.02,27.59
16896,0.3318,-0.0244,0.8616,-6.63,7.91,0.03,27.6
16906,0.3341,-0.0242,0.8644,-6.66,7.82,-0.05,27.61
16916,0.3334,-0.0216,0.8668,-6.61,7.92,-0.03,27.62
16926,0.3324,-0.0229,0.8655,-6.69,7.98,-0.05,27.6
16936,0.3331,-0.0244,0.8687,-6.56,7.89,-0.06,27.6
16946,0.334,-0.0209,0.864,-6.56,7.86,-0.02,27.61
16956,0.335,-0.0233,0.8661,-6.52,7.88,-0.03,27.58
16966,0.3353,-0.0223,0.8638,-6.56,7.83,-0.02,27.59
16976,0.334,-0.0232,0.8612,-6.6,7.91,-0.11,27.6
16986,0.3322,-0.0249,0.8613,-6.56,7.88,0.0,27.62
16996,0.3319,-0.0234,0.8643,-6.52,7.89,-0.11,27.59
17006,0.3326,-0.0225,0.8671,-6.56,7.86,-0.08,27.59
17016,0.3335,-0.0229,0.8668,-6.55,7.89,-0.05,27.58
17026,0.334,-0.0212,0.8643,-6.6,7.91,-0.05,27.6
17036,0.3365,-0.0222,0.865,-6.61,7.85,-0.02,27.61
17046,0.3346,-0.0219,0.8647,-6.6,7.85,-0.05,27.61
17056,0.3325,-0.0245,0.8645,-6.5,7.8,0.0,27.6
17066,0.3347,-0.024,0.8666,-6.53,7.91,0.02,27.59
17076,0.3324,-0.019,0.8657,-6.52,7.91,0.02,27.6
17086,0.3318,-0.0226,0.8662,-6.56,7.88,-0.08,27.57
17096,0.3304,-0.0205,0.8646,-6.56,7.88,-0.14,27.62
17106,0.3363,-0.0204,0.8638,-6.56,7.89,-0.09,27.58
17116,0.3354,-0.0234,0.8682,-6.6,7.85,-0.02,27.62
17126,0.3329,-0.0229,0.866,-6.5,7.86,0.02,27.57
17136,0.3344,-0.0226,0.8643,-6.44,7.88,-0.11,27.6
17146,0.3341,-0.0238,0.8584,-6.52,7.86,-0.03,27.61
17156,0.3337,-0.0253,0.8628,-6.61,7.89,-0.05,27.59
17166,0.3314,-0.0221,0.8623,-6.69,7.83,-0.02,27.6
17176,0.3314,-0.0228,0.8651,-6.61,7.89,-0.06,27.58
17186,0.3334,-0.0244,0.8636,-6.61,7.89,-0.03,27.59
17196,0.3354,-0.0205,0.8638,-6.64,7.92,-0.02,27.57
17206,0.3317,-0.0217,0.8651,-6.6,7.91,0.0,27.59
17216,0.3362,-0.0242,0.8682,-6.56,7.88,-0.03,27.57
17226,0.3329,-0.0236,0.8607,-6.53,7.86,-0.03,27.57
17236,0.3314,-0.022,0.8658,-6.58,7.91,-0.02,27.59
17246,0.3334,-0.0236,0.8655,-6.64,7.95,-0.11,27.59
17256,0.3361,-0.0203,0.8671,-6.55,7.85,-0.09,27.57
17266,0.3356,-0.0208,0.8657,-6.6,7.85,-0.11,27.6
17276,0.3345,-0.0219,0.8641,-6.49,7.86,-0.03,27.58
17286,0.3347,-0.0227,0.8667,-6.58,7.97,-0.09,27.62
17296,0.3357,-0.0212,0.8645,-6.53,7.91,-0.06,27.56
17306,0.3364,-0.0251,0.8638,-6.6,7.85,0.02,27.6
17316,0.3357,-0.0237,0.869,-6.5,7.94,-0.09,27.61
17326,0.337,-0.0259,0.8608,-6.53,7.95,-0.09,27.6
17336,0.3319,-0.0247,0.8658,-6.47,7.94,-0.15,27.59
17346,0.3357,-0.0222,0.8641,-6.58,7.82,-0.08,27.59
17356,0.3358,-0.0254,0.8617,-6.56,7.88,-0.05,27.62
17366,0.3335,-0.0229,0.8606,-6.61,7.89,-0.06,27.6
17376,0.3318,-0.0243,0.8617,-6.55,7.89,-0.02,27.58
17386,0.3307,-0.0212,0.8639,-6.52,7.88,-0.08,27.61
17396,0.3328,-0.0225,0.8658,-6.63,7.94,-0.06,27.6
17406,0.3323,-0.0209,0.8661,-6.55,7.85,-0.08,27.59
17416,0.3347,-0.0216,0.8636,-6.52,7.86,-0.06,27.61
17426,0.3335,-0.0229,0.864,-6.52,7.8,-0.14,27.58
17436,0.3344,-0.0227,0.8685,-6.64,7.83,-0.06,27.57
17446,0.3324,-0.0237,0.8689,-6.56,7.82,-0.05,27.59
17456,0.3313,-0.0236,0.8689,-6.63,7.91,-0.02,27.59
17466,0.3333,-0.0236,0.8638,-6.5,7.83,-0.11,27.59
17476,0.3342,-0.0237,0.8638,-6.53,7.86,-0.02,27.59
17486,0.3351,-0.0228,0.8629,-6.56,7.92,-0.09,27.56
17496,0.3335,-0.0221,0.8674,-6.61,7.86,-0.02,27.59
17506,0.3314,-0.0239,0.8619,-6.55,7.89,0.0,27.59
17516,0.3333,-0.0221,0.8656,-6.53,7.89,-0.05,27.58
17526,0.3342,-0.0231,0.8687,-6.58,7.91,-0.05,27.59
17536,0.3324,-0.0212,0.8646,-6.58,7.86,-0.06,27.6
17546,0.3298,-0.0219,0.8628,-6.66,7.88,-0.05,27.58
17556,0.3333,-0.0249,0.8683,-6.6,7.92,0.0,27.56
17566,0.3347,-0.0239,0.8646,-6.6,7.89,0.0,27.57
17576,0.3319,-0.0228,0.8636,-6.64,7.92,-0.06,27.6
17586,0.3345,-0.0234,0.8635,-6.55,7.89,-0.06,27.57
17596,0.3344,-0.0238,0.8651,-6.58,7.89,0.02,27.56
17606,0.3369,-0.0253,0.8627,-6.64,7.89,-0.03,27.58
17616,0.3337,-0.0259,0.8677,-6.66,7.88,-0.11,27.58
17626,0.3351,-0.0233,0.8634,-6.61,7.88,-0.05,27.59
17636,0.3344,-0.0229,0.8636,-6.64,7.89,-0.09,27.6
17646,0.3348,-0.0212,0.8658,-6.6,7.88,-0.09,27.61
17656,0.3346,-0.0234,0.8624,-6.5,7.94,-0.17,27.58
17666,0.3357,-0.0265,0.8624,-6.63,7.92,-0.02,27.59
17676,0.337,-0.0199,0.866,-6.61,7.97,-0.03,27.6
17686,0.3336,-0.0265,0.8632,-6.55,7.88,0.03,27.59
17696,0.3341,-0.0236,0.8672,-6.63,7.83,-0.05,27.59
17706,0.3319,-0.0238,0.8702,-6.56,7.94,0.0,27.57
17716,0.3325,-0.0222,0.8635,-6.52,7.91,-0.08,27.6
17726,0.3329,-0.0214,0.8645,-6.6,7.95,-0.02,27.57
17736,0.3319,-0.0248,0.8635,-6.6,7.83,0.0,27.57
17746,0.3324,-0.0192,0.8676,-6.66,7.85,-0.05,27.58
17756,0.335,-0.0228,0.864,-6.69,7.79,-0.09,27.61
17766,0.3329,-0.0228,0.8644,-6.61,7.86,-0.03,27.58
17776,0.3341,-0.0225,0.8633,-6.63,7.89,-0.09,27.56
17786,0.3353,-0.0229,0.8701,-6.53,7.89,0.0,27.59
17796,0.3348,-0.0232,0.8619,-6.61,7.89,-0.11,27.6
17806,0.3329,-0.0228,0.8707,-6.56,7.85,-0.09,27.57
17816,0.3345,-0.0237,0.8644,-6.58,7.89,-0.11,27.61
17826,0.3342,-0.0238,0.8618,-6.56,7.92,-0.03,27.59
17836,0.3345,-0.0262,0.8669,-6.58,7.97,-0.08,27.59
17846,0.3356,-0.0217,0.8683,-6.53,7.86,-0.08,27.62
17856,0.3339,-0.0242,0.8616,-6.61,7.89,-0.05,27.58
17866,0.3364,-0.0217,0.8663,-6.5,7.91,-0.05,27.57
17876,0.3352,-0.0232,0.8621,-6.56,7.91,-0.03,27.6
17886,0.334,-0.0228,0.8647,-6.58,7.89,-0.03,27.6
17896,0.3322,-0.0229,0.8651,-6.63,7.89,0.0,27.58
17906,0.3325,-0.0221,0.8656,-6.56,7.91,0.05,27.57
17916,0.334,-0.0215,0.8622,-6.53,7.89,-0.03,27.59
17926,0.3325,-0.0258,0.8684,-6.5,7.86,-0.03,27.6
17936,0.3333,-0.0232,0.8634,-6.63,7.91,-0.09,27.6
17946,0.3342,-0.0199,0.8665,-6.58,7.89,-0.14,27.6
17956,0.3361,-0.0233,0.8685,-6.6,7.94,-0.03,27.62
17966,0.337,-0.022,0.8673,-6.6,7.92,-0.05,27.57
17976,0.3337,-0.022,0.866,-6.6,7.83,-0.08,27.58
17986,0.3329,-0.0232,0.8651,-6.5,7.92,-0.02,27.61
17996,0.3353,-0.0238,0.8672,-6.66,7.88,-0.03,27.61
18006,0.3342,-0.0234,0.8672,-6.56,7.94,-0.08,27.58
18016,0.3337,-0.0243,0.8617,-6.6,7.92,-0.09,27.59
18026,0.3339,-0.0247,0.8625,-6.49,7.88,-0.05,27.6
18036,0.3337,-0.019,0.8669,-6.61,7.95,-0.03,27.59
18046,0.3342,-0.0228,0.8638,-6.6,7.92,-0.05,27.59
18056,0.3357,-0.024,0.8638,-6.58,7.85,-0.03,27.61
18066,0.333,-0.0233,0.8636,-6.61,7.86,-0.05,27.59
18076,0.3342,-0.0233,0.8673,-6.55,7.89,-0.05,27.62
18086,0.3328,-0.0233,0.8647,-6.53,7.92,-0.08,27.62
18096,0.3352,-0.0243,0.8633,-6.6,7.86,-0.06,27.63
18106,0.3365,-0.0217,0.8676,-6.53,7.89,-0.02,27.6
18116,0.3362,-0.0242,0.8627,-6.56,7.88,-0.06,27.61
18126,0.3339,-0.0248,0.8645,-6.61,7.86,-0.08,27.61
18136,0.3319,-0.0204,0.8624,-6.58,7.82,-0.03,27.59
18146,0.334,-0.0244,0.8656,-6.61,7.88,-0.05,27.62
18156,0.3373,-0.0236,0.8672,-6.53,7.92,-0.08,27.62
18166,0.3356,-0.0216,0.8652,-6.46,7.91,0.0,27.63
18176,0.3354,-0.0244,0.8649,-6.55,7.91,-0.03,27.6
18186,0.3356,-0.0244,0.8663,-6.63,7.91,-0.03,27.59
18196,0.3351,-0.0254,0.866,-6.6,7.88,-0.03,27.61
18206,0.3306,-0.0222,0.8667,-6.53,7.94,-0.03,27.6
18216,0.3354,-0.0245,0.8622,-6.52,7.86,0.0,27.59
18226,0.3346,-0.0192,0.8665,-6.58,7.92,0.05,27.58
18236,0.335,-0.0238,0.8643,-6.55,7.91,-0.05,27.62
18246,0.3346,-0.0243,0.8633,-6.5,7.82,-0.05,27.62
18256,0.3363,-0.0228,0.8643,-6.55,7.89,-0.09,27.6
18266,0.3315,-0.0231,0.864,-6.61,7.89,-0.05,27.6
18276,0.3319,-0.0234,0.8641,-6.55,7.91,-0.03,27.61
18286,0.3336,-0.0239,0.8645,-6.64,7.88,-0.06,27.58
18296,0.3318,-0.0234,0.8668,-6.61,7.89,-0.03,27.6
18306,0.3341,-0.0226,0.8658,-6.63,7.91,-0.02,27.59
18316,0.3279,-0.0231,0.8616,-6.61,7.86,-0.08,27.63
18326,0.3318,-0.0245,0.8629,-6.55,7.86,-0.12,27.6
18336,0.3335,-0.0247,0.8672,-6.58,7.91,-0.09,27.63
18346,0.3344,-0.024,0.8677,-6.53,7.89,-0.03,27.61
18356,0.3333,-0.0237,0.8635,-6.49,7.85,-0.08,27.6
18366,0.3324,-0.0206,0.8627,-6.53,7.88,0.05,27.6
18376,0.3347,-0.0245,0.8632,-6.61,7.92,-0.11,27.57
18386,0.3322,-0.0221,0.8629,-6.64,7.91,-0.03,27.61
18396,0.333,-0.0223,0.8633,-6.53,7.85,0.06,27.6
18406,0.3331,-0.02,0.8677,-6.53,7.85,-0.05,27.61
18416,0.3317,-0.0243,0.8662,-6.61,7.92,-0.03,27.6
18426,0.3339,-0.0233,0.8647,-6.63,7.94,-0.06,27.61
18436,0.3346,-0.0245,0.8678,-6.64,7.94,0.02,27.6
18446,0.334,-0.0229,0.8667,-6.63,7.88,-0.08,27.61
18456,0.3351,-0.024,0.8666,-6.63,7.89,-0.06,27.6
18466,0.3333,-0.0221,0.8649,-6.56,7.88,-0.06,27.64
18476,0.3364,-0.0253,0.8625,-6.58,7.89,-0.06,27.61
18486,0.3353,-0.0253,0.8621,-6.5,7.95,-0.06,27.59
18496,0.3328,-0.0237,0.864,-6.55,7.85,-0.02,27.6
18506,0.3336,-0.0233,0.8657,-6.63,7.85,-0.05,27.61
18516,0.3325,-0.0242,0.8628,-6.64,7.92,-0.05,27.62
18526,0.3335,-0.0249,0.8674,-6.67,7.91,-0.02,27.61
18536,0.3346,-0.0237,0.8633,-6.64,7.85,-0.02,27.6
18546,0.3318,-0.0247,0.8667,-6.58,7.92,-0.02,27.58
18556,0.3337,-0.0267,0.8586,-6.58,7.86,-0.03,27.6
18566,0.3319,-0.0232,0.8656,-6.53,7.83,0.0,27.59
18576,0.3351,-0.0228,0.8688,-6.55,7.89,-0.06,27.59
18586,0.3328,-0.0242,0.8661,-6.55,7.91,-0.05,27.62
18596,0.3361,-0.0236,0.8666,-6.63,7.92,-0.08,27.61
18606,0.3354,-0.0225,0.864,-6.6,7.97,-0.05,27.61
18616,0.3323,-0.0233,0.8657,-6.55,7.86,-0.03,27.6
18626,0.3329,-0.026,0.8656,-6.56,7.89,-0.03,27.58
18636,0.3348,-0.0229,0.8662,-6.52,7.91,-0.05,27.61
18646,0.335,-0.0212,0.8633,-6.58,7.85,-0.03,27.6
18656,0.3315,-0.0229,0.8667,-6.67,7.94,0.0,27.6
18666,0.3334,-0.0219,0.8657,-6.66,7.94,0.0,27.6
18676,0.3356,-0.0216,0.8639,-6.5,7.88,-0.03,27.62
18686,0.3341,-0.0243,0.8668,-6.64,7.86,-0.02,27.6
18696,0.3358,-0.0215,0.8707,-6.52,7.89,-0.06,27.59
18706,0.3335,-0.0221,0.8668,-6.6,7.91,-0.08,27.59
18716,0.3336,-0.0212,0.868,-6.55,7.85,-0.08,27.59
18726,0.332,-0.0184,0.8666,-6.63,7.86,-0.08,27.61
18736,0.3341,-0.0216,0.8661,-6.61,7.88,0.0,27.59
18746,0.3364,-0.0237,0.8676,-6.66,7.92,-0.03,27.59
18756,0.3358,-0.0243,0.865,-6.55,7.88,-0.11,27.61
18766,0.3333,-0.0244,0.8624,-6.58,7.89,-0.08,27.62
18776,0.3325,-0.0217,0.8655,-6.6,7.91,-0.02,27.62
18786,0.335,-0.022,0.8652,-6.52,7.85,-0.02,27.59
18796,0.3329,-0.0208,0.8635,-6.55,7.88,-0.08,27.6
18806,0.3329,-0.0245,0.8657,-6.47,7.95,0.03,27.61
18816,0.3356,-0.024,0.8669,-6.61,7.91,-0.06,27.59
18826,0.3346,-0.0254,0.8684,-6.56,7.91,-0.08,27.61
18836,0.3348,-0.0223,0.8658,-6.52,7.94,-0.09,27.59
18846,0.3325,-0.021,0.8628,-6.58,7.94,-0.08,27.61
18856,0.3358,-0.0205,0.865,-6.58,7.85,-0.08,27.6
18866,0.3347,-0.0244,0.8671,-6.6,7.91,-0.06,27.6
18876,0.3328,-0.024,0.8662,-6.56,7.83,-0.08,27.61
18886,0.3336,-0.0229,0.8638,-6.55,7.91,-0.08,27.61
18896,0.3326,-0.0232,0.8646,-6.53,7.91,-0.05,27.61
18906,0.3357,-0.0265,0.8652,-6.52,7.83,-0.09,27.62
18916,0.3324,-0.0234,0.8655,-6.56,7.88,-0.02,27.6
18926,0.3344,-0.025,0.8638,-6.61,7.94,-0.02,27.61
18936,0.3337,-0.0253,0.8668,-6.58,7.8,-0.08,27.6
18946,0.3358,-0.0237,0.8632,-6.55,7.83,0.0,27.59
18956,0.3319,-0.0265,0.8638,-6.52,7.88,-0.05,27.58
18966,0.3336,-0.0227,0.8611,-6.53,7.88,-0.09,27.61
18976,0.334,-0.0228,0.8651,-6.6,7.85,-0.09,27.59
18986,0.3336,-0.02,0.8627,-6.52,7.85,-0.09,27.58
18996,0.3336,-0.0229,0.8634,-6.56,7.91,-0.09,27.6
19006,0.3337,-0.0233,0.8622,-6.55,7.86,-0.06,27.59
19016,0.3328,-0.0222,0.8651,-6.58,7.88,-0.09,27.62
19026,0.3358,-0.0231,0.8634,-6.52,7.79,-0.08,27.62
19036,0.3329,-0.0229,0.8651,-6.55,7.83,0.02,27.59
19046,0.3319,-0.0229,0.8636,-6.56,7.82,-0.06,27.62
19056,0.3311,-0.022,0.8655,-6.6,7.89,-0.02,27.58
19066,0.3337,-0.0245,0.8612,-6.61,7.88,-0.05,27.59
19076,0.3302,-0.0245,0.8663,-6.55,7.92,-0.06,27.62
19086,0.3353,-0.0238,0.8621,-6.63,7.88,-0.02,27.61
19096,0.3329,-0.0237,0.8669,-6.69,7.86,-0.11,27.62
19106,0.334,-0.0238,0.8677,-6.61,7.88,-0.08,27.61
19116,0.3329,-0.0226,0.8628,-6.44,7.91,-0.05,27.62
19126,0.3352,-0.0238,0.865,-6.55,7.95,-0.02,27.59
19136,0.337,-0.0205,0.8641,-6.61,7.88,-0.09,27.61
19146,0.3315,-0.0232,0.8608,-6.53,7.91,0.0,27.61
19156,0.334,-0.0222,0.8654,-6.56,7.88,-0.05,27.61
19166,0.3337,-0.0228,0.8689,-6.56,7.89,0.03,27.58
19176,0.3334,-0.0227,0.8663,-6.55,7.91,-0.09,27.57
19186,0.3334,-0.0209,0.8654,-6.58,7.97,-0.03,27.59
19196,0.3328,-0.0215,0.8679,-6.53,7.79,0.05,27.57
19206,0.3303,-0.0205,0.8644,-6.56,7.88,0.0,27.62
19216,0.3328,-0.0233,0.8663,-6.63,7.89,-0.02,27.6
19226,0.3351,-0.0239,0.8641,-6.58,7.88,-0.09,27.62
19236,0.3309,-0.022,0.8705,-6.55,7.86,-0.08,27.63
19246,0.3345,-0.0215,0.8695,-6.64,7.92,-0.06,27.6
19256,0.3341,-0.0231,0.8652,-6.64,7.89,-0.08,27.59
19266,0.3323,-0.0215,0.8646,-6.56,7.92,0.0,27.62
19276,0.3346,-0.0234,0.8668,-6.52,7.88,-0.06,27.62
19286,0.3342,-0.0239,0.8683,-6.55,7.86,-0.03,27.6
19296,0.3351,-0.0215,0.8621,-6.58,7.89,-0.11,27.62
19306,0.3328,-0.0222,0.8645,-6.6,7.88,-0.09,27.62
19317,0.3347,-0.0239,0.8629,-6.5,7.89,-0.02,27.6
19327,0.334,-0.0221,0.865,-6.58,7.94,0.05,27.6
19337,0.3335,-0.0249,0.8619,-6.58,7.85,-0.03,27.58
19347,0.3362,-0.0232,0.8649,-6.6,7.86,-0.05,27.61
19357,0.3342,-0.0203,0.8627,-6.61,7.89,-0.05,27.61
19367,0.3348,-0.0236,0.8669,-6.58,7.94,-0.08,27.62
19377,0.3359,-0.0232,0.8643,-6.6,7.83,-0.02,27.59
19387,0.3337,-0.0251,0.8656,-6.58,7.88,0.02,27.6
19397,0.3336,-0.0231,0.8671,-6.63,7.92,0.0,27.61
19407,0.3336,-0.0266,0.8633,-6.63,7.89,-0.02,27.61
19417,0.3345,-0.0243,0.8634,-6.63,7.92,-0.03,27.61
19427,0.3315,-0.0237,0.8617,-6.6,7.86,-0.11,27.59
19437,0.3314,-0.0239,0.8658,-6.63,7.94,-0.06,27.6
19447,0.3358,-0.0221,0.865,-6.64,7.89,-0.02,27.59
19457,0.332,-0.0228,0.8634,-6.52,7.94,-0.14,27.61
19467,0.3303,-0.0232,0.8654,-6.64,7.92,-0.11,27.63
19477,0.3336,-0.0239,0.8633,-6.5,7.92,0.03,27.64
19487,0.333,-0.0222,0.8635,-6.52,7.89,0.0,27.61
19497,0.3333,-0.0226,0.8654,-6.58,7.91,-0.09,27.63
19507,0.3369,-0.0234,0.8671,-6.53,7.89,0.0,27.63
19517,0.3308,-0.022,0.8658,-6.49,7.8,-0.03,27.61
19527,0.333,-0.0234,0.865,-6.58,7.94,-0.05,27.61
19537,0.3317,-0.0215,0.8612,-6.55,7.89,0.0,27.59
19547,0.3322,-0.0217,0.8625,-6.61,7.8,-0.05,27.62
19557,0.3348,-0.0222,0.865,-6.6,7.94,-0.03,27.62
19567,0.333,-0.0228,0.8674,-6.56,7.86,-0.03,27.63
19577,0.3325,-0.0219,0.8623,-6.6,7.94,-0.08,27.62
19587,0.3334,-0.0231,0.8634,-6.63,7.83,-0.11,27.63
19597,0.3359,-0.0231,0.8694,-6.63,7.92,-0.06,27.63
19607,0.3324,-0.0229,0.8672,-6.61,7.94,0.0,27.62
19617,0.333,-0.0237,0.8654,-6.52,7.85,0.02,27.62
19627,0.3333,-0.021,0.866,-6.53,7.82,-0.05,27.6
19637,0.3322,-0.0229,0.8632,-6.49,7.86,-0.02,27.61
19647,0.3328,-0.0219,0.864,-6.55,7.86,0.0,27.63
19657,0.3361,-0.0238,0.8662,-6.61,7.91,-0.05,27.61
19667,0.3342,-0.0267,0.8624,-6.56,7.88,-0.05,27.63
19677,0.3323,-0.0249,0.8665,-6.6,7.83,0.02,27.65
19688,0.3342,-0.0229,0.8638,-6.56,7.85,-0.05,27.62
19698,0.3333,-0.0216,0.8619,-6.63,7.89,0.0,27.58
19708,0.3337,-0.0229,0.8652,-6.6,7.91,-0.03,27.58
19718,0.3317,-0.0247,0.8644,-6.63,7.89,-0.05,27.59
19728,0.3347,-0.0249,0.8624,-6.53,7.98,-0.08,27.61
19738,0.335,-0.0259,0.8647,-6.56,7.88,-0.06,27.62
19748,0.3323,-0.0245,0.8676,-6.58,7.89,-0.05,27.61
19758,0.3331,-0.0236,0.8678,-6.64,7.86,-0.06,27.62
19768,0.3337,-0.0209,0.8661,-6.55,7.88,0.0,27.63
19778,0.334,-0.0234,0.8647,-6.53,7.89,-0.03,27.62
19788,0.3329,-0.0227,0.8624,-6.55,7.89,0.0,27.6
19798,0.3322,-0.0219,0.8616,-6.58,7.92,-0.09,27.66
19808,0.3334,-0.0215,0.8665,-6.56,7.92,-0.05,27.65
19818,0.3333,-0.0216,0.8623,-6.53,7.89,-0.09,27.59
19828,0.3328,-0.0216,0.8616,-6.64,7.85,-0.06,27.62
19838,0.3367,-0.022,0.8625,-6.61,7.92,-0.03,27.62
19848,0.3336,-0.0237,0.8611,-6.53,7.88,-0.08,27.61
19858,0.3326,-0.0229,0.8661,-6.5,7.86,-0.08,27.63
19868,0.3329,-0.0237,0.8652,-6.56,7.85,0.02,27.62
19878,0.3348,-0.024,0.8698,-6.55,7.77,-0.09,27.61
19888,0.334,-0.0229,0.8655,-6.66,7.85,-0.03,27.6
19898,0.3346,-0.0231,0.8643,-6.49,7.86,-0.03,27.62
19908,0.3345,-0.0234,0.8652,-6.49,7.85,-0.03,27.61
19918,0.3362,-0.0193,0.8658,-6.52,7.86,0.03,27.6
19928,0.3334,-0.0214,0.8622,-6.61,7.88,-0.03,27.62
19938,0.3328,-0.0231,0.8617,-6.58,7.89,-0.05,27.61
19948,0.3336,-0.0233,0.8651,-6.58,7.91,0.02,27.62
19958,0.3345,-0.0232,0.865,-6.5,7.85,0.02,27.63
19968,0.333,-0.0233,0.864,-6.56,7.85,-0.05,27.62
19978,0.3339,-0.0234,0.8644,-6.53,7.88,-0.09,27.66
19988,0.3357,-0.0228,0.869,-6.53,7.92,0.02,27.59
19998,0.3336,-0.0247,0.8656,-6.64,7.94,0.02,27.61
20008,0.3333,-0.0228,0.8641,-6.5,7.88,-0.08,27.6
20018,0.3317,-0.0234,0.8682,-6.61,7.86,0.02,27.63
20028,0.3348,-0.0239,0.8655,-6.58,7.89,-0.06,27.62
20038,0.3322,-0.0223,0.8628,-6.58,7.89,-0.08,27.62
20048,0.3356,-0.0216,0.8695,-6.58,7.88,-0.03,27.62
20058,0.3333,-0.0223,0.8654,-6.64,7.86,-0.05,27.63
20068,0.3346,-0.0254,0.8634,-6.58,7.94,-0.09,27.65
20078,0.3337,-0.024,0.8599,-6.56,7.83,0.0,27.64
20088,0.3315,-0.0225,0.8656,-6.6,7.85,-0.09,27.64
20098,0.3361,-0.0238,0.8638,-6.63,7.91,-0.06,27.62
20108,0.3358,-0.0238,0.8629,-6.6,7.97,-0.06,27.6
20118,0.3339,-0.0201,0.8657,-6.6,7.91,-0.06,27.6
20128,0.3333,-0.0216,0.8665,-6.63,7.88,-0.06,27.62
20138,0.3342,-0.0238,0.8639,-6.53,7.89,-0.06,27.62
20148,0.3318,-0.0221,0.864,-6.5,7.94,-0.08,27.62
20158,0.333,-0.0232,0.8641,-6.53,7.85,-0.03,27.6
20168,0.3324,-0.0201,0.8672,-6.5,7.88,-0.02,27.63
20178,0.333,-0.0228,0.8663,-6.63,7.85,-0.08,27.6
20188,0.3334,-0.0231,0.8668,-6.64,7.88,-0.05,27.62
20198,0.335,-0.0228,0.8638,-6.5,7.85,-0.08,27.59
20208,0.3337,-0.0219,0.869,-6.55,7.91,-0.11,27.63
20218,0.332,-0.0245,0.8676,-6.61,7.86,-0.06,27.61
20228,0.3342,-0.0243,0.8655,-6.55,7.85,-0.05,27.59
20238,0.3329,-0.0251,0.8673,-6.55,7.86,-0.06,27.63
20248,0.333,-0.0266,0.8667,-6.55,7.89,-0.08,27.63
20258,0.3318,-0.0238,0.865,-6.53,7.88,-0.03,27.63
20268,0.3326,-0.0228,0.8643,-6.61,7.89,-0.06,27.62
20278,0.3358,-0.0211,0.8632,-6.58,7.85,-0.02,27.64
20288,0.3352,-0.0262,0.8672,-6.56,7.91,-0.05,27.62
20298,0.3335,-0.0217,0.8673,-6.55,7.92,-0.05,27.63
20308,0.3339,-0.0233,0.8612,-6.53,7.88,-0.05,27.6
20318,0.3333,-0.0249,0.8606,-6.55,7.89,-0.08,27.63
20328,0.333,-0.024,0.8635,-6.55,7.94,0.02,27.64
20338,0.3344,-0.0206,0.8668,-6.66,7.82,-0.03,27.64
20348,0.335,-0.0254,0.8671,-6.56,7.86,0.0,27.6
20358,0.3326,-0.0223,0.8673,-6.53,7.91,-0.03,27.6
20368,0.3331,-0.0225,0.8679,-6.64,7.86,-0.09,27.62
20378,0.3339,-0.0249,0.8658,-6.6,7.91,-0.08,27.63
20388,0.3333,-0.0234,0.8684,-6.58,7.89,-0.03,27.62
20398,0.3336,-0.0238,0.866,-6.56,7.88,-0.11,27.62
20408,0.3346,-0.0256,0.8621,-6.61,7.88,-0.02,27.63
20418,0.334,-0.0243,0.8673,-6.55,7.95,-0.03,27.62
20428,0.3357,-0.0225,0.8665,-6.53,7.79,-0.06,27.61
20438,0.3344,-0.0226,0.8658,-6.53,7.88,-0.03,27.6
20448,0.3337,-0.0233,0.8652,-6.61,7.85,-0.02,27.63
20458,0.3333,-0.0229,0.8651,-6.52,7.83,-0.06,27.63
20468,0.3329,-0.02,0.8657,-6.52,7.88,-0.09,27.59
20478,0.3326,-0.0245,0.8634,-6.61,7.86,-0.09,27.62
20488,0.3362,-0.0226,0.8619,-6.58,7.91,0.05,27.63
20498,0.3328,-0.0212,0.8658,-6.55,7.88,-0.05,27.6
20508,0.3344,-0.0245,0.8646,-6.52,7.98,-0.11,27.62
20518,0.3344,-0.0219,0.866,-6.55,7.89,-0.17,27.62
20528,0.3339,-0.0194,0.8618,-6.61,7.86,-0.06,27.63
20538,0.3351,-0.0231,0.8683,-6.58,7.92,0.0,27.6
20548,0.3359,-0.0243,0.8645,-6.58,7.88,0.03,27.61
20558,0.3323,-0.0209,0.8636,-6.61,7.95,-0.05,27.6
20568,0.3325,-0.021,0.8643,-6.58,7.83,-0.05,27.62
20578,0.3333,-0.022,0.8677,-6.58,7.88,-0.14,27.62
20588,0.3306,-0.0226,0.8656,-6.58,7.82,-0.02,27.62
20598,0.3347,-0.0221,0.866,-6.61,7.89,-0.08,27.62
20608,0.3358,-0.0264,0.8625,-6.6,7.92,-0.11,27.63
20618,0.3347,-0.0247,0.8594,-6.58,7.86,0.0,27.63
20628,0.3344,-0.0226,0.8665,-6.64,7.86,-0.02,27.62
20638,0.3345,-0.0223,0.8662,-6.58,7.95,0.05,27.62
20648,0.3328,-0.0245,0.864,-6.55,7.95,0.0,27.64
20658,0.3339,-0.0242,0.8673,-6.56,7.86,0.02,27.63
20668,0.3348,-0.0214,0.8676,-6.6,7.86,-0.06,27.62
20678,0.334,-0.0233,0.8644,-6.6,7.89,-0.06,27.61
20688,0.3345,-0.0233,0.8633,-6.61,7.91,0.0,27.62
20698,0.3342,-0.0226,0.8649,-6.56,7.94,-0.11,27.61
20708,0.3347,-0.0243,0.8632,-6.56,7.88,-0.11,27.62
20718,0.3325,-0.0237,0.8656,-6.56,7.86,0.0,27.63
20728,0.3312,-0.0195,0.866,-6.53,7.88,-0.03,27.61
20738,0.3326,-0.0226,0.8656,-6.55,7.88,-0.02,27.61
20748,0.3344,-0.0236,0.8616,-6.53,7.86,0.0,27.6
20758,0.3335,-0.0216,0.8682,-6.63,7.89,-0.02,27.62
20768,0.3335,-0.0226,0.8657,-6.63,7.94,-0.06,27.61
20778,0.3328,-0.0234,0.8621,-6.46,7.91,-0.06,27.62
20788,0.3356,-0.022,0.8673,-6.64,7.88,-0.02,27.61
20798,0.3328,-0.0232,0.8661,-6.61,7.91,-0.02,27.62
20808,0.3314,-0.0244,0.8684,-6.53,7.88,-0.06,27.6
20818,0.3319,-0.0262,0.8627,-6.61,7.91,-0.02,27.62
20828,0.3331,-0.024,0.8667,-6.7,7.86,-0.05,27.62
20838,0.3368,-0.0225,0.8665,-6.69,7.89,0.05,27.61
20848,0.3362,-0.0247,0.8647,-6.55,7.91,-0.06,27.61
20858,0.3347,-0.0216,0.8646,-6.67,7.88,-0.05,27.63
20868,0.3318,-0.0227,0.8665,-6.46,7.89,-0.03,27.62
20878,0.3334,-0.0223,0.8623,-6.55,7.82,-0.03,27.62
20888,0.334,-0.024,0.8649,-6.58,7.89,-0.11,27.58
20898,0.334,-0.0228,0.8667,-6.63,7.92,-0.05,27.61
20908,0.3328,-0.0225,0.8628,-6.58,7.85,-0.03,27.62
20918,0.333,-0.0231,0.8647,-6.58,7.88,-0.03,27.61
20928,0.3345,-0.0225,0.8684,-6.58,7.85,-0.03,27.6
20938,0.3333,-0.0229,0.8629,-6.6,7.86,-0.09,27.63
20948,0.3337,-0.0211,0.8663,-6.64,7.89,0.0,27.63
20958,0.3357,-0.0228,0.868,-6.58,7.83,-0.06,27.62
20968,0.3347,-0.0208,0.865,-6.56,7.91,-0.09,27.64
20978,0.3345,-0.0233,0.8665,-6.52,7.86,-0.05,27.63
20988,0.3356,-0.0216,0.8667,-6.64,7.86,-0.11,27.64
20998,0.3373,-0.0238,0.8638,-6.55,7.95,-0.09,27.63
21008,0.3347,-0.0234,0.8619,-6.6,7.86,-0.08,27.61
21018,0.3336,-0.0228,0.8628,-6.58,7.85,-0.03,27.63
21028,0.3335,-0.0215,0.865,-6.58,7.91,-0.09,27.6
21038,0.3347,-0.02,0.8666,-6.56,7.88,-0.03,27.61
21048,0.3336,-0.0208,0.8652,-6.63,7.85,-0.11,27.62
21058,0.3336,-0.0226,0.8639,-6.55,7.88,-0.08,27.61
21068,0.3326,-0.0214,0.8652,-6.56,7.88,-0.02,27.65
21078,0.3335,-0.0262,0.8643,-6.6,7.85,0.05,27.62
21088,0.3337,-0.0237,0.866,-6.6,7.85,-0.02,27.64
21098,0.3342,-0.0222,0.8657,-6.6,7.85,0.0,27.63
21108,0.3354,-0.0239,0.8671,-6.52,7.89,0.0,27.63
21118,0.335,-0.0226,0.8649,-6.49,7.85,-0.05,27.59
21128,0.3318,-0.0222,0.8658,-6.63,7.85,-0.09,27.61
21138,0.3351,-0.0248,0.8661,-6.56,7.83,-0.08,27.61
21148,0.3333,-0.0229,0.8656,-6.55,7.89,-0.06,27.62
21158,0.3361,-0.0239,0.8688,-6.58,7.88,-0.08,27.64
21168,0.3357,-0.0236,0.8611,-6.55,7.88,-0.03,27.65
21178,0.3346,-0.0215,0.8678,-6.56,7.89,-0.02,27.59
21188,0.334,-0.0236,0.8677,-6.61,7.92,-0.08,27.64
21198,0.3374,-0.024,0.8658,-6.56,7.88,-0.14,27.66
21208,0.3364,-0.0238,0.8658,-6.56,7.88,-0.08,27.61
21218,0.3313,-0.0216,0.8635,-6.56,7.92,-0.06,27.65
21228,0.334,-0.0231,0.8635,-6.66,7.83,-0.05,27.63
21238,0.3329,-0.0209,0.8665,-6.61,7.86,-0.03,27.64
21248,0.3353,-0.0234,0.864,-6.56,7.91,-0.09,27.62
21258,0.3313,-0.0205,0.8666,-6.64,7.91,-0.11,27.63
21268,0.3328,-0.0244,0.8618,-6.52,7.89,-0.03,27.62
21278,0.3333,-0.0253,0.8663,-6.5,7.89,0.0,27.62
21288,0.3313,-0.0228,0.8616,-6.52,7.86,-0.08,27.63
21298,0.3357,-0.0242,0.8601,-6.56,7.89,-0.03,27.62
21308,0.3326,-0.0211,0.866,-6.63,7.88,-0.12,27.64
21318,0.3336,-0.0234,0.8643,-6.61,7.92,-0.06,27.64
21328,0.3354,-0.0219,0.863,-6.5,7.82,-0.02,27.64
21338,0.3336,-0.0217,0.8647,-6.58,7.8,-0.05,27.62
21348,0.3352,-0.0204,0.8629,-6.6,7.85,-0.08,27.64
21358,0.3326,-0.0211,0.8646,-6.56,7.86,-0.03,27.64
21368,0.3361,-0.022,0.8674,-6.63,7.92,-0.06,27.63
21378,0.3324,-0.0258,0.8634,-6.64,7.92,-0.02,27.64
21388,0.3351,-0.0233,0.8636,-6.58,7.89,-0.11,27.63
21398,0.3341,-0.0238,0.8658,-6.61,7.91,-0.06,27.63
21408,0.3344,-0.0234,0.87,-6.63,7.91,0.02,27.62
21418,0.3339,-0.0232,0.8682,-6.61,7.83,-0.03,27.64
21428,0.3336,-0.0238,0.8649,-6.61,7.94,-0.09,27.64
21438,0.3347,-0.0242,0.8662,-6.55,7.89,-0.03,27.62
21448,0.3313,-0.0236,0.8652,-6.64,7.83,0.0,27.62
21458,0.3335,-0.0229,0.8629,-6.58,7.89,-0.05,27.62
21468,0.3363,-0.0255,0.8616,-6.55,7.92,-0.05,27.66
21478,0.3361,-0.0231,0.8606,-6.53,7.91,-0.06,27.63
21488,0.3342,-0.0233,0.8604,-6.58,7.86,-0.05,27.63
21498,0.334,-0.0254,0.8662,-6.61,7.89,-0.03,27.6
21508,0.3342,-0.0247,0.866,-6.55,7.85,-0.03,27.62
21518,0.3334,-0.0226,0.8641,-6.58,7.86,-0.03,27.62
21528,0.333,-0.024,0.8641,-6.5,7.89,-0.03,27.63
21538,0.3328,-0.024,0.8605,-6.52,7.88,-0.09,27.65
21548,0.3331,-0.0247,0.8636,-6.58,7.85,-0.03,27.65
21558,0.3324,-0.022,0.8602,-6.61,7.83,-0.08,27.66
21568,0.3342,-0.0249,0.8676,-6.53,7.89,-0.05,27.64
21578,0.3368,-0.022,0.8685,-6.5,7.86,-0.09,27.63
21588,0.332,-0.0258,0.8628,-6.55,7.88,-0.06,27.64
21598,0.3352,-0.0228,0.8633,-6.52,7.89,-0.03,27.63
21608,0.3337,-0.0225,0.8645,-6.56,7.89,0.02,27.64
21618,0.3322,-0.0232,0.865,-6.56,7.91,-0.03,27.64
21628,0.3345,-0.0223,0.8677,-6.55,7.89,-0.03,27.63
21638,0.3352,-0.0216,0.8639,-6.58,7.91,0.02,27.64
21648,0.3341,-0.0223,0.8596,-6.63,7.94,-0.09,27.62
21658,0.3329,-0.0231,0.8663,-6.6,7.88,-0.02,27.62
21668,0.3346,-0.0237,0.8629,-6.67,7.85,-0.03,27.63
21678,0.333,-0.0247,0.8661,-6.58,7.89,0.0,27.65
21688,0.3328,-0.0208,0.8611,-6.58,7.89,-0.03,27.64
21698,0.333,-0.0227,0.8594,-6.6,7.91,-0.05,27.65
21708,0.3337,-0.0226,0.8639,-6.6,7.89,-0.08,27.65
21718,0.3331,-0.0228,0.868,-6.61,7.95,-0.12,27.62
21728,0.335,-0.0239,0.8649,-6.56,7.85,-0.02,27.64
21738,0.3312,-0.0254,0.8678,-6.6,7.88,-0.03,27.64
21748,0.334,-0.0242,0.8656,-6.61,7.95,-0.02,27.62
21758,0.3341,-0.0242,0.8655,-6.55,7.95,-0.05,27.62
21768,0.333,-0.0225,0.8674,-6.64,7.89,-0.06,27.61
21778,0.3329,-0.0219,0.8639,-6.58,7.92,0.0,27.63
21788,0.3328,-0.0206,0.8646,-6.58,7.85,-0.05,27.64
21798,0.3342,-0.0234,0.8611,-6.52,7.82,-0.03,27.67
21808,0.333,-0.025,0.8641,-6.6,7.86,-0.06,27.65
21818,0.3333,-0.021,0.8639,-6.64,7.86,-0.02,27.64
21828,0.3342,-0.0227,0.865,-6.5,7.91,0.02,27.65
21838,0.3347,-0.0226,0.8671,-6.58,7.92,-0.11,27.62
21848,0.3335,-0.0248,0.8654,-6.58,7.88,-0.02,27.63
21858,0.3339,-0.0249,0.8658,-6.66,7.86,0.02,27.62
21868,0.3339,-0.024,0.8666,-6.5,7.83,-0.08,27.63
21878,0.3357,-0.0228,0.8656,-6.56,7.94,-0.05,27.62
21888,0.3328,-0.0261,0.8667,-6.58,7.91,-0.05,27.64
21898,0.3342,-0.0233,0.8668,-6.52,7.92,-0.05,27.62
21908,0.3331,-0.0243,0.8658,-6.61,7.82,0.03,27.64
21918,0.3354,-0.0229,0.8629,-6.61,7.89,0.0,27.62
21928,0.3359,-0.0248,0.8676,-6.6,7.89,-0.03,27.64
21938,0.3361,-0.0208,0.8667,-6.52,7.86,0.03,27.65
21948,0.3325,-0.0211,0.866,-6.6,7.86,-0.03,27.64
21958,0.3329,-0.022,0.8645,-6.58,7.83,-0.03,27.64
21968,0.3357,-0.0233,0.8647,-6.52,7.82,-0.12,27.62
21978,0.3347,-0.0223,0.8665,-6.56,7.85,-0.08,27.62
21988,0.3344,-0.0232,0.8612,-6.63,7.91,-0.05,27.64
21998,0.3324,-0.0215,0.8617,-6.52,7.89,0.0,27.64
22008,0.3331,-0.0227,0.8687,-6.53,7.95,-0.03,27.64
22018,0.3329,-0.0248,0.8655,-6.55,7.85,-0.02,27.62
22028,0.3341,-0.0217,0.8632,-6.66,7.88,-0.06,27.64
22038,0.3348,-0.0238,0.8677,-6.56,7.88,-0.08,27.65
22048,0.3334,-0.0251,0.8663,-6.52,7.86,-0.17,27.64
22058,0.3337,-0.0244,0.8651,-6.63,7.92,0.0,27.66
22068,0.333,-0.0225,0.8649,-6.63,7.83,-0.06,27.65
22078,0.3328,-0.0253,0.8602,-6.56,7.89,0.0,27.65
22088,0.3331,-0.0222,0.8646,-6.58,7.91,-0.02,27.64
22098,0.3326,-0.0239,0.8654,-6.63,7.88,-0.06,27.62
22108,0.3344,-0.0244,0.8651,-6.6,7.86,-0.05,27.62
22118,0.3372,-0.0239,0.8658,-6.53,7.85,-0.03,27.64
22128,0.3308,-0.0504,0.8583,-6.34,7.91,-0.11,27.65
22138,0.3154,-0.0486,0.844,-6.17,7.73,-0.08,27.65
22148,0.3439,0.041,0.9098,-7.07,7.65,-0.18,27.65
22158,0.3097,-0.0222,0.8579,-6.63,8.66,-0.03,27.63
22168,0.3298,-0.0529,0.8606,-6.53,7.25,-0.02,27.65
22178,0.3433,0.0121,0.9015,-6.49,8.05,-0.18,27.64
22188,0.3358,0.0004,0.851,-6.7,8.29,-0.14,27.66
22198,0.3292,-0.0454,0.8508,-6.49,7.73,-0.12,27.64
22208,0.3529,-0.0039,0.8804,-6.82,7.91,-0.11,27.64
22218,0.33,-0.0326,0.8649,-6.56,8.4,-0.23,27.64
22228,0.33,-0.0286,0.853,-6.66,7.77,-0.14,27.65
22238,0.3392,-0.0348,0.8596,-6.63,7.76,0.08,27.66
22248,0.3464,-0.0315,0.853,-6.66,7.79,-0.02,27.64
22258,0.3451,-0.0295,0.8633,-6.46,7.97,-0.05,27.67
22268,0.3317,-0.0121,0.8654,-6.6,7.89,0.09,27.66
22278,0.3369,-0.0179,0.8759,-6.63,7.86,0.03,27.65
22288,0.3337,-0.0219,0.8618,-6.63,7.76,0.11,27.62
22298,0.3312,-0.0144,0.8691,-6.53,7.97,0.0,27.65
22308,0.3258,-0.0199,0.8649,-6.52,7.94,0.05,27.63
22318,0.3273,-0.0249,0.866,-6.7,7.85,0.03,27.64
22328,0.328,-0.0314,0.8546,-6.6,7.77,0.0,27.63
22338,0.3286,-0.0294,0.8651,-6.61,7.86,-0.09,27.65
22348,0.3264,-0.0283,0.8666,-6.55,7.86,-0.02,27.65
22358,0.3308,-0.0272,0.8676,-6.61,7.91,0.08,27.65
22368,0.3291,-0.0255,0.8641,-6.56,7.88,-0.03,27.64
22378,0.3315,-0.0243,0.8719,-6.58,7.86,-0.09,27.64
22388,0.3291,-0.0182,0.8636,-6.52,7.89,-0.06,27.67
22398,0.3354,-0.0149,0.8623,-6.64,7.86,-0.12,27.63
22408,0.3354,-0.0223,0.8593,-6.56,7.85,-0.02,27.64
22418,0.3354,-0.0227,0.868,-6.53,7.83,-0.06,27.61
22428,0.3396,-0.0192,0.863,-6.6,7.89,-0.12,27.63
22438,0.3385,-0.0261,0.8655,-6.58,7.89,0.02,27.65
22448,0.337,-0.0294,0.8656,-6.55,7.91,-0.05,27.64
22458,0.337,-0.025,0.8671,-6.56,7.86,0.03,27.67
22468,0.3342,-0.0206,0.8682,-6.56,7.88,0.02,27.66
22478,0.3326,-0.0237,0.8671,-6.61,7.92,0.02,27.65
22488,0.3301,-0.0261,0.8674,-6.5,7.89,-0.03,27.65
22498,0.3309,-0.0204,0.8685,-6.58,7.91,-0.15,27.65
22508,0.3291,-0.0188,0.8674,-6.56,7.98,-0.03,27.66
22518,0.3268,-0.025,0.8617,-6.58,7.89,-0.03,27.67
22528,0.3313,-0.028,0.8607,-6.55,7.97,-0.08,27.66
22538,0.3324,-0.0264,0.8622,-6.58,7.95,-0.03,27.65
22548,0.3352,-0.0223,0.8669,-6.58,7.89,-0.08,27.63
22558,0.3357,-0.0243,0.8678,-6.61,7.89,-0.02,27.62
22568,0.3384,-0.0264,0.8677,-6.58,7.83,-0.08,27.64
22578,0.3375,-0.0175,0.8694,-6.58,7.94,-0.03,27.63
22588,0.3352,-0.0221,0.8694,-6.66,7.94,-0.06,27.62
22598,0.3342,-0.0208,0.8624,-6.61,7.92,-0.03,27.63
22608,0.3314,-0.0223,0.8619,-6.56,7.92,0.03,27.62
22618,0.3334,-0.0249,0.8636,-6.6,7.86,-0.06,27.65
22628,0.3325,-0.0229,0.8655,-6.58,7.91,-0.02,27.63
22638,0.3344,-0.028,0.8649,-6.61,7.89,-0.05,27.62
22648,0.3369,-0.0248,0.8655,-6.55,7.82,-0.05,27.65
22658,0.3352,-0.0266,0.8713,-6.52,7.82,-0.06,27.65
22668,0.3318,-0.0222,0.8663,-6.53,7.85,-0.03,27.64
22678,0.333,-0.024,0.8645,-6.61,7.82,-0.05,27.63
22688,0.3323,-0.0239,0.8608,-6.52,7.86,-0.08,27.66
22698,0.3344,-0.0204,0.8628,-6.52,7.91,-0.03,27.68
22708,0.3337,-0.0234,0.8638,-6.64,7.88,-0.09,27.63
22718,0.3374,-0.0223,0.8604,-6.55,7.95,-0.08,27.66
22728,0.3358,-0.0253,0.8644,-6.6,7.89,-0.08,27.64
22738,0.3335,-0.0244,0.8641,-6.61,7.88,0.03,27.64
22750,0.3329,-0.0223,0.8668,-6.5,7.86,-0.05,27.64
22760,0.3347,-0.0222,0.866,-6.64,7.94,-0.02,27.64
22770,0.3312,-0.0242,0.866,-6.55,7.89,-0.03,27.66
22780,0.3318,-0.0203,0.8657,-6.55,7.88,-0.03,27.66
22790,0.3346,-0.0225,0.8662,-6.53,7.88,-0.09,27.67
22800,0.3304,-0.0227,0.8649,-6.52,7.91,-0.11,27.63
22810,0.3315,-0.0258,0.8632,-6.47,7.85,-0.06,27.66
22820,0.3318,-0.0258,0.8629,-6.6,7.88,-0.02,27.64
22830,0.3358,-0.0221,0.865,-6.61,7.83,-0.06,27.64
22840,0.3368,-0.0243,0.8646,-6.6,7.86,-0.11,27.63
22850,0.3337,-0.0239,0.8672,-6.58,7.89,-0.03,27.63
22860,0.3337,-0.0204,0.8636,-6.6,7.91,-0.05,27.65
22870,0.3345,-0.0205,0.8661,-6.63,7.88,0.0,27.66
22880,0.3345,-0.025,0.8649,-6.53,7.95,-0.08,27.66
22890,0.3317,-0.0222,0.8632,-6.66,7.82,-0.02,27.65
22900,0.3341,-0.0242,0.8647,-6.6,7.89,-0.11,27.64
22910,0.3347,-0.0209,0.864,-6.58,8.02,-0.05,27.64
22920,0.3322,-0.0258,0.8636,-6.6,7.92,-0.11,27.65
22930,0.3342,-0.0258,0.8641,-6.6,7.92,-0.09,27.64
22940,0.3313,-0.0225,0.8682,-6.52,7.86,-0.08,27.64
22950,0.3386,-0.0215,0.8619,-6.64,7.88,-0.05,27.65
22960,0.3363,-0.0238,0.8636,-6.64,7.83,-0.05,27.65
22970,0.3339,-0.0232,0.8678,-6.6,7.85,-0.03,27.66
22980,0.3329,-0.0228,0.8663,-6.56,7.86,0.0,27.64
22990,0.3358,-0.0247,0.8645,-6.6,7.86,-0.06,27.65
23000,0.3358,-0.0247,0.8643,-6.64,7.85,-0.11,27.66
23010,0.3362,-0.0258,0.8611,-6.56,7.92,-0.06,27.65
23020,0.3381,-0.0238,0.8633,-6.58,7.94,-0.05,27.66
23030,0.3337,-0.0242,0.8654,-6.53,7.91,-0.05,27.64
23040,0.335,-0.0215,0.8633,-6.55,7.86,-0.06,27.61
23050,0.3341,-0.0228,0.8658,-6.53,7.88,-0.03,27.67
23060,0.3341,-0.0239,0.8595,-6.58,7.91,-0.03,27.65
23070,0.3325,-0.0239,0.8646,-6.53,7.82,-0.09,27.64
23080,0.3347,-0.0239,0.8657,-6.55,7.89,-0.02,27.66
23090,0.3351,-0.0223,0.864,-6.61,7.92,-0.03,27.66
23100,0.3348,-0.0212,0.8658,-6.63,7.88,-0.06,27.63
23110,0.3368,-0.0229,0.8655,-6.69,7.86,-0.03,27.64
23120,0.3335,-0.0228,0.8708,-6.58,7.89,-0.03,27.67
23130,0.3339,-0.024,0.8691,-6.58,7.94,0.03,27.65
23140,0.334,-0.0223,0.8669,-6.67,7.82,-0.05,27.64
23150,0.3359,-0.0262,0.8661,-6.63,7.83,-0.05,27.64
23160,0.3348,-0.021,0.8643,-6.63,7.89,-0.11,27.64
23170,0.3334,-0.0226,0.8661,-6.58,7.89,-0.08,27.66
23180,0.3341,-0.0215,0.8671,-6.63,7.91,-0.11,27.65
23190,0.3323,-0.0219,0.8682,-6.52,7.88,-0.06,27.65
23200,0.3313,-0.021,0.8617,-6.58,7.88,0.03,27.67
23210,0.3342,-0.0236,0.8639,-6.58,7.85,-0.08,27.64
23220,0.3363,-0.0199,0.8643,-6.64,7.85,0.08,27.64
23230,0.3342,-0.0247,0.8662,-6.61,7.85,0.02,27.63
23240,0.3347,-0.0217,0.8644,-6.56,7.89,0.0,27.62
23250,0.3328,-0.0237,0.864,-6.5,7.94,0.0,27.65
23260,0.3314,-0.0223,0.864,-6.64,7.88,-0.08,27.64
23270,0.3303,-0.0233,0.8621,-6.56,7.86,-0.09,27.65
23280,0.3325,-0.0232,0.8672,-6.49,7.92,-0.11,27.66
23290,0.3326,-0.022,0.8645,-6.52,7.85,-0.06,27.67
23300,0.3325,-0.0216,0.8622,-6.61,7.91,-0.03,27.65
23310,0.3333,-0.0227,0.864,-6.6,7.85,-0.06,27.65
23320,0.3374,-0.0227,0.8641,-6.52,7.91,-0.08,27.67
23330,0.3328,-0.021,0.8674,-6.53,7.85,-0.06,27.64
23340,0.3318,-0.0253,0.8673,-6.6,7.86,-0.06,27.66
23350,0.3344,-0.0215,0.8623,-6.56,7.83,-0.08,27.68
23360,0.3344,-0.0215,0.8638,-6.53,7.85,0.05,27.62
23370,0.3344,-0.0232,0.864,-6.58,7.8,-0.03,27.67
23380,0.3322,-0.0251,0.8599,-6.63,7.91,0.02,27.65
23390,0.3345,-0.0226,0.8655,-6.58,7.91,-0.02,27.64
23400,0.3311,-0.0229,0.8638,-6.58,7.88,0.02,27.63
23410,0.3304,-0.0243,0.8673,-6.64,7.8,-0.09,27.65
23420,0.3363,-0.0245,0.868,-6.63,7.86,0.02,27.64
23430,0.3339,-0.0234,0.8618,-6.6,7.91,-0.15,27.66
23440,0.3342,-0.022,0.8656,-6.64,7.88,-0.09,27.64
23450,0.3334,-0.0221,0.863,-6.61,7.92,-0.03,27.64
23460,0.3346,-0.0231,0.8634,-6.6,7.85,-0.11,27.63
23470,0.3337,-0.0228,0.8655,-6.6,7.89,0.0,27.66
23480,0.3335,-0.0225,0.8633,-6.56,7.94,-0.06,27.62
23490,0.3336,-0.0233,0.8657,-6.69,7.88,-0.03,27.64
23500,0.3342,-0.0231,0.8644,-6.61,7.85,0.02,27.64
23510,0.3341,-0.0233,0.8684,-6.61,7.89,-0.05,27.64
23520,0.3323,-0.0259,0.8672,-6.6,7.89,-0.02,27.65
23530,0.3335,-0.0242,0.8639,-6.6,7.86,-0.12,27.64
23540,0.3314,-0.0225,0.8627,-6.53,7.85,-0.05,27.63
23550,0.3324,-0.0231,0.8662,-6.52,7.86,-0.08,27.65
23560,0.3335,-0.0212,0.8663,-6.63,7.83,-0.06,27.68
23570,0.3368,-0.022,0.8678,-6.55,7.88,-0.05,27.65
23580,0.333,-0.0238,0.8646,-6.56,7.89,0.02,27.65
23590,0.3339,-0.0226,0.8658,-6.55,7.92,-0.08,27.66
23600,0.3335,-0.024,0.8645,-6.53,7.86,-0.08,27.65
23610,0.3331,-0.026,0.8668,-6.55,7.86,-0.11,27.62
23620,0.3346,-0.0239,0.8624,-6.53,7.85,-0.02,27.66
23630,0.3341,-0.0251,0.8672,-6.58,7.83,-0.08,27.67
23640,0.3323,-0.0232,0.8694,-6.56,7.89,-0.05,27.66
23650,0.3344,-0.0203,0.8621,-6.6,7.92,-0.08,27.64
23660,0.3353,-0.0231,0.8645,-6.63,7.85,-0.02,27.64
23670,0.3362,-0.0248,0.8671,-6.64,7.8,-0.05,27.63
23680,0.3335,-0.0234,0.8634,-6.67,7.91,0.0,27.65
23690,0.3344,-0.0255,0.8649,-6.6,7.94,-0.02,27.67
23700,0.3354,-0.024,0.8625,-6.61,7.89,-0.06,27.66
23710,0.3342,-0.0238,0.8644,-6.63,7.91,-0.06,27.66
23720,0.3353,-0.0239,0.8708,-6.63,7.91,-0.12,27.64
23730,0.3347,-0.0236,0.8608,-6.6,7.89,0.0,27.63
23740,0.3348,-0.0231,0.8649,-6.58,7.89,0.02,27.63
23750,0.3333,-0.024,0.8655,-6.53,7.89,-0.02,27.67
23760,0.3319,-0.0216,0.866,-6.63,7.86,-0.05,27.69
23770,0.3314,-0.021,0.8658,-6.55,7.86,-0.03,27.64
23780,0.3319,-0.0233,0.8632,-6.53,7.91,-0.02,27.64
23790,0.3335,-0.0221,0.8693,-6.53,7.85,-0.05,27.66
23800,0.3335,-0.024,0.8625,-6.67,7.85,-0.03,27.64
23810,0.3341,-0.0238,0.865,-6.66,7.91,-0.11,27.64
23820,0.3367,-0.0251,0.8641,-6.6,7.94,0.02,27.67
23830,0.3302,-0.0258,0.8635,-6.52,7.92,0.02,27.66
23840,0.333,-0.0247,0.8654,-6.61,7.88,-0.02,27.64
23850,0.3352,-0.0232,0.8632,-6.52,7.94,-0.03,27.66
23860,0.3342,-0.0237,0.8621,-6.56,7.88,0.0,27.68
23870,0.3346,-0.0231,0.8652,-6.5,7.88,-0.09,27.65
23880,0.3336,-0.0221,0.86,-6.58,7.92,0.02,27.69
23890,0.3337,-0.0204,0.8619,-6.56,7.88,-0.06,27.64
23900,0.3342,-0.0233,0.8619,-6.53,7.83,-0.02,27.62
23910,0.3339,-0.0244,0.8677,-6.53,7.89,-0.05,27.66
23920,0.3347,-0.0223,0.8663,-6.47,7.89,-0.05,27.64
23930,0.3303,-0.0222,0.8668,-6.56,7.91,-0.03,27.66
23940,0.3325,-0.0234,0.868,-6.64,7.82,-0.06,27.67
23950,0.335,-0.0219,0.8656,-6.63,7.88,-0.03,27.65
23960,0.3336,-0.0219,0.8657,-6.61,7.88,0.02,27.67
23971,0.3333,-0.0227,0.8661,-6.6,7.89,-0.02,27.65
23981,0.3312,-0.0223,0.8658,-6.61,7.83,-0.02,27.65
23991,0.3344,-0.0227,0.8623,-6.52,7.94,-0.02,27.64
24001,0.3348,-0.0216,0.8682,-6.53,7.85,-0.11,27.69
24011,0.3324,-0.0203,0.8635,-6.63,7.94,-0.14,27.64
24021,0.3339,-0.0231,0.8633,-6.56,7.88,-0.06,27.66
24031,0.3345,-0.0226,0.8661,-6.56,7.95,-0.02,27.68
24041,0.3334,-0.0249,0.8629,-6.56,7.85,0.0,27.65
24051,0.3342,-0.0223,0.8663,-6.67,7.86,-0.06,27.67
24061,0.3356,-0.0222,0.8667,-6.55,7.89,-0.06,27.66
24071,0.3325,-0.0193,0.8662,-6.58,7.95,-0.06,27.67
24081,0.3345,-0.0216,0.8665,-6.56,7.92,-0.02,27.65
24091,0.3337,-0.0214,0.8629,-6.58,7.89,-0.05,27.62
24101,0.3347,-0.0228,0.8661,-6.58,7.83,-0.02,27.66
24111,0.3337,-0.0236,0.8667,-6.53,7.83,0.0,27.65
24121,0.3323,-0.0229,0.864,-6.53,7.91,-0.03,27.7
24131,0.3344,-0.0201,0.861,-6.56,7.85,-0.03,27.64
24141,0.3328,-0.0195,0.866,-6.6,7.89,0.0,27.64
24151,0.3317,-0.0225,0.863,-6.55,7.86,-0.03,27.63
24162,0.3326,-0.0214,0.8645,-6.6,7.91,-0.08,27.67
24172,0.3352,-0.0236,0.8638,-6.55,7.86,-0.06,27.65
24182,0.3318,-0.0249,0.8684,-6.64,7.82,0.0,27.65
24192,0.3351,-0.0227,0.8684,-6.58,7.89,0.0,27.68
24202,0.3344,-0.0201,0.8621,-6.67,7.86,0.02,27.68
24212,0.334,-0.0188,0.8632,-6.53,7.89,-0.08,27.66
24222,0.3324,-0.026,0.8644,-6.55,7.92,-0.08,27.66
24232,0.3319,-0.024,0.8652,-6.56,7.91,-0.02,27.67
24242,0.3314,-0.0239,0.8676,-6.56,7.92,-0.05,27.66
24252,0.3328,-0.0232,0.8657,-6.58,7.86,-0.02,27.65
24262,0.3323,-0.0248,0.8672,-6.55,7.85,0.0,27.66
24272,0.3348,-0.0232,0.8618,-6.58,7.91,-0.03,27.67
24282,0.3337,-0.0228,0.8635,-6.5,7.86,0.03,27.67
24294,0.3333,-0.0217,0.8647,-6.63,7.95,-0.06,27.65
24304,0.3348,-0.0222,0.8646,-6.6,7.91,-0.06,27.66
24314,0.3341,-0.02,0.8632,-6.66,7.83,-0.06,27.64
24324,0.3359,-0.0225,0.8658,-6.63,7.83,-0.08,27.65
24334,0.3348,-0.0217,0.8635,-6.61,7.94,-0.03,27.67
24344,0.3358,-0.0233,0.8645,-6.52,7.89,-0.06,27.65
24354,0.3339,-0.0229,0.8641,-6.6,7.85,-0.05,27.64
24364,0.3307,-0.0237,0.8672,-6.64,7.86,-0.03,27.65
24374,0.3313,-0.0234,0.8656,-6.69,7.86,-0.02,27.63
24384,0.3354,-0.0231,0.8649,-6.58,7.88,-0.09,27.66
24394,0.3331,-0.0247,0.8645,-6.55,7.88,-0.02,27.67
24404,0.3334,-0.0222,0.8652,-6.63,7.89,-0.02,27.69
24414,0.334,-0.0212,0.8638,-6.6,7.88,-0.06,27.66
24424,0.3324,-0.0237,0.8645,-6.53,7.97,-0.08,27.64
24434,0.3345,-0.0205,0.8639,-6.55,7.86,-0.14,27.66
24444,0.3336,-0.0229,0.8636,-6.53,7.89,-0.09,27.64
24454,0.3356,-0.0258,0.869,-6.58,7.89,-0.02,27.67
24464,0.3325,-0.022,0.8616,-6.58,7.92,-0.12,27.65
24474,0.3335,-0.0234,0.8667,-6.56,7.86,-0.05,27.66
24484,0.3309,-0.022,0.8652,-6.56,7.8,-0.08,27.66
24494,0.337,-0.0201,0.8673,-6.56,7.89,-0.05,27.7
24504,0.3351,-0.0243,0.8656,-6.61,7.92,-0.05,27.67
24514,0.3323,-0.0231,0.8658,-6.63,7.94,0.0,27.68
24524,0.3325,-0.0233,0.8662,-6.6,7.88,-0.08,27.67
24534,0.3331,-0.0227,0.8646,-6.56,7.94,-0.03,27.66
24544,0.3339,-0.0254,0.8638,-6.64,7.86,-0.02,27.69
24554,0.3367,-0.0236,0.8602,-6.67,7.86,-0.05,27.67
24564,0.3329,-0.0227,0.866,-6.6,7.89,-0.09,27.68
24574,0.334,-0.0223,0.8649,-6.53,7.94,0.03,27.67
24584,0.3344,-0.0228,0.8608,-6.63,7.86,-0.06,27.65
24594,0.3337,-0.0233,0.8636,-6.58,7.92,-0.05,27.66
24604,0.334,-0.0236,0.8641,-6.6,7.85,0.0,27.66
24614,0.3351,-0.0217,0.8669,-6.6,7.83,0.03,27.66
24624,0.3347,-0.0221,0.8644,-6.61,7.86,-0.02,27.66
24634,0.3344,-0.0215,0.8616,-6.6,7.91,-0.02,27.66
24644,0.3344,-0.0228,0.8654,-6.58,7.92,-0.09,27.64
24654,0.3329,-0.0238,0.8672,-6.55,7.85,-0.11,27.64
24664,0.334,-0.0232,0.8624,-6.58,7.89,-0.08,27.68
24674,0.332,-0.0236,0.8665,-6.55,7.8,-0.05,27.66
24684,0.3347,-0.025,0.8665,-6.56,7.89,-0.05,27.66
24694,0.3373,-0.0243,0.8663,-6.53,7.89,-0.03,27.66
24704,0.3353,-0.0222,0.8627,-6.52,7.92,-0.02,27.65
24714,0.3363,-0.0255,0.8638,-6.52,7.86,0.0,27.66
24724,0.333,-0.0247,0.8668,-6.55,7.86,-0.11,27.67
24734,0.3324,-0.0242,0.8668,-6.6,7.88,-0.02,27.68
24744,0.3351,-0.0237,0.8666,-6.52,7.88,0.0,27.67
24754,0.3324,-0.0236,0.8661,-6.52,7.85,-0.05,27.66
24764,0.3323,-0.0223,0.8638,-6.5,7.89,-0.02,27.69
24774,0.3329,-0.0227,0.8595,-6.56,7.88,-0.06,27.67
24784,0.3381,-0.021,0.8633,-6.6,7.85,-0.06,27.66
24794,0.3358,-0.0239,0.8645,-6.56,7.88,-0.02,27.65
24804,0.3353,-0.0229,0.8643,-6.6,7.88,-0.05,27.66
24814,0.3356,-0.0242,0.8619,-6.6,7.89,-0.05,27.65
24824,0.3318,-0.0195,0.8655,-6.6,7.97,-0.14,27.67
24834,0.3308,-0.0229,0.8639,-6.6,7.86,-0.05,27.66
24844,0.3359,-0.0206,0.8672,-6.64,7.89,-0.12,27.66
24854,0.3356,-0.0217,0.8676,-6.67,7.89,-0.02,27.67
24864,0.3317,-0.0237,0.8674,-6.6,7.88,-0.05,27.64
24874,0.3345,-0.0222,0.8658,-6.55,7.92,0.03,27.67
24884,0.3315,-0.0206,0.8649,-6.55,7.89,-0.03,27.67
24894,0.3313,-0.0215,0.8696,-6.67,7.83,-0.09,27.69
24904,0.3339,-0.025,0.8649,-6.61,7.82,-0.03,27.67
24914,0.3331,-0.0231,0.864,-6.58,7.86,-0.02,27.67
24924,0.3372,-0.0237,0.8645,-6.58,7.88,-0.06,27.67
24934,0.3364,-0.0229,0.8632,-6.53,7.95,-0.02,27.66
24944,0.3367,-0.0236,0.8627,-6.55,7.88,-0.09,27.67
24954,0.3328,-0.0225,0.8629,-6.61,7.86,-0.02,27.69
24964,0.3334,-0.0228,0.8647,-6.58,7.97,-0.06,27.67
24974,0.3315,-0.0223,0.8633,-6.66,7.89,-0.02,27.64
24984,0.337,-0.0237,0.8644,-6.66,7.89,-0.05,27.67
24994,0.333,-0.0215,0.8612,-6.55,7.91,0.0,27.68
25004,0.3351,-0.0256,0.8633,-6.56,7.92,-0.09,27.66
25014,0.3361,-0.0219,0.8611,-6.58,7.89,-0.15,27.67
25024,0.3314,-0.0222,0.8622,-6.58,7.94,-0.05,27.69
25034,0.3358,-0.0228,0.8656,-6.6,7.85,-0.08,27.68
25044,0.335,-0.0212,0.8671,-6.66,7.8,-0.08,27.67
25054,0.3318,-0.0236,0.8662,-6.58,7.86,-0.05,27.66
25064,0.3324,-0.0228,0.8618,-6.58,7.89,-0.02,27.68
25074,0.3329,-0.0214,0.865,-6.64,7.94,0.0,27.63
25084,0.3364,-0.0221,0.8677,-6.5,7.86,0.08,27.68
25094,0.3364,-0.0232,0.8644,-6.61,7.91,0.0,27.67
25104,0.3352,-0.0231,0.8646,-6.63,7.94,-0.05,27.67
25114,0.3329,-0.0233,0.864,-6.6,7.91,-0.08,27.65
25124,0.3346,-0.0245,0.8624,-6.6,7.86,0.0,27.68
25134,0.3322,-0.0216,0.8695,-6.61,7.92,-0.08,27.67
25144,0.3358,-0.0236,0.8646,-6.63,7.89,-0.06,27.67
25154,0.3348,-0.0228,0.8639,-6.56,7.91,-0.05,27.67
25164,0.3344,-0.0225,0.8661,-6.61,7.89,-0.02,27.66
25174,0.3339,-0.0244,0.8632,-6.55,7.88,-0.02,27.68
25184,0.3341,-0.0229,0.8667,-6.52,7.95,-0.05,27.67
25194,0.3313,-0.0219,0.8645,-6.63,7.95,0.0,27.67
25204,0.333,-0.0258,0.8682,-6.61,7.89,-0.06,27.67
25214,0.337,-0.0256,0.8635,-6.69,7.83,0.03,27.67
25224,0.3345,-0.0231,0.866,-6.6,7.83,-0.06,27.66
25234,0.3329,-0.0211,0.8651,-6.56,7.91,-0.05,27.67
25244,0.3325,-0.0232,0.8647,-6.6,7.91,0.02,27.68
25254,0.3324,-0.0259,0.8678,-6.61,7.89,-0.02,27.66
25264,0.3336,-0.0237,0.8632,-6.63,7.91,-0.03,27.67
25274,0.3317,-0.0239,0.8669,-6.63,7.86,-0.03,27.66
25284,0.3346,-0.02,0.8661,-6.56,7.91,-0.12,27.66
25294,0.3347,-0.0217,0.8663,-6.58,7.92,-0.05,27.65
25304,0.335,-0.0217,0.8649,-6.49,7.88,-0.05,27.67
25314,0.3331,-0.0226,0.8677,-6.52,7.88,-0.03,27.67
25324,0.3352,-0.0225,0.8651,-6.56,7.95,-0.08,27.68
25334,0.3342,-0.0245,0.8658,-6.58,7.88,-0.09,27.68
25344,0.3354,-0.0236,0.8665,-6.56,7.95,-0.06,27.67
25354,0.3346,-0.022,0.8655,-6.53,7.91,-0.08,27.68
25364,0.3337,-0.0227,0.863,-6.63,7.92,-0.08,27.65
25374,0.3337,-0.0211,0.8684,-6.56,7.86,-0.02,27.67
25384,0.3325,-0.0211,0.8646,-6.61,7.88,-0.06,27.67
25394,0.3335,-0.0223,0.8671,-6.6,7.88,-0.06,27.67
25404,0.3331,-0.0214,0.8662,-6.63,7.92,-0.03,27.67
25414,0.3345,-0.0272,0.8666,-6.63,7.88,-0.12,27.65
25424,0.3339,-0.0248,0.8633,-6.58,7.88,-0.06,27.62
25434,0.3342,-0.0229,0.8635,-6.64,7.88,-0.09,27.63
25444,0.3359,-0.0227,0.8698,-6.64,7.91,0.0,27.64
25454,0.3344,-0.0226,0.8688,-6.58,7.88,-0.03,27.67
25464,0.3341,-0.0234,0.8621,-6.61,7.86,-0.02,27.68
25474,0.3319,-0.0201,0.864,-6.55,7.86,-0.05,27.66
25484,0.3322,-0.0222,0.8638,-6.66,7.86,0.0,27.67
25494,0.3323,-0.0206,0.8678,-6.55,7.88,-0.08,27.67
25504,0.3342,-0.0237,0.8656,-6.6,7.88,0.05,27.67
25514,0.3329,-0.0193,0.8673,-6.55,7.94,0.05,27.67
25524,0.3342,-0.0227,0.8624,-6.6,7.8,-0.06,27.67
25534,0.3346,-0.0248,0.8645,-6.58,7.82,-0.09,27.66
25544,0.3315,-0.0245,0.8665,-6.49,7.88,-0.09,27.68
25554,0.335,-0.0215,0.8644,-6.56,7.88,0.0,27.67
25564,0.3347,-0.0211,0.869,-6.53,7.89,-0.05,27.65
25574,0.3334,-0.0227,0.868,-6.53,7.92,-0.02,27.67
25584,0.3336,-0.0238,0.869,-6.63,7.94,0.05,27.66
25594,0.3353,-0.0228,0.8677,-6.61,7.95,-0.05,27.64
25604,0.3317,-0.0223,0.866,-6.53,7.91,-0.05,27.66
25614,0.3339,-0.0214,0.8655,-6.56,7.94,-0.06,27.67
25624,0.3329,-0.0254,0.8651,-6.61,7.82,-0.09,27.67
25634,0.3354,-0.0215,0.8649,-6.53,7.85,-0.06,27.68
25644,0.3315,-0.025,0.865,-6.56,7.88,-0.11,27.67
25654,0.3333,-0.0242,0.8619,-6.58,7.92,-0.09,27.67
25664,0.3344,-0.0229,0.8649,-6.52,7.88,-0.06,27.68
25674,0.334,-0.021,0.8676,-6.61,7.88,-0.06,27.67
25684,0.3337,-0.0226,0.8652,-6.6,7.89,-0.12,27.67
25694,0.3336,-0.0228,0.8679,-6.56,7.85,-0.06,27.66
25704,0.3335,-0.0248,0.8636,-6.53,7.88,0.0,27.68
25714,0.3319,-0.0208,0.863,-6.58,7.88,0.0,27.66
25724,0.3346,-0.0232,0.8627,-6.6,7.89,0.02,27.68
25734,0.3333,-0.0228,0.8658,-6.56,7.88,-0.03,27.67
25744,0.3315,-0.0244,0.8663,-6.56,7.88,-0.05,27.66
25754,0.3329,-0.0234,0.8651,-6.6,7.86,-0.11,27.67
25764,0.3304,-0.0208,0.8639,-6.61,7.85,-0.11,27.71
25774,0.3329,-0.0236,0.8619,-6.6,7.85,-0.11,27.69
25784,0.3364,-0.0228,0.8663,-6.6,7.86,-0.09,27.67
25794,0.3357,-0.0225,0.8651,-6.6,7.86,-0.09,27.67
25804,0.3335,-0.0234,0.866,-6.49,7.83,-0.12,27.67
25814,0.3319,-0.0233,0.8649,-6.64,7.85,-0.03,27.69
25824,0.3337,-0.0234,0.8634,-6.66,7.8,-0.05,27.68
25834,0.3336,-0.0206,0.8628,-6.55,7.86,-0.06,27.67
25844,0.3356,-0.0199,0.8641,-6.6,7.91,-0.03,27.68
25854,0.3335,-0.0229,0.8643,-6.5,7.94,-0.05,27.7
25864,0.3353,-0.0225,0.863,-6.46,7.83,-0.09,27.68
25874,0.3342,-0.0225,0.863,-6.6,7.86,-0.12,27.67
25884,0.3328,-0.021,0.8645,-6.47,7.85,-0.14,27.69
25894,0.334,-0.0229,0.8652,-6.55,7.82,-0.11,27.67
25904,0.3352,-0.0254,0.8645,-6.52,7.86,-0.02,27.66
25914,0.3336,-0.0258,0.8657,-6.56,7.86,-0.08,27.67
25924,0.3337,-0.0251,0.8711,-6.56,7.89,-0.12,27.67
25934,0.335,-0.021,0.8663,-6.53,7.92,-0.06,27.66
25944,0.3347,-0.0236,0.8646,-6.61,7.91,0.02,27.65
25954,0.3322,-0.0234,0.863,-6.55,7.91,-0.06,27.65
25964,0.3328,-0.0234,0.8656,-6.58,7.85,-0.09,27.66
25974,0.3335,-0.0248,0.8662,-6.5,7.91,0.03,27.68
25984,0.3333,-0.0238,0.8674,-6.6,7.94,-0.12,27.67
25994,0.3344,-0.021,0.8628,-6.52,7.88,-0.09,27.67
26005,0.3339,-0.0236,0.8644,-6.5,7.86,-0.06,27.66
26015,0.3344,-0.0238,0.8663,-6.64,7.95,-0.08,27.67
26025,0.3346,-0.0253,0.8654,-6.56,7.8,-0.05,27.68
26035,0.3311,-0.0215,0.8624,-6.58,7.82,-0.02,27.69
26045,0.3324,-0.0203,0.8638,-6.55,7.94,0.03,27.66
26055,0.3342,-0.0225,0.8673,-6.46,7.85,-0.06,27.71
26065,0.3339,-0.0238,0.8668,-6.63,7.83,-0.06,27.69
26075,0.3324,-0.0221,0.8665,-6.6,7.85,-0.03,27.66
26085,0.3306,-0.0208,0.8641,-6.61,7.92,-0.02,27.67
26095,0.3317,-0.0251,0.863,-6.58,7.91,-0.02,27.68
26105,0.3333,-0.0239,0.8655,-6.56,7.91,-0.08,27.69
26115,0.3367,-0.0236,0.8646,-6.6,7.88,0.02,27.71
26125,0.3319,-0.0232,0.8655,-6.56,7.92,0.02,27.68
26135,0.3342,-0.0217,0.8641,-6.53,7.86,-0.03,27.67
26145,0.334,-0.0216,0.8647,-6.53,7.92,-0.02,27.67
26155,0.3342,-0.0249,0.8655,-6.6,7.89,-0.02,27.66
26165,0.3333,-0.0225,0.8645,-6.61,7.83,-0.14,27.67
26175,0.3348,-0.0229,0.8646,-6.58,7.85,-0.06,27.67
26185,0.333,-0.0244,0.8639,-6.5,7.89,0.0,27.68
26195,0.3315,-0.0226,0.8616,-6.55,7.89,-0.11,27.7
26205,0.3325,-0.0242,0.8643,-6.55,7.91,-0.06,27.68
26215,0.3352,-0.0238,0.8677,-6.58,7.92,-0.02,27.68
26225,0.3361,-0.0248,0.8666,-6.53,7.88,-0.02,27.68
26235,0.334,-0.0214,0.8665,-6.55,7.97,-0.06,27.69
26245,0.3323,-0.0227,0.8652,-6.6,7.88,-0.02,27.69
26255,0.3333,-0.0219,0.8645,-6.5,7.86,-0.05,27.69
26265,0.3312,-0.0227,0.8627,-6.58,7.8,-0.11,27.7
26275,0.3314,-0.0209,0.8678,-6.6,7.86,-0.08,27.7
26285,0.3324,-0.0238,0.8639,-6.67,7.92,-0.03,27.69
26295,0.3357,-0.0254,0.863,-6.64,7.86,-0.08,27.68
26305,0.3317,-0.0179,0.8657,-6.64,7.83,-0.08,27.69
26315,0.3329,-0.0259,0.8633,-6.58,7.88,-0.08,27.68
26325,0.3367,-0.0226,0.8643,-6.61,7.86,-0.06,27.69
26335,0.3352,-0.0245,0.8677,-6.64,7.86,0.0,27.68
26345,0.3314,-0.0239,0.8639,-6.55,7.85,-0.06,27.68
26355,0.3335,-0.0221,0.8627,-6.55,7.89,-0.03,27.67
26365,0.3324,-0.0222,0.8658,-6.5,7.86,-0.06,27.67
26375,0.3369,-0.0238,0.8612,-6.56,7.89,-0.06,27.69
26385,0.3315,-0.0221,0.8665,-6.61,7.91,-0.09,27.69
26395,0.3341,-0.0217,0.8635,-6.5,7.89,-0.11,27.66
26405,0.334,-0.0214,0.8643,-6.61,7.92,-0.02,27.69
26415,0.3342,-0.0239,0.8647,-6.69,7.89,-0.11,27.67
26425,0.3308,-0.0258,0.8663,-6.56,7.83,0.0,27.68
26435,0.3341,-0.0232,0.8663,-6.58,7.88,0.05,27.67
26445,0.3339,-0.0238,0.863,-6.6,7.92,0.0,27.65
26455,0.3324,-0.0205,0.8644,-6.56,7.86,-0.03,27.66
26465,0.3354,-0.0203,0.8672,-6.55,7.91,-0.09,27.67
26475,0.335,-0.0217,0.8627,-6.6,7.89,-0.06,27.66
26485,0.3317,-0.0231,0.8682,-6.55,7.91,-0.02,27.67
26495,0.3333,-0.0247,0.8649,-6.49,7.94,-0.11,27.66
26505,0.3329,-0.0244,0.8658,-6.56,7.94,-0.05,27.67
26515,0.3363,-0.0228,0.8623,-6.63,7.88,-0.03,27.69
26525,0.3339,-0.0217,0.866,-6.5,7.94,-0.05,27.69
26535,0.3341,-0.0222,0.8658,-6.61,7.92,0.03,27.67
26545,0.3346,-0.0233,0.8613,-6.5,7.94,-0.09,27.67
26555,0.3368,-0.0212,0.8622,-6.56,7.89,-0.05,27.69
26565,0.3336,-0.0222,0.8654,-6.52,7.83,-0.03,27.67
26575,0.3311,-0.024,0.8647,-6.61,7.89,0.0,27.69
26585,0.3312,-0.0249,0.8621,-6.58,7.91,-0.12,27.68
26595,0.3335,-0.0236,0.8645,-6.61,7.91,-0.09,27.68
26605,0.3315,-0.022,0.8646,-6.58,7.86,-0.12,27.66
26615,0.3326,-0.025,0.8684,-6.64,7.83,-0.09,27.7
26625,0.3335,-0.0215,0.8716,-6.63,7.85,-0.03,27.68
26635,0.3324,-0.0201,0.864,-6.63,7.86,-0.09,27.65
26645,0.3341,-0.0216,0.8658,-6.61,7.88,-0.02,27.66
26655,0.3329,-0.0222,0.8666,-6.53,7.88,-0.03,27.69
26665,0.3354,-0.0245,0.8667,-6.61,7.89,0.0,27.67
26675,0.3322,-0.0244,0.8644,-6.53,7.89,0.0,27.68
26685,0.3339,-0.0216,0.8655,-6.6,7.86,-0.08,27.7
26695,0.3341,-0.0223,0.8671,-6.52,7.89,-0.06,27.66
26705,0.3329,-0.0229,0.8641,-6.6,7.91,-0.12,27.69
26715,0.3357,-0.0221,0.8641,-6.58,7.88,-0.03,27.71
26725,0.3323,-0.0205,0.8608,-6.53,7.85,0.05,27.7
26735,0.3372,-0.022,0.8644,-6.55,7.95,-0.05,27.69
26745,0.3354,-0.0254,0.8607,-6.55,7.91,0.0,27.67
26755,0.3319,-0.0243,0.863,-6.61,7.88,0.06,27.68
26765,0.3314,-0.0225,0.8654,-6.56,7.91,0.03,27.66
26775,0.3329,-0.0243,0.8672,-6.63,7.89,-0.05,27.69
26785,0.3341,-0.0215,0.8639,-6.5,7.91,-0.08,27.7
26795,0.3354,-0.0243,0.8656,-6.6,7.89,0.02,27.69
26805,0.334,-0.0219,0.8611,-6.56,7.92,-0.08,27.69
26815,0.3335,-0.0203,0.8673,-6.53,7.95,-0.08,27.7
26825,0.3344,-0.0225,0.8604,-6.61,7.91,-0.05,27.7
26835,0.3347,-0.0232,0.8684,-6.6,7.86,-0.06,27.69
26845,0.3369,-0.0228,0.8607,-6.61,7.86,0.0,27.67
26855,0.3334,-0.0219,0.8674,-6.56,7.91,-0.05,27.66
26865,0.3341,-0.0254,0.8677,-6.63,7.89,-0.08,27.68
26875,0.332,-0.0248,0.865,-6.63,7.86,-0.02,27.69
26885,0.3345,-0.022,0.8641,-6.55,7.91,-0.03,27.69
26895,0.335,-0.0251,0.8669,-6.63,7.83,0.0,27.68
26905,0.3364,-0.0223,0.8683,-6.63,7.91,-0.08,27.68
26915,0.3353,-0.0206,0.8667,-6.52,7.85,-0.08,27.71
26925,0.3346,-0.0227,0.8623,-6.64,7.89,0.03,27.68
26935,0.3344,-0.0233,0.8657,-6.6,7.92,-0.05,27.68
26945,0.335,-0.0229,0.8639,-6.6,7.91,-0.06,27.7
26955,0.3336,-0.0225,0.869,-6.56,7.82,-0.06,27.66
26965,0.3322,-0.0239,0.8647,-6.6,7.8,-0.09,27.66
26975,0.333,-0.0253,0.8632,-6.6,7.85,-0.09,27.69
26985,0.3309,-0.0223,0.8633,-6.44,7.83,-0.05,27.68
26995,0.3341,-0.0236,0.8655,-6.6,7.94,-0.02,27.67
27005,0.3337,-0.0219,0.8667,-6.49,7.89,0.02,27.68
27015,0.3325,-0.0231,0.8641,-6.52,7.85,0.06,27.68
27025,0.3348,-0.0232,0.8616,-6.5,7.95,0.02,27.67
27035,0.3326,-0.0231,0.8644,-6.58,7.89,0.0,27.69
27045,0.3344,-0.0223,0.8645,-6.56,7.88,0.0,27.67
27055,0.334,-0.0223,0.8636,-6.61,7.92,-0.02,27.69
27065,0.3341,-0.0216,0.8679,-6.55,7.89,-0.08,27.7
27075,0.3311,-0.0238,0.8677,-6.58,7.91,-0.05,27.69
27085,0.3351,-0.0232,0.8646,-6.6,7.86,0.02,27.68
27095,0.3328,-0.0232,0.8685,-6.52,7.89,-0.06,27.71
27105,0.334,-0.0219,0.8638,-6.61,7.88,-0.02,27.68
27115,0.334,-0.0259,0.8641,-6.66,7.88,0.02,27.68
27125,0.333,-0.0219,0.8661,-6.58,7.85,-0.06,27.69
27135,0.3337,-0.0229,0.8661,-6.63,7.88,-0.11,27.7
27145,0.3345,-0.0242,0.8671,-6.58,7.97,-0.06,27.69
27155,0.3342,-0.0217,0.8674,-6.52,7.89,-0.06,27.69
27165,0.3365,-0.0181,0.8695,-6.61,7.89,-0.08,27.69
27175,0.3304,-0.0225,0.8661,-6.58,7.91,-0.11,27.67
27185,0.3328,-0.0212,0.8665,-6.6,7.89,-0.14,27.68
27195,0.3331,-0.0226,0.8646,-6.55,7.88,-0.06,27.67
27205,0.3335,-0.0231,0.8663,-6.55,7.94,-0.03,27.68
27215,0.3324,-0.0223,0.863,-6.55,7.88,-0.03,27.7
27225,0.3344,-0.0253,0.8605,-6.58,7.89,0.0,27.69
27235,0.3317,-0.0234,0.8644,-6.6,7.86,0.02,27.71
27245,0.3329,-0.0199,0.865,-6.58,7.95,-0.08,27.68
27255,0.3335,-0.0234,0.8669,-6.55,7.95,0.02,27.7
27265,0.333,-0.0247,0.8629,-6.58,7.89,0.0,27.71
27275,0.333,-0.0231,0.8677,-6.56,7.92,-0.05,27.67
27285,0.3348,-0.027,0.8629,-6.5,7.89,-0.03,27.71
27295,0.338,-0.0237,0.8645,-6.6,7.92,-0.03,27.69
27305,0.3342,-0.0225,0.8663,-6.49,7.86,-0.08,27.72
27315,0.3342,-0.0249,0.8682,-6.49,7.83,0.02,27.67
27325,0.3322,-0.0223,0.8654,-6.55,7.82,-0.03,27.69
27335,0.3308,-0.0231,0.8652,-6.63,7.86,-0.03,27.68
27345,0.3333,-0.0226,0.8668,-6.58,7.91,-0.06,27.7
27355,0.3334,-0.025,0.8619,-6.58,7.94,-0.12,27.69
27365,0.3323,-0.024,0.865,-6.55,7.89,-0.08,27.68
27375,0.3339,-0.0199,0.8627,-6.58,7.89,-0.05,27.68
27385,0.3352,-0.0231,0.8643,-6.64,7.94,-0.03,27.67
27395,0.3326,-0.0232,0.8658,-6.63,7.95,-0.09,27.68
27405,0.3334,-0.0232,0.8616,-6.53,7.92,-0.03,27.67
27415,0.3354,-0.0229,0.8667,-6.63,7.79,-0.05,27.69
