t_ms,accel_x_g,accel_y_g,accel_z_g,gyro_x_dps,gyro_y_dps,gyro_z_dps,imu_temp_c
3288,0.2505,-0.0359,0.8783,-6.44,7.86,-0.03,26.5
3298,0.2511,-0.0372,0.8743,-6.52,7.91,-0.03,26.5
3308,0.2524,-0.0349,0.8809,-6.47,7.8,-0.03,26.5
3318,0.2502,-0.0358,0.8796,-6.43,7.82,-0.02,26.49
3328,0.2511,-0.0334,0.8795,-6.47,7.86,-0.08,26.49
3338,0.2522,-0.0371,0.8784,-6.4,7.77,-0.02,26.48
3349,0.2527,-0.0375,0.8806,-6.52,7.86,0.06,26.49
3359,0.254,-0.0381,0.8795,-6.53,7.85,-0.06,26.52
3369,0.2532,-0.0345,0.8768,-6.47,7.88,0.0,26.52
3379,0.2537,-0.0364,0.8804,-6.44,7.79,-0.06,26.5
3389,0.2523,-0.0347,0.8766,-6.49,7.94,-0.02,26.51
3399,0.2537,-0.0356,0.88,-6.55,7.94,-0.05,26.49
3409,0.2546,-0.0334,0.8759,-6.53,7.85,-0.05,26.51
3419,0.2523,-0.037,0.8772,-6.5,7.89,-0.05,26.53
3429,0.2524,-0.0345,0.8763,-6.58,7.89,-0.03,26.51
3439,0.251,-0.0369,0.8782,-6.52,7.89,-0.02,26.51
3449,0.2509,-0.0321,0.8766,-6.43,7.94,-0.02,26.5
3459,0.2533,-0.0354,0.876,-6.53,7.89,-0.06,26.52
3469,0.251,-0.0366,0.8746,-6.53,7.85,0.02,26.53
3479,0.2512,-0.0349,0.8773,-6.41,7.91,-0.08,26.51
3489,0.2546,-0.0353,0.8807,-6.43,7.89,0.03,26.54
3499,0.2552,-0.0349,0.8799,-6.47,7.86,-0.08,26.52
3509,0.2535,-0.0338,0.8802,-6.44,7.91,-0.03,26.51
3519,0.2527,-0.0345,0.8804,-6.53,7.83,-0.08,26.51
3529,0.2524,-0.0356,0.882,-6.61,7.85,-0.06,26.53
3539,0.2523,-0.0365,0.8771,-6.47,7.89,-0.02,26.55
3549,0.2517,-0.0334,0.8777,-6.41,7.88,-0.05,26.52
3559,0.2528,-0.035,0.8798,-6.47,7.89,0.03,26.52
3569,0.2545,-0.0375,0.8804,-6.52,7.95,-0.05,26.51
3579,0.2527,-0.0343,0.8779,-6.47,7.91,0.0,26.5
3589,0.2542,-0.0356,0.8802,-6.53,7.85,-0.03,26.52
3599,0.2539,-0.0399,0.8772,-6.5,7.89,-0.06,26.54
3609,0.2543,-0.0377,0.8784,-6.52,7.88,-0.05,26.5
3619,0.2532,-0.0355,0.8762,-6.58,7.88,-0.06,26.51
3629,0.2532,-0.0334,0.8779,-6.47,7.88,-0.06,26.53
3639,0.2489,-0.0343,0.8779,-6.5,7.89,-0.02,26.54
3649,0.2489,-0.0332,0.8778,-6.46,7.8,-0.02,26.53
3659,0.2527,-0.0363,0.8792,-6.5,7.86,0.0,26.51
3669,0.249,-0.0339,0.8782,-6.52,7.88,-0.03,26.49
3679,0.2521,-0.0366,0.8772,-6.49,7.82,0.0,26.51
3689,0.2506,-0.0355,0.8776,-6.47,7.83,0.02,26.55
3699,0.2534,-0.035,0.8754,-6.47,7.91,0.0,26.52
3709,0.2513,-0.0355,0.8762,-6.34,7.94,-0.06,26.53
3719,0.2537,-0.0334,0.8801,-6.41,7.89,-0.11,26.52
3729,0.2521,-0.0369,0.8796,-6.6,7.91,-0.11,26.54
3739,0.2521,-0.0365,0.88,-6.5,7.86,-0.08,26.54
3749,0.2533,-0.0376,0.8828,-6.49,7.86,-0.08,26.54
3759,0.2495,-0.035,0.8765,-6.49,7.91,-0.05,26.53
3769,0.2496,-0.0354,0.8779,-6.49,7.85,-0.09,26.51
3779,0.2509,-0.0371,0.8779,-6.43,7.83,-0.05,26.54
3789,0.2535,-0.0338,0.879,-6.5,7.89,-0.05,26.52
3799,0.2528,-0.0358,0.8756,-6.44,7.85,-0.05,26.52
3809,0.2543,-0.0327,0.8771,-6.43,7.83,-0.08,26.55
3819,0.2529,-0.0363,0.8746,-6.41,7.92,-0.05,26.55
3829,0.2511,-0.0344,0.8822,-6.55,7.92,-0.15,26.54
3839,0.2544,-0.0372,0.8789,-6.49,7.88,-0.11,26.54
3849,0.2528,-0.0405,0.879,-6.46,7.91,-0.03,26.52
3859,0.2506,-0.0354,0.8772,-6.5,7.89,-0.06,26.56
3869,0.2506,-0.0344,0.8813,-6.41,7.89,-0.05,26.57
3879,0.25,-0.0341,0.8772,-6.47,7.88,-0.03,26.54
3889,0.25,-0.0361,0.88,-6.5,7.82,-0.03,26.56
3899,0.2523,-0.0391,0.8827,-6.56,7.88,-0.05,26.54
3909,0.2533,-0.0371,0.8784,-6.56,7.88,0.0,26.56
3919,0.2531,-0.0359,0.8787,-6.5,7.92,-0.08,26.56
3929,0.2523,-0.0358,0.8778,-6.49,7.86,0.0,26.56
3939,0.2532,-0.0339,0.8772,-6.49,7.86,-0.06,26.56
3949,0.2513,-0.0393,0.8762,-6.49,7.88,0.02,26.57
3959,0.2513,-0.0372,0.8755,-6.47,7.88,-0.05,26.55
3969,0.2548,-0.0352,0.8762,-6.5,7.83,0.02,26.55
3979,0.2546,-0.0365,0.8782,-6.52,7.89,-0.06,26.55
3989,0.2545,-0.0336,0.8783,-6.53,7.89,0.0,26.54
3999,0.252,-0.0364,0.8788,-6.41,7.91,-0.05,26.56
4009,0.2546,-0.0354,0.8746,-6.55,7.85,-0.15,26.55
4019,0.2524,-0.036,0.8809,-6.49,7.83,-0.05,26.58
4029,0.2529,-0.0361,0.8773,-6.43,7.85,-0.02,26.57
4039,0.2496,-0.0349,0.8815,-6.52,7.85,-0.03,26.56
4049,0.2521,-0.0338,0.8784,-6.41,7.86,-0.08,26.58
4059,0.2517,-0.0336,0.8761,-6.5,7.88,-0.06,26.57
4069,0.2524,-0.0366,0.8798,-6.49,7.91,-0.03,26.56
4079,0.251,-0.0333,0.8785,-6.49,7.89,-0.09,26.56
4089,0.251,-0.0348,0.8792,-6.53,7.89,-0.08,26.56
4099,0.2528,-0.0371,0.8801,-6.44,7.95,-0.08,26.58
4109,0.2524,-0.0365,0.8812,-6.53,7.91,-0.08,26.58
4119,0.2522,-0.0371,0.8781,-6.5,7.83,-0.14,26.59
4129,0.2557,-0.0367,0.8799,-6.49,7.85,-0.02,26.57
4139,0.2524,-0.0359,0.8802,-6.49,7.8,-0.08,26.56
4149,0.2511,-0.0354,0.8785,-6.38,7.89,-0.03,26.58
4159,0.2505,-0.0339,0.8817,-6.47,7.92,-0.05,26.57
4169,0.251,-0.031,0.8778,-6.47,7.91,-0.02,26.57
4179,0.2518,-0.0348,0.8828,-6.49,7.91,-0.06,26.59
4189,0.2516,-0.0336,0.8763,-6.46,7.89,0.0,26.57
4199,0.2506,-0.037,0.8805,-6.49,7.83,0.0,26.57
4209,0.2549,-0.0369,0.88,-6.49,7.91,-0.12,26.57
4219,0.2526,-0.0356,0.8783,-6.47,7.83,-0.06,26.59
4229,0.2537,-0.0347,0.8752,-6.44,7.89,0.08,26.59
4239,0.254,-0.0353,0.8785,-6.44,7.89,-0.02,26.54
4249,0.2537,-0.0361,0.8794,-6.49,7.86,0.0,26.58
4259,0.2532,-0.035,0.8787,-6.52,7.89,0.02,26.57
4269,0.2507,-0.033,0.8777,-6.46,7.8,-0.08,26.57
4279,0.2527,-0.0361,0.8761,-6.35,7.89,-0.08,26.59
4290,0.252,-0.0341,0.8727,-6.43,7.89,-0.11,26.55
4300,0.2526,-0.0352,0.8815,-6.52,7.91,-0.03,26.57
4310,0.2516,-0.0353,0.8756,-6.52,7.91,-0.05,26.59
4320,0.2517,-0.0359,0.8801,-6.44,7.95,-0.14,26.58
4330,0.2512,-0.0389,0.8768,-6.44,7.88,-0.06,26.56
4340,0.2517,-0.0355,0.8752,-6.44,7.91,-0.06,26.57
4350,0.2506,-0.0347,0.8743,-6.47,7.89,-0.05,26.59
4360,0.2433,-0.0356,0.885,-6.44,8.09,-0.02,26.59
4370,0.2511,-0.035,0.8793,-6.44,8.02,-0.05,26.59
4380,0.2574,-0.0348,0.8771,-6.43,7.76,0.0,26.59
4390,0.2539,-0.0376,0.8776,-6.43,7.79,-0.08,26.57
4400,0.254,-0.0374,0.8757,-6.5,7.88,0.0,26.59
4410,0.2538,-0.0375,0.8765,-6.49,7.92,0.02,26.55
4420,0.2515,-0.0376,0.8789,-6.6,7.89,-0.08,26.59
4430,0.2538,-0.0383,0.877,-6.5,7.83,-0.02,26.58
4440,0.2512,-0.0367,0.8789,-6.47,7.82,-0.03,26.58
4450,0.249,-0.0359,0.8833,-6.47,7.94,-0.05,26.57
4460,0.2526,-0.0339,0.8762,-6.47,7.98,0.0,26.57
4470,0.2494,-0.0358,0.8774,-6.46,7.89,-0.02,26.57
4480,0.2531,-0.0345,0.8827,-6.43,7.85,-0.03,26.57
4490,0.256,-0.037,0.8782,-6.46,7.89,-0.09,26.55
4500,0.2542,-0.0355,0.8788,-6.55,7.88,-0.02,26.57
4510,0.2505,-0.0356,0.8724,-6.43,7.94,0.0,26.58
4520,0.2522,-0.0359,0.881,-6.55,7.88,-0.05,26.57
4530,0.2522,-0.0327,0.8806,-6.6,7.86,0.0,26.57
4540,0.2522,-0.0333,0.8763,-6.49,7.86,-0.03,26.57
4550,0.2545,-0.0341,0.8762,-6.55,7.92,-0.03,26.55
4560,0.2534,-0.0356,0.8788,-6.5,7.91,-0.09,26.59
4570,0.2518,-0.0347,0.8801,-6.47,7.92,-0.11,26.57
4580,0.2529,-0.0345,0.8778,-6.56,7.86,-0.09,26.58
4590,0.2527,-0.0322,0.8796,-6.47,7.92,-0.08,26.61
4600,0.2532,-0.0326,0.8794,-6.55,7.82,-0.02,26.6
4610,0.2526,-0.0343,0.8785,-6.5,7.88,-0.08,26.59
4620,0.2526,-0.0359,0.8759,-6.5,7.86,-0.02,26.59
4630,0.2537,-0.0354,0.8754,-6.52,7.91,-0.03,26.57
4640,0.2506,-0.0348,0.8749,-6.53,7.86,-0.06,26.59
4650,0.2529,-0.0341,0.8818,-6.5,7.94,-0.06,26.59
4660,0.2534,-0.0355,0.8773,-6.47,7.91,-0.05,26.62
4670,0.2521,-0.0375,0.8767,-6.52,7.94,-0.05,26.61
4680,0.2501,-0.0345,0.8824,-6.49,7.86,-0.09,26.58
4690,0.2511,-0.033,0.8766,-6.38,7.92,0.0,26.58
4700,0.254,-0.0354,0.8777,-6.52,7.92,0.02,26.61
4710,0.2535,-0.0366,0.8783,-6.5,7.95,0.02,26.6
4720,0.2538,-0.0349,0.8772,-6.46,7.91,-0.03,26.61
4730,0.2543,-0.0358,0.8795,-6.52,7.88,0.0,26.6
4740,0.2517,-0.0354,0.8782,-6.52,7.8,-0.14,26.6
4750,0.25,-0.0398,0.8785,-6.55,7.91,0.02,26.61
4760,0.2552,-0.0359,0.8795,-6.53,7.88,0.03,26.58
4770,0.2505,-0.0342,0.88,-6.53,7.85,-0.08,26.6
4780,0.2509,-0.0366,0.8793,-6.46,7.89,0.0,26.6
4790,0.2552,-0.0317,0.8805,-6.5,7.98,0.0,26.6
4800,0.2535,-0.0377,0.8784,-6.4,7.86,0.0,26.62
4810,0.2534,-0.0387,0.8821,-6.55,7.85,-0.05,26.6
4820,0.2506,-0.0355,0.8778,-6.49,7.91,-0.02,26.61
4830,0.2523,-0.0349,0.8809,-6.47,7.85,-0.06,26.6
4840,0.2507,-0.0365,0.8804,-6.44,7.85,-0.02,26.61
4850,0.2527,-0.037,0.8784,-6.49,7.85,0.02,26.6
4860,0.2516,-0.0367,0.8806,-6.49,7.88,-0.06,26.6
4870,0.249,-0.0342,0.8768,-6.58,7.86,-0.05,26.6
4880,0.2523,-0.0341,0.8761,-6.52,7.86,-0.14,26.6
4890,0.2538,-0.037,0.8807,-6.44,7.89,-0.02,26.6
4900,0.2526,-0.036,0.8796,-6.49,7.89,-0.02,26.6
4910,0.2535,-0.0372,0.8773,-6.53,7.91,-0.05,26.62
4920,0.2567,-0.0371,0.8787,-6.56,7.85,-0.02,26.6
4930,0.2505,-0.0376,0.8817,-6.47,7.91,-0.11,26.61
4940,0.2518,-0.0339,0.879,-6.6,7.86,-0.11,26.62
4950,0.2505,-0.0354,0.8822,-6.53,7.89,-0.06,26.6
4960,0.2504,-0.0339,0.8785,-6.41,7.92,-0.03,26.64
4970,0.2526,-0.0345,0.8772,-6.6,7.92,-0.03,26.63
4980,0.2535,-0.0339,0.877,-6.49,7.88,-0.09,26.62
4990,0.2531,-0.0361,0.8827,-6.55,7.91,-0.05,26.61
5000,0.2524,-0.0367,0.8792,-6.46,7.83,0.03,26.61
5010,0.2546,-0.0369,0.8774,-6.49,7.82,0.02,26.61
5020,0.2502,-0.0364,0.8737,-6.47,7.88,-0.02,26.62
5030,0.2556,-0.0353,0.8754,-6.5,7.85,-0.08,26.62
5040,0.2543,-0.0359,0.8771,-6.56,7.86,-0.02,26.62
5050,0.2527,-0.0342,0.8811,-6.47,7.88,0.0,26.62
5060,0.2516,-0.0356,0.8788,-6.52,7.88,-0.12,26.64
5070,0.2524,-0.0353,0.8805,-6.49,7.88,-0.02,26.64
5080,0.2528,-0.0325,0.8767,-6.47,7.89,0.06,26.62
5090,0.2515,-0.0347,0.8782,-6.52,7.88,0.02,26.63
5100,0.252,-0.0338,0.8773,-6.44,7.91,-0.05,26.62
5110,0.2526,-0.0337,0.8802,-6.43,7.8,-0.14,26.62
5120,0.2498,-0.0359,0.8779,-6.47,7.86,-0.03,26.6
5130,0.2532,-0.0377,0.8793,-6.47,7.85,-0.05,26.61
5140,0.2533,-0.036,0.8767,-6.53,7.88,-0.08,26.63
5150,0.2555,-0.0386,0.8787,-6.44,7.97,-0.05,26.6
5160,0.2551,-0.0364,0.8762,-6.5,7.85,-0.06,26.64
5170,0.252,-0.0358,0.879,-6.44,7.88,-0.12,26.64
5180,0.2522,-0.035,0.881,-6.5,7.83,-0.11,26.63
5190,0.2521,-0.0334,0.8804,-6.56,7.92,-0.06,26.64
5200,0.2526,-0.0352,0.8805,-6.47,7.94,-0.08,26.64
5210,0.2542,-0.0355,0.8771,-6.5,7.89,-0.06,26.61
5220,0.2538,-0.036,0.8734,-6.5,7.82,-0.06,26.63
5230,0.2529,-0.0342,0.8792,-6.5,7.89,0.0,26.63
5240,0.2539,-0.0363,0.8763,-6.53,7.89,0.05,26.64
5250,0.2511,-0.0348,0.8767,-6.49,7.89,-0.12,26.62
5260,0.2479,-0.0322,0.8776,-6.55,7.88,-0.06,26.62
5270,0.2529,-0.0361,0.8794,-6.5,7.88,-0.02,26.66
5280,0.2512,-0.0341,0.8772,-6.41,7.92,0.03,26.59
5290,0.2517,-0.0353,0.8767,-6.44,7.82,0.06,26.64
5300,0.2515,-0.0354,0.8804,-6.44,7.97,0.05,26.62
5310,0.2526,-0.037,0.879,-6.49,7.89,0.0,26.63
5320,0.2523,-0.0361,0.8789,-6.46,7.86,0.0,26.64
5330,0.2544,-0.037,0.8778,-6.52,7.85,-0.06,26.62
5340,0.2517,-0.0342,0.8756,-6.46,7.85,-0.09,26.63
5350,0.2529,-0.0345,0.8811,-6.52,7.88,-0.06,26.63
5360,0.2524,-0.0345,0.8765,-6.5,7.95,0.0,26.63
5370,0.2531,-0.0344,0.8802,-6.47,7.92,-0.06,26.62
5380,0.2502,-0.0358,0.8788,-6.5,7.86,-0.05,26.63
5390,0.2506,-0.0367,0.8746,-6.5,7.89,0.0,26.64
5400,0.2511,-0.0367,0.8759,-6.56,7.92,0.02,26.64
5410,0.2511,-0.0386,0.8772,-6.5,7.85,-0.03,26.64
5420,0.2496,-0.0353,0.8783,-6.55,7.91,-0.08,26.61
5430,0.2516,-0.037,0.8794,-6.5,7.88,-0.05,26.63
5440,0.2493,-0.0347,0.8782,-6.47,7.91,-0.02,26.61
5450,0.2532,-0.0336,0.8794,-6.49,7.88,-0.06,26.64
5460,0.2527,-0.035,0.881,-6.5,7.91,-0.06,26.65
5470,0.2491,-0.0354,0.8811,-6.47,7.89,-0.02,26.66
5480,0.2505,-0.0356,0.8828,-6.52,7.88,-0.06,26.66
5490,0.2528,-0.0366,0.8766,-6.56,7.88,-0.06,26.64
5500,0.2493,-0.0349,0.8768,-6.53,7.95,-0.11,26.67
5510,0.2496,-0.0337,0.8717,-6.5,7.91,-0.03,26.67
5520,0.2513,-0.037,0.8823,-6.5,7.86,-0.08,26.65
5530,0.2515,-0.0345,0.8783,-6.47,7.92,-0.02,26.65
5540,0.2537,-0.0337,0.8783,-6.41,7.89,0.02,26.64
5550,0.2506,-0.0354,0.8811,-6.52,7.91,-0.09,26.66
5560,0.2518,-0.0382,0.8778,-6.49,7.95,-0.06,26.64
5570,0.255,-0.0375,0.8761,-6.46,7.91,0.0,26.65
5580,0.2532,-0.0323,0.88,-6.43,7.85,-0.08,26.65
5590,0.2494,-0.0355,0.8788,-6.49,7.91,-0.02,26.65
5600,0.2509,-0.0342,0.8781,-6.5,7.88,-0.05,26.64
5610,0.2545,-0.0366,0.8789,-6.46,7.89,-0.09,26.64
5620,0.2505,-0.0387,0.8792,-6.41,7.88,-0.06,26.65
5630,0.2504,-0.0348,0.8794,-6.46,7.88,-0.03,26.67
5640,0.252,-0.0363,0.8762,-6.43,7.91,-0.03,26.67
5650,0.2509,-0.0347,0.8773,-6.47,7.92,0.02,26.65
5660,0.2524,-0.0348,0.8799,-6.46,7.89,-0.05,26.64
5670,0.2516,-0.0365,0.8787,-6.47,7.94,-0.06,26.67
5680,0.2532,-0.0347,0.8763,-6.55,7.88,-0.03,26.67
5690,0.2539,-0.0354,0.8794,-6.49,7.92,0.02,26.63
5700,0.2528,-0.0349,0.8794,-6.47,7.89,-0.02,26.64
5710,0.2512,-0.0366,0.876,-6.4,7.92,-0.06,26.67
5720,0.2507,-0.0344,0.8801,-6.53,7.89,-0.06,26.67
5730,0.2522,-0.0361,0.8806,-6.46,7.83,-0.11,26.66
5740,0.252,-0.0375,0.8782,-6.44,7.91,-0.11,26.64
5750,0.2561,-0.0366,0.8788,-6.53,7.91,0.0,26.65
5760,0.2544,-0.0345,0.8794,-6.5,7.91,-0.06,26.64
5770,0.2507,-0.0326,0.8778,-6.52,7.94,-0.05,26.65
5780,0.2554,-0.0334,0.8759,-6.44,7.92,-0.05,26.68
5790,0.2533,-0.0372,0.8821,-6.47,7.97,-0.02,26.68
5800,0.2528,-0.0347,0.8867,-6.5,7.89,-0.09,26.66
5810,0.2517,-0.0348,0.8768,-6.47,7.86,-0.05,26.63
5820,0.2515,-0.0356,0.8765,-6.53,7.82,0.02,26.66
5830,0.2529,-0.0381,0.88,-6.49,7.86,0.03,26.66
5840,0.2528,-0.0396,0.8796,-6.46,7.95,-0.06,26.65
5850,0.2517,-0.0338,0.8781,-6.43,7.94,-0.03,26.66
5860,0.2557,-0.0353,0.8718,-6.5,7.97,0.0,26.66
5870,0.2535,-0.0347,0.8738,-6.5,7.83,-0.03,26.67
5880,0.2535,-0.0339,0.8799,-6.46,7.82,-0.09,26.66
5890,0.2509,-0.036,0.8813,-6.5,7.83,0.0,26.66
5900,0.2506,-0.0344,0.8751,-6.49,7.92,-0.06,26.65
5910,0.2528,-0.0336,0.8734,-6.46,7.89,-0.02,26.66
5920,0.2522,-0.0355,0.8793,-6.6,7.88,0.02,26.66
5930,0.2537,-0.0366,0.8796,-6.5,7.88,0.02,26.65
5941,0.2531,-0.0382,0.8744,-6.56,7.89,-0.02,26.65
5951,0.2522,-0.0361,0.8776,-6.5,7.92,-0.03,26.67
5961,0.249,-0.0364,0.8805,-6.49,7.88,-0.03,26.66
5971,0.2532,-0.0361,0.8752,-6.49,7.85,0.05,26.65
5981,0.2513,-0.0353,0.8759,-6.5,7.88,-0.06,26.65
5991,0.2521,-0.0358,0.8792,-6.56,7.88,-0.09,26.67
6001,0.2526,-0.0353,0.8785,-6.53,7.94,0.02,26.67
6011,0.2522,-0.0356,0.8794,-6.46,7.86,-0.05,26.64
6021,0.252,-0.0326,0.8798,-6.46,7.89,-0.06,26.65
6031,0.2537,-0.0358,0.8801,-6.52,7.82,-0.09,26.69
6041,0.252,-0.0365,0.875,-6.44,7.88,-0.06,26.68
6051,0.2502,-0.0365,0.8788,-6.53,7.91,-0.06,26.67
6061,0.2515,-0.0363,0.8798,-6.49,7.85,-0.09,26.68
6071,0.2531,-0.0342,0.8781,-6.5,7.92,-0.05,26.67
6081,0.2521,-0.0381,0.88,-6.53,7.89,-0.06,26.67
6091,0.2542,-0.0341,0.8772,-6.5,7.91,-0.06,26.65
6101,0.2523,-0.0363,0.8722,-6.44,7.83,-0.05,26.68
6111,0.254,-0.037,0.8756,-6.52,7.94,-0.06,26.66
6121,0.2527,-0.0374,0.8771,-6.58,7.88,-0.06,26.66
6131,0.2524,-0.0361,0.8776,-6.47,7.83,-0.06,26.67
6141,0.2529,-0.0361,0.8789,-6.5,7.91,-0.05,26.68
6151,0.2509,-0.0353,0.8784,-6.46,7.91,-0.08,26.69
6161,0.2524,-0.036,0.8802,-6.52,7.88,-0.08,26.66
6171,0.2522,-0.0365,0.8768,-6.52,7.92,-0.12,26.68
6181,0.2534,-0.0337,0.8773,-6.5,7.92,-0.02,26.7
6191,0.2507,-0.0347,0.8751,-6.53,7.88,-0.05,26.66
6201,0.2527,-0.0348,0.8755,-6.55,7.83,-0.08,26.68
6211,0.2548,-0.0342,0.881,-6.44,7.88,-0.02,26.68
6221,0.2524,-0.0375,0.8782,-6.46,7.91,-0.05,26.68
6231,0.2516,-0.0363,0.8757,-6.49,7.86,-0.09,26.68
6241,0.2528,-0.0355,0.8809,-6.52,7.94,0.03,26.67
6251,0.2502,-0.0377,0.8802,-6.44,7.97,-0.03,26.67
6261,0.2561,-0.037,0.875,-6.53,7.91,-0.03,26.66
6271,0.2524,-0.0339,0.879,-6.53,7.91,-0.03,26.67
6281,0.2511,-0.0372,0.8777,-6.52,7.86,-0.02,26.67
6299,0.2521,-0.0332,0.8779,-6.53,7.91,-0.09,26.69
6309,0.2545,-0.0359,0.8798,-6.52,7.94,0.0,26.67
6319,0.2511,-0.0345,0.8809,-6.5,7.88,-0.11,26.68
6329,0.2552,-0.0352,0.8789,-6.53,7.89,-0.08,26.68
6339,0.2515,-0.0336,0.879,-6.52,7.92,-0.05,26.67
6349,0.2501,-0.0365,0.8787,-6.55,7.92,-0.11,26.68
6359,0.2516,-0.0389,0.8789,-6.44,7.89,-0.15,26.68
6369,0.255,-0.0358,0.8776,-6.44,7.89,-0.09,26.67
6379,0.2537,-0.0348,0.881,-6.47,7.85,0.03,26.69
6390,0.2524,-0.0336,0.8789,-6.44,7.83,0.03,26.67
6400,0.2526,-0.0345,0.8776,-6.52,7.91,-0.03,26.67
6410,0.2545,-0.0366,0.8738,-6.49,7.89,-0.03,26.66
6420,0.2505,-0.0352,0.8772,-6.5,7.94,-0.06,26.68
6430,0.2527,-0.0338,0.8744,-6.46,7.89,-0.03,26.71
6445,0.2537,-0.0388,0.8729,-6.53,7.71,-0.9,26.68
6455,0.2511,-0.0374,0.8801,-6.47,8.06,-0.14,26.68
6466,0.2469,-0.0361,0.8816,-6.5,7.97,-0.08,26.7
6476,0.252,-0.0355,0.8782,-6.49,7.92,-0.03,26.68
6486,0.2521,-0.0366,0.8778,-6.44,7.86,-0.06,26.68
6496,0.2504,-0.036,0.8785,-6.43,7.85,-0.08,26.7
6507,0.2539,-0.0358,0.877,-6.44,7.83,-0.03,26.71
6517,0.2535,-0.0352,0.8804,-6.55,7.91,-0.05,26.67
6527,0.2523,-0.0342,0.8768,-6.5,7.86,-0.03,26.69
6537,0.2531,-0.0337,0.8809,-6.52,7.88,-0.08,26.69
6547,0.2548,-0.0353,0.88,-6.49,7.89,-0.03,26.69
6557,0.2516,-0.0378,0.8796,-6.49,7.92,0.02,26.64
6567,0.2546,-0.0365,0.8831,-6.52,7.88,-0.03,26.69
6577,0.2516,-0.035,0.8811,-6.49,7.91,0.03,26.69
6587,0.2507,-0.0334,0.8759,-6.49,7.86,-0.06,26.69
6597,0.2517,-0.0359,0.8773,-6.56,7.89,-0.11,26.68
6607,0.252,-0.0361,0.8795,-6.47,7.88,-0.14,26.67
6617,0.252,-0.0326,0.877,-6.49,7.92,-0.05,26.68
6628,0.2518,-0.035,0.8761,-6.52,7.85,-0.08,26.69
6638,0.2506,-0.0352,0.8767,-6.55,7.88,-0.12,26.67
6648,0.2534,-0.0369,0.8774,-6.47,7.86,-0.05,26.7
6658,0.2533,-0.0352,0.8752,-6.46,7.91,-0.02,26.69
6668,0.2521,-0.0356,0.8812,-6.47,7.94,-0.02,26.69
6678,0.2516,-0.0348,0.88,-6.41,7.94,-0.02,26.7
6688,0.2529,-0.0353,0.8778,-6.49,7.95,-0.02,26.69
6698,0.2527,-0.037,0.8787,-6.49,7.89,0.0,26.69
6708,0.2524,-0.0353,0.8792,-6.55,7.94,-0.03,26.67
6718,0.25,-0.0377,0.877,-6.53,7.94,-0.06,26.69
6728,0.2533,-0.0356,0.8781,-6.43,7.86,-0.06,26.69
6738,0.254,-0.0334,0.874,-6.47,7.83,-0.05,26.7
6748,0.2506,-0.0332,0.8804,-6.53,7.89,-0.02,26.7
6758,0.2535,-0.037,0.8794,-6.49,7.91,-0.08,26.74
6768,0.2543,-0.0354,0.8799,-6.5,7.91,0.03,26.69
6778,0.251,-0.0344,0.8798,-6.49,7.88,0.0,26.7
6788,0.2516,-0.0372,0.8795,-6.49,7.92,0.02,26.71
6798,0.2538,-0.0327,0.8821,-6.56,7.88,-0.03,26.69
6808,0.2512,-0.0342,0.8801,-6.55,7.91,-0.06,26.68
6818,0.252,-0.0352,0.8743,-6.52,7.83,-0.08,26.67
6828,0.2506,-0.0332,0.8813,-6.43,7.94,-0.03,26.69
6838,0.2512,-0.0352,0.8774,-6.44,7.89,-0.06,26.68
6848,0.2529,-0.0352,0.8799,-6.46,7.94,-0.05,26.72
6858,0.2513,-0.0365,0.8778,-6.52,7.91,-0.03,26.7
6868,0.2555,-0.0358,0.8765,-6.52,7.88,0.02,26.69
6878,0.2534,-0.0345,0.8821,-6.55,7.89,-0.03,26.69
6888,0.2543,-0.0353,0.8726,-6.41,7.83,-0.02,26.69
6898,0.2517,-0.0352,0.8766,-6.43,7.89,-0.06,26.72
6908,0.2516,-0.035,0.8781,-6.55,7.94,-0.02,26.69
6918,0.2544,-0.0336,0.877,-6.47,7.89,0.0,26.69
6928,0.2513,-0.0348,0.8784,-6.52,7.92,-0.05,26.72
6938,0.2518,-0.0341,0.8776,-6.53,7.89,0.03,26.69
6949,0.2527,-0.0389,0.8767,-6.58,7.88,-0.06,26.69
6959,0.2529,-0.0339,0.8785,-6.5,7.92,-0.12,26.69
6970,0.2524,-0.0347,0.8782,-6.47,7.92,-0.02,26.69
6980,0.2498,-0.0365,0.8752,-6.52,7.89,-0.05,26.68
6990,0.252,-0.0336,0.8754,-6.47,7.91,-0.06,26.69
7000,0.2509,-0.036,0.874,-6.47,7.95,-0.03,26.71
7010,0.2534,-0.0353,0.8783,-6.47,7.88,-0.03,26.69
7020,0.2531,-0.0363,0.8772,-6.5,7.83,-0.08,26.69
7030,0.2518,-0.0372,0.8799,-6.52,7.89,-0.05,26.69
7040,0.2522,-0.0352,0.8774,-6.47,7.83,-0.05,26.69
7050,0.251,-0.036,0.8738,-6.56,7.91,-0.09,26.71
7060,0.2513,-0.0349,0.8789,-6.53,7.91,0.05,26.72
7070,0.2526,-0.035,0.8798,-6.47,7.94,-0.06,26.7
7080,0.2502,-0.0365,0.8793,-6.49,7.94,-0.08,26.7
7090,0.2539,-0.0363,0.8798,-6.52,7.8,-0.08,26.72
7100,0.2511,-0.0363,0.8757,-6.47,7.91,-0.09,26.71
7110,0.2557,-0.0349,0.8762,-6.55,7.86,-0.09,26.7
7120,0.2517,-0.037,0.8762,-6.44,7.95,0.02,26.71
7130,0.2504,-0.0349,0.8752,-6.55,7.85,-0.08,26.68
7140,0.2534,-0.0348,0.877,-6.49,7.83,-0.06,26.71
7150,0.2502,-0.0363,0.8778,-6.5,7.91,-0.08,26.7
7160,0.2532,-0.0358,0.8805,-6.46,7.91,-0.09,26.71
7170,0.2505,-0.0389,0.8792,-6.52,7.89,0.02,26.69
7180,0.2535,-0.035,0.8798,-6.49,7.91,-0.02,26.72
7190,0.252,-0.0348,0.8762,-6.56,7.85,-0.02,26.71
7200,0.2561,-0.0333,0.8771,-6.41,7.88,-0.03,26.68
7210,0.2528,-0.0359,0.8789,-6.47,7.89,0.02,26.7
7220,0.2538,-0.035,0.8782,-6.5,7.94,-0.08,26.7
7230,0.2506,-0.0353,0.8777,-6.55,7.97,-0.09,26.72
7240,0.2529,-0.0345,0.8763,-6.53,7.92,-0.06,26.72
7250,0.252,-0.0358,0.8783,-6.55,7.88,-0.06,26.72
7260,0.2512,-0.0345,0.8765,-6.53,7.98,-0.09,26.7
7270,0.2494,-0.0369,0.8829,-6.53,7.91,-0.11,26.7
7280,0.2523,-0.0359,0.8741,-6.46,7.92,-0.05,26.72
7291,0.2521,-0.032,0.8794,-6.46,7.95,-0.06,26.71
7301,0.2504,-0.0356,0.8787,-6.55,7.97,-0.05,26.7
7311,0.2504,-0.0311,0.8784,-6.5,7.91,-0.03,26.71
7321,0.2523,-0.0353,0.8737,-6.47,7.91,0.02,26.7
7331,0.2506,-0.0354,0.8787,-6.49,7.92,-0.09,26.71
7341,0.2505,-0.0369,0.8761,-6.5,7.91,-0.05,26.71
7351,0.2533,-0.0349,0.8796,-6.53,7.89,-0.05,26.7
7361,0.2524,-0.0359,0.8759,-6.58,7.91,-0.09,26.72
7371,0.2524,-0.0385,0.8776,-6.53,7.92,-0.05,26.73
7381,0.2517,-0.037,0.8766,-6.5,7.88,-0.02,26.71
7391,0.2516,-0.0349,0.8779,-6.49,7.89,-0.02,26.72
7401,0.2544,-0.0356,0.8766,-6.56,7.88,-0.03,26.69
7411,0.2542,-0.0353,0.8782,-6.53,7.94,0.02,26.73
7421,0.2523,-0.035,0.877,-6.55,7.88,-0.11,26.72
7431,0.2535,-0.0336,0.881,-6.5,7.89,-0.02,26.74
7441,0.2531,-0.0353,0.8811,-6.56,7.88,-0.08,26.72
7451,0.2511,-0.0375,0.8765,-6.55,7.97,0.02,26.7
7461,0.2537,-0.036,0.8773,-6.47,7.89,-0.02,26.72
7471,0.2524,-0.0352,0.8826,-6.56,7.89,-0.08,26.74
7481,0.2529,-0.0319,0.8795,-6.5,7.86,-0.09,26.71
7491,0.2533,-0.036,0.8785,-6.47,7.88,-0.03,26.7
7501,0.2518,-0.0338,0.8783,-6.49,7.86,0.05,26.72
7511,0.2527,-0.0343,0.8794,-6.47,7.97,0.05,26.72
7521,0.2515,-0.0376,0.8799,-6.53,7.88,-0.02,26.73
7531,0.2523,-0.0363,0.8789,-6.49,7.86,-0.06,26.72
7541,0.2515,-0.0355,0.8757,-6.5,7.91,-0.02,26.72
7551,0.2528,-0.0372,0.8795,-6.58,7.91,0.0,26.72
7561,0.251,-0.0354,0.8756,-6.53,7.88,-0.09,26.7
7571,0.2509,-0.0386,0.8792,-6.52,7.86,-0.03,26.72
7581,0.254,-0.037,0.8733,-6.6,7.89,-0.02,26.72
7591,0.2537,-0.032,0.8779,-6.5,7.94,-0.03,26.74
7601,0.2526,-0.0354,0.8823,-6.47,7.97,-0.06,26.73
7611,0.2518,-0.0349,0.8802,-6.49,7.95,-0.05,26.72
7621,0.2529,-0.033,0.8778,-6.43,7.91,0.0,26.7
7631,0.2563,-0.0353,0.8801,-6.53,7.88,0.02,26.72
7641,0.2495,-0.033,0.8748,-6.47,7.85,-0.02,26.72
7651,0.2522,-0.0347,0.8782,-6.5,7.91,-0.12,26.72
7661,0.255,-0.0354,0.8802,-6.55,7.83,0.0,26.73
7671,0.2515,-0.0341,0.8822,-6.5,7.89,-0.02,26.76
7681,0.2521,-0.0312,0.8756,-6.49,7.91,-0.02,26.74
7691,0.2543,-0.0338,0.8796,-6.53,7.94,-0.02,26.72
7701,0.2531,-0.0381,0.8798,-6.58,7.91,-0.03,26.73
7711,0.2528,-0.0353,0.8779,-6.52,7.92,-0.02,26.74
7721,0.25,-0.0338,0.88,-6.52,7.94,0.02,26.71
7731,0.2515,-0.0365,0.8765,-6.52,7.86,-0.03,26.72
7741,0.2531,-0.0355,0.8795,-6.47,7.83,-0.11,26.73
7751,0.2537,-0.0371,0.8787,-6.44,7.89,0.02,26.73
7761,0.2531,-0.0366,0.8739,-6.5,7.86,-0.08,26.74
7771,0.2509,-0.0364,0.88,-6.47,7.95,-0.06,26.74
7781,0.2518,-0.0348,0.8792,-6.5,7.83,-0.02,26.72
7791,0.2511,-0.0367,0.8782,-6.5,7.88,0.03,26.73
7801,0.2532,-0.037,0.879,-6.5,7.89,-0.02,26.72
7811,0.252,-0.0331,0.8798,-6.56,7.88,-0.06,26.73
7821,0.2534,-0.0339,0.8795,-6.49,7.83,-0.11,26.72
7831,0.2535,-0.0347,0.8776,-6.49,7.91,-0.05,26.74
7841,0.2509,-0.0332,0.8784,-6.49,7.85,-0.09,26.72
7851,0.2487,-0.0354,0.8785,-6.56,7.86,-0.05,26.75
7861,0.2502,-0.0358,0.8805,-6.52,7.89,-0.03,26.72
7871,0.2515,-0.0352,0.8759,-6.43,7.85,-0.06,26.74
7881,0.2509,-0.0363,0.8751,-6.44,7.92,-0.06,26.73
7891,0.2501,-0.0377,0.8805,-6.52,7.83,-0.02,26.74
7901,0.2507,-0.0355,0.8741,-6.49,7.95,-0.11,26.75
7911,0.2518,-0.0352,0.8771,-6.6,7.92,-0.05,26.74
7921,0.2517,-0.0364,0.8783,-6.55,7.88,-0.08,26.73
7931,0.2517,-0.0378,0.8768,-6.53,7.92,-0.06,26.75
7941,0.2507,-0.0323,0.8771,-6.5,7.86,-0.05,26.75
7951,0.2518,-0.0355,0.8779,-6.49,7.89,-0.05,26.73
7961,0.2501,-0.0369,0.8765,-6.47,7.89,-0.05,26.75
7971,0.2502,-0.0358,0.8837,-6.52,7.94,-0.11,26.74
7981,0.2524,-0.0358,0.8817,-6.58,7.88,-0.08,26.73
7991,0.2523,-0.0359,0.8776,-6.52,7.88,-0.11,26.72
8001,0.2528,-0.0353,0.8787,-6.53,7.85,-0.08,26.73
8011,0.2531,-0.0345,0.8781,-6.53,7.91,-0.11,26.74
8021,0.2544,-0.0352,0.876,-6.58,7.89,-0.08,26.73
8031,0.254,-0.035,0.8816,-6.53,7.94,0.05,26.74
8041,0.2545,-0.0363,0.8756,-6.5,7.88,-0.06,26.75
8051,0.2527,-0.0352,0.8805,-6.56,7.8,-0.08,26.74
8061,0.2526,-0.0388,0.8799,-6.52,7.92,-0.02,26.72
8071,0.2515,-0.0348,0.8787,-6.49,7.92,-0.06,26.76
8081,0.2515,-0.035,0.8811,-6.49,7.89,0.06,26.74
8091,0.2512,-0.0338,0.8784,-6.52,7.89,-0.03,26.72
8101,0.2532,-0.035,0.8798,-6.55,7.89,-0.05,26.74
8111,0.2526,-0.0349,0.8757,-6.55,7.88,0.02,26.74
8121,0.2544,-0.0356,0.8806,-6.53,7.89,-0.06,26.73
8131,0.2538,-0.0364,0.8804,-6.56,7.83,-0.02,26.73
8141,0.251,-0.0375,0.8777,-6.52,7.85,0.0,26.74
8151,0.2509,-0.0343,0.8776,-6.5,7.88,-0.11,26.73
8161,0.2526,-0.036,0.8812,-6.5,7.88,-0.14,26.72
8171,0.2516,-0.035,0.8787,-6.5,7.86,-0.08,26.73
8181,0.2527,-0.0352,0.8813,-6.56,7.94,-0.09,26.74
8191,0.2544,-0.0331,0.8793,-6.53,7.92,-0.03,26.77
8201,0.2534,-0.0389,0.8802,-6.4,7.85,0.05,26.76
8211,0.2524,-0.0366,0.8738,-6.56,8.0,0.05,26.73
8221,0.2542,-0.0359,0.8798,-6.49,7.88,-0.03,26.75
8231,0.2494,-0.037,0.8817,-6.53,7.92,-0.05,26.74
8241,0.2496,-0.0377,0.8795,-6.55,7.89,0.0,26.74
8251,0.25,-0.033,0.8781,-6.5,7.94,0.0,26.76
8261,0.2516,-0.0345,0.88,-6.55,7.83,0.03,26.74
8271,0.2518,-0.0342,0.8832,-6.53,7.92,-0.09,26.74
8281,0.2537,-0.0381,0.8783,-6.5,7.86,-0.03,26.77
8291,0.2515,-0.0336,0.8798,-6.47,7.94,0.03,26.74
8301,0.2537,-0.0363,0.8839,-6.55,7.92,-0.02,26.76
8311,0.2535,-0.0328,0.8773,-6.53,7.85,-0.05,26.77
8321,0.2501,-0.035,0.8762,-6.52,7.89,-0.11,26.76
8331,0.2502,-0.0344,0.8778,-6.52,7.89,0.0,26.73
8341,0.2533,-0.0361,0.8774,-6.5,7.95,-0.02,26.74
8351,0.2537,-0.0347,0.8794,-6.56,7.88,0.0,26.75
8361,0.2511,-0.0353,0.8783,-6.53,7.86,-0.02,26.78
8371,0.2521,-0.035,0.8776,-6.46,7.91,-0.06,26.76
8381,0.2505,-0.0378,0.8783,-6.44,7.95,-0.05,26.77
8391,0.2535,-0.0337,0.8804,-6.46,7.86,-0.06,26.75
8401,0.2534,-0.0367,0.8781,-6.47,7.88,-0.03,26.76
8411,0.2538,-0.0372,0.8763,-6.41,7.91,0.0,26.74
8421,0.2538,-0.036,0.8796,-6.46,7.89,-0.05,26.74
8431,0.2546,-0.0364,0.8806,-6.58,7.89,-0.11,26.74
8441,0.252,-0.0339,0.8802,-6.5,7.83,-0.11,26.74
8451,0.2505,-0.0344,0.8779,-6.47,7.88,-0.08,26.76
8461,0.2513,-0.0385,0.88,-6.5,7.8,-0.05,26.74
8471,0.2535,-0.0364,0.8759,-6.52,7.91,-0.05,26.73
8482,0.2518,-0.035,0.8752,-6.53,7.88,-0.03,26.75
8492,0.2518,-0.0364,0.8767,-6.53,7.94,-0.06,26.74
8502,0.2549,-0.0352,0.8805,-6.43,7.89,-0.05,26.75
8512,0.2515,-0.0332,0.8774,-6.52,7.88,-0.09,26.76
8522,0.2529,-0.0398,0.8785,-6.5,7.91,-0.11,26.74
8532,0.2537,-0.0354,0.8781,-6.55,7.89,-0.03,26.77
8542,0.2513,-0.0334,0.8785,-6.53,7.89,-0.03,26.78
8552,0.2518,-0.0341,0.8762,-6.56,7.86,-0.08,26.75
8562,0.2546,-0.0354,0.8794,-6.5,7.82,-0.06,26.76
8572,0.2513,-0.035,0.8818,-6.53,7.92,-0.03,26.77
8582,0.2542,-0.0355,0.8779,-6.5,7.91,-0.02,26.75
8592,0.2523,-0.0365,0.8776,-6.55,7.95,0.0,26.74
8602,0.2516,-0.037,0.8802,-6.49,7.91,-0.03,26.78
8612,0.2543,-0.0343,0.8787,-6.47,7.89,-0.05,26.75
8622,0.2552,-0.0353,0.8835,-6.43,7.92,0.02,26.75
8632,0.2556,-0.0355,0.8782,-6.47,7.83,-0.09,26.75
8642,0.2544,-0.0386,0.8781,-6.46,7.91,-0.05,26.75
8652,0.2529,-0.0365,0.8788,-6.5,7.91,-0.03,26.76
8662,0.2509,-0.0352,0.88,-6.49,7.94,-0.06,26.73
8672,0.2534,-0.0338,0.8822,-6.5,7.92,0.0,26.75
8683,0.2518,-0.038,0.881,-6.44,7.97,-0.05,26.78
8693,0.2509,-0.0308,0.8813,-6.5,7.91,-0.02,26.76
8703,0.2549,-0.0328,0.8789,-6.53,7.94,0.03,26.78
8713,0.2529,-0.0341,0.8804,-6.47,7.89,-0.02,26.77
8723,0.2517,-0.038,0.8779,-6.44,7.88,-0.11,26.76
8733,0.252,-0.0367,0.879,-6.52,7.85,-0.08,26.75
8743,0.2516,-0.0361,0.882,-6.52,7.89,-0.08,26.77
8753,0.2532,-0.0353,0.88,-6.47,7.89,-0.12,26.73
8763,0.25,-0.0359,0.8757,-6.53,7.95,-0.05,26.75
8773,0.2539,-0.0338,0.88,-6.61,7.86,0.02,26.75
8783,0.2539,-0.0378,0.8816,-6.5,7.92,0.02,26.77
8793,0.2513,-0.0347,0.8748,-6.46,7.92,-0.05,26.77
8803,0.2518,-0.0363,0.8789,-6.53,7.89,-0.03,26.76
8813,0.2518,-0.0341,0.8777,-6.5,7.88,0.0,26.74
8823,0.2521,-0.0364,0.8768,-6.5,7.86,-0.06,26.77
8833,0.2521,-0.0353,0.8826,-6.41,7.83,-0.06,26.78
8843,0.2527,-0.0356,0.8817,-6.43,7.85,-0.05,26.76
8853,0.2522,-0.0336,0.8793,-6.44,7.88,-0.11,26.79
8863,0.2542,-0.0366,0.8801,-6.6,7.91,-0.03,26.76
8873,0.2496,-0.0348,0.8767,-6.58,7.88,-0.03,26.78
8883,0.2521,-0.0345,0.879,-6.44,7.91,-0.12,26.76
8893,0.2542,-0.036,0.8771,-6.4,7.91,-0.05,26.77
8903,0.2512,-0.0345,0.8746,-6.46,7.79,0.0,26.77
8913,0.2524,-0.0359,0.8759,-6.58,7.8,-0.05,26.78
8923,0.2502,-0.0337,0.8766,-6.58,7.92,-0.08,26.76
8933,0.2521,-0.0345,0.881,-6.53,7.92,-0.08,26.76
8943,0.2543,-0.0369,0.8788,-6.53,7.94,-0.05,26.77
8953,0.2533,-0.0381,0.8767,-6.53,7.92,0.0,26.76
8963,0.2506,-0.036,0.8801,-6.52,7.92,-0.05,26.79
8973,0.2522,-0.0359,0.8806,-6.52,7.89,-0.11,26.8
8983,0.2516,-0.0367,0.8789,-6.53,7.88,-0.03,26.77
8993,0.2531,-0.0331,0.8794,-6.49,7.82,-0.06,26.79
9003,0.2515,-0.0363,0.8784,-6.49,7.91,-0.06,26.78
9013,0.2518,-0.0354,0.8778,-6.55,7.95,-0.02,26.8
9023,0.2523,-0.0364,0.8799,-6.52,7.86,-0.14,26.77
9033,0.2518,-0.0361,0.8805,-6.47,7.88,-0.11,26.77
9043,0.2511,-0.0339,0.879,-6.52,7.86,-0.02,26.77
9053,0.2516,-0.0376,0.877,-6.5,7.94,-0.02,26.79
9063,0.2531,-0.0327,0.8802,-6.46,7.89,0.02,26.79
9073,0.254,-0.036,0.8782,-6.53,7.88,-0.11,26.77
9083,0.2507,-0.0369,0.8759,-6.43,7.82,-0.02,26.77
9093,0.2521,-0.0366,0.876,-6.5,7.94,-0.05,26.8
9103,0.2518,-0.0371,0.8781,-6.53,7.91,-0.11,26.78
9113,0.251,-0.0327,0.877,-6.53,7.85,-0.08,26.77
9123,0.2533,-0.0338,0.8767,-6.53,7.86,-0.05,26.78
9133,0.2548,-0.0361,0.8779,-6.53,7.82,-0.06,26.79
9143,0.2537,-0.0376,0.8774,-6.46,7.8,-0.11,26.77
9153,0.2538,-0.037,0.8792,-6.41,7.83,-0.06,26.8
9163,0.2524,-0.0354,0.8799,-6.55,7.88,-0.05,26.77
9173,0.252,-0.0363,0.8772,-6.46,7.89,-0.09,26.77
9183,0.2491,-0.035,0.8795,-6.49,7.94,0.02,26.76
9193,0.251,-0.0385,0.8733,-6.53,7.86,-0.03,26.78
9203,0.2533,-0.0333,0.8757,-6.5,7.85,-0.12,26.77
9213,0.2513,-0.0345,0.8807,-6.44,7.88,0.0,26.8
9223,0.2533,-0.0354,0.8809,-6.43,7.94,-0.02,26.79
9233,0.2528,-0.0348,0.8785,-6.56,7.91,-0.02,26.78
9243,0.248,-0.0342,0.8799,-6.52,7.91,-0.03,26.78
9253,0.254,-0.0388,0.8787,-6.55,7.89,0.02,26.8
9263,0.2513,-0.0345,0.8806,-6.56,7.89,-0.08,26.76
9273,0.2511,-0.0363,0.8804,-6.52,7.85,-0.03,26.78
9283,0.2518,-0.0367,0.8806,-6.47,7.95,-0.06,26.78
9293,0.2528,-0.0331,0.8806,-6.47,7.86,-0.05,26.78
9303,0.2516,-0.0363,0.8792,-6.49,7.94,-0.03,26.79
9313,0.2557,-0.0345,0.8793,-6.52,7.97,-0.03,26.79
9323,0.2546,-0.035,0.8766,-6.49,7.91,-0.05,26.78
9333,0.2501,-0.0367,0.8766,-6.5,7.89,-0.05,26.77
9343,0.2524,-0.0354,0.881,-6.44,7.86,-0.06,26.78
9353,0.2517,-0.0334,0.8795,-6.53,7.86,0.05,26.81
9363,0.2534,-0.0366,0.8784,-6.47,7.85,-0.09,26.77
9373,0.2548,-0.03,0.8788,-6.61,7.86,-0.02,26.81
9383,0.2504,-0.0375,0.8777,-6.46,7.91,-0.14,26.79
9393,0.2526,-0.0363,0.8783,-6.52,7.83,-0.06,26.8
9403,0.2535,-0.0359,0.8755,-6.41,7.86,-0.09,26.78
9413,0.2524,-0.0345,0.879,-6.49,7.88,0.11,26.77
9423,0.2521,-0.0336,0.8789,-6.49,7.94,-0.06,26.79
9433,0.249,-0.0344,0.8779,-6.64,7.91,-0.02,26.79
9443,0.2518,-0.0353,0.8787,-6.55,7.88,0.02,26.8
9453,0.251,-0.0383,0.8785,-6.52,7.83,0.0,26.81
9463,0.2551,-0.0376,0.8745,-6.52,7.89,-0.11,26.76
9473,0.2539,-0.0371,0.8795,-6.47,7.92,-0.03,26.81
9483,0.2501,-0.0337,0.8772,-6.49,7.94,-0.11,26.79
9493,0.251,-0.0352,0.881,-6.53,7.88,-0.12,26.8
9503,0.2502,-0.0366,0.8795,-6.49,7.89,-0.05,26.79
9513,0.2523,-0.0354,0.881,-6.49,7.94,-0.09,26.78
9523,0.2532,-0.0394,0.8794,-6.53,7.89,-0.06,26.82
9533,0.2528,-0.0342,0.8802,-6.52,7.95,-0.02,26.8
9543,0.2537,-0.0358,0.881,-6.52,7.89,0.0,26.8
9553,0.2538,-0.0343,0.8798,-6.41,7.86,-0.03,26.8
9563,0.254,-0.0366,0.8801,-6.47,7.92,-0.11,26.78
9573,0.2493,-0.0354,0.8794,-6.46,7.91,0.02,26.79
9583,0.2517,-0.0342,0.8777,-6.61,7.86,-0.03,26.81
9593,0.2535,-0.0367,0.8757,-6.58,7.88,-0.09,26.81
9603,0.2546,-0.0367,0.8767,-6.56,7.82,-0.03,26.82
9613,0.251,-0.0361,0.8809,-6.53,7.83,-0.06,26.82
9623,0.2532,-0.0344,0.8792,-6.55,7.97,-0.02,26.79
9633,0.2527,-0.0355,0.8789,-6.52,7.91,-0.05,26.79
9643,0.2523,-0.0378,0.8802,-6.6,7.86,0.0,26.79
9653,0.2524,-0.0393,0.8785,-6.52,7.95,-0.08,26.8
9663,0.2548,-0.0349,0.8774,-6.47,7.94,-0.02,26.81
9673,0.25,-0.0353,0.8778,-6.56,7.91,-0.09,26.79
9683,0.2524,-0.037,0.8755,-6.49,7.91,-0.03,26.78
9693,0.2517,-0.0381,0.8795,-6.53,7.85,0.0,26.82
9703,0.2496,-0.0375,0.8813,-6.52,7.89,-0.03,26.79
9713,0.2526,-0.0365,0.8789,-6.53,7.95,-0.06,26.78
9723,0.2539,-0.0381,0.8752,-6.49,7.86,-0.02,26.8
9733,0.252,-0.038,0.8794,-6.43,7.85,-0.03,26.8
9743,0.2545,-0.0381,0.8768,-6.53,7.88,-0.11,26.8
9753,0.2524,-0.0353,0.8784,-6.6,7.85,0.02,26.8
9763,0.2538,-0.035,0.8787,-6.49,7.94,-0.06,26.82
9773,0.2529,-0.0367,0.8757,-6.53,7.86,-0.08,26.84
9783,0.2537,-0.0363,0.8822,-6.55,7.89,-0.08,26.83
9793,0.2515,-0.0337,0.8829,-6.49,7.85,-0.06,26.82
9803,0.2513,-0.0345,0.8779,-6.49,7.88,-0.02,26.79
9813,0.2506,-0.032,0.8806,-6.58,7.94,-0.02,26.82
9823,0.2544,-0.0341,0.879,-6.5,7.89,-0.11,26.82
9833,0.2527,-0.0361,0.8784,-6.53,7.91,-0.03,26.81
9843,0.2526,-0.0325,0.8827,-6.44,7.88,-0.05,26.81
9853,0.2502,-0.0339,0.8785,-6.55,7.91,-0.03,26.81
9863,0.2505,-0.0375,0.8772,-6.52,7.89,-0.06,26.8
9873,0.251,-0.0366,0.875,-6.53,7.91,-0.02,26.79
9883,0.2501,-0.0371,0.8779,-6.6,7.88,0.03,26.78
9893,0.2517,-0.0355,0.8822,-6.46,7.88,-0.05,26.81
9903,0.2543,-0.0361,0.8782,-6.44,7.83,-0.02,26.81
9913,0.2543,-0.0365,0.8801,-6.47,7.91,-0.12,26.82
9923,0.2493,-0.0358,0.8779,-6.58,7.82,-0.02,26.83
9933,0.2527,-0.035,0.8783,-6.49,7.86,0.03,26.82
9943,0.2516,-0.0356,0.8752,-6.52,7.91,-0.02,26.8
9953,0.2543,-0.0344,0.88,-6.53,7.94,-0.06,26.81
9963,0.2527,-0.0382,0.88,-6.5,7.85,-0.02,26.79
9973,0.2531,-0.0352,0.8809,-6.55,7.92,0.06,26.81
9983,0.2524,-0.0326,0.8812,-6.49,7.91,-0.05,26.82
9993,0.2512,-0.0341,0.8737,-6.49,7.95,0.03,26.8
10003,0.2512,-0.0337,0.8766,-6.52,7.88,-0.02,26.82
10013,0.2491,-0.0349,0.8799,-6.49,7.86,-0.02,26.79
10023,0.2504,-0.0355,0.8779,-6.52,7.91,-0.09,26.79
10033,0.2534,-0.0355,0.8744,-6.52,7.91,0.05,26.8
10043,0.2542,-0.0361,0.8796,-6.41,7.92,0.0,26.81
10053,0.2511,-0.0367,0.8773,-6.5,7.92,-0.06,26.84
10063,0.2552,-0.0366,0.8774,-6.52,7.92,-0.02,26.82
10073,0.2526,-0.0337,0.8817,-6.44,7.88,-0.03,26.82
10083,0.2516,-0.036,0.8738,-6.49,7.85,-0.03,26.85
10093,0.2493,-0.0352,0.8781,-6.46,7.89,-0.02,26.82
10103,0.2516,-0.0339,0.8735,-6.46,7.86,-0.02,26.82
10113,0.2543,-0.0348,0.8778,-6.44,7.89,0.02,26.82
10123,0.2534,-0.0382,0.8827,-6.5,7.89,-0.03,26.84
10133,0.2531,-0.0376,0.8772,-6.41,7.94,-0.06,26.81
10143,0.2531,-0.0333,0.8793,-6.49,7.94,-0.08,26.82
10153,0.2542,-0.0365,0.8766,-6.49,7.86,-0.06,26.81
10163,0.2526,-0.0342,0.8781,-6.52,7.88,-0.05,26.82
10173,0.2524,-0.0347,0.8809,-6.58,7.91,-0.05,26.83
10183,0.2566,-0.0352,0.8766,-6.5,7.88,-0.02,26.82
10193,0.2529,-0.0385,0.8773,-6.53,7.83,-0.06,26.83
10203,0.2524,-0.0367,0.8795,-6.4,7.88,-0.06,26.79
10213,0.2535,-0.0376,0.879,-6.43,7.88,0.0,26.81
10223,0.2535,-0.0359,0.8826,-6.52,7.88,-0.08,26.82
10233,0.252,-0.0333,0.8746,-6.55,7.91,-0.12,26.82
10243,0.2524,-0.0359,0.876,-6.46,7.85,-0.05,26.81
10253,0.2533,-0.0355,0.8782,-6.47,7.89,-0.02,26.82
10263,0.2515,-0.0355,0.8761,-6.47,7.86,-0.08,26.82
10273,0.2509,-0.0365,0.8798,-6.49,7.89,-0.02,26.81
10283,0.2555,-0.0339,0.8774,-6.46,7.83,0.05,26.8
10293,0.2505,-0.035,0.8748,-6.52,7.94,-0.02,26.84
10303,0.255,-0.035,0.879,-6.56,7.89,-0.03,26.85
10313,0.2526,-0.0342,0.8779,-6.49,7.85,-0.02,26.83
10323,0.255,-0.0363,0.8794,-6.44,7.91,0.02,26.81
10333,0.2506,-0.0387,0.88,-6.49,7.94,-0.06,26.81
10343,0.2543,-0.0361,0.8777,-6.52,7.98,-0.02,26.82
10353,0.2522,-0.0363,0.879,-6.49,7.95,-0.12,26.84
10363,0.2533,-0.0356,0.8789,-6.52,7.92,-0.06,26.82
10373,0.2513,-0.0378,0.8795,-6.47,7.97,-0.05,26.83
10383,0.2505,-0.0385,0.8806,-6.5,7.82,-0.03,26.83
10393,0.2511,-0.0358,0.8804,-6.52,7.92,-0.14,26.84
10403,0.2512,-0.033,0.8772,-6.56,7.8,-0.09,26.81
10413,0.254,-0.0337,0.8746,-6.49,7.85,-0.05,26.81
10423,0.2506,-0.0382,0.8755,-6.5,7.89,0.02,26.81
10433,0.2516,-0.0374,0.8784,-6.5,7.89,-0.05,26.83
10443,0.2539,-0.038,0.8779,-6.55,7.88,-0.05,26.82
10453,0.2518,-0.0354,0.8746,-6.49,7.85,-0.03,26.82
10463,0.2537,-0.0374,0.8802,-6.56,7.92,-0.08,26.82
10473,0.255,-0.0375,0.8806,-6.49,7.83,-0.06,26.81
10483,0.2522,-0.0359,0.8795,-6.56,7.94,-0.08,26.82
10493,0.2521,-0.0349,0.8798,-6.53,7.91,-0.03,26.82
10503,0.2511,-0.0359,0.8834,-6.49,7.8,-0.03,26.83
10513,0.2518,-0.0343,0.8788,-6.52,7.89,-0.02,26.82
10523,0.2511,-0.0349,0.8817,-6.44,7.92,-0.03,26.82
10533,0.2527,-0.0367,0.8782,-6.46,7.95,-0.06,26.81
10543,0.2529,-0.0347,0.8816,-6.38,7.91,-0.08,26.8
10553,0.2507,-0.0359,0.8799,-6.49,7.94,0.02,26.84
10563,0.2499,-0.0378,0.8833,-6.56,7.92,-0.03,26.83
10573,0.2499,-0.0358,0.8807,-6.52,7.83,-0.02,26.81
10583,0.2532,-0.0367,0.8807,-6.52,7.86,-0.03,26.81
10593,0.2518,-0.0345,0.8761,-6.56,7.91,-0.12,26.8
10603,0.2528,-0.0332,0.8785,-6.46,7.92,0.03,26.81
10613,0.2511,-0.0337,0.8794,-6.46,7.88,0.06,26.82
10623,0.2518,-0.0367,0.8789,-6.47,7.82,-0.05,26.81
10633,0.25,-0.0361,0.8777,-6.46,7.92,-0.02,26.81
10643,0.2567,-0.0348,0.8804,-6.55,7.85,-0.06,26.82
10653,0.2528,-0.035,0.8813,-6.6,7.92,-0.03,26.82
10663,0.2517,-0.033,0.8777,-6.47,7.91,-0.12,26.83
10673,0.2526,-0.0377,0.8796,-6.5,7.94,-0.03,26.81
10683,0.2533,-0.0361,0.8761,-6.55,7.92,-0.06,26.82
10693,0.2534,-0.0364,0.8773,-6.5,7.77,-0.09,26.85
10703,0.2532,-0.0367,0.8779,-6.46,7.86,-0.03,26.83
10713,0.2509,-0.0381,0.8783,-6.43,7.86,-0.02,26.83
10723,0.2513,-0.0327,0.8755,-6.52,7.92,-0.06,26.83
10733,0.2495,-0.0341,0.876,-6.47,7.85,-0.05,26.81
10743,0.2506,-0.0364,0.8754,-6.47,7.86,-0.02,26.83
10753,0.2538,-0.0321,0.8754,-6.44,7.88,-0.06,26.81
10763,0.255,-0.035,0.8783,-6.44,7.85,-0.11,26.83
10773,0.2509,-0.0367,0.8756,-6.5,7.86,-0.11,26.84
10783,0.2523,-0.0353,0.8765,-6.66,7.92,-0.05,26.83
10793,0.254,-0.0381,0.8809,-6.6,7.85,0.02,26.83
10803,0.2513,-0.0363,0.8777,-6.5,7.89,-0.03,26.83
10813,0.2506,-0.0354,0.8801,-6.58,7.91,-0.09,26.84
10823,0.2506,-0.0374,0.8763,-6.53,7.91,0.0,26.83
10833,0.2499,-0.0345,0.8793,-6.52,7.86,-0.06,26.85
10843,0.2523,-0.0338,0.8809,-6.53,7.89,-0.08,26.83
10853,0.2523,-0.0344,0.8771,-6.53,7.82,-0.03,26.83
10863,0.2532,-0.0356,0.8822,-6.5,7.88,0.03,26.85
10873,0.2527,-0.0367,0.8811,-6.5,7.86,-0.06,26.84
10883,0.2528,-0.0352,0.8778,-6.5,7.85,-0.05,26.86
10893,0.2544,-0.0406,0.8801,-6.47,7.86,-0.03,26.83
10903,0.2516,-0.0348,0.8783,-6.5,7.95,-0.15,26.8
10913,0.2538,-0.0348,0.876,-6.53,7.91,-0.08,26.85
10923,0.2533,-0.0355,0.8751,-6.47,7.91,0.02,26.83
10933,0.2539,-0.0345,0.8815,-6.53,7.88,-0.06,26.85
10943,0.252,-0.0347,0.8733,-6.46,7.92,0.02,26.84
10953,0.2528,-0.035,0.8783,-6.55,7.94,-0.02,26.85
10963,0.2565,-0.0353,0.8789,-6.5,7.88,0.03,26.8
10973,0.2521,-0.0347,0.8794,-6.55,7.86,0.02,26.84
10983,0.2527,-0.0353,0.8802,-6.55,7.95,-0.05,26.84
10993,0.2533,-0.0349,0.8781,-6.5,7.85,-0.06,26.83
11003,0.251,-0.0371,0.8796,-6.55,7.92,-0.06,26.84
11013,0.2513,-0.0372,0.8788,-6.53,7.91,-0.05,26.83
11023,0.2506,-0.0361,0.877,-6.53,7.86,-0.15,26.84
11033,0.2518,-0.0376,0.8772,-6.55,7.86,-0.05,26.85
11043,0.2518,-0.036,0.8798,-6.44,7.94,-0.06,26.84
11053,0.2538,-0.0389,0.8754,-6.55,7.88,0.02,26.84
11063,0.2522,-0.0356,0.879,-6.55,7.91,0.0,26.83
11073,0.2531,-0.0348,0.8779,-6.53,7.94,-0.03,26.86
11083,0.2521,-0.0354,0.8806,-6.53,7.83,0.02,26.83
11093,0.2505,-0.0355,0.8777,-6.56,7.88,-0.03,26.84
11103,0.2529,-0.0352,0.8777,-6.58,7.94,0.0,26.85
11113,0.2526,-0.0363,0.8789,-6.52,7.97,-0.12,26.82
11123,0.2529,-0.0353,0.8782,-6.47,7.82,-0.02,26.85
11133,0.2532,-0.0372,0.8801,-6.52,7.83,0.03,26.83
11143,0.2518,-0.0348,0.875,-6.47,7.91,-0.08,26.86
11153,0.2542,-0.0372,0.8804,-6.53,7.94,0.0,26.82
11163,0.251,-0.0371,0.8813,-6.5,7.89,-0.03,26.86
11173,0.2528,-0.0342,0.8807,-6.47,7.86,-0.03,26.86
11183,0.2523,-0.0358,0.8781,-6.49,7.83,0.0,26.86
11193,0.2531,-0.0352,0.8815,-6.5,7.91,-0.08,26.83
11203,0.2542,-0.0361,0.8773,-6.44,7.88,-0.02,26.84
11213,0.2548,-0.0382,0.8752,-6.44,7.82,-0.02,26.85
11223,0.2543,-0.0355,0.8794,-6.52,7.94,0.0,26.84
11233,0.2545,-0.035,0.8799,-6.52,7.91,-0.02,26.85
11243,0.2522,-0.0345,0.8821,-6.44,7.83,0.03,26.84
11253,0.2533,-0.0388,0.875,-6.49,7.89,-0.06,26.85
11263,0.2522,-0.035,0.8798,-6.52,7.89,-0.03,26.84
11273,0.2527,-0.036,0.8799,-6.53,7.85,-0.02,26.85
11283,0.2504,-0.0366,0.8754,-6.53,7.85,-0.03,26.84
11293,0.2498,-0.0358,0.8765,-6.5,7.85,-0.08,26.83
11303,0.2546,-0.035,0.8739,-6.5,7.97,-0.11,26.82
11313,0.2544,-0.0358,0.8793,-6.5,7.85,-0.02,26.85
11323,0.2523,-0.0338,0.8787,-6.55,7.83,-0.02,26.84
11333,0.2522,-0.0342,0.8735,-6.56,7.88,0.05,26.84
11343,0.254,-0.0342,0.8785,-6.5,7.92,-0.02,26.88
11353,0.2534,-0.0354,0.8812,-6.53,7.85,-0.02,26.83
11363,0.2512,-0.0358,0.8781,-6.52,7.88,-0.03,26.85
11373,0.251,-0.0378,0.8806,-6.46,7.94,0.0,26.86
11383,0.2531,-0.0375,0.8765,-6.49,7.89,-0.11,26.86
11393,0.252,-0.0365,0.8774,-6.63,7.86,-0.06,26.84
11403,0.2523,-0.0388,0.8774,-6.52,7.92,-0.03,26.85
11413,0.2515,-0.0332,0.8807,-6.49,7.89,0.0,26.84
11423,0.2524,-0.0344,0.8787,-6.5,7.88,-0.02,26.84
11433,0.2501,-0.0354,0.8794,-6.52,7.89,-0.08,26.86
11443,0.2537,-0.036,0.8776,-6.44,7.86,-0.02,26.83
11453,0.2543,-0.0345,0.8804,-6.55,7.86,-0.08,26.84
11463,0.2544,-0.0355,0.8801,-6.41,7.89,-0.05,26.86
11473,0.2534,-0.0352,0.8772,-6.55,7.94,-0.03,26.86
11483,0.2512,-0.0345,0.8799,-6.49,7.92,-0.06,26.87
11493,0.2513,-0.0367,0.8815,-6.49,7.85,-0.03,26.85
11503,0.2533,-0.0347,0.8787,-6.56,7.91,-0.05,26.82
11513,0.2526,-0.0396,0.8759,-6.5,7.91,0.05,26.84
11523,0.2509,-0.0383,0.882,-6.52,7.95,-0.06,26.85
11533,0.2478,-0.0361,0.879,-6.61,7.91,-0.02,26.84
11543,0.2518,-0.0364,0.8788,-6.49,7.86,-0.09,26.83
11553,0.2524,-0.0386,0.8795,-6.46,7.88,-0.02,26.85
11563,0.2512,-0.0345,0.8806,-6.41,7.89,0.02,26.86
11573,0.2538,-0.0358,0.8789,-6.46,7.89,0.03,26.85
11583,0.2513,-0.0356,0.8826,-6.41,7.88,-0.06,26.86
11593,0.2531,-0.0344,0.8767,-6.43,7.94,0.0,26.85
11603,0.2521,-0.0337,0.8762,-6.47,7.85,-0.03,26.85
11613,0.2506,-0.0336,0.8783,-6.53,7.91,-0.02,26.84
11623,0.2515,-0.0297,0.8785,-6.52,7.97,0.02,26.87
11633,0.25,-0.0288,0.8801,-6.56,7.88,-0.06,26.86
11643,0.2524,-0.0295,0.88,-6.63,7.83,0.03,26.85
11653,0.2534,-0.0325,0.8799,-6.7,7.89,-0.05,26.86
11663,0.2545,-0.0364,0.8795,-6.66,7.91,-0.05,26.82
11673,0.2543,-0.0396,0.8794,-6.63,7.94,-0.11,26.84
11683,0.2524,-0.0426,0.877,-6.56,7.88,-0.03,26.87
11693,0.2531,-0.0452,0.876,-6.66,7.86,-0.05,26.84
11703,0.2517,-0.0426,0.8713,-6.44,7.92,-0.02,26.86
11713,0.2512,-0.0432,0.8739,-6.5,7.95,0.03,26.85
11723,0.2512,-0.0371,0.8787,-6.41,7.94,-0.06,26.87
11733,0.2506,-0.0343,0.8823,-6.44,7.82,-0.08,26.86
11743,0.2551,-0.0291,0.88,-6.38,7.91,0.0,26.87
11753,0.2513,-0.0272,0.882,-6.46,7.92,-0.06,26.85
11763,0.2539,-0.0291,0.8837,-6.61,7.95,-0.08,26.85
11773,0.2556,-0.0266,0.8811,-6.55,7.86,-0.08,26.85
11783,0.2526,-0.0294,0.8762,-6.64,7.85,-0.09,26.88
11793,0.2505,-0.0352,0.8777,-6.53,7.86,-0.09,26.88
11803,0.2513,-0.0388,0.8739,-6.52,7.91,-0.06,26.84
11813,0.2518,-0.0446,0.8724,-6.56,7.86,-0.05,26.87
11823,0.2532,-0.0466,0.8806,-6.53,7.88,-0.03,26.86
11833,0.2502,-0.0417,0.8771,-6.49,7.88,0.02,26.83
11843,0.2494,-0.0403,0.8801,-6.46,7.88,-0.03,26.87
11853,0.2524,-0.037,0.8787,-6.49,7.91,0.0,26.87
11863,0.2518,-0.0337,0.8801,-6.35,7.86,0.03,26.87
11873,0.2532,-0.0305,0.8788,-6.49,7.83,0.05,26.88
11883,0.2524,-0.0302,0.8795,-6.44,7.85,-0.03,26.87
11893,0.2527,-0.0287,0.8839,-6.52,7.92,-0.03,26.87
11903,0.2527,-0.0272,0.8793,-6.52,7.85,-0.08,26.85
11913,0.2501,-0.0315,0.8784,-6.52,7.86,-0.06,26.87
11923,0.2529,-0.0345,0.8783,-6.66,7.86,0.02,26.85
11933,0.2512,-0.04,0.8782,-6.49,7.91,-0.09,26.87
11943,0.2501,-0.0432,0.8773,-6.63,7.95,-0.06,26.88
11953,0.2537,-0.0438,0.8816,-6.5,7.92,-0.11,26.85
11963,0.2533,-0.0417,0.8813,-6.38,7.89,-0.06,26.87
11973,0.2515,-0.0415,0.876,-6.44,7.86,0.09,26.86
11983,0.2511,-0.037,0.8805,-6.44,7.92,0.06,26.84
11993,0.2515,-0.0333,0.8767,-6.46,7.94,-0.06,26.85
12003,0.252,-0.0289,0.8795,-6.58,7.92,-0.05,26.86
12013,0.2408,-0.0391,0.8848,-6.44,8.17,-0.02,26.87
12023,0.2596,-0.0281,0.8721,-6.35,7.85,0.0,26.88
12033,0.2616,-0.0283,0.8854,-6.5,7.89,0.0,26.87
12043,0.2502,-0.0322,0.8796,-6.56,8.03,-0.08,26.88
12053,0.2427,-0.0283,0.8846,-6.52,7.95,-0.05,26.88
12063,0.2554,-0.0269,0.8833,-6.75,7.76,-0.03,26.87
12073,0.2549,-0.0378,0.8799,-6.69,7.86,-0.14,26.85
12083,0.2537,-0.0426,0.8646,-6.61,7.88,-0.09,26.87
12093,0.2559,-0.0465,0.87,-6.43,7.88,-0.09,26.87
12103,0.2566,-0.0499,0.8779,-6.46,7.85,-0.05,26.86
12113,0.256,-0.0443,0.8724,-6.32,7.97,-0.03,26.89
12123,0.2499,-0.0452,0.8699,-6.34,7.83,-0.03,26.85
12133,0.2465,-0.0325,0.8822,-6.43,7.94,0.03,26.89
12143,0.2565,-0.033,0.8857,-6.41,7.94,0.0,26.86
12154,0.2539,-0.0251,0.886,-6.5,8.09,0.05,26.88
12164,0.2498,-0.0258,0.8751,-6.52,7.82,0.0,26.86
12174,0.2517,-0.0228,0.8827,-6.55,7.8,-0.05,26.86
12185,0.2515,-0.0275,0.8827,-6.61,7.91,-0.06,26.86
12195,0.2529,-0.0283,0.8734,-6.6,7.95,-0.09,26.86
12205,0.2499,-0.0371,0.8732,-6.64,7.85,-0.06,26.89
12215,0.2496,-0.0446,0.874,-6.55,7.86,-0.08,26.87
12225,0.2581,-0.0453,0.8796,-6.61,7.94,-0.02,26.89
12235,0.2527,-0.0498,0.8778,-6.58,7.97,-0.09,26.87
12245,0.2523,-0.0433,0.8772,-6.52,7.89,-0.06,26.86
12255,0.2533,-0.042,0.8843,-6.44,7.88,-0.02,26.85
12267,0.2538,-0.0337,0.8795,-6.41,8.0,0.0,26.88
12277,0.2529,-0.0306,0.8809,-6.38,7.97,-0.09,26.89
12287,0.2502,-0.0293,0.8766,-6.46,7.91,0.05,26.86
12297,0.2496,-0.0269,0.8789,-6.47,7.83,0.0,26.86
12308,0.2491,-0.0298,0.8788,-6.56,7.92,-0.09,26.87
12318,0.2523,-0.0315,0.8805,-6.53,7.86,0.03,26.87
12328,0.2518,-0.0358,0.8778,-6.66,7.85,-0.08,26.86
12338,0.2516,-0.0364,0.8818,-6.63,7.91,-0.06,26.87
12348,0.2527,-0.0396,0.8767,-6.63,7.85,-0.06,26.89
12358,0.2531,-0.0414,0.875,-6.56,7.86,-0.06,26.89
12368,0.2557,-0.0428,0.8761,-6.47,7.86,0.02,26.9
12378,0.255,-0.0404,0.879,-6.34,7.88,-0.08,26.89
12388,0.2511,-0.0405,0.8789,-6.46,7.89,-0.11,26.88
12398,0.2512,-0.0339,0.8784,-6.52,7.89,0.03,26.87
12408,0.2505,-0.0322,0.8816,-6.49,7.79,-0.12,26.87
12418,0.2507,-0.0282,0.8794,-6.52,7.88,-0.02,26.87
12428,0.2495,-0.0282,0.88,-6.47,7.89,-0.03,26.86
12438,0.2516,-0.0293,0.8799,-6.5,7.94,0.05,26.87
12448,0.2526,-0.0308,0.8795,-6.56,7.83,-0.05,26.87
12458,0.2529,-0.0325,0.8722,-6.58,7.85,-0.08,26.87
12468,0.2511,-0.0385,0.8794,-6.53,7.83,-0.11,26.87
12478,0.2527,-0.0411,0.875,-6.61,7.86,-0.03,26.87
12488,0.2522,-0.0397,0.8784,-6.53,7.88,0.06,26.87
12498,0.2545,-0.0393,0.873,-6.52,7.86,-0.09,26.86
12508,0.2543,-0.0398,0.8717,-6.47,7.86,-0.03,26.87
12518,0.2529,-0.0348,0.8751,-6.41,8.0,-0.02,26.87
12528,0.2533,-0.0341,0.8793,-6.44,7.89,0.0,26.87
12538,0.2538,-0.0344,0.8802,-6.44,7.95,-0.03,26.86
12548,0.2518,-0.0315,0.8817,-6.41,7.91,-0.06,26.86
12559,0.2523,-0.0302,0.8802,-6.38,7.92,-0.02,26.88
12569,0.2511,-0.0311,0.8781,-6.52,7.92,-0.02,26.89
12579,0.25,-0.0336,0.8794,-6.55,7.83,-0.08,26.87
12589,0.2504,-0.0338,0.8766,-6.6,7.89,-0.06,26.88
12599,0.2539,-0.04,0.8781,-6.53,7.95,0.0,26.88
12609,0.2517,-0.0432,0.8766,-6.5,7.8,-0.02,26.88
12619,0.252,-0.0446,0.8805,-6.49,7.85,-0.11,26.91
12629,0.2528,-0.0389,0.873,-6.56,7.83,-0.05,26.89
12639,0.2522,-0.0382,0.8738,-6.47,7.88,-0.02,26.89
12649,0.2542,-0.0372,0.8773,-6.44,7.94,-0.05,26.86
12659,0.254,-0.0369,0.8779,-6.49,7.85,-0.08,26.88
12669,0.2539,-0.0317,0.8813,-6.49,7.88,-0.08,26.88
12679,0.2499,-0.0319,0.8813,-6.6,7.88,-0.14,26.89
12689,0.2507,-0.0297,0.8788,-6.52,7.82,-0.06,26.88
12699,0.2531,-0.0317,0.8789,-6.5,7.91,-0.06,26.88
12709,0.2534,-0.0359,0.8804,-6.5,7.86,-0.06,26.88
12719,0.2515,-0.0358,0.8737,-6.49,7.88,-0.15,26.89
12729,0.2511,-0.0383,0.8749,-6.6,7.85,-0.06,26.91
12739,0.2506,-0.0416,0.8773,-6.55,7.85,0.0,26.86
12749,0.2528,-0.0366,0.8793,-6.49,7.79,-0.09,26.89
12759,0.2501,-0.0405,0.8776,-6.52,7.85,-0.11,26.89
12769,0.2537,-0.0391,0.8778,-6.49,7.92,-0.06,26.86
12779,0.2522,-0.0348,0.8773,-6.43,7.83,-0.06,26.87
12789,0.2537,-0.0336,0.8813,-6.52,7.83,0.0,26.86
12799,0.2513,-0.0312,0.8766,-6.52,7.82,-0.02,26.89
12809,0.2516,-0.0328,0.8796,-6.47,7.88,0.0,26.9
12819,0.25,-0.0337,0.8761,-6.46,7.92,-0.12,26.86
12829,0.2533,-0.0348,0.8772,-6.41,7.94,-0.06,26.87
12839,0.2527,-0.0352,0.8802,-6.52,7.88,-0.12,26.88
12849,0.2513,-0.0353,0.8822,-6.6,7.86,-0.03,26.89
12859,0.2506,-0.0333,0.8773,-6.52,7.83,-0.06,26.87
12869,0.2527,-0.038,0.876,-6.49,7.92,-0.02,26.9
12879,0.2542,-0.0392,0.8792,-6.41,7.94,-0.03,26.87
12889,0.2549,-0.038,0.8778,-6.49,7.95,0.0,26.9
12899,0.2523,-0.037,0.8774,-6.43,7.88,0.0,26.89
12909,0.256,-0.0367,0.8767,-6.44,7.95,0.0,26.89
12919,0.2552,-0.036,0.8787,-6.47,7.94,-0.02,26.88
12929,0.2506,-0.0339,0.8761,-6.55,7.91,0.0,26.89
12939,0.2482,-0.036,0.8756,-6.53,7.92,-0.05,26.91
12949,0.2518,-0.0339,0.8818,-6.49,7.92,-0.03,26.88
12959,0.2483,-0.0267,0.8805,-6.56,7.82,-0.02,26.9
12969,0.2484,-0.0345,0.8813,-6.63,7.86,-0.06,26.87
12979,0.2494,-0.0348,0.8774,-6.63,7.89,-0.09,26.9
12989,0.2515,-0.0353,0.8837,-6.55,7.89,-0.08,26.87
12999,0.2534,-0.0377,0.8801,-6.55,7.86,-0.12,26.87
13009,0.2542,-0.0363,0.8816,-6.6,7.88,0.05,26.91
13019,0.2532,-0.0399,0.8805,-6.56,7.8,-0.08,26.91
13029,0.2539,-0.0408,0.881,-6.56,7.88,-0.06,26.89
13039,0.257,-0.0371,0.8777,-6.6,7.86,-0.11,26.9
13049,0.2554,-0.0383,0.8721,-6.43,7.86,-0.05,26.88
13059,0.255,-0.0385,0.8793,-6.47,7.88,0.03,26.89
13069,0.2544,-0.0376,0.8779,-6.43,7.89,-0.06,26.87
13079,0.2555,-0.0341,0.875,-6.5,7.89,0.05,26.89
13089,0.256,-0.0356,0.8788,-6.43,7.95,-0.03,26.9
13099,0.2523,-0.0366,0.8807,-6.53,7.95,-0.05,26.86
13109,0.2523,-0.0342,0.8799,-6.5,7.95,0.0,26.88
13119,0.2507,-0.0334,0.8806,-6.58,7.91,-0.11,26.88
13129,0.2518,-0.0311,0.8781,-6.53,7.82,-0.06,26.88
13139,0.2477,-0.0316,0.8765,-6.47,7.83,0.0,26.91
13149,0.2468,-0.0371,0.8745,-6.47,7.89,0.02,26.87
13159,0.25,-0.0363,0.8735,-6.43,7.88,-0.06,26.88
13169,0.2507,-0.0405,0.8712,-6.47,7.86,0.06,26.89
13179,0.2528,-0.0344,0.8782,-6.53,7.89,-0.06,26.89
13189,0.2505,-0.0389,0.8811,-6.49,7.94,-0.03,26.87
13199,0.2559,-0.0363,0.876,-6.5,7.89,-0.05,26.88
13209,0.2531,-0.0347,0.8792,-6.53,7.95,-0.11,26.89
13219,0.2563,-0.0326,0.8802,-6.46,7.83,-0.09,26.88
13229,0.2526,-0.035,0.8776,-6.44,7.94,0.02,26.92
13239,0.2522,-0.0359,0.8745,-6.55,7.92,-0.02,26.92
13249,0.2526,-0.0332,0.8767,-6.47,7.88,-0.03,26.89
13259,0.2538,-0.0354,0.8776,-6.49,7.91,-0.09,26.91
13269,0.2539,-0.0343,0.8806,-6.47,7.89,-0.08,26.89
13279,0.2542,-0.0376,0.8812,-6.52,7.94,-0.03,26.89
13290,0.2523,-0.0361,0.876,-6.56,7.88,-0.06,26.88
13300,0.2526,-0.037,0.8785,-6.58,7.94,-0.05,26.9
13310,0.2513,-0.0355,0.8796,-6.53,7.86,-0.06,26.88
13320,0.249,-0.0356,0.8835,-6.5,7.92,-0.02,26.87
13330,0.2495,-0.0336,0.88,-6.47,7.85,-0.05,26.88
13340,0.2516,-0.0323,0.881,-6.49,7.88,-0.03,26.91
13350,0.2491,-0.0358,0.8802,-6.44,7.92,-0.08,26.88
13360,0.2504,-0.0356,0.8774,-6.49,7.85,-0.12,26.91
13370,0.2511,-0.0312,0.8794,-6.47,7.88,-0.05,26.89
13380,0.2535,-0.0347,0.8827,-6.47,7.88,-0.05,26.91
13390,0.2531,-0.0328,0.873,-6.49,7.95,-0.03,26.91
13400,0.2522,-0.0343,0.8778,-6.52,7.89,0.03,26.88
13410,0.2512,-0.0364,0.8783,-6.53,7.91,0.0,26.92
13420,0.2542,-0.0376,0.8784,-6.52,7.88,0.03,26.9
13430,0.254,-0.0381,0.877,-6.47,7.89,-0.05,26.89
13440,0.2545,-0.0375,0.8792,-6.58,7.86,-0.15,26.9
13450,0.2538,-0.0371,0.8768,-6.53,7.85,-0.06,26.89
13460,0.2524,-0.0374,0.877,-6.53,7.95,-0.06,26.9
13471,0.2513,-0.0354,0.8771,-6.44,7.86,-0.02,26.9
13481,0.252,-0.0349,0.8762,-6.56,7.92,-0.11,26.89
13491,0.2548,-0.0365,0.875,-6.52,7.88,-0.02,26.9
13501,0.2499,-0.0355,0.8768,-6.55,7.85,-0.06,26.89
13511,0.2507,-0.0371,0.8785,-6.53,7.89,-0.02,26.92
13521,0.2491,-0.0349,0.8792,-6.52,7.89,-0.05,26.89
13531,0.2515,-0.0338,0.8823,-6.47,7.88,-0.02,26.91
13541,0.2537,-0.0356,0.877,-6.5,7.89,0.0,26.89
13551,0.2546,-0.0358,0.8783,-6.55,7.89,-0.09,26.89
13561,0.2544,-0.0392,0.8745,-6.52,7.91,-0.08,26.91
13571,0.2529,-0.0371,0.8782,-6.58,7.92,-0.11,26.91
13581,0.252,-0.0391,0.8777,-6.53,7.92,-0.02,26.89
13591,0.2523,-0.0367,0.8805,-6.55,7.89,-0.03,26.91
13601,0.2549,-0.0382,0.8796,-6.49,7.89,-0.08,26.92
13611,0.2518,-0.0353,0.8768,-6.47,7.82,-0.09,26.93
13621,0.2515,-0.0358,0.8782,-6.52,7.89,-0.09,26.92
13631,0.252,-0.0352,0.8782,-6.47,7.91,-0.03,26.9
13641,0.2511,-0.0347,0.8829,-6.5,7.88,0.03,26.9
13651,0.2568,-0.0305,0.8706,-6.53,7.86,0.06,26.93
13661,0.262,-0.0389,0.8737,-6.56,7.66,-0.08,26.91
13671,0.2639,-0.0336,0.8679,-6.55,7.6,-0.06,26.9
13681,0.2609,-0.0424,0.8724,-6.49,7.71,0.02,26.91
13691,0.2574,-0.0378,0.8739,-6.58,7.71,-0.05,26.91
13701,0.2574,-0.0288,0.8754,-6.53,7.83,0.06,26.91
13711,0.2522,-0.0389,0.8743,-6.64,7.83,0.02,26.92
13721,0.2528,-0.0361,0.8821,-6.46,7.76,-0.06,26.92
13731,0.2528,-0.0304,0.8748,-6.53,7.89,-0.08,26.92
13741,0.2534,-0.0333,0.8767,-6.49,7.92,-0.08,26.92
13751,0.2527,-0.0455,0.8763,-6.44,7.83,-0.02,26.92
13761,0.2566,-0.0342,0.8743,-6.5,7.89,-0.03,26.92
13771,0.2518,-0.0389,0.8756,-6.44,7.94,-0.09,26.92
13781,0.252,-0.0387,0.8807,-6.43,8.06,0.0,26.9
13791,0.2639,-0.04,0.8728,-6.41,7.82,0.02,26.9
13801,0.2593,-0.0383,0.8763,-6.43,7.82,0.02,26.9
13811,0.2484,-0.0339,0.8802,-6.53,8.02,0.0,26.91
13821,0.2528,-0.0361,0.8777,-6.43,7.88,-0.11,26.89
13831,0.2554,-0.0312,0.8824,-6.58,7.82,-0.06,26.92
13841,0.2548,-0.0312,0.8792,-6.49,7.83,0.02,26.95
13851,0.2523,-0.0359,0.8824,-6.56,7.92,-0.11,26.94
13861,0.2509,-0.0341,0.8774,-6.55,7.88,-0.09,26.89
13871,0.2538,-0.0332,0.8795,-6.53,7.91,-0.08,26.89
13881,0.2542,-0.0421,0.8818,-6.58,7.89,-0.09,26.92
13891,0.2499,-0.0413,0.8795,-6.53,7.94,-0.11,26.91
13901,0.255,-0.0424,0.8748,-6.49,7.85,-0.08,26.91
13911,0.2561,-0.0347,0.8766,-6.47,7.88,-0.05,26.9
13921,0.252,-0.0366,0.8734,-6.52,7.92,0.05,26.92
13931,0.2518,-0.0381,0.8741,-6.49,7.86,-0.09,26.9
13941,0.2552,-0.0302,0.8781,-6.53,7.86,-0.11,26.91
13951,0.2529,-0.0352,0.8773,-6.52,7.85,0.02,26.9
13961,0.2511,-0.0348,0.882,-6.53,7.86,-0.06,26.91
13971,0.2529,-0.0311,0.8817,-6.61,7.89,-0.06,26.92
13981,0.2521,-0.0328,0.8784,-6.55,7.86,-0.03,26.91
13991,0.2549,-0.0386,0.8782,-6.49,7.83,-0.06,26.94
14001,0.2534,-0.0328,0.8771,-6.6,7.91,-0.06,26.93
14011,0.2511,-0.0392,0.8748,-6.53,7.88,-0.08,26.93
14021,0.2505,-0.0378,0.8739,-6.5,7.91,-0.05,26.93
14031,0.2538,-0.0363,0.8812,-6.55,7.89,0.0,26.91
14041,0.2533,-0.0382,0.8801,-6.5,7.85,-0.09,26.94
14051,0.2518,-0.0367,0.8739,-6.49,7.91,-0.03,26.9
14061,0.2491,-0.0333,0.8787,-6.52,7.94,-0.05,26.92
14071,0.2535,-0.0317,0.8859,-6.49,7.86,-0.11,26.94
14081,0.2513,-0.0326,0.8829,-6.53,7.89,-0.02,26.92
14091,0.2518,-0.0348,0.8776,-6.6,7.92,-0.09,26.92
14101,0.2527,-0.0337,0.8779,-6.56,7.88,-0.02,26.94
14111,0.2538,-0.0348,0.8788,-6.52,7.92,-0.06,26.91
14121,0.2518,-0.0359,0.8801,-6.56,7.95,-0.03,26.93
14131,0.2531,-0.0371,0.8738,-6.52,7.89,-0.05,26.94
14141,0.255,-0.0353,0.8766,-6.64,7.92,-0.06,26.94
14151,0.254,-0.038,0.8801,-6.58,7.91,0.02,26.92
14161,0.2533,-0.0359,0.8751,-6.52,7.94,-0.02,26.93
14171,0.2549,-0.0367,0.8762,-6.5,7.89,-0.05,26.93
14181,0.2524,-0.0358,0.8792,-6.56,7.94,0.02,26.91
14191,0.2517,-0.037,0.8823,-6.47,7.97,-0.06,26.92
14201,0.2516,-0.0326,0.8805,-6.47,7.86,-0.05,26.92
14211,0.2529,-0.033,0.8778,-6.47,7.88,-0.06,26.94
14221,0.252,-0.0361,0.8778,-6.63,7.88,-0.14,26.92
14231,0.2532,-0.0358,0.8799,-6.53,7.83,-0.02,26.94
14241,0.2527,-0.0342,0.8798,-6.52,7.92,-0.02,26.94
14251,0.2529,-0.0375,0.8779,-6.55,7.89,-0.03,26.93
14261,0.2518,-0.0398,0.8807,-6.61,7.92,-0.11,26.93
14271,0.2538,-0.0365,0.8811,-6.53,7.95,-0.11,26.93
14281,0.2523,-0.0396,0.8783,-6.44,7.91,-0.05,26.94
14292,0.2532,-0.0385,0.8795,-6.38,7.89,-0.15,26.93
14302,0.2539,-0.0356,0.8826,-6.47,7.91,0.0,26.9
14312,0.2557,-0.0355,0.8812,-6.46,7.88,-0.06,26.93
14322,0.2509,-0.0328,0.8793,-6.47,7.92,0.0,26.92
14332,0.2533,-0.0325,0.8776,-6.46,7.85,-0.03,26.94
14342,0.2535,-0.0328,0.8805,-6.5,7.94,-0.05,26.93
14352,0.2539,-0.037,0.8824,-6.56,7.94,-0.12,26.91
14362,0.2533,-0.0355,0.8817,-6.56,7.88,0.02,26.94
14372,0.2539,-0.0381,0.8748,-6.43,7.83,-0.02,26.93
14382,0.2499,-0.0337,0.88,-6.53,7.95,0.0,26.91
14392,0.2535,-0.0397,0.8768,-6.56,7.86,-0.02,26.94
14402,0.2531,-0.0345,0.8746,-6.49,7.82,-0.03,26.95
14412,0.2517,-0.0369,0.8787,-6.47,7.86,0.0,26.95
14422,0.252,-0.0355,0.8807,-6.52,7.92,-0.03,26.92
14432,0.2568,-0.0345,0.8828,-6.52,7.89,-0.09,26.96
14442,0.252,-0.035,0.8767,-6.55,7.86,-0.06,26.93
14452,0.2505,-0.0358,0.8802,-6.5,7.85,-0.14,26.93
14462,0.2522,-0.0354,0.8787,-6.56,7.88,0.03,26.94
14472,0.2533,-0.0339,0.8789,-6.58,7.89,-0.03,26.92
14482,0.2515,-0.0352,0.8813,-6.53,7.89,-0.11,26.93
14492,0.2502,-0.037,0.8766,-6.46,7.89,-0.08,26.94
14502,0.251,-0.0355,0.8745,-6.5,7.88,-0.12,26.97
14512,0.2545,-0.0347,0.8741,-6.47,7.83,-0.06,26.94
14522,0.2538,-0.036,0.8756,-6.49,7.86,-0.03,26.92
14532,0.2521,-0.0353,0.8763,-6.55,7.82,-0.12,26.92
14542,0.2493,-0.0404,0.881,-6.49,7.89,-0.06,26.92
14552,0.255,-0.0328,0.8848,-6.52,7.95,-0.08,26.91
14562,0.2526,-0.0363,0.8798,-6.52,7.88,-0.08,26.94
14572,0.2534,-0.0358,0.8781,-6.52,7.79,-0.08,26.93
14582,0.2518,-0.0361,0.8799,-6.5,7.91,0.03,26.94
14592,0.2513,-0.0353,0.8743,-6.47,7.92,-0.05,26.94
14602,0.2513,-0.0358,0.8755,-6.5,7.92,-0.11,26.92
14612,0.2511,-0.0331,0.8794,-6.43,7.89,0.02,26.93
14622,0.252,-0.0359,0.8804,-6.5,7.89,-0.03,26.96
14632,0.2521,-0.0385,0.8763,-6.52,7.85,-0.05,26.92
14642,0.2526,-0.0341,0.8755,-6.56,7.88,-0.05,26.92
14652,0.2548,-0.0342,0.8767,-6.47,7.89,-0.06,26.93
14662,0.2532,-0.037,0.8818,-6.56,7.88,-0.05,26.92
14672,0.2529,-0.0323,0.8761,-6.53,7.85,-0.05,26.93
14682,0.2551,-0.0348,0.8756,-6.44,7.94,-0.03,26.92
14692,0.2513,-0.0366,0.8781,-6.44,7.94,-0.08,26.95
14702,0.252,-0.0354,0.8782,-6.52,7.88,-0.11,26.94
14713,0.251,-0.035,0.8813,-6.47,7.88,0.02,26.92
14723,0.2504,-0.0336,0.8757,-6.44,7.88,-0.09,26.94
14733,0.2504,-0.0363,0.8776,-6.5,7.89,-0.05,26.95
14743,0.2515,-0.0336,0.8788,-6.49,7.91,-0.05,26.95
14753,0.2517,-0.035,0.8792,-6.47,7.88,-0.06,26.96
14763,0.2534,-0.0374,0.8767,-6.49,7.85,0.02,26.93
14773,0.2512,-0.0385,0.8809,-6.56,7.88,-0.05,26.93
14783,0.2533,-0.0385,0.8811,-6.52,7.88,-0.02,26.94
14793,0.2528,-0.0359,0.8774,-6.58,7.92,-0.05,26.92
14803,0.2516,-0.0383,0.8761,-6.47,7.89,-0.02,26.94
14813,0.252,-0.0366,0.8752,-6.53,7.77,-0.02,26.92
14823,0.2512,-0.0322,0.8796,-6.56,7.92,-0.06,26.96
14833,0.249,-0.0328,0.8779,-6.5,7.94,-0.03,26.95
14843,0.2511,-0.0358,0.875,-6.47,7.82,-0.05,26.93
14853,0.2513,-0.0316,0.8809,-6.49,7.83,-0.05,26.94
14863,0.2532,-0.0358,0.8818,-6.5,7.85,0.06,26.94
14873,0.2523,-0.0349,0.8772,-6.49,7.91,-0.08,26.93
14883,0.2535,-0.0356,0.877,-6.44,7.83,-0.09,26.93
14893,0.2528,-0.0336,0.8751,-6.49,7.91,-0.03,26.94
14903,0.2506,-0.0364,0.8796,-6.49,7.94,0.03,26.94
14913,0.2516,-0.0403,0.8733,-6.52,7.92,0.0,26.94
14923,0.2495,-0.0383,0.8805,-6.56,7.83,-0.05,26.95
14933,0.2529,-0.0343,0.8761,-6.5,7.86,-0.03,26.92
14943,0.2539,-0.0338,0.8811,-6.44,7.94,-0.08,26.94
14953,0.2506,-0.0344,0.8795,-6.53,7.91,0.0,26.94
14963,0.2509,-0.0348,0.8794,-6.43,7.91,0.0,26.92
14973,0.2526,-0.0328,0.8732,-6.52,7.92,-0.06,26.94
14983,0.2516,-0.0367,0.8784,-6.5,7.92,0.02,26.92
14993,0.2521,-0.0359,0.8739,-6.55,7.91,0.03,26.93
15003,0.2513,-0.0337,0.8779,-6.6,7.98,-0.03,26.94
15013,0.2501,-0.0394,0.8789,-6.55,7.86,-0.06,26.93
15023,0.2518,-0.0365,0.8761,-6.5,7.86,-0.08,26.95
15033,0.2504,-0.0341,0.8826,-6.49,7.91,-0.02,26.94
15043,0.2527,-0.0366,0.8838,-6.55,7.94,0.03,26.94
15053,0.249,-0.0381,0.8787,-6.55,7.89,-0.03,26.9
15063,0.2521,-0.0356,0.8799,-6.47,7.88,-0.06,26.92
15073,0.2551,-0.0315,0.8793,-6.52,7.89,-0.06,26.96
15083,0.2518,-0.0356,0.8776,-6.56,7.88,-0.02,26.9
15093,0.2523,-0.035,0.8778,-6.58,7.85,-0.09,26.92
15103,0.2556,-0.0369,0.8761,-6.53,7.85,-0.05,26.93
15113,0.2539,-0.0363,0.8719,-6.53,7.89,-0.06,26.95
15123,0.2513,-0.0372,0.8792,-6.5,7.94,0.02,26.96
15133,0.2495,-0.0392,0.8794,-6.41,7.89,-0.03,26.93
15143,0.2523,-0.0388,0.876,-6.52,7.94,0.02,26.93
15153,0.2518,-0.037,0.8805,-6.49,7.91,-0.08,26.92
15163,0.2513,-0.0365,0.88,-6.5,7.86,-0.05,26.94
15173,0.252,-0.0328,0.8807,-6.6,7.89,0.02,26.95
15183,0.2533,-0.0322,0.8782,-6.53,7.88,-0.05,26.94
15193,0.2539,-0.0337,0.8801,-6.52,7.91,-0.02,26.91
15203,0.2542,-0.0339,0.8759,-6.6,7.82,-0.02,26.91
15213,0.2515,-0.0344,0.8783,-6.52,7.94,-0.08,26.94
15223,0.2545,-0.0371,0.8796,-6.55,7.82,-0.02,26.94
15233,0.2534,-0.0331,0.8809,-6.56,7.92,-0.03,26.94
15243,0.2502,-0.0337,0.8751,-6.47,7.85,-0.05,26.94
15253,0.2498,-0.0372,0.8822,-6.6,7.91,-0.09,26.97
15263,0.2516,-0.0409,0.8715,-6.55,7.8,-0.12,26.95
15273,0.2533,-0.0363,0.8788,-6.56,7.86,-0.03,26.94
15283,0.2513,-0.0354,0.8773,-6.56,7.97,0.0,26.92
15293,0.2477,-0.0376,0.8763,-6.55,7.89,-0.02,26.96
15303,0.2543,-0.0322,0.88,-6.46,7.74,-0.05,26.94
15313,0.2592,-0.0302,0.8796,-6.43,7.8,-0.02,26.95
15323,0.2582,-0.0323,0.8778,-6.55,7.94,0.0,26.93
15333,0.2521,-0.0359,0.8737,-6.5,7.92,-0.06,26.94
15343,0.2532,-0.0363,0.8749,-6.55,7.74,-0.05,26.93
15353,0.2512,-0.0355,0.8799,-6.56,7.95,-0.05,26.93
15363,0.2515,-0.038,0.8728,-6.53,7.88,0.05,26.92
15373,0.2521,-0.0363,0.8752,-6.53,7.77,-0.06,26.95
15383,0.2499,-0.0377,0.8805,-6.6,7.86,0.03,26.93
15393,0.2397,-0.0345,0.8818,-6.52,8.11,-0.08,26.97
15403,0.2512,-0.038,0.8799,-6.47,8.23,0.03,26.96
15413,0.2582,-0.0383,0.87,-6.47,7.97,0.02,26.93
15423,0.2496,-0.0336,0.8828,-6.5,8.03,-0.03,26.97
15433,0.2418,-0.0369,0.8859,-6.47,8.18,-0.11,26.95
15443,0.2412,-0.0328,0.8864,-6.47,8.12,-0.06,26.96
15453,0.2512,-0.0333,0.8765,-6.55,7.92,-0.03,26.94
15463,0.2491,-0.0309,0.8834,-6.49,7.95,-0.05,26.95
15473,0.2531,-0.0345,0.8804,-6.52,7.77,-0.05,26.93
15483,0.25,-0.033,0.8813,-6.5,7.94,-0.08,26.95
15493,0.2493,-0.0378,0.8801,-6.49,7.89,-0.11,26.96
15503,0.2532,-0.0382,0.8774,-6.53,7.83,0.02,26.93
15513,0.248,-0.035,0.8844,-6.5,7.86,-0.08,26.95
15523,0.2504,-0.0376,0.8795,-6.53,7.92,-0.06,26.96
15533,0.2493,-0.0391,0.88,-6.49,7.94,0.0,26.93
15543,0.2509,-0.0355,0.8781,-6.53,7.89,-0.05,26.95
15553,0.2496,-0.0336,0.8837,-6.49,7.92,0.02,26.95
15563,0.2491,-0.0326,0.8776,-6.47,7.95,-0.02,26.98
15573,0.2548,-0.0327,0.8807,-6.47,7.88,-0.02,26.97
15583,0.2522,-0.0325,0.8813,-6.6,7.94,0.0,26.97
15593,0.2529,-0.0356,0.8817,-6.55,7.92,-0.03,26.94
15603,0.2521,-0.0355,0.8789,-6.61,8.02,-0.08,26.97
15613,0.2534,-0.0363,0.8777,-6.52,7.95,-0.02,26.95
15623,0.2533,-0.0326,0.8807,-6.63,7.92,-0.06,26.95
15633,0.2527,-0.035,0.8805,-6.5,7.97,-0.05,26.98
15643,0.2471,-0.0328,0.881,-6.53,7.92,-0.08,26.94
15653,0.2609,-0.042,0.8689,-6.44,7.71,0.0,26.96
15663,0.2584,-0.042,0.8752,-6.56,7.59,-0.03,26.93
15673,0.2537,-0.0359,0.8777,-6.56,8.02,-0.09,26.93
15683,0.2567,-0.0463,0.8738,-6.43,8.03,-0.03,26.97
15693,0.2614,-0.0348,0.8785,-6.53,7.83,-0.06,26.96
15703,0.2599,-0.0354,0.8663,-6.44,7.95,-0.08,26.97
15713,0.2469,-0.0378,0.8795,-6.46,8.21,-0.09,26.94
15723,0.2502,-0.0361,0.8867,-6.44,8.08,-0.03,26.96
15733,0.25,-0.0308,0.8842,-6.56,7.86,-0.08,26.94
15743,0.2504,-0.0322,0.88,-6.5,8.05,0.03,26.94
15753,0.2502,-0.037,0.8844,-6.5,8.03,0.06,26.96
15763,0.2505,-0.0288,0.882,-6.5,7.92,-0.08,26.94
15773,0.254,-0.0348,0.8802,-6.58,7.86,-0.03,26.95
15783,0.2526,-0.0392,0.879,-6.52,7.91,-0.09,26.95
15793,0.2559,-0.0388,0.8774,-6.5,7.85,0.03,26.94
15803,0.252,-0.0375,0.8767,-6.49,7.91,-0.02,26.95
15813,0.254,-0.0404,0.8767,-6.46,7.86,-0.05,26.96
15823,0.252,-0.0374,0.8756,-6.52,7.91,-0.02,26.97
15833,0.2533,-0.0366,0.877,-6.58,7.97,-0.05,26.94
15843,0.2501,-0.0347,0.8738,-6.43,7.91,-0.03,26.97
15853,0.2537,-0.0353,0.88,-6.47,7.82,-0.05,26.96
15863,0.2501,-0.0326,0.8774,-6.53,7.91,-0.06,26.97
15873,0.25,-0.0294,0.8798,-6.5,7.89,0.03,26.97
15883,0.2533,-0.035,0.8759,-6.44,7.91,-0.05,26.97
15893,0.254,-0.0337,0.879,-6.58,7.88,-0.06,26.95
15903,0.2565,-0.0367,0.881,-6.52,7.86,-0.03,26.95
15913,0.2526,-0.0364,0.8789,-6.53,7.91,0.02,26.95
15923,0.2548,-0.0389,0.8752,-6.5,7.85,-0.12,26.96
15933,0.2534,-0.0345,0.8778,-6.55,7.86,-0.08,26.96
15943,0.2521,-0.037,0.8733,-6.5,7.91,-0.06,26.96
15953,0.2509,-0.0363,0.8751,-6.53,7.88,-0.11,26.96
15963,0.2535,-0.0364,0.8794,-6.52,7.91,-0.11,26.98
15973,0.2544,-0.0314,0.88,-6.53,7.91,-0.05,26.97
15983,0.2518,-0.0353,0.8743,-6.44,7.94,-0.09,26.94
15993,0.2505,-0.0312,0.8805,-6.49,7.91,-0.08,26.96
16003,0.254,-0.0337,0.8788,-6.5,7.91,-0.08,26.98
16013,0.254,-0.033,0.8842,-6.52,7.91,-0.08,26.96
16023,0.2524,-0.0348,0.8787,-6.47,7.91,-0.03,26.97
16033,0.2518,-0.0361,0.8772,-6.63,7.88,-0.02,26.95
16043,0.2512,-0.0377,0.877,-6.61,7.92,-0.11,26.99
16053,0.2528,-0.0343,0.8782,-6.5,7.79,-0.08,26.97
16063,0.252,-0.0355,0.8802,-6.53,7.88,-0.03,26.96
16073,0.2544,-0.035,0.8801,-6.43,7.94,-0.02,26.97
16083,0.2539,-0.0356,0.8759,-6.49,7.88,-0.11,26.95
16093,0.2502,-0.0365,0.8816,-6.41,7.94,0.05,26.97
16103,0.2496,-0.0322,0.8784,-6.58,7.89,0.0,26.96
16113,0.2542,-0.0326,0.88,-6.47,7.86,-0.12,26.98
16123,0.2551,-0.0364,0.8778,-6.5,7.88,-0.09,26.97
16133,0.2516,-0.0331,0.8771,-6.55,7.91,-0.02,26.97
16143,0.254,-0.0337,0.8781,-6.53,7.91,-0.08,26.95
16153,0.2523,-0.0325,0.882,-6.56,7.91,-0.06,26.95
16163,0.2499,-0.0358,0.8794,-6.5,7.89,-0.08,26.97
16173,0.25,-0.0369,0.8771,-6.55,7.85,-0.03,26.98
16183,0.2516,-0.0386,0.8805,-6.5,7.83,-0.08,26.97
16193,0.2533,-0.0382,0.8787,-6.5,7.91,-0.03,26.97
16203,0.2529,-0.0364,0.8783,-6.52,7.92,0.02,26.97
16213,0.2532,-0.0371,0.8811,-6.44,7.88,0.02,26.97
16223,0.2511,-0.0343,0.8794,-6.5,7.85,-0.06,26.97
16233,0.2544,-0.0363,0.8802,-6.49,7.91,-0.11,26.97
16243,0.2535,-0.0334,0.881,-6.52,7.98,-0.09,26.95
16253,0.2524,-0.0345,0.8757,-6.55,7.85,-0.08,26.96
16263,0.2549,-0.0345,0.8773,-6.56,7.92,-0.09,26.98
16273,0.2522,-0.0342,0.8801,-6.5,7.91,0.02,27.01
16283,0.2512,-0.0332,0.8772,-6.44,7.83,0.05,27.0
16293,0.2521,-0.038,0.8789,-6.52,7.86,0.0,26.97
16303,0.2512,-0.0409,0.88,-6.52,7.86,-0.03,26.98
16313,0.2499,-0.0334,0.8746,-6.52,7.83,-0.02,26.96
16323,0.2502,-0.0342,0.8755,-6.46,7.95,-0.09,26.96
16333,0.2521,-0.0382,0.8766,-6.46,7.91,-0.05,26.97
16343,0.2534,-0.0352,0.8818,-6.46,7.91,0.0,26.97
16353,0.2522,-0.037,0.8789,-6.53,7.89,-0.05,26.96
16363,0.2527,-0.0369,0.8792,-6.53,7.94,-0.11,26.97
16373,0.2495,-0.0359,0.879,-6.49,7.86,-0.06,26.97
16383,0.2522,-0.0339,0.8772,-6.49,7.94,-0.06,26.97
16393,0.2516,-0.0371,0.8768,-6.56,7.86,-0.03,26.98
16403,0.251,-0.037,0.8787,-6.53,7.95,-0.11,26.99
16413,0.2526,-0.0353,0.8799,-6.6,7.89,-0.08,26.96
16423,0.2516,-0.0352,0.8763,-6.47,7.83,-0.06,26.98
16433,0.2532,-0.0353,0.8759,-6.52,7.92,-0.08,26.96
16443,0.2531,-0.0355,0.8783,-6.56,7.89,-0.03,26.96
16453,0.2524,-0.0354,0.8818,-6.52,7.76,-0.09,26.95
16463,0.2506,-0.0372,0.8823,-6.5,7.88,-0.05,26.97
16473,0.2537,-0.0349,0.8772,-6.53,7.88,-0.03,26.97
16483,0.2515,-0.0372,0.8792,-6.55,7.92,-0.03,26.98
16493,0.252,-0.036,0.8794,-6.53,7.82,-0.05,26.95
16503,0.2505,-0.0363,0.8781,-6.53,7.82,-0.06,26.96
16513,0.2549,-0.0375,0.8788,-6.5,7.91,-0.03,27.0
16523,0.2532,-0.0353,0.8766,-6.52,7.95,-0.02,26.96
16533,0.2491,-0.0347,0.8816,-6.56,7.92,-0.08,26.97
16543,0.2512,-0.0338,0.8784,-6.58,7.89,-0.08,27.01
16553,0.2509,-0.0366,0.8812,-6.56,7.88,-0.05,26.96
16563,0.2499,-0.0344,0.8757,-6.53,7.91,-0.02,26.96
16573,0.2513,-0.0319,0.8795,-6.53,7.91,-0.09,26.98
16583,0.2509,-0.0358,0.877,-6.53,7.86,0.03,26.98
16593,0.2557,-0.0334,0.879,-6.53,7.92,0.0,26.99
16603,0.2523,-0.0317,0.8788,-6.5,7.89,-0.11,26.97
16613,0.2545,-0.036,0.8795,-6.49,7.88,-0.05,26.98
16623,0.2537,-0.0349,0.8766,-6.5,7.86,0.03,26.98
16633,0.2524,-0.0343,0.8787,-6.61,7.86,-0.05,26.98
16643,0.251,-0.0353,0.8768,-6.6,7.88,-0.11,26.99
16653,0.2526,-0.0387,0.8796,-6.5,7.94,-0.08,26.98
16663,0.2493,-0.0352,0.8778,-6.56,7.79,0.03,26.99
16673,0.2529,-0.0365,0.8772,-6.55,7.89,0.03,27.01
16683,0.2522,-0.0355,0.8792,-6.53,7.88,0.0,26.95
16693,0.2532,-0.0341,0.879,-6.55,7.85,0.06,26.96
16703,0.2544,-0.0339,0.8785,-6.55,7.85,-0.05,27.0
16713,0.2521,-0.0371,0.8821,-6.56,7.88,0.06,26.97
16723,0.252,-0.0321,0.8817,-6.58,7.89,-0.11,26.98
16733,0.2534,-0.0344,0.8801,-6.49,7.92,-0.02,26.96
16743,0.2506,-0.0336,0.882,-6.55,7.91,-0.12,26.97
16753,0.2532,-0.0358,0.8793,-6.52,7.86,-0.03,26.97
16763,0.2511,-0.0356,0.8824,-6.55,7.82,-0.06,26.97
16773,0.2526,-0.0349,0.8765,-6.5,7.82,-0.02,26.99
16783,0.2545,-0.0332,0.8773,-6.46,7.89,0.0,26.95
16793,0.254,-0.0371,0.8743,-6.56,7.89,-0.06,26.98
16803,0.2512,-0.0365,0.8799,-6.49,7.94,-0.06,26.96
16813,0.2515,-0.0371,0.877,-6.52,7.94,-0.02,26.99
16823,0.2529,-0.037,0.876,-6.56,7.91,-0.02,27.01
16833,0.2513,-0.036,0.8802,-6.47,7.89,-0.08,27.01
16843,0.2511,-0.0363,0.8787,-6.53,7.89,-0.12,26.99
16853,0.2515,-0.0365,0.8811,-6.53,7.94,0.02,26.96
16863,0.2527,-0.036,0.8789,-6.56,7.92,0.03,27.0
16873,0.2532,-0.0342,0.8777,-6.49,7.89,-0.02,26.98
16883,0.2515,-0.0377,0.8805,-6.53,7.86,-0.06,26.99
16893,0.2501,-0.0363,0.8759,-6.46,7.82,0.0,26.96
16903,0.2522,-0.036,0.876,-6.56,7.86,-0.06,26.99
16913,0.2522,-0.0381,0.881,-6.53,7.88,-0.05,27.0
16923,0.2491,-0.0339,0.8772,-6.55,7.94,-0.02,27.0
16933,0.2526,-0.0366,0.8726,-6.58,7.94,-0.06,26.99
16943,0.2539,-0.038,0.8793,-6.56,7.94,-0.08,27.0
16953,0.256,-0.0345,0.8783,-6.44,7.88,-0.11,26.97
16963,0.2512,-0.0343,0.8781,-6.47,7.92,-0.08,26.96
16973,0.2543,-0.0358,0.8779,-6.52,7.85,-0.08,26.98
16983,0.2531,-0.035,0.8845,-6.53,7.92,0.0,26.98
16993,0.2576,-0.032,0.879,-6.47,7.89,0.02,26.99
17003,0.252,-0.0376,0.8741,-6.5,7.89,-0.14,26.99
17013,0.2501,-0.0367,0.8765,-6.55,7.92,-0.05,26.99
17023,0.2539,-0.0342,0.882,-6.63,7.94,-0.11,27.0
17033,0.2535,-0.0361,0.8756,-6.56,7.83,-0.06,26.99
17043,0.2505,-0.033,0.8766,-6.52,7.92,-0.06,27.0
17053,0.2487,-0.0363,0.879,-6.52,7.82,-0.05,27.01
17063,0.2521,-0.038,0.877,-6.5,7.83,-0.03,27.0
17073,0.2487,-0.0377,0.8807,-6.53,7.92,-0.11,27.01
17083,0.2502,-0.036,0.8815,-6.49,7.95,-0.11,26.99
17093,0.25,-0.0347,0.8781,-6.58,7.85,-0.09,27.02
17103,0.2552,-0.0338,0.8798,-6.49,7.92,-0.11,26.98
17113,0.2545,-0.0361,0.8804,-6.5,7.94,-0.12,26.99
17123,0.2543,-0.0361,0.8781,-6.56,7.86,-0.02,27.01
17133,0.2523,-0.0365,0.8806,-6.49,7.89,-0.09,26.99
17143,0.2533,-0.0333,0.8746,-6.49,7.91,-0.08,26.98
17153,0.2516,-0.0392,0.8751,-6.52,7.91,-0.06,27.01
17163,0.252,-0.0359,0.8778,-6.64,7.89,-0.06,27.0
17173,0.251,-0.0376,0.8804,-6.52,7.92,-0.12,27.01
17183,0.2512,-0.0348,0.8754,-6.5,7.91,-0.11,26.98
17193,0.2518,-0.0361,0.8756,-6.55,7.92,-0.06,26.98
17203,0.2517,-0.0371,0.8773,-6.53,7.88,-0.09,27.0
17213,0.251,-0.0365,0.8748,-6.52,7.94,-0.03,27.02
17223,0.2531,-0.0375,0.8777,-6.49,7.91,0.05,27.02
17233,0.251,-0.0361,0.8802,-6.55,7.88,-0.02,26.98
17243,0.252,-0.0381,0.8785,-6.53,7.88,0.0,26.98
17253,0.2526,-0.0355,0.8796,-6.58,7.94,-0.06,27.0
17263,0.2523,-0.0361,0.8794,-6.61,7.89,0.03,26.99
17273,0.2546,-0.0366,0.8789,-6.55,7.94,0.0,27.0
17283,0.2545,-0.0356,0.8788,-6.49,7.95,-0.06,26.99
17293,0.2531,-0.0352,0.8795,-6.53,7.86,-0.08,27.02
17303,0.251,-0.0349,0.8798,-6.61,7.88,-0.05,27.0
17313,0.2535,-0.0345,0.8815,-6.6,7.88,-0.06,27.01
17323,0.2506,-0.0374,0.8802,-6.56,7.85,-0.05,27.01
17333,0.2515,-0.0348,0.8781,-6.56,7.82,0.0,27.0
17343,0.254,-0.0375,0.881,-6.52,7.85,-0.03,26.97
17353,0.251,-0.0361,0.8763,-6.49,7.88,-0.11,27.0
17363,0.252,-0.0361,0.8765,-6.56,7.95,-0.14,27.02
17373,0.2543,-0.0337,0.8798,-6.5,7.82,-0.06,26.99
17383,0.2512,-0.0359,0.8794,-6.56,7.83,0.0,27.02
17393,0.2502,-0.0355,0.8787,-6.47,7.8,0.06,27.01
17403,0.2549,-0.035,0.8773,-6.53,7.92,0.02,27.0
17413,0.2537,-0.0367,0.88,-6.55,7.86,-0.09,27.01
17423,0.2518,-0.0353,0.8772,-6.55,7.92,-0.08,26.98
17433,0.2522,-0.036,0.8792,-6.43,7.86,-0.11,26.98
17443,0.2512,-0.0352,0.8774,-6.55,7.85,0.0,26.97
17453,0.2529,-0.0334,0.8817,-6.53,7.88,0.0,27.01
17463,0.2546,-0.0343,0.8765,-6.52,7.86,-0.09,27.01
17473,0.2537,-0.0372,0.8804,-6.49,7.94,-0.09,27.02
17483,0.2529,-0.0364,0.8793,-6.58,7.89,-0.11,27.01
17493,0.2545,-0.0339,0.8768,-6.55,7.82,-0.12,27.01
17503,0.2543,-0.0353,0.8766,-6.46,7.89,-0.06,26.99
17513,0.251,-0.0352,0.879,-6.56,8.0,-0.02,27.01
17523,0.2546,-0.0356,0.8789,-6.49,7.94,-0.14,27.01
17533,0.255,-0.0341,0.8746,-6.47,7.89,-0.02,27.0
17543,0.251,-0.0326,0.8839,-6.49,7.94,0.0,27.0
17553,0.2548,-0.0353,0.8762,-6.47,7.95,-0.08,27.03
17563,0.2546,-0.0336,0.8806,-6.46,7.82,-0.06,26.98
17573,0.2533,-0.0359,0.8727,-6.53,7.88,-0.05,27.02
17583,0.2491,-0.0356,0.8788,-6.5,7.86,-0.05,26.99
17593,0.2532,-0.0367,0.8799,-6.53,7.95,-0.05,27.02
17603,0.2538,-0.0333,0.8818,-6.47,7.88,-0.03,27.01
17613,0.2534,-0.0343,0.8805,-6.49,7.91,0.03,27.01
17623,0.2504,-0.0363,0.8783,-6.47,7.83,0.03,27.01
17633,0.2495,-0.036,0.8782,-6.49,7.86,-0.05,27.0
17643,0.2523,-0.0347,0.8799,-6.55,7.94,-0.05,27.02
17653,0.251,-0.0365,0.8805,-6.43,7.89,-0.09,27.02
17663,0.2501,-0.0365,0.8772,-6.5,7.88,-0.05,27.01
17673,0.251,-0.0341,0.8792,-6.56,7.88,-0.05,26.99
17683,0.2531,-0.0355,0.879,-6.52,7.88,-0.03,27.02
17693,0.2522,-0.0363,0.8807,-6.49,7.92,-0.05,26.98
17703,0.2494,-0.0363,0.8798,-6.53,7.92,-0.09,26.99
17713,0.252,-0.0343,0.8813,-6.49,7.89,-0.08,27.0
17723,0.2515,-0.0339,0.881,-6.43,7.82,-0.12,27.0
17733,0.2515,-0.0344,0.8746,-6.38,7.86,0.05,27.0
17743,0.2517,-0.0337,0.8766,-6.56,7.86,0.0,26.99
17753,0.2509,-0.0352,0.8788,-6.52,7.88,0.02,27.01
17763,0.2487,-0.0361,0.8743,-6.5,7.91,-0.09,26.99
17773,0.2528,-0.0372,0.8828,-6.49,7.91,0.02,26.99
17783,0.2527,-0.0339,0.8778,-6.53,7.88,-0.03,27.0
17793,0.252,-0.0349,0.8795,-6.47,7.89,-0.11,27.0
17803,0.2518,-0.0298,0.8798,-6.55,7.91,-0.02,27.02
17813,0.2555,-0.0295,0.8815,-6.46,7.91,-0.12,27.0
17823,0.2521,-0.0354,0.8754,-6.53,7.88,-0.03,26.99
17833,0.2538,-0.036,0.8776,-6.55,7.85,0.03,27.02
17843,0.251,-0.0382,0.8779,-6.49,7.85,0.12,27.02
17853,0.2522,-0.0372,0.881,-6.56,7.92,-0.06,26.99
17863,0.252,-0.0322,0.8778,-6.49,7.89,-0.03,27.02
17873,0.2537,-0.0376,0.8782,-6.52,7.85,-0.02,27.02
17883,0.256,-0.0375,0.8783,-6.46,7.83,-0.03,27.0
17893,0.2504,-0.0383,0.8785,-6.61,7.98,-0.09,27.0
17903,0.2506,-0.0375,0.8798,-6.58,7.94,-0.05,27.02
17913,0.2515,-0.0354,0.8765,-6.55,7.88,0.05,27.01
17923,0.2496,-0.0308,0.8774,-6.52,7.91,-0.02,27.01
17933,0.25,-0.0348,0.8795,-6.53,7.94,-0.03,27.0
17943,0.2523,-0.0344,0.8763,-6.49,7.88,-0.02,27.01
17953,0.2518,-0.0354,0.8794,-6.56,7.83,-0.05,27.01
17963,0.2485,-0.036,0.8816,-6.53,7.86,-0.08,26.97
17973,0.2517,-0.0365,0.8781,-6.55,7.85,-0.05,27.0
17983,0.2529,-0.038,0.8812,-6.58,7.82,0.02,26.99
17993,0.2548,-0.0374,0.8781,-6.5,7.85,-0.05,26.99
18003,0.2552,-0.0381,0.8779,-6.49,7.86,-0.09,27.0
18013,0.2518,-0.0383,0.8768,-6.53,7.89,-0.08,27.05
18023,0.2535,-0.0381,0.8805,-6.47,7.83,-0.03,27.01
18033,0.256,-0.0294,0.8806,-6.56,7.94,-0.11,26.99
18043,0.2535,-0.0347,0.8801,-6.55,7.91,-0.05,27.01
18053,0.2513,-0.0347,0.879,-6.46,7.85,-0.02,27.04
18063,0.2527,-0.0345,0.8837,-6.53,7.89,-0.05,27.02
18073,0.249,-0.0333,0.8806,-6.49,7.91,0.0,27.01
18083,0.2513,-0.0327,0.8789,-6.6,7.94,-0.03,27.01
18093,0.251,-0.0354,0.8777,-6.58,7.86,0.05,27.0
18103,0.2521,-0.0365,0.8777,-6.58,7.89,-0.12,27.01
18113,0.252,-0.036,0.8778,-6.5,7.91,-0.09,26.99
18123,0.2516,-0.033,0.8739,-6.5,7.8,-0.08,27.0
18133,0.252,-0.0394,0.8807,-6.49,7.89,-0.05,27.02
18143,0.2534,-0.0383,0.8773,-6.49,7.86,-0.06,27.02
18153,0.2565,-0.0403,0.8754,-6.56,7.88,0.05,27.04
18163,0.2531,-0.0402,0.8767,-6.53,7.91,-0.03,27.0
18173,0.2512,-0.0415,0.8794,-6.5,7.95,0.02,27.02
18183,0.2516,-0.038,0.8795,-6.49,7.89,0.03,27.01
18193,0.2527,-0.0344,0.8804,-6.47,7.95,-0.03,27.01
18203,0.2542,-0.0302,0.8813,-6.56,7.88,-0.06,26.99
18213,0.251,-0.0282,0.8806,-6.53,7.97,-0.03,27.01
18223,0.2513,-0.0293,0.8798,-6.56,7.88,0.03,27.02
18233,0.2517,-0.0343,0.8772,-6.56,7.86,0.0,27.01
18243,0.251,-0.0354,0.877,-6.55,7.89,-0.02,27.02
18253,0.2526,-0.0361,0.8783,-6.47,7.86,-0.06,27.01
18263,0.2507,-0.0342,0.8798,-6.52,7.94,-0.06,27.02
18273,0.254,-0.0397,0.8807,-6.52,7.89,-0.02,27.01
18283,0.2517,-0.0391,0.8752,-6.52,7.85,-0.05,26.99
18293,0.2521,-0.0374,0.8765,-6.46,7.86,0.02,27.02
18303,0.2499,-0.0375,0.8757,-6.49,7.89,0.0,27.01
18313,0.2521,-0.0338,0.8792,-6.43,7.92,-0.06,27.04
18323,0.2516,-0.0319,0.8771,-6.47,7.91,-0.02,27.02
18333,0.2518,-0.0317,0.8755,-6.41,7.83,-0.11,27.03
18343,0.2506,-0.0349,0.8762,-6.52,7.91,-0.11,27.02
18353,0.2512,-0.0365,0.8756,-6.5,7.91,-0.03,27.01
18363,0.2526,-0.0389,0.8741,-6.52,7.83,-0.08,27.02
18373,0.251,-0.0371,0.8784,-6.53,7.88,-0.06,27.01
18383,0.2516,-0.033,0.8776,-6.53,7.89,-0.02,27.02
18393,0.251,-0.0323,0.882,-6.61,7.88,-0.05,27.02
18403,0.2509,-0.0354,0.882,-6.44,7.8,-0.09,27.01
18413,0.2524,-0.0323,0.882,-6.56,7.89,-0.05,26.99
18423,0.2545,-0.0309,0.881,-6.52,7.86,-0.06,27.02
18433,0.2529,-0.032,0.8749,-6.56,7.95,-0.02,27.01
18443,0.2496,-0.037,0.8768,-6.58,7.94,-0.06,27.02
18453,0.2538,-0.0364,0.8777,-6.56,7.91,-0.11,27.04
18463,0.2489,-0.0381,0.879,-6.58,7.88,-0.05,27.04
18473,0.2523,-0.0415,0.8749,-6.6,7.94,-0.09,27.03
18483,0.2488,-0.0392,0.8763,-6.53,7.95,-0.02,27.04
18493,0.2539,-0.0396,0.8799,-6.43,7.82,-0.03,27.05
18503,0.2517,-0.0367,0.8782,-6.4,7.85,0.06,27.03
18513,0.2524,-0.0363,0.8817,-6.47,7.89,-0.12,27.02
18523,0.2534,-0.0334,0.8843,-6.5,7.91,-0.11,27.0
18533,0.2526,-0.0325,0.8806,-6.49,7.92,-0.03,27.03
18543,0.2531,-0.0316,0.8793,-6.61,7.83,-0.08,27.02
18553,0.2513,-0.0311,0.8793,-6.53,7.94,0.02,27.01
18563,0.2491,-0.0286,0.8754,-6.53,7.89,-0.05,27.03
18573,0.2539,-0.0363,0.8777,-6.56,7.85,-0.08,27.01
18583,0.2535,-0.0364,0.8788,-6.53,7.85,-0.08,27.02
18593,0.2496,-0.0376,0.8788,-6.61,7.86,-0.09,27.01
18603,0.2512,-0.041,0.8762,-6.5,7.88,-0.06,27.02
18613,0.248,-0.0391,0.8815,-6.5,7.92,0.05,27.01
18623,0.2542,-0.0404,0.8779,-6.5,7.89,-0.05,27.04
18633,0.2543,-0.0386,0.8788,-6.55,7.91,-0.06,27.02
18643,0.2548,-0.0352,0.8817,-6.56,7.95,-0.02,27.03
18653,0.2528,-0.033,0.8788,-6.56,7.86,0.0,27.03
18663,0.2489,-0.0295,0.8796,-6.53,7.89,0.05,27.02
18673,0.2517,-0.032,0.8783,-6.53,7.92,-0.06,27.02
18684,0.2516,-0.0299,0.8785,-6.56,7.91,-0.08,27.01
18694,0.2517,-0.0339,0.8781,-6.58,7.88,0.0,27.01
18704,0.2512,-0.038,0.8773,-6.53,7.88,-0.06,27.04
18714,0.2511,-0.0381,0.8785,-6.63,7.8,0.03,27.03
18726,0.2491,-0.0389,0.8789,-6.52,7.86,-0.02,27.02
18736,0.2518,-0.0421,0.8796,-6.52,7.94,-0.08,26.98
18747,0.2528,-0.0409,0.8776,-6.46,7.89,0.02,27.02
18757,0.2531,-0.0342,0.876,-6.47,7.89,0.02,27.02
18767,0.2526,-0.0348,0.8804,-6.46,7.88,0.02,27.02
18777,0.2491,-0.0363,0.8755,-6.5,7.86,0.0,27.03
18787,0.2515,-0.0321,0.8755,-6.46,7.92,-0.09,27.02
18797,0.2549,-0.0287,0.8793,-6.56,7.88,-0.14,27.02
18808,0.2534,-0.03,0.8798,-6.61,7.91,-0.06,27.03
18818,0.2548,-0.0294,0.8798,-6.5,7.82,-0.12,27.03
18828,0.2526,-0.0338,0.8807,-6.6,7.83,-0.09,27.02
18838,0.2527,-0.0349,0.8794,-6.55,7.85,-0.03,27.01
18848,0.2531,-0.0361,0.8782,-6.6,7.85,-0.08,27.03
18858,0.2532,-0.0391,0.8774,-6.55,7.94,-0.17,27.04
18868,0.2523,-0.0413,0.8812,-6.61,7.92,0.0,27.02
18878,0.2513,-0.0399,0.88,-6.49,7.95,-0.03,27.05
18888,0.2513,-0.0385,0.8771,-6.49,7.89,-0.02,27.03
18898,0.252,-0.0387,0.8778,-6.41,7.89,0.0,27.01
18908,0.2518,-0.033,0.8781,-6.53,7.91,-0.14,27.02
18918,0.2509,-0.0326,0.8802,-6.5,7.83,0.02,27.04
18928,0.2534,-0.0321,0.8752,-6.47,7.85,-0.08,27.02
18938,0.2524,-0.0306,0.8761,-6.49,7.89,0.0,27.02
18949,0.2523,-0.031,0.874,-6.53,7.92,-0.09,27.03
18959,0.2534,-0.0345,0.8792,-6.56,7.85,-0.08,27.02
18969,0.2487,-0.0361,0.88,-6.55,7.95,-0.05,27.05
18979,0.2513,-0.0398,0.8774,-6.6,7.89,-0.05,27.02
18989,0.2522,-0.0416,0.8751,-6.56,7.86,-0.06,27.01
18999,0.2518,-0.0414,0.8792,-6.56,7.88,-0.03,27.03
19009,0.252,-0.0367,0.8779,-6.53,7.91,-0.02,27.06
19019,0.2521,-0.0371,0.8771,-6.5,7.94,-0.03,27.0
19029,0.2544,-0.0356,0.8766,-6.49,7.86,-0.09,27.01
19039,0.2528,-0.0347,0.8807,-6.49,7.83,0.0,27.02
19049,0.2534,-0.0342,0.8796,-6.47,7.92,-0.05,27.03
19059,0.2542,-0.0353,0.8778,-6.49,7.88,0.05,27.02
19069,0.2498,-0.0352,0.8762,-6.5,7.88,-0.05,27.03
19079,0.254,-0.0365,0.8826,-6.55,7.88,-0.08,27.04
19089,0.2496,-0.0364,0.8777,-6.58,7.89,-0.09,27.04
19099,0.2501,-0.0355,0.8789,-6.6,7.85,-0.15,27.03
19109,0.2517,-0.0377,0.8766,-6.56,7.82,-0.02,27.03
19119,0.251,-0.0378,0.8789,-6.47,7.95,-0.05,27.02
19129,0.2543,-0.0383,0.8792,-6.46,7.89,-0.12,27.04
19139,0.2527,-0.0363,0.8829,-6.44,7.85,-0.06,27.04
19149,0.2531,-0.0352,0.8801,-6.53,7.88,-0.03,27.02
19159,0.2539,-0.0343,0.8815,-6.46,7.82,-0.05,27.05
19169,0.2515,-0.0363,0.8782,-6.49,7.88,-0.06,27.04
19179,0.2538,-0.0342,0.8756,-6.46,7.89,-0.02,27.04
19189,0.2489,-0.0339,0.8762,-6.47,7.94,-0.14,27.02
19199,0.2509,-0.035,0.8774,-6.53,7.88,-0.06,27.04
19209,0.2534,-0.0342,0.8767,-6.6,7.86,-0.03,27.03
19219,0.2533,-0.0366,0.8801,-6.58,7.92,-0.03,27.04
19229,0.2562,-0.0386,0.8755,-6.49,7.85,-0.06,27.05
19239,0.2542,-0.0377,0.8759,-6.47,7.88,-0.12,27.05
19249,0.2533,-0.0332,0.8783,-6.53,7.94,0.0,27.05
19259,0.2518,-0.0387,0.8771,-6.44,7.95,-0.08,27.04
19269,0.252,-0.0358,0.88,-6.46,7.89,-0.06,27.04
19279,0.2512,-0.0353,0.8798,-6.53,7.82,-0.08,27.04
19289,0.2521,-0.0377,0.8793,-6.38,7.91,-0.06,27.02
19299,0.2529,-0.0352,0.8781,-6.44,7.91,-0.03,27.06
19309,0.2517,-0.0341,0.8785,-6.41,7.92,-0.05,27.04
19319,0.2531,-0.0363,0.8829,-6.47,7.85,0.02,27.04
19329,0.2535,-0.0352,0.8795,-6.55,7.89,-0.06,27.06
19339,0.2493,-0.0358,0.8796,-6.5,7.94,-0.02,27.03
19349,0.2511,-0.0345,0.8789,-6.55,7.92,-0.11,27.04
19359,0.2528,-0.0363,0.8782,-6.55,7.88,-0.06,27.05
19369,0.2509,-0.0355,0.8792,-6.53,7.86,0.05,27.03
19379,0.2542,-0.0361,0.8802,-6.49,7.85,0.03,27.05
19389,0.2554,-0.0344,0.8821,-6.5,7.88,-0.06,27.04
19399,0.2527,-0.0364,0.881,-6.44,7.88,-0.09,27.04
19409,0.2515,-0.0338,0.881,-6.55,7.88,-0.06,27.04
19419,0.2537,-0.0341,0.8787,-6.49,7.88,-0.03,27.02
19429,0.2528,-0.0344,0.879,-6.44,7.89,-0.02,27.05
19439,0.2545,-0.0353,0.8802,-6.47,7.89,0.02,27.03
19449,0.2549,-0.036,0.8812,-6.56,7.85,-0.09,27.05
19459,0.2521,-0.0352,0.8768,-6.55,7.92,-0.08,27.05
19469,0.2495,-0.0365,0.8737,-6.63,7.86,-0.08,27.05
19479,0.2524,-0.0358,0.88,-6.49,7.86,-0.09,27.03
19490,0.2556,-0.0366,0.8802,-6.53,7.92,-0.11,27.03
19500,0.2538,-0.0378,0.8787,-6.49,7.94,-0.11,27.02
19510,0.2523,-0.038,0.8781,-6.47,7.8,0.0,27.02
19520,0.2513,-0.0361,0.8796,-6.47,7.88,-0.08,27.04
19530,0.2532,-0.0361,0.8789,-6.49,7.85,0.05,27.03
19540,0.2551,-0.0334,0.8796,-6.61,7.91,-0.03,27.03
19550,0.2534,-0.0359,0.8804,-6.58,7.88,-0.08,27.04
19560,0.2507,-0.036,0.8774,-6.55,7.83,0.02,27.04
19570,0.2539,-0.0367,0.8765,-6.56,7.92,-0.08,27.02
19580,0.2501,-0.0359,0.8774,-6.55,7.94,0.05,27.02
19590,0.2484,-0.0363,0.8795,-6.56,7.97,-0.08,27.05
19600,0.2522,-0.0337,0.8779,-6.58,7.86,-0.05,27.02
19610,0.2532,-0.0352,0.8815,-6.5,7.94,-0.06,27.02
19620,0.2537,-0.0344,0.8782,-6.5,7.89,-0.06,27.02
19630,0.2501,-0.0334,0.8781,-6.49,7.91,-0.09,27.03
19640,0.2528,-0.0322,0.8761,-6.55,7.94,-0.02,27.02
19650,0.2534,-0.0338,0.8779,-6.55,7.97,0.02,27.03
19660,0.2511,-0.0382,0.8771,-6.53,7.92,-0.05,27.01
19670,0.252,-0.0326,0.8756,-6.44,7.86,-0.09,27.04
19680,0.2554,-0.0374,0.8752,-6.52,7.8,-0.02,27.04
19690,0.2522,-0.0371,0.8782,-6.56,7.8,0.08,27.02
19700,0.2523,-0.0321,0.8785,-6.47,7.92,0.0,27.07
19710,0.2567,-0.0308,0.8734,-6.53,7.91,0.02,27.04
19720,0.2543,-0.0336,0.8798,-6.52,7.83,-0.02,27.06
19730,0.2521,-0.0356,0.8766,-6.55,7.89,-0.09,27.04
19740,0.2528,-0.0352,0.8777,-6.55,7.91,-0.05,27.04
19750,0.2549,-0.0341,0.8756,-6.52,7.88,-0.06,27.04
19760,0.2526,-0.0381,0.88,-6.52,7.89,-0.05,27.06
19770,0.2537,-0.0378,0.8767,-6.49,7.89,-0.06,27.05
19780,0.25,-0.0394,0.8728,-6.6,7.88,-0.05,27.06
19790,0.2539,-0.0411,0.8774,-6.52,7.89,-0.05,27.04
19800,0.2557,-0.0342,0.8801,-6.56,7.89,0.05,27.06
19810,0.2516,-0.0333,0.8788,-6.46,7.94,0.02,27.05
19820,0.255,-0.0319,0.876,-6.5,7.88,-0.05,27.04
19830,0.2534,-0.0394,0.8782,-6.44,7.88,0.02,27.03
19840,0.2474,-0.0326,0.8707,-6.55,8.02,-0.08,27.05
19850,0.2574,-0.0402,0.864,-6.52,7.98,0.0,27.05
19860,0.2478,-0.0355,0.8824,-6.64,7.92,-0.12,27.06
19870,0.2515,-0.033,0.8779,-6.61,7.92,0.0,27.06
19880,0.2471,-0.0442,0.8842,-6.55,8.02,-0.05,27.06
19890,0.2495,-0.0352,0.8802,-6.55,7.85,-0.09,27.06
19900,0.2521,-0.0349,0.8801,-6.5,7.83,-0.02,27.07
19910,0.2563,-0.0327,0.884,-6.4,7.86,-0.09,27.05
19920,0.2546,-0.0393,0.8779,-6.55,7.8,-0.03,27.06
19930,0.2489,-0.0331,0.8696,-6.52,7.88,-0.09,27.07
19940,0.2521,-0.0403,0.8739,-6.53,7.83,-0.02,27.03
19950,0.251,-0.0325,0.8767,-6.44,7.92,-0.11,27.03
19960,0.2537,-0.0393,0.8738,-6.6,7.8,-0.06,27.04
19970,0.2512,-0.0354,0.8807,-6.53,7.85,-0.08,27.08
19980,0.2533,-0.0341,0.8774,-6.53,7.91,-0.09,27.04
19990,0.2535,-0.0365,0.884,-6.46,7.97,-0.06,27.07
20000,0.2527,-0.0366,0.884,-6.47,7.92,-0.02,27.05
20011,0.2521,-0.0336,0.8831,-6.49,7.88,-0.11,27.03
20021,0.2546,-0.0333,0.8811,-6.61,7.89,-0.06,27.04
20031,0.2537,-0.0338,0.8794,-6.52,7.98,-0.03,27.06
20041,0.2524,-0.0325,0.875,-6.55,7.89,-0.11,27.05
20051,0.2518,-0.0369,0.8718,-6.55,7.95,-0.08,27.02
20061,0.251,-0.0319,0.8763,-6.49,7.92,-0.06,27.02
20071,0.2513,-0.0417,0.8801,-6.49,7.86,-0.03,27.04
20081,0.252,-0.0361,0.8835,-6.52,8.0,-0.08,27.04
20091,0.2511,-0.0378,0.8788,-6.38,7.94,-0.06,27.04
20101,0.2548,-0.0378,0.8831,-6.64,7.89,-0.06,27.05
20111,0.2543,-0.0367,0.8828,-6.56,7.94,-0.06,27.04
20121,0.2532,-0.036,0.882,-6.63,7.91,0.03,27.06
20131,0.2499,-0.0334,0.879,-6.56,7.85,0.0,27.05
20141,0.2531,-0.0323,0.8773,-6.58,7.83,0.09,27.05
20151,0.2534,-0.0339,0.8757,-6.52,7.97,0.05,27.05
20161,0.2496,-0.0372,0.8754,-6.47,7.92,-0.05,27.06
20171,0.251,-0.0363,0.8784,-6.5,7.92,-0.02,27.07
20181,0.2496,-0.0377,0.8806,-6.47,7.95,0.0,27.02
20191,0.254,-0.0326,0.8779,-6.56,7.89,-0.14,27.04
20202,0.2502,-0.0374,0.8795,-6.52,7.85,-0.09,27.05
20212,0.2576,-0.0364,0.8771,-6.53,7.89,0.02,27.04
20222,0.2544,-0.0396,0.8809,-6.55,7.91,0.05,27.08
20232,0.2529,-0.0374,0.879,-6.55,7.92,0.0,27.04
20242,0.2531,-0.0355,0.8755,-6.43,7.88,-0.02,27.05
20252,0.2538,-0.0366,0.873,-6.47,7.92,-0.14,27.07
20262,0.2539,-0.0377,0.8762,-6.49,7.89,-0.06,27.06
20272,0.2512,-0.0331,0.8793,-6.52,7.8,-0.05,27.06
20282,0.2526,-0.0356,0.8749,-6.52,7.92,-0.15,27.06
20292,0.2527,-0.0345,0.8807,-6.55,7.89,-0.06,27.05
20302,0.252,-0.0349,0.8815,-6.53,7.85,0.0,27.06
20312,0.2511,-0.0339,0.8822,-6.52,7.85,-0.05,27.09
20322,0.2513,-0.0349,0.8776,-6.52,7.86,-0.03,27.06
20332,0.2516,-0.0344,0.8777,-6.55,7.97,0.03,27.05
20342,0.2535,-0.0356,0.8765,-6.5,7.89,-0.03,27.04
20352,0.2527,-0.0336,0.8752,-6.49,7.89,-0.05,27.07
20362,0.2515,-0.0359,0.8811,-6.52,7.86,-0.09,27.08
20372,0.2522,-0.0367,0.8771,-6.55,7.88,-0.08,27.06
20382,0.2515,-0.0348,0.8799,-6.49,7.94,-0.11,27.05
20392,0.2522,-0.0334,0.876,-6.56,7.89,-0.03,27.06
20402,0.2527,-0.0339,0.8816,-6.56,7.89,-0.03,27.05
20412,0.2544,-0.0356,0.8828,-6.5,7.89,-0.05,27.05
20422,0.2548,-0.0355,0.8802,-6.49,7.86,-0.09,27.05
20432,0.2512,-0.0342,0.8757,-6.49,7.91,-0.03,27.05
20442,0.2533,-0.037,0.8781,-6.49,7.88,-0.08,27.08
20452,0.2515,-0.0376,0.8766,-6.5,7.89,-0.05,27.05
20462,0.2524,-0.0374,0.8774,-6.49,7.86,-0.05,27.05
20472,0.252,-0.0369,0.8734,-6.49,7.91,-0.09,27.08
20482,0.2549,-0.0365,0.8774,-6.46,7.91,-0.05,27.05
20492,0.2538,-0.0339,0.8766,-6.55,7.88,-0.06,27.06
20502,0.2535,-0.0369,0.8771,-6.47,7.85,0.0,27.07
20512,0.2538,-0.0358,0.8781,-6.56,7.91,-0.09,27.05
20522,0.2528,-0.038,0.8815,-6.49,7.89,0.0,27.06
20532,0.25,-0.0377,0.8783,-6.5,7.91,0.0,27.06
20542,0.2516,-0.0347,0.8759,-6.5,7.92,0.0,27.05
20552,0.2493,-0.0355,0.8768,-6.5,7.88,-0.06,27.07
20562,0.2533,-0.035,0.8772,-6.5,7.94,-0.06,27.08
20572,0.2499,-0.0321,0.876,-6.52,7.91,0.0,27.05
20582,0.2505,-0.0365,0.8793,-6.53,7.83,0.02,27.06
20592,0.2537,-0.0374,0.8792,-6.44,7.88,-0.06,27.06
20602,0.2516,-0.0361,0.8767,-6.6,7.92,-0.09,27.08
20612,0.2516,-0.0356,0.8795,-6.63,7.94,-0.03,27.06
20622,0.2499,-0.0364,0.882,-6.56,7.88,0.03,27.06
20632,0.2527,-0.036,0.8818,-6.47,7.89,0.06,27.07
20642,0.2524,-0.0355,0.8777,-6.53,7.92,-0.06,27.08
20652,0.252,-0.0367,0.8768,-6.53,7.94,-0.05,27.05
20662,0.2507,-0.0347,0.8751,-6.55,7.95,-0.02,27.06
20672,0.2532,-0.0315,0.8756,-6.49,7.88,-0.08,27.08
20682,0.2523,-0.0377,0.8745,-6.52,7.94,-0.05,27.09
20692,0.2526,-0.0349,0.877,-6.46,7.91,-0.03,27.05
20702,0.2522,-0.0331,0.8816,-6.55,7.85,-0.02,27.07
20712,0.2505,-0.0377,0.881,-6.58,7.92,0.06,27.09
20722,0.2528,-0.0378,0.8772,-6.55,7.92,0.03,27.09
20732,0.2515,-0.0372,0.8827,-6.55,7.91,-0.05,27.06
20742,0.25,-0.0343,0.8746,-6.53,7.97,-0.05,27.07
20752,0.2532,-0.0371,0.8779,-6.56,7.86,-0.06,27.07
20762,0.2518,-0.0371,0.877,-6.52,7.91,-0.05,27.09
20772,0.251,-0.0349,0.8792,-6.47,7.88,-0.08,27.09
20782,0.2521,-0.0359,0.8795,-6.5,7.92,-0.09,27.07
20792,0.2538,-0.0358,0.8802,-6.56,7.92,-0.05,27.09
20802,0.2506,-0.0361,0.8798,-6.5,7.92,-0.09,27.07
20812,0.2548,-0.0321,0.877,-6.55,7.89,-0.02,27.07
20822,0.2548,-0.0366,0.8801,-6.49,7.86,-0.03,27.09
20832,0.2532,-0.0355,0.8805,-6.43,7.91,-0.12,27.09
20842,0.2523,-0.0342,0.8784,-6.47,7.91,-0.03,27.07
20852,0.25,-0.0341,0.8774,-6.56,7.85,0.02,27.09
20862,0.2523,-0.0385,0.8763,-6.52,7.86,-0.05,27.08
20872,0.2509,-0.0355,0.88,-6.58,7.85,-0.05,27.07
20882,0.2527,-0.0367,0.8759,-6.64,7.95,-0.03,27.05
20892,0.2537,-0.0359,0.8732,-6.6,7.89,-0.02,27.08
20902,0.2527,-0.036,0.8785,-6.63,7.88,-0.11,27.06
20912,0.2512,-0.0354,0.8772,-6.6,7.91,-0.06,27.09
20922,0.2557,-0.0364,0.8809,-6.53,7.88,-0.06,27.07
20932,0.2534,-0.0391,0.8812,-6.47,7.94,-0.08,27.07
20942,0.2516,-0.0361,0.8783,-6.46,7.92,0.0,27.07
20953,0.2524,-0.0358,0.8762,-6.53,7.85,-0.05,27.08
20963,0.2516,-0.0349,0.8768,-6.55,7.89,0.03,27.07
20973,0.2511,-0.0336,0.8778,-6.55,7.91,0.0,27.1
20983,0.2533,-0.0343,0.8751,-6.38,7.92,-0.05,27.07
20993,0.2531,-0.0339,0.8792,-6.49,7.95,0.02,27.08
21003,0.2544,-0.0359,0.8772,-6.47,7.88,-0.06,27.1
21013,0.2548,-0.0363,0.8778,-6.61,7.92,-0.06,27.08
21023,0.2529,-0.0349,0.8751,-6.52,7.91,-0.02,27.07
21033,0.2518,-0.0374,0.8795,-6.63,7.88,-0.03,27.07
21043,0.2521,-0.0323,0.8752,-6.47,7.92,-0.03,27.07
21053,0.2522,-0.0355,0.8763,-6.47,7.86,-0.08,27.06
21063,0.2495,-0.037,0.8749,-6.58,7.92,-0.05,27.06
21073,0.2516,-0.0345,0.8763,-6.63,7.89,-0.03,27.09
21083,0.2523,-0.036,0.8782,-6.66,7.95,-0.06,27.07
21093,0.2546,-0.0364,0.8778,-6.6,7.97,-0.03,27.08
21103,0.2526,-0.0342,0.8788,-6.52,7.82,0.0,27.07
21113,0.2509,-0.0339,0.8773,-6.41,7.88,0.05,27.06
21123,0.2513,-0.0352,0.8771,-6.52,7.91,0.0,27.07
21133,0.2524,-0.036,0.88,-6.5,7.95,0.05,27.08
21143,0.2515,-0.0339,0.8817,-6.55,7.91,-0.03,27.09
21153,0.2498,-0.0349,0.8809,-6.47,7.95,-0.09,27.07
21163,0.2568,-0.0341,0.8804,-6.52,7.94,-0.08,27.08
21173,0.2517,-0.0348,0.8782,-6.53,7.89,-0.06,27.08
21183,0.2507,-0.0349,0.8802,-6.58,7.89,-0.08,27.08
21193,0.2533,-0.0336,0.8776,-6.49,7.92,-0.08,27.05
21203,0.2517,-0.0345,0.881,-6.53,7.95,-0.02,27.07
21213,0.2533,-0.0355,0.8796,-6.47,7.94,-0.09,27.09
21223,0.2529,-0.0367,0.8776,-6.46,7.91,-0.06,27.06
21233,0.2511,-0.0366,0.8823,-6.52,7.86,-0.06,27.05
21243,0.2499,-0.0331,0.8779,-6.58,7.92,-0.03,27.07
21253,0.2493,-0.0325,0.8812,-6.6,7.88,-0.05,27.05
21263,0.2499,-0.0361,0.8739,-6.58,7.95,-0.05,27.07
21273,0.2534,-0.0339,0.8811,-6.55,7.91,0.0,27.06
21283,0.2529,-0.0353,0.8772,-6.55,7.86,-0.09,27.09
21302,0.2498,-0.037,0.8784,-6.5,7.94,-0.08,27.04
21312,0.2528,-0.0347,0.8781,-6.61,7.85,-0.02,27.06
21322,0.252,-0.0325,0.8859,-6.53,7.89,-0.08,27.08
21332,0.2501,-0.0343,0.88,-6.55,7.92,-0.09,27.05
21342,0.254,-0.0356,0.8795,-6.41,7.88,-0.05,27.09
21352,0.252,-0.0345,0.8807,-6.49,7.94,-0.05,27.1
21362,0.251,-0.0356,0.8757,-6.47,7.85,-0.06,27.08
21372,0.2518,-0.0341,0.8783,-6.47,7.82,-0.05,27.08
21382,0.2522,-0.0348,0.8798,-6.58,7.85,-0.03,27.08
21392,0.2523,-0.0367,0.8776,-6.58,7.91,-0.06,27.07
21402,0.2527,-0.0369,0.8779,-6.5,7.86,-0.05,27.07
21412,0.2524,-0.035,0.8767,-6.52,7.91,0.0,27.07
21422,0.2505,-0.0372,0.8799,-6.55,7.85,0.02,27.07
21432,0.2509,-0.0339,0.8796,-6.53,7.88,-0.08,27.07
21442,0.2526,-0.0356,0.8774,-6.52,7.92,-0.05,27.08
21452,0.2521,-0.035,0.8783,-6.49,7.89,-0.06,27.06
21463,0.2505,-0.0365,0.875,-6.56,7.95,-0.05,27.07
21473,0.2516,-0.0367,0.8815,-6.63,7.91,-0.06,27.09
21483,0.25,-0.035,0.8778,-6.56,7.88,0.0,27.09
21493,0.2515,-0.031,0.8756,-6.64,7.86,-0.05,27.09
21503,0.255,-0.0358,0.8788,-6.55,7.89,-0.03,27.09
21513,0.2537,-0.0334,0.8823,-6.47,7.89,-0.05,27.07
21523,0.2531,-0.0327,0.8776,-6.49,7.88,-0.03,27.09
21534,0.2529,-0.0375,0.8776,-6.41,7.89,-0.06,27.11
21544,0.2534,-0.0389,0.8798,-6.49,7.89,-0.08,27.09
21554,0.2538,-0.0378,0.8735,-6.47,7.83,-0.05,27.08
21564,0.2526,-0.0377,0.8776,-6.52,7.92,0.05,27.07
21574,0.2544,-0.0326,0.877,-6.43,7.82,0.0,27.1
21584,0.2556,-0.0363,0.8805,-6.52,7.89,-0.08,27.1
21594,0.2542,-0.0356,0.8788,-6.6,7.85,-0.05,27.09
21604,0.2542,-0.0343,0.8794,-6.53,7.89,0.0,27.08
21614,0.2561,-0.0323,0.8766,-6.58,7.91,-0.03,27.09
21624,0.2515,-0.0366,0.8787,-6.46,7.89,-0.02,27.07
21634,0.2528,-0.037,0.8756,-6.61,7.85,-0.08,27.08
21644,0.2527,-0.0354,0.8817,-6.53,7.85,-0.02,27.08
21655,0.252,-0.0359,0.88,-6.44,7.89,-0.08,27.09
21665,0.2529,-0.0352,0.8788,-6.49,7.86,-0.02,27.06
21675,0.2534,-0.0372,0.88,-6.47,7.85,0.0,27.09
21686,0.251,-0.0336,0.8823,-6.53,7.89,-0.09,27.09
21696,0.2522,-0.0359,0.8779,-6.52,7.92,-0.03,27.11
21707,0.2521,-0.0369,0.8811,-6.55,7.88,-0.02,27.07
21717,0.2538,-0.0347,0.8793,-6.56,7.83,-0.09,27.12
21727,0.2539,-0.0353,0.8799,-6.55,7.91,-0.09,27.11
21737,0.2534,-0.0366,0.8765,-6.47,7.86,-0.02,27.1
21747,0.2538,-0.0345,0.8837,-6.53,7.86,0.0,27.11
21757,0.2528,-0.0382,0.8809,-6.47,7.83,-0.03,27.08
21767,0.2502,-0.0354,0.8799,-6.53,7.91,-0.03,27.1
21777,0.2532,-0.0359,0.8781,-6.7,7.92,-0.03,27.1
21787,0.2499,-0.0375,0.8794,-6.53,7.89,-0.03,27.09
21797,0.2513,-0.0365,0.877,-6.5,7.82,-0.05,27.11
21807,0.2484,-0.0356,0.8781,-6.5,7.86,-0.08,27.1
21817,0.2506,-0.0364,0.8776,-6.5,7.86,0.0,27.09
21827,0.2513,-0.0363,0.8823,-6.61,7.91,-0.09,27.1
21837,0.2512,-0.037,0.8744,-6.52,7.89,-0.03,27.1
21847,0.2549,-0.0338,0.8794,-6.5,7.83,-0.08,27.11
21857,0.2528,-0.0356,0.8779,-6.58,7.89,-0.08,27.08
21867,0.254,-0.0337,0.8804,-6.53,7.91,-0.06,27.09
21877,0.252,-0.0369,0.8829,-6.56,7.91,-0.08,27.09
21887,0.2529,-0.0348,0.8776,-6.5,7.83,0.03,27.11
21897,0.2524,-0.0364,0.8817,-6.53,7.86,-0.05,27.11
21907,0.2515,-0.0396,0.881,-6.43,7.89,-0.08,27.09
21917,0.2543,-0.0363,0.8751,-6.53,7.91,-0.08,27.09
21927,0.2504,-0.0342,0.8823,-6.47,7.86,-0.08,27.09
21937,0.2512,-0.0358,0.8768,-6.52,7.85,-0.03,27.11
21947,0.2542,-0.0353,0.8754,-6.41,7.92,-0.03,27.1
21957,0.2524,-0.0366,0.8801,-6.52,7.95,-0.03,27.07
21967,0.2509,-0.0365,0.8755,-6.49,7.86,-0.03,27.08
21977,0.2532,-0.0338,0.8822,-6.66,7.86,-0.06,27.09
21987,0.2527,-0.0334,0.8748,-6.56,7.82,-0.06,27.11
21997,0.2527,-0.0369,0.8816,-6.55,7.82,-0.06,27.11
22007,0.2516,-0.0364,0.8785,-6.56,7.86,-0.06,27.06
22017,0.2517,-0.0356,0.8776,-6.5,7.91,-0.06,27.1
22027,0.2505,-0.0354,0.8778,-6.53,7.92,-0.02,27.1
22037,0.2526,-0.0348,0.8804,-6.55,7.95,0.06,27.11
22047,0.2501,-0.0327,0.8779,-6.49,7.92,-0.02,27.09
22057,0.2517,-0.0367,0.8815,-6.49,7.89,-0.08,27.11
22067,0.25,-0.0345,0.879,-6.58,7.82,-0.08,27.11
22077,0.252,-0.0342,0.8789,-6.4,7.86,-0.05,27.12
22087,0.2504,-0.0342,0.8788,-6.55,7.88,-0.08,27.09
22097,0.2509,-0.0333,0.8778,-6.53,7.89,-0.08,27.07
22107,0.2532,-0.0353,0.8794,-6.56,7.92,0.02,27.09
22117,0.2502,-0.0364,0.8809,-6.63,7.92,0.02,27.09
22127,0.249,-0.0356,0.8799,-6.53,7.92,-0.06,27.11
22137,0.2531,-0.0345,0.8782,-6.58,7.89,0.0,27.09
22147,0.2551,-0.035,0.8763,-6.5,7.82,-0.06,27.09
22157,0.2544,-0.036,0.8773,-6.53,7.92,-0.06,27.09
22167,0.254,-0.0315,0.8768,-6.56,7.86,-0.05,27.11
22177,0.2531,-0.0374,0.8757,-6.47,7.85,-0.03,27.09
22187,0.2524,-0.0364,0.8796,-6.58,7.92,-0.06,27.08
22197,0.2522,-0.0363,0.8768,-6.53,7.85,-0.06,27.1
22207,0.2533,-0.0378,0.8774,-6.49,7.89,-0.08,27.09
22217,0.2513,-0.0337,0.8773,-6.5,8.0,-0.05,27.11
22227,0.2517,-0.036,0.8788,-6.52,7.88,0.03,27.1
22237,0.2516,-0.0359,0.8806,-6.56,7.91,-0.05,27.1
22247,0.2538,-0.0361,0.8804,-6.58,7.88,-0.05,27.11
22257,0.2523,-0.0349,0.8802,-6.52,7.92,0.11,27.12
22267,0.2527,-0.0348,0.8813,-6.5,7.91,-0.03,27.09
22277,0.2517,-0.0356,0.8804,-6.52,7.83,-0.12,27.08
22287,0.2513,-0.035,0.8792,-6.52,7.88,-0.06,27.1
22297,0.2518,-0.035,0.8788,-6.61,7.91,-0.06,27.09
22307,0.2513,-0.0332,0.8771,-6.53,7.86,-0.11,27.11
22317,0.2504,-0.0366,0.8771,-6.55,7.92,-0.06,27.09
22327,0.2506,-0.0361,0.8773,-6.44,7.92,-0.02,27.1
22337,0.2528,-0.0375,0.8801,-6.5,7.91,-0.06,27.09
22347,0.2531,-0.0361,0.8762,-6.44,7.89,-0.08,27.11
22357,0.2545,-0.037,0.8776,-6.55,7.86,-0.05,27.09
22367,0.255,-0.0341,0.875,-6.53,7.83,0.03,27.08
22377,0.2512,-0.0349,0.8787,-6.55,7.95,-0.02,27.08
22387,0.255,-0.0361,0.8781,-6.52,7.89,-0.06,27.09
22397,0.252,-0.0371,0.8785,-6.56,7.92,-0.06,27.09
22407,0.2499,-0.0315,0.8811,-6.49,7.89,-0.06,27.12
22417,0.2523,-0.0339,0.8741,-6.53,7.88,-0.06,27.08
22427,0.2535,-0.0374,0.8773,-6.61,7.89,0.02,27.07
22437,0.2506,-0.0334,0.8784,-6.52,7.94,-0.02,27.1
22447,0.2522,-0.0342,0.8784,-6.56,7.95,-0.12,27.11
22457,0.2504,-0.0363,0.879,-6.53,8.0,0.0,27.12
22467,0.2482,-0.0333,0.8785,-6.49,7.94,-0.12,27.1
22477,0.2502,-0.0393,0.88,-6.52,7.91,-0.08,27.13
22487,0.2539,-0.0354,0.8813,-6.43,7.86,-0.06,27.11
22497,0.2587,-0.0349,0.8784,-6.55,7.89,0.0,27.12
22509,0.252,-0.0341,0.8816,-6.49,7.92,-0.06,27.08
22519,0.2528,-0.036,0.8763,-6.47,7.89,-0.06,27.12
22529,0.2526,-0.0369,0.8733,-6.46,7.89,-0.11,27.09
22539,0.2516,-0.0341,0.8777,-6.6,7.89,0.0,27.08
22549,0.2504,-0.0359,0.8792,-6.5,7.94,-0.02,27.09
22559,0.2526,-0.0366,0.8781,-6.47,8.02,-0.03,27.11
22569,0.2511,-0.037,0.8811,-6.56,7.89,-0.09,27.12
22579,0.2521,-0.0356,0.8816,-6.49,7.89,0.03,27.11
22589,0.2543,-0.0366,0.8816,-6.46,7.92,-0.08,27.08
22599,0.2523,-0.0336,0.8788,-6.52,7.89,-0.05,27.09
22609,0.2527,-0.0338,0.8766,-6.4,7.92,-0.08,27.09
22619,0.2518,-0.0332,0.8789,-6.6,7.86,-0.02,27.09
22629,0.2522,-0.0339,0.8815,-6.55,7.85,-0.06,27.08
22639,0.2516,-0.0332,0.8844,-6.61,7.92,-0.08,27.08
22649,0.2556,-0.0345,0.8805,-6.52,7.91,-0.11,27.09
22659,0.2533,-0.0336,0.8745,-6.58,7.89,0.0,27.11
22669,0.2535,-0.0348,0.8759,-6.55,7.88,-0.08,27.14
22679,0.2516,-0.037,0.8737,-6.47,7.83,0.03,27.1
22689,0.2531,-0.0358,0.8768,-6.52,7.91,-0.06,27.09
22699,0.2516,-0.0342,0.8806,-6.47,7.92,-0.06,27.12
22709,0.2533,-0.0363,0.8778,-6.55,7.91,0.03,27.09
22719,0.2524,-0.0338,0.8816,-6.52,7.89,-0.05,27.12
22729,0.2517,-0.0364,0.8785,-6.47,7.91,-0.12,27.1
22739,0.2507,-0.0359,0.8831,-6.55,7.85,-0.06,27.11
22749,0.2491,-0.0364,0.8745,-6.5,7.88,-0.03,27.1
22759,0.2515,-0.0361,0.8765,-6.56,7.85,-0.03,27.11
22769,0.2551,-0.0361,0.8788,-6.46,7.86,-0.03,27.08
22779,0.2485,-0.0361,0.879,-6.53,7.88,-0.09,27.12
22789,0.2527,-0.0365,0.8779,-6.5,7.91,-0.11,27.14
22799,0.254,-0.0355,0.8815,-6.52,7.86,-0.08,27.12
22810,0.2549,-0.0334,0.8807,-6.53,7.91,-0.05,27.11
22820,0.2509,-0.0374,0.8772,-6.53,7.88,-0.08,27.11
22830,0.2495,-0.0336,0.8777,-6.53,7.94,-0.09,27.13
22840,0.2543,-0.0377,0.8827,-6.49,7.86,-0.08,27.13
22850,0.2537,-0.0365,0.8781,-6.5,7.89,0.03,27.12
22860,0.2549,-0.0381,0.8773,-6.53,7.85,-0.03,27.11
22870,0.2532,-0.0341,0.8756,-6.44,7.88,0.03,27.11
22880,0.2511,-0.0337,0.8761,-6.5,7.92,-0.02,27.11
22891,0.252,-0.035,0.8823,-6.49,7.94,-0.08,27.13
22901,0.2509,-0.0375,0.8781,-6.49,7.95,0.0,27.11
22911,0.2518,-0.0363,0.8794,-6.5,7.88,-0.03,27.12
22921,0.2521,-0.0341,0.8809,-6.46,7.92,-0.09,27.12
22931,0.2498,-0.0343,0.8795,-6.58,7.92,-0.08,27.1
22941,0.2528,-0.0343,0.8815,-6.56,7.91,-0.11,27.13
22951,0.2528,-0.0328,0.879,-6.52,7.94,-0.06,27.07
22961,0.2521,-0.035,0.8804,-6.56,7.89,-0.06,27.1
22971,0.2562,-0.0366,0.8778,-6.56,7.83,-0.11,27.12
22981,0.2528,-0.0372,0.8784,-6.61,7.89,-0.03,27.1
22991,0.2532,-0.0348,0.8783,-6.52,7.86,-0.05,27.12
23001,0.2513,-0.0385,0.8777,-6.56,7.91,-0.06,27.09
23011,0.2527,-0.0378,0.8787,-6.49,7.89,-0.11,27.12
23021,0.252,-0.0353,0.8772,-6.52,7.89,-0.03,27.11
23031,0.2527,-0.0367,0.8756,-6.46,7.89,-0.03,27.11
23041,0.2538,-0.0345,0.8792,-6.52,7.89,-0.06,27.1
23051,0.2542,-0.0361,0.8782,-6.53,7.94,-0.02,27.1
23061,0.2529,-0.0364,0.8794,-6.49,7.92,-0.03,27.1
23071,0.2552,-0.0361,0.8816,-6.55,7.89,-0.02,27.09
23081,0.2526,-0.0347,0.8789,-6.53,7.89,0.0,27.12
23091,0.2522,-0.0349,0.8837,-6.52,7.92,-0.05,27.11
23101,0.2521,-0.0364,0.8812,-6.56,7.85,-0.03,27.11
23111,0.2538,-0.0348,0.8781,-6.5,7.86,-0.06,27.12
23121,0.2512,-0.0338,0.8784,-6.63,7.89,-0.06,27.11
23131,0.2524,-0.0358,0.8779,-6.6,7.91,-0.06,27.11
23141,0.2511,-0.0353,0.8794,-6.58,7.88,-0.06,27.1
23151,0.2501,-0.0359,0.8785,-6.46,7.95,-0.06,27.11
23161,0.2529,-0.0381,0.8824,-6.49,7.88,0.03,27.13
23171,0.2532,-0.0348,0.8782,-6.56,7.85,-0.06,27.14
23181,0.2504,-0.0365,0.8782,-6.55,7.82,-0.03,27.12
23191,0.2494,-0.0361,0.8748,-6.58,7.91,-0.05,27.12
23201,0.2516,-0.0364,0.8767,-6.55,7.92,-0.02,27.14
23211,0.2535,-0.0359,0.8801,-6.49,7.95,-0.06,27.13
23221,0.2512,-0.033,0.881,-6.61,7.92,-0.03,27.11
23231,0.2513,-0.0348,0.8776,-6.55,7.88,-0.02,27.11
23241,0.2512,-0.0367,0.8806,-6.52,7.91,-0.02,27.12
23251,0.2511,-0.036,0.8799,-6.46,7.86,0.0,27.11
23261,0.251,-0.0344,0.8779,-6.47,7.85,-0.02,27.13
23271,0.2501,-0.0364,0.8739,-6.52,7.89,-0.02,27.11
23281,0.2537,-0.0347,0.8822,-6.5,7.91,-0.09,27.09
23291,0.2517,-0.0363,0.8729,-6.53,7.91,-0.11,27.12
23301,0.2506,-0.0388,0.8767,-6.49,7.88,-0.06,27.11
23311,0.2507,-0.0354,0.8776,-6.53,7.89,0.03,27.12
23321,0.2512,-0.0376,0.8807,-6.56,7.89,-0.11,27.11
23331,0.2523,-0.0348,0.8749,-6.52,7.92,0.0,27.1
23341,0.2534,-0.0356,0.8807,-6.58,7.91,-0.03,27.09
23351,0.2523,-0.0366,0.8812,-6.52,7.89,-0.03,27.13
23361,0.252,-0.0342,0.8779,-6.49,7.88,0.0,27.11
23371,0.2488,-0.0356,0.8807,-6.5,7.91,-0.05,27.13
23381,0.2512,-0.0348,0.8783,-6.53,7.88,-0.02,27.12
23391,0.249,-0.0352,0.8779,-6.49,7.94,-0.05,27.11
23401,0.2516,-0.0361,0.8787,-6.47,7.91,-0.02,27.08
23411,0.2511,-0.0341,0.8781,-6.53,7.89,0.03,27.1
23421,0.2545,-0.0338,0.8787,-6.49,7.92,-0.03,27.11
23431,0.2511,-0.0354,0.8772,-6.6,7.97,-0.03,27.11
23441,0.2511,-0.0347,0.8788,-6.61,7.94,-0.09,27.12
23451,0.2542,-0.0361,0.8788,-6.44,7.92,0.02,27.12
23461,0.2533,-0.032,0.8755,-6.55,7.88,-0.05,27.11
23471,0.2513,-0.0347,0.8777,-6.53,7.94,-0.05,27.11
23481,0.2523,-0.0378,0.882,-6.5,7.94,-0.02,27.11
23491,0.2522,-0.0359,0.8809,-6.55,7.88,-0.06,27.11
23501,0.2516,-0.0342,0.8802,-6.49,7.86,-0.03,27.12
23511,0.2532,-0.0364,0.8788,-6.47,7.97,0.05,27.14
23521,0.2487,-0.036,0.8848,-6.44,7.88,-0.03,27.14
23531,0.2515,-0.0383,0.8781,-6.5,7.89,-0.05,27.12
23541,0.2534,-0.0369,0.8784,-6.47,7.89,0.06,27.1
23551,0.2555,-0.0376,0.8802,-6.5,7.85,0.03,27.12
23561,0.25,-0.035,0.8795,-6.5,7.91,0.02,27.1
23571,0.2517,-0.0376,0.8785,-6.53,7.89,-0.12,27.12
23581,0.252,-0.0354,0.8751,-6.56,7.88,-0.08,27.11
23591,0.2513,-0.0342,0.8807,-6.56,7.82,-0.06,27.12
23601,0.2512,-0.0361,0.8813,-6.55,7.92,-0.08,27.13
23611,0.2509,-0.0326,0.8802,-6.52,7.92,-0.02,27.12
23621,0.2543,-0.0341,0.8771,-6.58,7.83,0.03,27.14
23631,0.2535,-0.0337,0.8795,-6.52,7.83,-0.11,27.13
23641,0.2505,-0.0348,0.8785,-6.56,7.91,0.0,27.13
23651,0.2495,-0.0378,0.8806,-6.56,7.88,-0.02,27.13
23661,0.2518,-0.0383,0.8802,-6.53,7.94,-0.08,27.11
23671,0.2517,-0.0363,0.8774,-6.46,7.94,-0.05,27.13
23681,0.2511,-0.0366,0.8779,-6.5,7.91,-0.03,27.12
23691,0.249,-0.035,0.8798,-6.63,7.86,-0.06,27.15
23701,0.2535,-0.0371,0.8774,-6.56,7.92,-0.03,27.13
23711,0.2511,-0.0343,0.8772,-6.6,7.95,-0.06,27.11
23721,0.2509,-0.0342,0.8799,-6.49,7.95,-0.06,27.13
23731,0.25,-0.0339,0.8788,-6.56,7.94,-0.09,27.11
23741,0.2542,-0.0342,0.8785,-6.52,7.91,0.02,27.14
23751,0.2516,-0.0349,0.8816,-6.55,7.89,-0.05,27.1
23761,0.2526,-0.0334,0.8799,-6.56,7.92,-0.08,27.1
23773,0.2506,-0.0372,0.8776,-6.52,7.86,-0.05,27.13
23783,0.2513,-0.036,0.8761,-6.5,7.85,-0.06,27.09
23793,0.2518,-0.0361,0.8777,-6.52,7.88,0.03,27.12
23803,0.2517,-0.0378,0.8826,-6.55,7.95,0.0,27.12
23813,0.2521,-0.0352,0.8792,-6.53,7.88,-0.08,27.13
23823,0.2518,-0.0345,0.8768,-6.49,7.92,-0.08,27.1
23833,0.2517,-0.0363,0.8823,-6.56,7.86,-0.05,27.13
23843,0.2517,-0.0371,0.8795,-6.47,7.91,0.0,27.11
23853,0.2529,-0.037,0.8771,-6.55,7.91,-0.02,27.12
23863,0.2526,-0.035,0.879,-6.49,7.94,-0.03,27.11
23873,0.2531,-0.0358,0.8766,-6.6,7.94,-0.06,27.12
23883,0.252,-0.0361,0.8796,-6.52,7.89,-0.12,27.11
23893,0.2532,-0.0334,0.8787,-6.52,7.82,-0.03,27.14
23903,0.2531,-0.0377,0.8809,-6.6,7.89,-0.11,27.13
23913,0.2539,-0.0381,0.8823,-6.56,7.86,-0.09,27.12
23923,0.2543,-0.0334,0.8815,-6.53,7.95,-0.06,27.12
23933,0.2526,-0.0371,0.8807,-6.47,7.94,-0.06,27.14
23943,0.2546,-0.0342,0.8778,-6.46,7.89,-0.03,27.11
23953,0.2528,-0.035,0.8789,-6.52,7.86,-0.08,27.14
23963,0.2552,-0.0358,0.8812,-6.5,7.85,-0.09,27.11
23973,0.2516,-0.036,0.8778,-6.47,7.89,-0.02,27.13
23983,0.2516,-0.033,0.8772,-6.5,7.94,-0.05,27.14
23993,0.2502,-0.0349,0.8744,-6.46,7.89,-0.03,27.14
24003,0.2527,-0.0388,0.8801,-6.52,7.94,-0.02,27.12
24013,0.2526,-0.0378,0.8765,-6.5,7.94,0.0,27.12
24023,0.2546,-0.0374,0.8823,-6.52,7.89,-0.05,27.14
24033,0.2522,-0.0328,0.8813,-6.52,7.86,-0.05,27.11
24043,0.2511,-0.035,0.875,-6.47,7.88,-0.08,27.14
24053,0.2537,-0.0358,0.8823,-6.55,7.86,-0.02,27.12
24063,0.2499,-0.0353,0.8783,-6.52,7.85,0.0,27.15
24073,0.2491,-0.037,0.8757,-6.61,7.89,-0.02,27.14
24083,0.2526,-0.0344,0.8781,-6.5,7.91,-0.05,27.12
24093,0.2546,-0.0336,0.8783,-6.5,7.83,-0.03,27.13
24103,0.2548,-0.0361,0.8745,-6.5,7.88,-0.03,27.12
24113,0.2509,-0.0352,0.8801,-6.52,7.86,0.03,27.13
24123,0.2507,-0.0387,0.8795,-6.56,7.86,-0.03,27.12
24133,0.2521,-0.0374,0.8774,-6.52,7.86,-0.06,27.12
24143,0.2513,-0.035,0.8801,-6.47,7.94,-0.05,27.11
24153,0.2509,-0.0356,0.8792,-6.52,7.88,-0.02,27.12
24163,0.2531,-0.0365,0.8809,-6.44,7.79,-0.03,27.13
24173,0.2523,-0.0355,0.8772,-6.53,7.83,-0.05,27.14
24183,0.2554,-0.0359,0.8765,-6.53,7.88,0.02,27.15
24193,0.2528,-0.0339,0.88,-6.49,7.92,-0.03,27.12
24203,0.2538,-0.0344,0.8773,-6.47,7.86,-0.06,27.14
24213,0.2537,-0.0332,0.8792,-6.53,7.86,-0.05,27.11
24223,0.2504,-0.0364,0.8812,-6.5,7.89,-0.05,27.12
24233,0.2539,-0.035,0.8813,-6.56,7.85,0.0,27.13
24243,0.2533,-0.0358,0.8779,-6.58,7.89,-0.02,27.12
24253,0.2533,-0.0369,0.8728,-6.44,7.83,-0.06,27.13
24263,0.2524,-0.0348,0.8773,-6.46,7.86,-0.14,27.12
24273,0.2516,-0.0342,0.8774,-6.56,7.91,-0.06,27.11
24283,0.2544,-0.0361,0.881,-6.56,7.91,0.0,27.13
24293,0.2526,-0.0348,0.8783,-6.61,7.92,-0.11,27.15
24303,0.2501,-0.0322,0.8806,-6.47,7.85,-0.06,27.12
24313,0.252,-0.0376,0.8787,-6.52,7.89,-0.06,27.13
24323,0.2502,-0.0355,0.874,-6.6,7.98,-0.05,27.13
24333,0.2505,-0.036,0.8799,-6.53,7.91,-0.08,27.12
24343,0.2496,-0.0372,0.8799,-6.53,7.91,-0.05,27.14
24353,0.2499,-0.0375,0.8757,-6.44,7.86,0.03,27.13
24363,0.2529,-0.0372,0.8795,-6.5,7.86,0.02,27.14
24373,0.2544,-0.0352,0.8778,-6.5,7.92,0.05,27.14
24383,0.2538,-0.0344,0.8773,-6.53,7.88,0.05,27.15
24393,0.2512,-0.0336,0.8794,-6.58,7.91,-0.08,27.15
24403,0.252,-0.035,0.8783,-6.53,7.83,-0.09,27.12
24413,0.2544,-0.0367,0.8783,-6.55,7.97,-0.08,27.13
24423,0.2521,-0.0343,0.8802,-6.5,7.89,-0.06,27.13
24433,0.2507,-0.0338,0.8813,-6.5,7.94,0.02,27.15
24443,0.2518,-0.0369,0.8766,-6.46,7.88,-0.03,27.13
24453,0.249,-0.037,0.8804,-6.46,7.92,0.02,27.12
24463,0.2493,-0.0334,0.8782,-6.5,7.91,0.05,27.14
24473,0.2511,-0.0326,0.8784,-6.46,7.89,-0.09,27.14
24483,0.2539,-0.0352,0.8788,-6.49,7.86,-0.02,27.12
24493,0.2534,-0.036,0.8792,-6.5,7.89,-0.03,27.11
24503,0.2528,-0.0331,0.8777,-6.55,7.95,-0.05,27.12
24513,0.2537,-0.0383,0.882,-6.56,7.88,0.02,27.14
24523,0.2512,-0.0364,0.8771,-6.58,7.88,-0.03,27.12
24533,0.2538,-0.033,0.8777,-6.6,7.94,-0.03,27.11
24543,0.2545,-0.0364,0.8766,-6.58,7.85,-0.03,27.12
24553,0.2512,-0.0364,0.8788,-6.52,7.89,-0.03,27.15
24563,0.2545,-0.0349,0.8752,-6.58,7.95,-0.06,27.16
24573,0.2513,-0.0376,0.8832,-6.53,7.92,-0.06,27.14
24583,0.251,-0.0338,0.8777,-6.49,7.95,-0.09,27.14
24593,0.2526,-0.0314,0.8798,-6.47,7.92,-0.05,27.15
24603,0.2499,-0.037,0.8805,-6.53,7.92,-0.06,27.17
24613,0.2498,-0.0347,0.8788,-6.6,7.88,-0.09,27.15
24623,0.2515,-0.0381,0.8818,-6.53,7.88,-0.03,27.13
24633,0.2511,-0.037,0.8805,-6.61,7.86,-0.06,27.12
24643,0.2534,-0.0371,0.8789,-6.56,7.88,0.03,27.14
24653,0.2513,-0.0343,0.8811,-6.7,7.91,-0.02,27.14
24663,0.2522,-0.0345,0.8763,-6.47,7.88,-0.09,27.14
24673,0.2522,-0.036,0.8812,-6.56,7.89,-0.02,27.12
24684,0.2534,-0.0338,0.8781,-6.49,7.89,-0.05,27.14
24694,0.2484,-0.0353,0.8789,-6.56,7.88,-0.08,27.18
24704,0.2524,-0.0331,0.8737,-6.47,7.86,-0.06,27.15
24714,0.2531,-0.0365,0.8794,-6.49,7.89,-0.09,27.13
24724,0.2529,-0.0374,0.8799,-6.46,7.83,0.02,27.14
24734,0.2517,-0.0345,0.8774,-6.52,7.88,-0.09,27.11
24744,0.252,-0.0344,0.8755,-6.55,7.94,-0.08,27.16
24754,0.2535,-0.0372,0.8826,-6.56,7.89,-0.06,27.14
24764,0.2535,-0.0367,0.877,-6.53,7.88,-0.02,27.15
24775,0.2548,-0.0347,0.8809,-6.53,7.91,0.02,27.13
24785,0.2534,-0.0355,0.8778,-6.47,7.88,-0.08,27.15
24795,0.2521,-0.0356,0.8771,-6.56,8.0,-0.03,27.14
24807,0.2523,-0.0319,0.8796,-6.58,7.86,-0.05,27.15
24817,0.2505,-0.0363,0.8787,-6.64,7.86,-0.08,27.12
24827,0.2524,-0.0359,0.8772,-6.6,7.94,-0.03,27.13
24837,0.255,-0.0334,0.8755,-6.53,7.88,-0.03,27.14
24847,0.2518,-0.0354,0.8801,-6.53,7.86,-0.05,27.13
24857,0.2512,-0.0364,0.8799,-6.52,7.88,-0.03,27.16
24867,0.2498,-0.0371,0.876,-6.46,7.95,-0.05,27.14
24877,0.2515,-0.0359,0.8774,-6.55,7.92,-0.02,27.14
24887,0.2529,-0.0363,0.8719,-6.49,7.88,0.0,27.14
24897,0.2526,-0.035,0.8774,-6.49,7.86,-0.05,27.13
24907,0.2534,-0.0352,0.8781,-6.53,7.89,-0.06,27.13
24917,0.2512,-0.0361,0.8727,-6.56,7.88,-0.03,27.12
24927,0.2512,-0.0374,0.8792,-6.55,7.95,-0.06,27.15
24937,0.2505,-0.035,0.8771,-6.56,7.89,-0.05,27.13
24947,0.2506,-0.0342,0.8795,-6.53,7.88,-0.02,27.14
24957,0.252,-0.035,0.8761,-6.5,7.86,-0.02,27.14
24967,0.2538,-0.0358,0.8763,-6.53,7.83,-0.09,27.15
24977,0.2526,-0.0348,0.8756,-6.52,7.89,-0.12,27.14
24987,0.2517,-0.0349,0.8813,-6.46,7.89,-0.08,27.15
24997,0.2526,-0.0341,0.8792,-6.5,7.92,-0.12,27.15
25007,0.2518,-0.0389,0.881,-6.55,7.82,-0.05,27.17
25017,0.2513,-0.0333,0.8793,-6.58,7.86,-0.06,27.16
25027,0.2513,-0.0331,0.8783,-6.6,7.85,-0.03,27.17
25037,0.2496,-0.0356,0.8766,-6.55,7.86,-0.05,27.12
25047,0.2546,-0.0383,0.8792,-6.52,7.94,0.02,27.13
25057,0.2551,-0.0381,0.8784,-6.52,7.83,0.06,27.13
25067,0.2526,-0.0372,0.8761,-6.55,7.95,0.05,27.14
25077,0.2504,-0.0355,0.8767,-6.5,7.92,-0.08,27.15
25089,0.2524,-0.0343,0.8765,-6.55,7.91,-0.06,27.13
25099,0.2526,-0.0348,0.8793,-6.5,7.91,-0.09,27.15
25109,0.2529,-0.0356,0.8794,-6.58,7.88,0.02,27.13
25119,0.2506,-0.0355,0.8793,-6.49,7.86,0.0,27.15
25129,0.2544,-0.0375,0.8792,-6.53,7.86,-0.02,27.14
25139,0.2566,-0.0345,0.8815,-6.52,7.91,-0.06,27.13
25149,0.2506,-0.0345,0.8773,-6.58,7.89,-0.08,27.15
25159,0.2512,-0.0366,0.8796,-6.5,7.95,-0.05,27.16
25169,0.2515,-0.0377,0.8804,-6.55,7.88,-0.05,27.16
25179,0.2522,-0.0352,0.8785,-6.5,7.89,-0.05,27.14
25189,0.2502,-0.0342,0.8765,-6.49,7.89,0.0,27.14
25199,0.2507,-0.0372,0.8796,-6.53,7.85,-0.06,27.13
25209,0.2527,-0.0336,0.8774,-6.5,7.92,-0.08,27.17
25219,0.2535,-0.0359,0.8792,-6.52,7.89,0.0,27.19
25229,0.2545,-0.0333,0.8843,-6.47,7.95,-0.02,27.17
25239,0.2531,-0.037,0.8789,-6.52,7.85,-0.08,27.19
25249,0.2493,-0.0365,0.8768,-6.55,7.89,-0.02,27.17
25259,0.2523,-0.0367,0.8798,-6.55,7.86,-0.03,27.16
25269,0.2518,-0.0353,0.88,-6.5,7.91,-0.03,27.17
25279,0.2527,-0.0374,0.8728,-6.55,7.88,0.0,27.16
25289,0.2505,-0.0355,0.8809,-6.53,7.94,-0.08,27.15
25299,0.25,-0.0374,0.8759,-6.49,7.82,-0.05,27.13
25309,0.2523,-0.0369,0.88,-6.44,7.92,-0.05,27.16
25319,0.2512,-0.0383,0.876,-6.47,7.88,-0.05,27.15
25329,0.2524,-0.0376,0.8794,-6.58,7.91,0.0,27.14
25339,0.2542,-0.0339,0.8762,-6.5,7.89,-0.08,27.17
25349,0.2489,-0.0363,0.8783,-6.49,7.85,-0.05,27.15
25359,0.2527,-0.0348,0.8778,-6.49,7.89,-0.08,27.17
25369,0.2517,-0.0361,0.8779,-6.52,7.91,-0.06,27.14
25379,0.2531,-0.0338,0.8795,-6.52,7.91,-0.05,27.15
25389,0.2537,-0.0356,0.8822,-6.44,7.83,0.0,27.16
25399,0.2509,-0.035,0.8806,-6.53,7.91,-0.12,27.15
25409,0.2526,-0.0348,0.8783,-6.56,7.86,-0.05,27.16
25419,0.2521,-0.0349,0.8745,-6.53,7.88,-0.02,27.14
25429,0.2512,-0.0361,0.8754,-6.5,7.89,-0.08,27.15
25439,0.2502,-0.0344,0.8811,-6.49,7.89,-0.02,27.16
25450,0.2496,-0.0367,0.8793,-6.55,7.89,-0.05,27.18
25460,0.2537,-0.0354,0.8795,-6.53,7.94,0.05,27.17
25470,0.2546,-0.0352,0.8785,-6.55,7.91,-0.08,27.16
25480,0.2538,-0.0355,0.8776,-6.52,7.83,-0.05,27.15
25490,0.2526,-0.0348,0.8779,-6.5,7.86,0.03,27.16
25500,0.2522,-0.0365,0.8801,-6.53,7.86,-0.06,27.16
25510,0.2534,-0.0338,0.8792,-6.55,7.85,-0.05,27.15
25520,0.2507,-0.0364,0.8781,-6.6,7.85,0.02,27.14
25530,0.2532,-0.0344,0.8754,-6.52,7.88,-0.05,27.16
25540,0.2521,-0.0353,0.881,-6.52,7.91,0.02,27.16
25550,0.2531,-0.035,0.8781,-6.58,7.94,-0.08,27.16
25560,0.2523,-0.0358,0.8745,-6.44,7.95,-0.11,27.16
25570,0.2526,-0.036,0.8762,-6.53,7.83,-0.05,27.17
25580,0.2496,-0.0361,0.8788,-6.43,7.86,0.02,27.18
25590,0.2511,-0.033,0.8809,-6.5,7.83,-0.05,27.17
25600,0.2522,-0.0325,0.8831,-6.5,7.88,-0.05,27.15
25610,0.2534,-0.0348,0.8782,-6.55,7.85,-0.09,27.17
25620,0.2539,-0.0383,0.8828,-6.53,7.82,-0.02,27.15
25630,0.2512,-0.0338,0.8768,-6.56,7.89,-0.08,27.17
25640,0.2527,-0.0377,0.8766,-6.46,7.88,-0.12,27.17
25650,0.2515,-0.0342,0.8768,-6.52,7.85,-0.06,27.17
25660,0.2543,-0.0323,0.8795,-6.58,7.82,-0.05,27.16
25670,0.2511,-0.0364,0.8817,-6.6,7.94,-0.14,27.17
25680,0.2522,-0.0356,0.8778,-6.49,7.92,-0.09,27.13
25690,0.2518,-0.036,0.8783,-6.53,7.89,-0.05,27.16
25700,0.2579,-0.0366,0.8823,-6.58,7.88,-0.12,27.14
25710,0.2532,-0.0365,0.8788,-6.49,7.92,-0.03,27.17
25720,0.2542,-0.0333,0.8802,-6.47,7.83,-0.05,27.16
25730,0.2535,-0.0374,0.8787,-6.5,7.82,-0.12,27.19
25741,0.252,-0.0371,0.8771,-6.55,7.91,-0.03,27.17
25751,0.2511,-0.0361,0.8778,-6.49,7.82,0.02,27.19
25761,0.2529,-0.0348,0.8759,-6.55,7.91,-0.03,27.16
25771,0.2548,-0.0372,0.8763,-6.58,7.91,-0.05,27.18
25781,0.2509,-0.0352,0.8765,-6.55,7.79,-0.02,27.16
25791,0.2512,-0.033,0.8787,-6.53,7.88,-0.03,27.18
25801,0.2546,-0.0364,0.8728,-6.52,7.88,0.0,27.17
25811,0.2552,-0.0352,0.879,-6.47,7.85,-0.02,27.16
25821,0.2526,-0.0338,0.8809,-6.55,7.88,0.0,27.15
25831,0.2532,-0.037,0.8752,-6.49,7.88,-0.02,27.17
25841,0.2529,-0.0392,0.88,-6.49,7.94,-0.05,27.16
25851,0.2528,-0.0315,0.8783,-6.52,8.02,-0.06,27.16
25861,0.2528,-0.0322,0.8816,-6.53,7.97,0.0,27.19
25871,0.2523,-0.0352,0.8833,-6.56,7.92,-0.03,27.15
25881,0.2511,-0.0359,0.8779,-6.43,7.91,0.0,27.15
25891,0.2545,-0.037,0.8784,-6.5,7.91,-0.03,27.17
25901,0.2513,-0.0349,0.8788,-6.52,7.97,0.0,27.17
25911,0.2531,-0.0348,0.8811,-6.53,7.91,-0.18,27.15
25921,0.2531,-0.0354,0.8812,-6.52,7.86,-0.08,27.14
25931,0.251,-0.0363,0.8823,-6.55,7.88,-0.09,27.18
25941,0.2515,-0.0354,0.8796,-6.53,7.94,-0.03,27.19
25951,0.2516,-0.0347,0.8748,-6.58,7.89,-0.05,27.14
25961,0.2501,-0.0365,0.8804,-6.52,7.83,-0.05,27.14
25971,0.2528,-0.0337,0.8777,-6.52,7.83,-0.05,27.18
25981,0.2509,-0.0343,0.8812,-6.47,7.82,-0.05,27.17
25991,0.2529,-0.0363,0.8834,-6.56,7.89,-0.08,27.15
26001,0.2526,-0.0352,0.879,-6.58,7.88,-0.08,27.18
26011,0.2496,-0.0363,0.8778,-6.6,7.85,-0.05,27.16
26021,0.2524,-0.0367,0.8768,-6.58,7.92,0.0,27.16
26031,0.2522,-0.0386,0.8768,-6.58,7.89,-0.03,27.19
26041,0.2521,-0.0355,0.8802,-6.52,7.91,-0.11,27.19
26051,0.252,-0.0363,0.8822,-6.53,7.91,-0.05,27.17
26061,0.255,-0.0353,0.8734,-6.53,7.91,-0.03,27.17
26071,0.2534,-0.0375,0.8766,-6.5,7.94,0.0,27.17
26081,0.2518,-0.0338,0.8788,-6.46,7.95,0.03,27.18
26091,0.2512,-0.0336,0.877,-6.55,7.91,0.02,27.16
26101,0.2504,-0.0356,0.8788,-6.5,7.83,-0.05,27.16
26111,0.2521,-0.0355,0.8776,-6.49,7.86,0.05,27.18
26121,0.2532,-0.0337,0.8815,-6.52,7.86,0.02,27.18
26131,0.2537,-0.0314,0.8792,-6.47,7.94,-0.06,27.18
26141,0.2518,-0.0378,0.8783,-6.5,7.88,0.05,27.18
26151,0.2512,-0.0364,0.8767,-6.55,7.86,0.02,27.17
26161,0.2512,-0.0343,0.8792,-6.47,7.82,0.02,27.19
26171,0.2522,-0.0339,0.8772,-6.49,7.86,0.02,27.17
26181,0.2517,-0.036,0.8781,-6.61,7.83,-0.09,27.15
26191,0.2518,-0.0345,0.8787,-6.5,7.89,-0.06,27.16
26201,0.2504,-0.0355,0.8783,-6.55,7.89,-0.11,27.16
26211,0.2526,-0.0345,0.8817,-6.5,7.95,-0.11,27.18
26221,0.2531,-0.0358,0.8788,-6.56,7.91,-0.08,27.16
26231,0.2498,-0.0353,0.8776,-6.5,7.88,-0.05,27.17
26241,0.2535,-0.0359,0.8796,-6.52,7.91,-0.03,27.15
26251,0.2516,-0.0381,0.8796,-6.49,7.92,-0.05,27.17
26261,0.2539,-0.0354,0.8804,-6.56,7.91,-0.05,27.17
26271,0.252,-0.036,0.8783,-6.5,7.92,-0.08,27.16
26281,0.2532,-0.0333,0.8795,-6.56,7.8,-0.05,27.18
26291,0.252,-0.0361,0.8778,-6.53,7.8,-0.14,27.2
26301,0.2528,-0.0355,0.8785,-6.5,7.89,-0.06,27.16
26311,0.2522,-0.0352,0.8789,-6.55,7.94,0.03,27.16
26321,0.2538,-0.0367,0.8794,-6.56,7.91,-0.09,27.19
26331,0.2504,-0.0361,0.8811,-6.46,7.92,0.0,27.15
26341,0.2523,-0.0374,0.8827,-6.5,7.89,-0.06,27.15
26351,0.2512,-0.0354,0.8784,-6.52,7.83,-0.03,27.17
26361,0.2523,-0.0364,0.8759,-6.55,7.89,0.02,27.17
26371,0.2526,-0.035,0.8794,-6.5,7.89,-0.09,27.18
26381,0.2516,-0.0336,0.8792,-6.46,7.88,-0.05,27.17
26391,0.2526,-0.0348,0.8774,-6.55,7.85,-0.03,27.2
26401,0.2556,-0.0342,0.8781,-6.49,7.86,-0.03,27.18
26411,0.2531,-0.0369,0.8778,-6.56,7.86,0.02,27.18
26421,0.2518,-0.035,0.8806,-6.5,7.91,-0.09,27.18
26431,0.2531,-0.0377,0.8794,-6.58,7.92,0.08,27.18
26441,0.2538,-0.0356,0.877,-6.56,7.88,-0.03,27.18
26451,0.2516,-0.0378,0.8796,-6.55,7.88,-0.06,27.2
26461,0.2521,-0.0367,0.8788,-6.49,7.88,-0.14,27.21
26471,0.2532,-0.0363,0.8788,-6.47,7.85,-0.09,27.17
26481,0.2539,-0.0354,0.882,-6.5,7.88,-0.05,27.17
26491,0.2502,-0.0359,0.8794,-6.52,7.94,-0.12,27.16
26501,0.2507,-0.0347,0.8839,-6.53,7.86,-0.09,27.17
26511,0.2531,-0.0381,0.8778,-6.47,7.88,-0.05,27.21
26521,0.2532,-0.0382,0.8759,-6.58,7.88,0.0,27.19
26531,0.2527,-0.0338,0.8792,-6.49,7.88,-0.11,27.19
26541,0.2512,-0.0365,0.8815,-6.53,7.82,-0.08,27.19
26551,0.2546,-0.0339,0.8827,-6.52,7.89,-0.03,27.19
26561,0.2534,-0.0354,0.8823,-6.43,7.92,-0.06,27.19
26571,0.2523,-0.0363,0.8811,-6.47,7.92,-0.05,27.17
26581,0.2535,-0.037,0.8796,-6.55,7.82,-0.05,27.18
26591,0.2515,-0.0356,0.8796,-6.56,7.94,-0.03,27.19
26601,0.2518,-0.0327,0.8811,-6.56,7.91,0.05,27.18
26611,0.2516,-0.0337,0.8771,-6.53,7.94,0.0,27.19
26621,0.2511,-0.0367,0.8794,-6.47,7.91,0.03,27.18
26631,0.2531,-0.0342,0.8796,-6.58,7.94,-0.08,27.18
26641,0.2526,-0.035,0.8818,-6.6,7.89,-0.14,27.18
26651,0.2509,-0.0369,0.8816,-6.47,7.85,-0.02,27.2
26661,0.2498,-0.0359,0.8793,-6.52,7.91,-0.03,27.17
26671,0.251,-0.0363,0.8792,-6.43,7.86,-0.06,27.18
26681,0.2528,-0.0331,0.8766,-6.53,7.86,-0.08,27.16
26691,0.2529,-0.0388,0.8815,-6.56,7.92,-0.06,27.14
26701,0.2534,-0.0369,0.8822,-6.47,7.92,0.0,27.16
26711,0.2509,-0.0348,0.8802,-6.55,7.85,-0.06,27.15
26721,0.254,-0.0354,0.8782,-6.55,7.86,-0.02,27.2
26731,0.2538,-0.0375,0.8756,-6.56,7.85,0.0,27.19
26741,0.2527,-0.0345,0.8811,-6.44,7.83,-0.06,27.16
26751,0.252,-0.038,0.8822,-6.56,7.89,-0.02,27.16
26761,0.2531,-0.0352,0.8748,-6.52,7.8,-0.02,27.16
26771,0.2528,-0.0381,0.88,-6.5,7.94,0.0,27.18
26781,0.2527,-0.036,0.8793,-6.53,7.89,-0.05,27.15
26791,0.2539,-0.0374,0.8771,-6.56,7.82,0.05,27.18
26801,0.2493,-0.0377,0.8817,-6.55,7.83,-0.05,27.19
26811,0.2522,-0.0328,0.8796,-6.56,7.89,-0.06,27.18
26821,0.255,-0.0381,0.8779,-6.55,7.91,-0.08,27.19
26831,0.2527,-0.0332,0.8762,-6.52,7.85,-0.02,27.17
26841,0.2529,-0.036,0.8746,-6.55,7.89,-0.03,27.19
26851,0.2538,-0.0353,0.8785,-6.58,7.89,-0.06,27.19
26861,0.2535,-0.0339,0.8778,-6.53,7.92,-0.05,27.22
26871,0.2515,-0.0377,0.8804,-6.52,7.89,-0.03,27.2
26881,0.2496,-0.0377,0.8828,-6.55,7.88,-0.06,27.17
26891,0.2518,-0.0355,0.8796,-6.6,7.86,-0.08,27.17
26901,0.249,-0.0399,0.8787,-6.56,7.89,0.0,27.19
26911,0.2522,-0.0342,0.8788,-6.55,7.91,0.0,27.2
26921,0.2518,-0.036,0.8831,-6.58,7.91,0.03,27.15
26931,0.2537,-0.0386,0.8743,-6.53,7.89,-0.05,27.19
26941,0.2521,-0.0339,0.8866,-6.63,7.92,-0.12,27.17
26951,0.2512,-0.037,0.879,-6.52,7.94,0.02,27.17
26961,0.2515,-0.0353,0.8796,-6.56,7.86,-0.08,27.17
26971,0.2531,-0.0333,0.8796,-6.47,7.95,-0.02,27.17
26981,0.2537,-0.0333,0.8771,-6.52,7.86,-0.11,27.17
26991,0.2521,-0.0355,0.8799,-6.58,7.85,-0.06,27.19
27001,0.2517,-0.0369,0.8785,-6.52,7.89,-0.05,27.19
27011,0.2518,-0.0355,0.8768,-6.58,7.92,-0.06,27.18
27021,0.2504,-0.0358,0.8756,-6.55,7.94,-0.08,27.2
27031,0.252,-0.0343,0.8776,-6.67,7.91,-0.02,27.16
27041,0.2516,-0.0366,0.8771,-6.67,7.85,-0.05,27.17
27051,0.2534,-0.0377,0.885,-6.44,7.89,-0.05,27.17
27061,0.2537,-0.0338,0.8757,-6.53,7.91,-0.06,27.15
27071,0.2527,-0.0338,0.8759,-6.61,7.94,-0.09,27.17
27081,0.2515,-0.0361,0.8832,-6.56,7.86,-0.08,27.2
27091,0.2524,-0.0356,0.8776,-6.5,7.86,-0.02,27.18
27101,0.2512,-0.0333,0.8745,-6.47,7.95,-0.08,27.19
27111,0.2511,-0.0376,0.8765,-6.56,7.89,-0.06,27.19
27121,0.2532,-0.036,0.8763,-6.53,7.83,-0.02,27.19
27131,0.254,-0.0363,0.8766,-6.56,7.91,-0.09,27.17
27141,0.2533,-0.0343,0.8771,-6.52,7.91,0.0,27.19
27151,0.2505,-0.0397,0.8789,-6.55,7.91,-0.02,27.19
27161,0.2529,-0.0372,0.8792,-6.56,7.91,-0.02,27.17
27171,0.2517,-0.0341,0.8781,-6.56,7.92,-0.11,27.19
27181,0.2513,-0.0349,0.8772,-6.55,7.94,-0.11,27.19
27191,0.2522,-0.0353,0.8772,-6.61,7.91,-0.02,27.19
27201,0.2505,-0.0336,0.8765,-6.61,7.89,-0.02,27.18
27211,0.2545,-0.0355,0.8757,-6.55,7.85,-0.08,27.21
27221,0.2532,-0.0336,0.8785,-6.53,7.89,0.03,27.2
27231,0.2509,-0.0349,0.8794,-6.6,7.85,0.0,27.19
27241,0.252,-0.037,0.8749,-6.56,7.91,-0.06,27.17
27251,0.2529,-0.0361,0.8799,-6.49,7.86,-0.08,27.21
27261,0.2524,-0.0385,0.8774,-6.47,7.92,-0.09,27.18
27271,0.2521,-0.0375,0.8781,-6.53,7.8,-0.09,27.21
27281,0.2509,-0.0326,0.8788,-6.6,7.88,0.0,27.19
27293,0.2513,-0.0321,0.8818,-6.47,7.89,-0.06,27.18
27303,0.2524,-0.0336,0.8806,-6.61,7.86,-0.11,27.2
27313,0.2518,-0.0364,0.8785,-6.58,7.91,-0.03,27.19
27323,0.2513,-0.0339,0.8807,-6.53,7.91,-0.05,27.18
27333,0.2537,-0.0371,0.8844,-6.56,7.88,-0.08,27.18
27343,0.2532,-0.0356,0.8788,-6.5,7.91,-0.06,27.19
27353,0.2511,-0.0334,0.8801,-6.52,7.92,-0.03,27.21
27363,0.2518,-0.0363,0.8783,-6.52,7.91,-0.14,27.2
27373,0.2531,-0.0342,0.877,-6.55,7.85,-0.06,27.2
27383,0.2544,-0.0354,0.8771,-6.47,7.86,-0.03,27.2
27393,0.2521,-0.0326,0.8762,-6.53,7.92,-0.05,27.18
27403,0.2535,-0.0338,0.8787,-6.5,7.86,-0.11,27.17
