t_ms,accel_x_g,accel_y_g,accel_z_g,gyro_x_dps,gyro_y_dps,gyro_z_dps,imu_temp_c
3275,0.1757,-0.0216,0.9022,-6.73,7.77,-0.08,31.73
3285,0.1746,-0.0209,0.9094,-6.76,8.11,-0.05,31.74
3295,0.1719,-0.0204,0.9021,-6.79,8.61,-0.02,31.74
3305,0.1764,-0.0236,0.8962,-6.69,8.34,-0.06,31.75
3315,0.1755,-0.026,0.8971,-6.64,8.17,-0.08,31.7
3325,0.1738,-0.0273,0.9045,-6.73,8.44,-0.02,31.73
3335,0.1825,-0.0264,0.8944,-6.69,7.98,-0.09,31.75
3345,0.162,-0.0259,0.8926,-6.73,8.41,-0.08,31.76
3355,0.1776,-0.027,0.8795,-6.72,8.23,-0.05,31.73
3365,0.1826,-0.0248,0.8881,-6.75,6.96,-0.08,31.74
3375,0.1743,-0.0267,0.9026,-6.72,7.6,-0.06,31.73
3387,0.1805,-0.025,0.8972,-6.69,7.95,-0.09,31.74
3397,0.1797,-0.022,0.9044,-6.7,7.92,-0.05,31.75
3407,0.1791,-0.0256,0.8944,-6.6,7.88,-0.06,31.75
3417,0.1602,-0.0253,0.9008,-6.66,8.2,-0.09,31.75
3427,0.1736,-0.0264,0.8986,-6.7,9.1,-0.09,31.74
3437,0.1892,-0.0271,0.8757,-6.67,7.28,-0.06,31.74
3447,0.1681,-0.0277,0.9012,-6.73,7.34,-0.02,31.75
3457,0.1627,-0.0297,0.907,-6.78,8.81,-0.09,31.73
3467,0.1796,-0.0251,0.8964,-6.75,8.73,-0.02,31.76
3477,0.1823,-0.027,0.8846,-6.72,7.54,-0.03,31.75
3487,0.1788,-0.0269,0.8882,-6.73,7.19,-0.08,31.73
3497,0.1727,-0.0284,0.9033,-6.67,7.54,0.02,31.76
3507,0.1625,-0.0283,0.9072,-6.7,8.43,-0.08,31.74
3517,0.177,-0.0311,0.8903,-6.61,8.52,-0.05,31.76
3527,0.178,-0.0272,0.8896,-6.63,7.24,0.0,31.74
3537,0.1644,-0.0269,0.9,-6.76,8.09,-0.05,31.75
3547,0.1703,-0.0259,0.8939,-6.75,8.52,-0.03,31.76
3557,0.1777,-0.0199,0.8795,-6.56,7.77,-0.11,31.78
3567,0.1746,-0.0229,0.8882,-6.69,7.15,-0.08,31.75
3577,0.174,-0.0229,0.8978,-6.7,7.19,-0.08,31.75
3587,0.1686,-0.0197,0.91,-6.7,8.12,0.02,31.74
3597,0.1813,-0.0177,0.9039,-6.76,8.14,-0.06,31.72
3607,0.1791,-0.0228,0.9109,-6.72,7.95,-0.06,31.76
3617,0.1807,-0.0231,0.9048,-6.66,7.92,-0.08,31.74
3627,0.1797,-0.0293,0.906,-6.61,8.08,-0.05,31.73
3637,0.1749,-0.0262,0.9003,-6.61,8.46,-0.06,31.77
3647,0.1824,-0.025,0.8895,-6.73,8.11,-0.09,31.79
3657,0.1733,-0.0304,0.8873,-6.61,7.45,-0.02,31.74
3667,0.1644,-0.0308,0.8881,-6.7,8.14,0.02,31.75
3677,0.1725,-0.0339,0.8872,-6.58,8.21,0.06,31.79
3688,0.1731,-0.0317,0.8762,-6.7,7.8,-0.09,31.76
3698,0.1752,-0.0286,0.8832,-6.67,7.83,-0.08,31.74
3708,0.1782,-0.0277,0.8903,-6.66,7.92,-0.05,31.74
3718,0.1792,-0.0206,0.8939,-6.67,7.28,-0.06,31.76
3728,0.174,-0.026,0.9078,-6.7,7.51,-0.03,31.75
3738,0.1652,-0.0287,0.9119,-6.64,8.64,-0.05,31.77
3748,0.1777,-0.0205,0.8899,-6.7,8.34,-0.12,31.76
3758,0.181,-0.0267,0.8966,-6.67,7.37,-0.09,31.76
3768,0.1656,-0.0294,0.9081,-6.72,8.09,-0.03,31.79
3778,0.1737,-0.0254,0.8931,-6.7,8.11,-0.03,31.77
3788,0.1715,-0.0229,0.9011,-6.73,7.82,0.03,31.77
3798,0.174,-0.027,0.9031,-6.67,8.14,-0.02,31.77
3808,0.1746,-0.0227,0.9087,-6.78,8.05,-0.02,31.79
3818,0.1746,-0.0228,0.9042,-6.79,8.35,-0.05,31.77
3828,0.1703,-0.0281,0.9008,-6.73,8.27,-0.11,31.77
3839,0.1691,-0.0292,0.8992,-6.73,8.27,-0.05,31.8
3849,0.1853,-0.0225,0.8998,-6.79,8.34,-0.05,31.77
3859,0.1824,-0.0289,0.8918,-6.81,8.4,-0.05,31.76
3869,0.1808,-0.0348,0.8752,-6.73,6.98,-0.06,31.77
3879,0.1525,-0.0281,0.9,-6.58,7.39,-0.06,31.77
3889,0.1709,-0.0228,0.9242,-6.72,9.5,0.05,31.75
3899,0.1946,-0.0232,0.891,-6.78,8.02,-0.09,31.78
3909,0.172,-0.0258,0.8806,-6.76,6.87,-0.08,31.79
3919,0.1465,-0.0283,0.8918,-6.7,8.24,-0.03,31.79
3929,0.1709,-0.0225,0.8961,-6.61,9.02,0.05,31.77
3939,0.2083,-0.022,0.8956,-6.56,7.05,0.06,31.77
3949,0.1724,-0.0256,0.8916,-6.84,7.08,-0.03,31.77
3959,0.1562,-0.0304,0.875,-6.73,8.05,-0.09,31.78
3969,0.1549,-0.0271,0.8872,-6.72,7.77,-0.05,31.79
3979,0.179,-0.0248,0.9182,-6.67,8.17,-0.03,31.75
3989,0.1926,-0.0215,0.9211,-6.69,7.83,-0.02,31.79
3999,0.177,-0.0245,0.9139,-6.75,8.55,-0.12,31.79
4009,0.1586,-0.0308,0.8821,-6.81,8.76,-0.02,31.79
4019,0.1683,-0.0352,0.8749,-6.69,7.71,-0.02,31.79
4029,0.1713,-0.0312,0.9011,-6.6,7.42,-0.03,31.77
4039,0.1791,-0.0232,0.9208,-6.66,8.53,0.02,31.79
4049,0.1913,-0.0226,0.8971,-6.67,8.43,-0.05,31.8
4059,0.1816,-0.0225,0.8942,-6.92,7.47,0.03,31.81
4069,0.1638,-0.0255,0.885,-6.78,8.29,-0.02,31.78
4079,0.1721,-0.026,0.8828,-6.69,8.05,-0.08,31.78
4089,0.183,-0.0249,0.8918,-6.53,7.28,-0.05,31.78
4099,0.182,-0.0229,0.9088,-6.56,7.54,-0.02,31.79
4109,0.1759,-0.0231,0.9076,-6.76,8.06,-0.05,31.8
4119,0.1732,-0.0231,0.9054,-6.69,8.78,-0.05,31.8
4129,0.1783,-0.0251,0.8809,-6.76,8.56,-0.06,31.81
4139,0.1873,-0.0275,0.865,-6.58,6.92,0.0,31.83
4149,0.1571,-0.0299,0.8911,-6.64,7.13,-0.03,31.79
4159,0.1656,-0.0244,0.9037,-6.63,9.15,-0.08,31.81
4169,0.1962,-0.0243,0.8785,-6.7,7.31,-0.06,31.78
4179,0.1769,-0.0249,0.9004,-6.82,6.87,0.0,31.81
4189,0.1531,-0.0236,0.9036,-6.78,9.15,0.03,31.79
4199,0.1678,-0.0277,0.9043,-6.7,9.44,-0.08,31.8
4209,0.1758,-0.0302,0.8895,-6.69,6.26,-0.08,31.79
4219,0.1522,-0.0286,0.9244,-6.69,8.87,0.02,31.78
4229,0.1804,-0.0243,0.8937,-6.64,9.13,0.08,31.79
4239,0.1904,-0.0276,0.8932,-6.7,6.87,-0.15,31.81
4249,0.1399,-0.0278,0.9181,-6.75,8.78,-0.09,31.77
4259,0.1737,-0.0308,0.8938,-6.73,9.54,-0.03,31.79
4269,0.2009,-0.0303,0.859,-6.67,6.23,-0.11,31.82
4279,0.1689,-0.0314,0.9048,-6.66,5.95,-0.14,31.82
4289,0.1464,-0.0271,0.9155,-6.69,9.68,0.06,31.79
4299,0.1569,-0.0283,0.9103,-6.64,10.06,-0.06,31.79
4309,0.199,-0.024,0.8787,-6.66,6.09,0.02,31.78
4319,0.1627,-0.0254,0.9198,-6.78,7.65,0.0,31.81
4329,0.1589,-0.0248,0.9136,-6.78,10.17,-0.12,31.82
4339,0.1846,-0.0226,0.8838,-6.81,8.99,-0.06,31.81
4349,0.1956,-0.0199,0.8688,-6.72,7.83,-0.06,31.81
4359,0.1843,-0.0262,0.8779,-6.7,5.63,-0.05,31.79
4369,0.1508,-0.0203,0.9164,-6.72,8.14,0.0,31.81
4379,0.1686,-0.0189,0.9037,-6.69,9.63,0.0,31.82
4389,0.2004,-0.0237,0.8932,-6.6,7.65,0.0,31.8
4399,0.1848,-0.0258,0.9033,-6.73,6.61,-0.09,31.81
4409,0.1569,-0.0264,0.9333,-6.67,8.63,-0.08,31.81
4419,0.1655,-0.0283,0.9004,-6.73,9.88,-0.02,31.81
4429,0.2015,-0.03,0.8615,-6.75,7.21,-0.05,31.81
4439,0.179,-0.0267,0.8766,-6.78,6.09,-0.08,31.79
4449,0.1501,-0.0298,0.9122,-6.73,8.11,0.03,31.8
4459,0.1686,-0.02,0.9128,-6.66,10.2,-0.03,31.81
4469,0.2025,-0.0209,0.8882,-6.73,7.1,-0.11,31.82
4479,0.179,-0.0198,0.9082,-6.82,6.44,-0.02,31.81
4489,0.1537,-0.0237,0.9224,-6.72,8.98,-0.03,31.82
4499,0.1771,-0.0232,0.9099,-6.79,9.69,-0.05,31.79
4509,0.1979,-0.0214,0.8661,-6.72,8.37,0.0,31.82
4519,0.1946,-0.0286,0.87,-6.76,6.4,-0.08,31.8
4529,0.1556,-0.0323,0.8877,-6.58,7.11,-0.08,31.81
4539,0.1464,-0.0267,0.9097,-6.67,8.98,-0.14,31.82
4549,0.1733,-0.0214,0.8937,-6.67,9.08,-0.06,31.82
4559,0.2122,-0.0221,0.8861,-6.72,6.2,0.05,31.82
4569,0.1858,-0.0239,0.9084,-6.64,6.7,0.06,31.81
4579,0.1497,-0.0278,0.9341,-6.84,9.07,-0.05,31.83
4589,0.1625,-0.0251,0.9006,-6.79,10.96,-0.03,31.82
4599,0.1923,-0.0295,0.8499,-6.73,7.21,-0.02,31.83
4609,0.1724,-0.0306,0.8785,-6.7,5.71,-0.03,31.85
4619,0.1567,-0.0283,0.9072,-6.7,8.23,-0.02,31.84
4629,0.1812,-0.0275,0.91,-6.73,8.93,-0.06,31.82
4639,0.1871,-0.0277,0.9052,-6.66,8.38,-0.08,31.82
4649,0.1943,-0.0304,0.9027,-6.6,6.75,0.0,31.82
4659,0.151,-0.0331,0.9036,-6.73,8.37,-0.08,31.81
4669,0.1561,-0.0356,0.8885,-6.7,9.6,-0.09,31.82
4679,0.1747,-0.0283,0.8484,-6.67,8.6,0.03,31.84
4689,0.1841,-0.0283,0.8544,-6.64,6.46,-0.05,31.81
4699,0.1768,-0.0278,0.8796,-6.58,5.66,0.02,31.83
4709,0.1523,-0.0275,0.9312,-6.67,7.3,0.03,31.82
4719,0.1675,-0.019,0.9424,-6.63,9.01,-0.05,31.84
4729,0.1917,-0.0208,0.9148,-6.72,9.01,-0.15,31.84
4739,0.2017,-0.0226,0.8988,-6.64,7.16,-0.09,31.82
4749,0.1688,-0.0288,0.9004,-6.66,7.04,-0.02,31.84
4759,0.155,-0.0245,0.9103,-6.81,9.15,-0.08,31.8
4769,0.1724,-0.0264,0.877,-6.84,9.31,-0.09,31.83
4779,0.1969,-0.0298,0.8629,-6.78,7.13,-0.08,31.84
4789,0.1851,-0.0315,0.8787,-6.76,6.66,-0.11,31.81
4799,0.1572,-0.0353,0.9141,-6.81,7.18,0.0,31.84
4809,0.1544,-0.0286,0.917,-6.61,9.22,-0.08,31.83
4819,0.181,-0.0265,0.8818,-6.66,8.52,-0.03,31.81
4829,0.205,-0.0278,0.8815,-6.7,6.06,0.08,31.82
4839,0.1517,-0.0325,0.9124,-6.75,7.45,0.02,31.84
4849,0.1556,-0.0333,0.9229,-6.79,9.92,-0.03,31.82
4859,0.1738,-0.0247,0.8947,-6.78,9.19,-0.05,31.84
4869,0.2006,-0.0253,0.8652,-6.73,7.21,0.0,31.82
4879,0.1824,-0.0266,0.8644,-6.7,6.49,-0.09,31.81
4889,0.1622,-0.0298,0.8882,-6.66,6.75,-0.11,31.82
4899,0.1437,-0.0282,0.921,-6.76,8.69,-0.06,31.83
4909,0.1693,-0.0225,0.9186,-6.64,8.89,0.0,31.83
4919,0.204,-0.0167,0.9142,-6.76,7.73,-0.11,31.84
4929,0.191,-0.0264,0.9104,-6.63,7.05,-0.03,31.84
4939,0.163,-0.0283,0.9194,-6.73,8.43,-0.06,31.86
4949,0.155,-0.0304,0.8993,-6.67,9.54,-0.02,31.83
4959,0.1783,-0.0248,0.8882,-6.76,8.78,-0.02,31.82
4969,0.1938,-0.026,0.8633,-6.66,7.79,-0.05,31.83
4979,0.1879,-0.0298,0.8733,-6.7,6.17,-0.06,31.85
4989,0.1532,-0.0293,0.9185,-6.64,7.65,0.0,31.84
4999,0.1603,-0.0304,0.9152,-6.55,9.3,-0.05,31.84
5009,0.1887,-0.0258,0.8994,-6.63,8.89,-0.05,31.84
5019,0.1923,-0.031,0.873,-6.6,7.24,-0.05,31.84
5029,0.182,-0.032,0.8911,-6.66,6.17,0.02,31.86
5039,0.1396,-0.0316,0.917,-6.73,9.08,-0.05,31.84
5049,0.1758,-0.0288,0.9025,-6.76,9.82,-0.02,31.84
5059,0.2,-0.0234,0.8701,-6.76,7.19,-0.08,31.86
5069,0.1747,-0.0271,0.8851,-6.67,6.98,0.03,31.82
5079,0.1653,-0.0321,0.8876,-6.63,7.76,0.02,31.84
5089,0.156,-0.031,0.8962,-6.53,7.27,-0.06,31.86
5099,0.1567,-0.0254,0.9114,-6.56,7.62,0.02,31.86
5109,0.1539,-0.0271,0.9161,-6.64,9.79,0.02,31.83
5119,0.2047,-0.0236,0.8936,-6.69,7.27,0.02,31.86
5129,0.1855,-0.0209,0.9092,-6.75,5.98,-0.02,31.84
5139,0.1656,-0.0245,0.9319,-6.81,8.7,-0.06,31.85
5149,0.1648,-0.0281,0.9089,-6.79,10.41,0.0,31.82
5159,0.1719,-0.0288,0.8774,-6.73,8.96,-0.06,31.84
5169,0.1903,-0.0258,0.8611,-6.78,7.05,-0.09,31.85
5179,0.177,-0.0308,0.873,-6.73,5.79,-0.05,31.84
5189,0.1581,-0.0272,0.9292,-6.73,8.15,-0.05,31.84
5199,0.1687,-0.0294,0.9237,-6.7,10.11,-0.06,31.84
5209,0.2083,-0.0222,0.8978,-6.67,8.14,-0.06,31.84
5219,0.1917,-0.0212,0.8854,-6.67,6.41,-0.09,31.86
5229,0.1718,-0.0253,0.8976,-6.78,7.79,0.02,31.82
5239,0.1638,-0.0282,0.8933,-6.73,8.66,0.0,31.86
5249,0.1511,-0.0256,0.9003,-6.81,9.56,-0.03,31.85
5259,0.1912,-0.0222,0.8721,-6.81,8.66,-0.06,31.85
5269,0.2015,-0.0217,0.8694,-6.81,5.8,-0.08,31.84
5279,0.1815,-0.0239,0.9115,-6.64,6.93,-0.03,31.87
5289,0.1448,-0.0265,0.9109,-6.7,9.56,-0.06,31.85
5299,0.1785,-0.0249,0.8881,-6.78,9.25,-0.06,31.87
5309,0.1974,-0.0276,0.8641,-6.73,6.47,-0.05,31.84
5319,0.1875,-0.0267,0.9009,-6.76,6.41,-0.11,31.85
5329,0.1664,-0.0283,0.9169,-6.79,7.98,-0.12,31.87
5339,0.1461,-0.0253,0.9237,-6.79,9.53,-0.05,31.87
5349,0.1781,-0.0232,0.8892,-6.76,9.37,-0.08,31.86
5359,0.1946,-0.0225,0.8693,-6.75,7.02,-0.05,31.85
5369,0.1805,-0.0283,0.9025,-6.75,6.67,-0.02,31.85
5379,0.1404,-0.0243,0.9303,-6.79,9.01,-0.03,31.84
5389,0.1764,-0.0197,0.9214,-6.67,9.76,-0.03,31.84
5399,0.1925,-0.022,0.8939,-6.67,8.29,-0.06,31.85
5409,0.1969,-0.0227,0.8896,-6.72,7.13,-0.05,31.84
5419,0.1722,-0.0231,0.8942,-6.69,7.31,0.0,31.84
5429,0.1401,-0.0251,0.9006,-6.79,8.75,0.02,31.86
5439,0.1609,-0.0266,0.8967,-6.73,9.83,-0.05,31.86
5449,0.1835,-0.0199,0.8612,-6.73,8.06,-0.02,31.86
5459,0.1946,-0.0214,0.8759,-6.69,6.35,0.06,31.86
5469,0.1537,-0.0221,0.9039,-6.64,6.85,-0.06,31.84
5479,0.1641,-0.0251,0.9236,-6.73,8.53,-0.05,31.84
5489,0.1776,-0.0264,0.9121,-6.63,9.3,-0.03,31.85
5499,0.1943,-0.027,0.8949,-6.63,7.56,-0.08,31.86
5509,0.1824,-0.0251,0.9048,-6.69,7.22,-0.06,31.85
5519,0.1611,-0.0297,0.9113,-6.72,7.82,-0.06,31.86
5529,0.1577,-0.0305,0.9092,-6.84,9.33,-0.03,31.87
5539,0.1824,-0.027,0.8647,-6.67,9.13,-0.02,31.86
5549,0.1946,-0.0298,0.8651,-6.64,5.86,0.08,31.87
5559,0.1562,-0.0238,0.8949,-6.69,6.6,-0.11,31.87
5569,0.1647,-0.0236,0.9187,-6.55,8.43,-0.06,31.85
5579,0.1715,-0.0139,0.9071,-6.69,8.64,-0.02,31.86
5589,0.182,-0.0197,0.9066,-6.64,9.19,0.06,31.86
5599,0.191,-0.0212,0.8982,-6.69,7.11,-0.08,31.85
5609,0.1775,-0.0243,0.8936,-6.7,6.58,-0.05,31.86
5619,0.1584,-0.0286,0.9202,-6.73,8.31,-0.09,31.86
5629,0.1454,-0.0302,0.9246,-6.7,9.45,0.02,31.87
5639,0.1937,-0.0286,0.8698,-6.75,8.29,-0.02,31.87
5649,0.1812,-0.0258,0.8601,-6.61,6.0,-0.11,31.87
5659,0.1675,-0.0303,0.8945,-6.61,7.04,-0.02,31.85
5669,0.1611,-0.026,0.9023,-6.69,8.27,0.02,31.89
5679,0.1588,-0.027,0.9092,-6.56,8.92,0.03,31.87
5689,0.181,-0.0247,0.9006,-6.61,8.35,0.03,31.87
5699,0.1967,-0.0261,0.8839,-6.56,6.37,-0.02,31.88
5709,0.172,-0.0282,0.9093,-6.75,7.07,0.03,31.87
5719,0.1403,-0.0282,0.922,-6.75,10.26,-0.06,31.85
5729,0.1804,-0.0309,0.8787,-6.78,9.28,0.05,31.88
5739,0.1909,-0.0262,0.8536,-6.72,6.38,-0.05,31.86
5749,0.1798,-0.0265,0.8801,-6.76,6.23,-0.05,31.88
5759,0.1606,-0.0277,0.8999,-6.72,7.25,0.02,31.86
5769,0.1484,-0.0287,0.9247,-6.73,8.64,0.06,31.88
5779,0.1626,-0.0253,0.9164,-6.66,9.34,0.06,31.86
5789,0.1962,-0.0262,0.8854,-6.67,7.24,0.03,31.87
5799,0.1841,-0.0342,0.9103,-6.7,5.88,-0.02,31.86
5809,0.1376,-0.028,0.9374,-6.76,9.56,-0.06,31.87
5819,0.1732,-0.0262,0.8916,-6.78,9.66,0.0,31.84
5829,0.1948,-0.0271,0.8674,-6.6,6.92,-0.05,31.88
5839,0.1644,-0.0281,0.9028,-6.7,8.06,0.06,31.87
5849,0.1565,-0.0303,0.9015,-6.64,9.11,0.03,31.85
5859,0.1812,-0.0251,0.8682,-6.72,7.74,0.09,31.88
5869,0.1897,-0.0266,0.8843,-6.61,6.2,0.06,31.86
5879,0.1422,-0.0283,0.9191,-6.63,7.98,-0.09,31.89
5889,0.1742,-0.0262,0.9108,-6.64,9.92,-0.03,31.87
5899,0.2054,-0.0239,0.8749,-6.69,5.48,-0.05,31.86
5909,0.1703,-0.0256,0.9214,-6.79,7.22,-0.03,31.88
5919,0.1591,-0.0253,0.9156,-6.72,9.27,0.05,31.86
5929,0.1553,-0.0248,0.901,-6.75,9.83,-0.06,31.86
5939,0.1842,-0.0222,0.8768,-6.61,8.84,0.02,31.85
5949,0.1949,-0.0234,0.8527,-6.67,6.35,-0.05,31.87
5959,0.1785,-0.028,0.8837,-6.64,6.6,0.05,31.87
5969,0.1383,-0.0321,0.9106,-6.63,8.35,-0.05,31.88
5979,0.1665,-0.0272,0.916,-6.64,9.31,0.0,31.87
5989,0.1991,-0.0164,0.8787,-6.66,7.16,-0.03,31.88
5999,0.1815,-0.0232,0.9059,-6.72,6.47,-0.12,31.87
6009,0.1671,-0.0228,0.9203,-6.76,8.14,0.0,31.87
6019,0.1564,-0.025,0.9138,-6.76,8.84,-0.05,31.86
6029,0.1697,-0.0206,0.9053,-6.73,9.39,-0.08,31.86
6039,0.1912,-0.0203,0.8722,-6.73,8.06,-0.08,31.88
6049,0.1923,-0.0211,0.8792,-6.66,6.38,-0.05,31.87
6059,0.1454,-0.0248,0.9198,-6.81,7.73,-0.08,31.89
6069,0.1689,-0.0229,0.9205,-6.63,9.71,-0.15,31.89
6079,0.1962,-0.0186,0.894,-6.66,8.2,-0.12,31.89
6089,0.1951,-0.0229,0.8943,-6.72,7.08,-0.03,31.88
6099,0.1743,-0.0254,0.9091,-6.76,7.36,-0.09,31.88
6109,0.1598,-0.026,0.9167,-6.76,8.17,-0.14,31.87
6119,0.1608,-0.0248,0.9154,-6.73,9.92,-0.09,31.89
6129,0.1847,-0.0266,0.8705,-6.75,9.18,-0.02,31.87
6139,0.2001,-0.0262,0.8716,-6.73,6.58,0.0,31.89
6149,0.1609,-0.0271,0.8893,-6.73,6.63,-0.02,31.88
6159,0.1642,-0.0276,0.9049,-6.76,8.35,0.0,31.86
6169,0.168,-0.0269,0.8994,-6.75,9.08,0.03,31.88
6179,0.1844,-0.0255,0.8998,-6.7,8.49,-0.02,31.89
6189,0.1959,-0.0225,0.8879,-6.64,6.78,-0.11,31.89
6199,0.1713,-0.0271,0.8998,-6.64,6.5,-0.06,31.89
6209,0.1533,-0.026,0.9205,-6.76,9.1,0.02,31.92
6219,0.1713,-0.0276,0.8815,-6.78,9.95,-0.02,31.89
6229,0.1951,-0.0276,0.8633,-6.73,6.99,-0.02,31.88
6240,0.1932,-0.0271,0.8552,-6.79,6.44,-0.05,31.9
6250,0.1771,-0.0287,0.8807,-6.66,6.43,-0.03,31.89
6260,0.1526,-0.0291,0.9128,-6.67,8.18,-0.02,31.9
6270,0.1577,-0.0247,0.9128,-6.64,8.69,0.02,31.91
6280,0.1803,-0.022,0.917,-6.69,8.75,-0.03,31.9
6290,0.1981,-0.0194,0.8881,-6.75,7.34,-0.03,31.92
6300,0.1892,-0.0292,0.8971,-6.73,6.26,0.0,31.89
6310,0.1747,-0.0225,0.8973,-6.78,6.03,-0.05,31.89
6320,0.1667,-0.028,0.9075,-6.7,9.89,0.02,31.89
6330,0.1864,-0.0244,0.8799,-6.84,8.66,0.06,31.89
6340,0.1951,-0.025,0.863,-6.7,7.08,-0.02,31.9
6350,0.1718,-0.0316,0.8893,-6.81,6.26,-0.09,31.9
6360,0.1528,-0.0322,0.9087,-6.69,8.11,-0.05,31.9
6370,0.1589,-0.0321,0.9211,-6.73,8.41,0.0,31.88
6380,0.1921,-0.0264,0.8851,-6.67,8.29,0.0,31.89
6390,0.1989,-0.0283,0.9028,-6.67,6.4,-0.11,31.91
6400,0.1562,-0.0272,0.9238,-6.67,7.95,0.03,31.89
6410,0.1613,-0.0267,0.9156,-6.7,10.55,0.02,31.88
6420,0.1862,-0.0258,0.8698,-6.72,9.1,-0.09,31.88
6430,0.1847,-0.0298,0.8478,-6.56,6.99,0.02,31.89
6445,0.1987,-0.0217,0.9181,-6.79,7.63,-0.49,31.89
6455,0.1594,-0.0339,0.9019,-6.76,8.41,-0.14,31.89
6465,0.1541,-0.0292,0.891,-6.75,10.5,-0.03,31.92
6475,0.1864,-0.0327,0.84,-6.7,8.35,0.02,31.9
6485,0.1779,-0.032,0.8439,-6.63,5.02,-0.06,31.89
6495,0.16,-0.0288,0.9042,-6.61,6.61,-0.12,31.91
6505,0.1478,-0.025,0.9208,-6.67,9.3,-0.14,31.89
6515,0.1924,-0.0259,0.9121,-6.69,8.61,0.02,31.9
6525,0.1903,-0.0219,0.9033,-6.7,6.98,-0.11,31.9
6535,0.1842,-0.0267,0.9167,-6.66,7.3,-0.12,31.9
6545,0.1652,-0.0302,0.9196,-6.73,8.26,-0.06,31.88
6555,0.1511,-0.0281,0.9015,-6.73,10.67,-0.03,31.9
6565,0.1664,-0.0328,0.8861,-6.75,10.08,-0.11,31.9
6575,0.1945,-0.0312,0.8374,-6.67,7.34,0.0,31.9
6585,0.1609,-0.0259,0.9072,-6.75,6.37,-0.06,31.9
6595,0.1416,-0.0292,0.9056,-6.72,7.36,-0.06,31.9
6605,0.1659,-0.0244,0.9271,-6.67,8.79,-0.08,31.89
6615,0.1847,-0.0206,0.9241,-6.73,8.09,-0.03,31.9
6625,0.1888,-0.0159,0.9144,-6.69,8.47,-0.11,31.9
6635,0.1855,-0.0265,0.8954,-6.64,7.54,-0.09,31.91
6645,0.1642,-0.0278,0.905,-6.72,7.39,-0.05,31.89
6655,0.156,-0.0267,0.9205,-6.84,9.62,-0.11,31.93
6665,0.1812,-0.025,0.8835,-6.85,9.68,-0.14,31.91
6675,0.2007,-0.0309,0.8762,-6.75,6.99,-0.09,31.91
6685,0.1721,-0.0299,0.8855,-6.69,6.4,-0.02,31.9
6695,0.1659,-0.0286,0.9111,-6.76,7.89,-0.05,31.91
6705,0.1564,-0.0261,0.9126,-6.72,9.34,-0.14,31.91
6715,0.187,-0.0259,0.8823,-6.75,9.21,0.03,31.87
6725,0.2004,-0.0238,0.8792,-6.66,6.14,0.06,31.9
6735,0.1637,-0.0277,0.9111,-6.69,6.63,-0.02,31.9
6745,0.1558,-0.0251,0.9332,-6.73,9.56,-0.08,31.9
6755,0.1727,-0.0249,0.8866,-6.73,10.53,-0.03,31.91
6765,0.1954,-0.0294,0.8621,-6.67,7.28,-0.08,31.91
6775,0.1676,-0.0286,0.8567,-6.69,6.38,-0.06,31.9
6785,0.1709,-0.0293,0.8853,-6.58,6.31,-0.12,31.9
6795,0.1475,-0.0275,0.917,-6.67,8.17,0.02,31.89
6805,0.1602,-0.0186,0.9222,-6.67,10.0,-0.02,31.9
6815,0.2056,-0.021,0.8934,-6.66,7.16,-0.05,31.91
6825,0.1812,-0.0248,0.9075,-6.7,5.85,-0.08,31.92
6835,0.1567,-0.0242,0.9202,-6.73,8.72,-0.06,31.91
6845,0.1553,-0.0287,0.8883,-6.78,10.08,0.0,31.91
6855,0.1843,-0.0317,0.8899,-6.85,8.17,-0.05,31.88
6865,0.1829,-0.0223,0.8873,-6.81,7.56,0.03,31.9
6875,0.1959,-0.026,0.889,-6.81,6.37,-0.02,31.89
6885,0.1475,-0.0298,0.922,-6.66,8.21,-0.09,31.9
6895,0.1602,-0.025,0.906,-6.75,10.56,-0.08,31.92
6905,0.2061,-0.0215,0.8745,-6.7,6.81,-0.12,31.9
6915,0.1782,-0.025,0.8931,-6.72,5.92,-0.11,31.9
6925,0.1654,-0.0253,0.9269,-6.69,8.34,0.0,31.91
6935,0.1549,-0.0247,0.9124,-6.76,10.11,-0.09,31.91
6945,0.188,-0.0284,0.8871,-6.73,8.9,-0.02,31.9
6955,0.1902,-0.0239,0.8617,-6.73,6.6,-0.06,31.92
6965,0.1799,-0.0261,0.8754,-6.61,6.44,-0.06,31.92
6975,0.1521,-0.0271,0.9026,-6.73,7.63,-0.05,31.93
6985,0.1444,-0.0239,0.9183,-6.72,10.27,-0.02,31.92
6995,0.201,-0.0192,0.8954,-6.73,7.86,-0.05,31.91
7005,0.2013,-0.0219,0.8938,-6.63,5.94,-0.06,31.89
7015,0.1682,-0.0236,0.9271,-6.73,7.74,-0.12,31.92
7025,0.1541,-0.0243,0.9008,-6.82,10.26,-0.03,31.9
7035,0.1852,-0.0284,0.8719,-6.82,8.44,0.02,31.9
7045,0.1855,-0.0245,0.8693,-6.84,6.89,-0.15,31.9
7055,0.1881,-0.0253,0.8892,-6.72,6.61,-0.03,31.93
7065,0.1573,-0.0245,0.9265,-6.75,7.62,0.0,31.9
7075,0.1504,-0.0244,0.9346,-6.69,10.55,-0.14,31.89
7085,0.1943,-0.0242,0.8989,-6.69,9.11,-0.09,31.92
7095,0.2012,-0.0254,0.8693,-6.67,5.97,-0.03,31.91
7105,0.1691,-0.0326,0.906,-6.7,7.08,-0.02,31.89
7115,0.1448,-0.0281,0.9049,-6.81,9.57,0.0,31.91
7125,0.1744,-0.0276,0.8988,-6.76,9.39,0.08,31.9
7135,0.1804,-0.0245,0.8817,-6.79,9.53,-0.02,31.92
7145,0.188,-0.025,0.8779,-6.72,6.37,-0.05,31.93
7155,0.1656,-0.0291,0.9011,-6.7,6.96,-0.02,31.91
7165,0.1488,-0.028,0.9302,-6.66,9.05,0.02,31.92
7175,0.1801,-0.0245,0.9041,-6.69,9.11,0.0,31.92
7185,0.2047,-0.0264,0.8727,-6.55,6.7,0.0,31.91
7195,0.1769,-0.0309,0.9027,-6.52,6.67,-0.06,31.9
7205,0.1431,-0.0312,0.9042,-6.72,9.56,0.02,31.92
7215,0.1736,-0.0336,0.8843,-6.75,8.98,-0.06,31.92
7225,0.1914,-0.0217,0.8706,-6.72,7.18,-0.06,31.92
7235,0.189,-0.0234,0.8779,-6.81,6.37,-0.05,31.92
7245,0.1599,-0.0228,0.9088,-6.72,7.02,0.0,31.91
7255,0.1462,-0.0209,0.9369,-6.72,9.04,0.05,31.92
7265,0.1687,-0.0186,0.9265,-6.72,9.71,-0.06,31.9
7275,0.2034,-0.021,0.8878,-6.66,7.86,0.03,31.92
7288,0.1453,-0.0304,0.927,-6.64,8.67,-0.05,31.93
7298,0.1932,-0.0228,0.8979,-6.73,8.0,-0.02,31.92
7308,0.1871,-0.0253,0.8911,-6.69,6.67,-0.03,31.88
7318,0.1902,-0.0248,0.8931,-6.61,6.06,-0.06,31.89
7328,0.1643,-0.0294,0.9053,-6.7,7.36,-0.08,31.91
7338,0.1541,-0.0309,0.9211,-6.73,9.47,-0.06,31.89
7348,0.1639,-0.0264,0.8934,-6.7,9.65,0.02,31.92
7358,0.2018,-0.0237,0.8673,-6.69,7.15,-0.02,31.91
7368,0.1793,-0.0233,0.8849,-6.7,5.91,-0.02,31.91
7378,0.1533,-0.0244,0.9316,-6.79,8.6,-0.02,31.89
7388,0.1687,-0.0192,0.9232,-6.73,9.92,-0.03,31.9
7398,0.198,-0.0201,0.8997,-6.76,8.09,-0.05,31.92
7408,0.2046,-0.02,0.8972,-6.63,6.31,-0.02,31.93
7418,0.1732,-0.0298,0.911,-6.75,7.65,-0.08,31.89
7428,0.1652,-0.0334,0.9207,-6.72,8.85,-0.08,31.9
7438,0.1569,-0.0326,0.894,-6.79,9.71,-0.03,31.9
7448,0.1832,-0.03,0.8798,-6.76,9.16,-0.06,31.93
7458,0.2135,-0.0222,0.844,-6.63,6.27,-0.05,31.91
7468,0.1442,-0.0327,0.9149,-6.82,6.89,-0.03,31.9
7478,0.1644,-0.0281,0.9098,-6.6,11.57,-0.09,31.9
7488,0.2024,-0.0228,0.8788,-6.75,4.76,-0.12,31.93
7498,0.1686,-0.0277,0.9347,-6.61,8.72,0.02,31.91
7508,0.1948,-0.0256,0.8845,-6.75,8.27,0.0,31.92
7518,0.1816,-0.0326,0.9014,-6.85,7.18,-0.02,31.91
7528,0.1587,-0.0317,0.8969,-6.84,8.89,-0.02,31.93
7538,0.1733,-0.0294,0.8829,-6.81,9.65,0.02,31.92
7548,0.1975,-0.0275,0.8479,-6.64,6.79,0.02,31.91
7558,0.1598,-0.0282,0.892,-6.66,6.17,0.05,31.89
7568,0.1514,-0.0287,0.9163,-6.66,8.87,-0.03,31.92
7578,0.1793,-0.0201,0.9036,-6.72,8.63,-0.08,31.91
7588,0.1973,-0.0206,0.9075,-6.69,7.44,-0.14,31.91
7598,0.1793,-0.027,0.9,-6.73,7.36,-0.09,31.91
7608,0.1697,-0.0253,0.9143,-6.7,7.51,-0.09,31.92
7618,0.1495,-0.0244,0.9104,-6.85,9.44,-0.12,31.91
7628,0.1769,-0.0286,0.8802,-6.87,9.77,-0.14,31.93
7638,0.1921,-0.0277,0.8567,-6.78,6.84,-0.14,31.94
7648,0.1656,-0.0287,0.8771,-6.66,6.14,-0.03,31.92
7658,0.1442,-0.0336,0.9169,-6.66,8.38,-0.02,31.9
7668,0.1639,-0.0287,0.8972,-6.64,8.98,-0.09,31.92
7678,0.1903,-0.028,0.8912,-6.61,7.62,0.0,31.92
7688,0.1747,-0.0316,0.8903,-6.67,6.9,0.06,31.94
7698,0.1666,-0.0343,0.9054,-6.72,7.16,-0.02,31.9
7708,0.1428,-0.0236,0.915,-6.81,8.85,-0.05,31.92
7718,0.1733,-0.0297,0.8923,-6.84,10.03,-0.02,31.94
7728,0.191,-0.0249,0.8752,-6.81,7.33,-0.09,31.92
7738,0.1796,-0.0297,0.8856,-6.61,5.68,-0.09,31.93
7748,0.1583,-0.0336,0.9159,-6.7,7.27,-0.08,31.92
7758,0.155,-0.0243,0.9109,-6.66,8.76,-0.06,31.92
7768,0.1738,-0.0245,0.9159,-6.76,9.13,-0.06,31.91
7778,0.1865,-0.0221,0.8859,-6.69,7.8,-0.09,31.93
7788,0.1953,-0.0244,0.8943,-6.66,5.79,-0.11,31.92
7798,0.1575,-0.0217,0.9174,-6.73,7.74,-0.12,31.88
7808,0.1525,-0.022,0.9253,-6.82,10.92,-0.02,31.92
7818,0.2039,-0.0233,0.8735,-6.75,8.23,-0.09,31.91
7828,0.1938,-0.0232,0.8798,-6.75,6.05,-0.08,31.91
7838,0.1683,-0.0249,0.9114,-6.75,7.56,-0.05,31.91
7848,0.1667,-0.0282,0.906,-6.64,9.39,-0.06,31.93
7858,0.1875,-0.0302,0.8936,-6.64,8.63,0.02,31.93
7868,0.1843,-0.0283,0.8873,-6.66,7.34,0.06,31.92
7878,0.1859,-0.0291,0.8921,-6.81,6.96,0.0,31.93
7888,0.1857,-0.0214,0.8923,-6.76,6.76,-0.06,31.92
7898,0.1489,-0.0253,0.9192,-6.81,10.09,-0.03,31.92
7908,0.1824,-0.0251,0.8855,-6.82,9.56,-0.02,31.9
7918,0.2004,-0.024,0.8647,-6.69,6.58,-0.06,31.92
7928,0.1807,-0.0294,0.8907,-6.7,6.35,-0.03,31.91
7938,0.1432,-0.0288,0.9039,-6.66,8.29,-0.06,31.94
7948,0.1553,-0.0258,0.9038,-6.67,8.17,-0.02,31.93
7958,0.1758,-0.022,0.8767,-6.7,8.32,-0.05,31.94
7968,0.2,-0.0225,0.874,-6.63,6.18,-0.05,31.92
7978,0.1787,-0.0236,0.8954,-6.72,6.0,0.0,31.92
7988,0.1392,-0.0271,0.9392,-6.81,9.1,-0.18,31.92
7998,0.172,-0.022,0.911,-6.82,10.11,-0.03,31.95
8008,0.1833,-0.0206,0.8925,-6.9,9.28,-0.09,31.93
8018,0.1847,-0.0259,0.9039,-6.73,6.49,-0.08,31.93
8028,0.1471,-0.0312,0.9128,-6.75,8.89,-0.02,31.91
8038,0.1671,-0.0294,0.9119,-6.63,9.27,-0.05,31.92
8048,0.1826,-0.0242,0.8866,-6.61,8.34,-0.09,31.92
8058,0.1995,-0.0258,0.8901,-6.69,6.95,-0.03,31.92
8068,0.2001,-0.0258,0.8851,-6.7,6.87,-0.03,31.92
8078,0.1451,-0.0319,0.934,-6.79,8.9,0.08,31.93
8088,0.1572,-0.03,0.9259,-6.76,9.53,0.06,31.93
8098,0.171,-0.0272,0.8853,-6.75,9.89,-0.03,31.92
8108,0.1937,-0.0288,0.8688,-6.76,7.73,-0.03,31.92
8118,0.1738,-0.0283,0.863,-6.64,6.53,0.03,31.93
8128,0.17,-0.0287,0.8904,-6.7,6.49,0.02,31.93
8138,0.1461,-0.0228,0.9146,-6.73,8.92,-0.05,31.94
8148,0.1718,-0.0195,0.9094,-6.61,9.66,0.02,31.93
8158,0.1997,-0.0187,0.8978,-6.76,6.73,-0.08,31.95
8168,0.1792,-0.021,0.9158,-6.75,6.55,-0.08,31.93
8178,0.1627,-0.0216,0.9413,-6.75,8.84,-0.06,31.92
8188,0.1627,-0.0271,0.9054,-6.92,11.24,-0.09,31.94
8198,0.198,-0.0289,0.87,-6.84,7.68,-0.11,31.96
8208,0.1772,-0.0281,0.8615,-6.73,6.31,-0.11,31.97
8218,0.1594,-0.0262,0.8899,-6.67,7.53,-0.09,31.93
8228,0.1538,-0.0265,0.9062,-6.76,9.44,-0.11,31.94
8238,0.1719,-0.0232,0.906,-6.7,8.87,-0.08,31.94
8248,0.1935,-0.0197,0.8979,-6.72,8.15,-0.06,31.97
8258,0.1963,-0.0215,0.8923,-6.81,5.8,-0.05,31.94
8268,0.1681,-0.0223,0.9268,-6.84,7.82,-0.09,31.93
8278,0.146,-0.0234,0.926,-6.79,10.93,-0.06,31.94
8288,0.198,-0.0262,0.8879,-6.84,8.99,-0.03,31.94
8298,0.1929,-0.0266,0.8691,-6.75,6.43,0.06,31.94
8308,0.1746,-0.0283,0.8943,-6.75,7.11,-0.11,31.94
8318,0.1564,-0.0319,0.9037,-6.63,8.6,0.0,31.94
8328,0.1512,-0.0265,0.8988,-6.67,9.42,0.08,31.98
8338,0.1885,-0.0277,0.8704,-6.63,8.41,-0.06,31.95
8348,0.1953,-0.0272,0.8644,-6.73,5.22,0.03,31.95
8358,0.1599,-0.032,0.9207,-6.69,7.63,-0.02,31.95
8368,0.1439,-0.0251,0.9155,-6.85,9.92,-0.02,31.97
8378,0.1884,-0.0292,0.8883,-6.9,9.07,-0.05,31.94
8388,0.1967,-0.0245,0.8694,-6.79,5.89,-0.02,31.95
8398,0.1791,-0.0277,0.8945,-6.7,6.64,-0.06,31.96
8408,0.1584,-0.0323,0.9124,-6.61,7.71,-0.12,31.93
8418,0.1477,-0.0317,0.9187,-6.67,9.31,-0.03,31.95
8428,0.182,-0.024,0.8939,-6.7,9.42,-0.08,31.95
8438,0.207,-0.0259,0.8663,-6.67,5.4,-0.06,31.96
8448,0.1647,-0.0321,0.9122,-6.69,6.82,-0.14,31.95
8458,0.1469,-0.0254,0.9229,-6.81,9.73,-0.03,31.96
8468,0.186,-0.0275,0.9003,-6.84,8.99,-0.03,31.94
8478,0.1948,-0.0186,0.8827,-6.84,6.76,-0.09,31.95
8488,0.1779,-0.0215,0.9088,-6.76,7.5,0.06,31.94
8498,0.1605,-0.025,0.918,-6.72,8.63,-0.02,31.97
8508,0.156,-0.025,0.9008,-6.66,9.3,-0.03,31.95
8518,0.1837,-0.0271,0.8888,-6.7,8.6,-0.03,31.96
8528,0.2037,-0.0249,0.8702,-6.58,6.35,-0.14,31.97
8538,0.172,-0.0304,0.916,-6.76,6.73,-0.03,31.95
8548,0.1464,-0.0275,0.9193,-6.75,9.85,-0.11,31.96
8558,0.1863,-0.0239,0.9072,-6.87,9.39,-0.02,31.95
8568,0.202,-0.0226,0.8796,-6.79,7.44,0.03,31.94
8578,0.1761,-0.0272,0.8843,-6.73,7.1,0.02,31.97
8588,0.1539,-0.0303,0.8873,-6.67,7.83,-0.11,31.95
8598,0.1489,-0.0316,0.8877,-6.67,8.34,-0.02,31.95
8608,0.1755,-0.0266,0.903,-6.69,9.16,-0.06,31.95
8618,0.2063,-0.0198,0.8752,-6.63,7.01,0.0,31.93
8628,0.1851,-0.0262,0.9139,-6.79,5.92,-0.08,31.95
8638,0.1394,-0.0277,0.9307,-6.79,9.44,-0.06,31.96
8648,0.1772,-0.0261,0.902,-6.89,9.85,-0.06,31.95
8658,0.1967,-0.0231,0.861,-6.84,7.08,-0.02,31.94
8668,0.1841,-0.0232,0.8674,-6.7,6.89,-0.06,31.96
8678,0.1511,-0.0232,0.9005,-6.67,7.79,-0.05,31.95
8688,0.1479,-0.0299,0.9211,-6.78,9.25,-0.03,31.97
8698,0.1921,-0.0272,0.9072,-6.82,8.98,-0.05,31.95
8708,0.1998,-0.0204,0.8997,-6.7,7.28,-0.03,31.97
8718,0.1868,-0.0314,0.9038,-6.63,6.49,0.03,31.95
8728,0.1669,-0.0283,0.9059,-6.69,7.18,-0.11,31.95
8738,0.1798,-0.0289,0.8804,-6.7,9.53,-0.05,31.96
8748,0.1935,-0.027,0.8644,-6.69,7.15,-0.05,31.96
8758,0.1818,-0.0319,0.8828,-6.73,6.89,-0.12,31.97
8768,0.1683,-0.0304,0.8994,-6.6,6.81,0.0,31.96
8778,0.1573,-0.0298,0.908,-6.61,7.91,0.08,31.95
8788,0.1486,-0.0325,0.9323,-6.69,8.75,0.06,31.96
8798,0.1975,-0.0238,0.8767,-6.73,8.08,0.0,31.98
8808,0.1919,-0.0284,0.8962,-6.67,5.51,-0.05,31.95
8818,0.1658,-0.0242,0.9103,-6.76,6.14,0.05,31.93
8828,0.1454,-0.0259,0.9282,-6.75,10.41,-0.05,31.95
8838,0.1951,-0.0212,0.8718,-6.75,7.08,-0.08,31.94
8848,0.197,-0.0255,0.8755,-6.64,6.6,-0.08,31.93
8858,0.1849,-0.0253,0.891,-6.66,6.21,-0.09,31.96
8868,0.1617,-0.0265,0.8978,-6.66,7.56,0.03,31.97
8878,0.1521,-0.0283,0.9034,-6.73,9.3,0.05,31.97
8888,0.1699,-0.0198,0.8934,-6.64,8.93,-0.03,31.95
8898,0.2124,-0.0199,0.8885,-6.73,6.47,-0.14,31.96
8908,0.1848,-0.0215,0.9132,-6.81,6.05,-0.03,31.94
8918,0.147,-0.0266,0.9427,-6.79,9.45,-0.09,31.95
8928,0.166,-0.0223,0.911,-6.9,10.63,-0.08,31.95
8938,0.1902,-0.0234,0.8674,-6.87,8.43,-0.03,31.94
8948,0.1974,-0.0284,0.8655,-6.66,5.89,0.0,31.97
8958,0.1602,-0.0293,0.8907,-6.76,6.93,-0.06,31.95
8968,0.1528,-0.0272,0.9193,-6.7,9.45,0.0,31.96
8978,0.1777,-0.0229,0.891,-6.7,8.87,-0.03,31.96
8988,0.214,-0.0255,0.8818,-6.81,6.18,-0.03,31.98
8998,0.1818,-0.0269,0.9075,-6.66,6.11,-0.12,31.96
9008,0.1401,-0.0287,0.9375,-6.76,10.09,-0.05,31.97
9018,0.1731,-0.0281,0.8889,-6.78,10.4,-0.03,31.97
9028,0.1942,-0.0278,0.8518,-6.7,6.76,-0.05,31.94
9038,0.1766,-0.0289,0.8763,-6.58,6.49,-0.06,31.95
9048,0.1569,-0.0321,0.8785,-6.63,7.53,-0.05,31.96
9058,0.1531,-0.0323,0.9088,-6.63,7.79,0.03,31.95
9068,0.1569,-0.0233,0.9038,-6.66,9.15,-0.06,31.98
9078,0.2096,-0.0219,0.8815,-6.66,7.1,-0.02,31.96
9088,0.1879,-0.0084,0.9022,-6.75,5.77,0.02,31.96
9098,0.1447,-0.021,0.9514,-6.82,9.33,-0.15,31.94
9108,0.1858,-0.0272,0.9012,-6.76,9.24,0.0,31.96
9118,0.1912,-0.0228,0.8938,-6.82,6.99,-0.11,31.97
9128,0.1888,-0.027,0.8915,-6.63,7.24,-0.11,31.96
9138,0.1622,-0.0293,0.9032,-6.69,7.73,-0.12,31.95
9148,0.1591,-0.0323,0.9241,-6.72,9.08,-0.02,31.96
9158,0.1595,-0.0272,0.9072,-6.63,9.95,-0.05,31.96
9168,0.2072,-0.0264,0.8779,-6.72,8.09,-0.09,31.99
9178,0.1935,-0.0278,0.8749,-6.73,5.77,-0.06,31.98
9188,0.141,-0.0316,0.9233,-6.78,8.81,-0.12,31.98
9198,0.1702,-0.0272,0.8995,-6.72,10.08,-0.06,31.95
9208,0.1924,-0.0217,0.8705,-6.75,7.68,-0.02,31.98
9218,0.1968,-0.0228,0.8815,-6.67,6.18,-0.02,31.96
9228,0.1538,-0.0276,0.9022,-6.75,7.33,0.02,31.96
9238,0.1603,-0.0267,0.9189,-6.66,8.7,-0.11,31.97
9248,0.1675,-0.0214,0.9104,-6.63,9.48,0.0,31.97
9258,0.2058,-0.0189,0.8915,-6.61,7.91,-0.06,31.97
9268,0.1874,-0.0226,0.8948,-6.63,6.56,-0.08,31.96
9278,0.1429,-0.0289,0.9078,-6.72,8.38,-0.06,31.97
9288,0.1527,-0.0311,0.8922,-6.7,9.83,0.02,31.96
9298,0.1898,-0.0299,0.8485,-6.78,7.33,0.02,31.95
9308,0.1846,-0.03,0.8722,-6.75,5.53,0.05,31.95
9318,0.1527,-0.0293,0.9089,-6.76,7.11,0.0,31.96
9328,0.1613,-0.0289,0.9316,-6.69,8.56,0.03,31.96
9338,0.166,-0.0208,0.9327,-6.76,9.19,-0.03,31.96
9348,0.2012,-0.0175,0.9087,-6.72,8.87,-0.15,31.97
9358,0.1987,-0.0265,0.901,-6.75,6.31,-0.09,31.98
9368,0.158,-0.0287,0.9266,-6.75,7.79,-0.06,31.94
9378,0.1548,-0.0303,0.917,-6.81,10.72,-0.09,31.96
9388,0.1616,-0.031,0.8983,-6.81,10.66,-0.17,31.97
9398,0.1912,-0.03,0.8593,-6.67,6.7,-0.08,31.96
9408,0.1696,-0.0315,0.8656,-6.64,6.24,-0.08,31.98
9418,0.1503,-0.0311,0.9067,-6.64,8.11,-0.05,31.98
9428,0.1671,-0.0255,0.8905,-6.69,8.63,0.0,31.97
9438,0.1958,-0.02,0.8987,-6.76,7.98,-0.02,31.97
9448,0.2046,-0.0222,0.8955,-6.64,7.22,-0.03,31.96
9458,0.1536,-0.0195,0.9366,-6.85,8.08,0.02,31.97
9468,0.1575,-0.0203,0.9282,-6.87,10.46,0.02,31.97
9478,0.1884,-0.0258,0.8756,-6.78,9.53,-0.08,31.96
9488,0.197,-0.0239,0.8646,-6.73,6.98,-0.09,31.95
9498,0.1876,-0.0249,0.8517,-6.7,6.76,-0.06,31.94
9508,0.1847,-0.0255,0.8727,-6.72,5.82,-0.06,31.97
9518,0.1516,-0.0214,0.9098,-6.69,9.39,0.0,31.97
9528,0.1941,-0.0215,0.8896,-6.73,8.66,0.0,31.97
9538,0.2051,-0.0266,0.8873,-6.63,5.66,-0.05,31.97
9548,0.1542,-0.0277,0.9396,-6.76,7.33,-0.12,31.98
9558,0.162,-0.0261,0.9266,-6.79,10.2,-0.11,31.98
9568,0.156,-0.0293,0.916,-6.85,10.21,-0.06,31.98
9578,0.1964,-0.0293,0.8767,-6.75,7.48,-0.02,31.97
9588,0.1842,-0.0269,0.8677,-6.82,6.93,-0.09,31.96
9598,0.1768,-0.0288,0.8817,-6.69,6.56,-0.06,31.98
9608,0.1477,-0.0297,0.9128,-6.76,8.46,0.03,31.99
9618,0.1552,-0.0262,0.9147,-6.64,10.37,0.0,31.98
9628,0.2042,-0.0245,0.8835,-6.73,7.63,-0.06,31.97
9638,0.1904,-0.0254,0.8802,-6.67,5.51,0.03,31.99
9648,0.1594,-0.0291,0.9154,-6.73,7.8,-0.02,31.99
9658,0.1436,-0.0286,0.908,-6.84,10.0,0.03,31.96
9668,0.1808,-0.0262,0.8846,-6.81,8.98,-0.05,31.97
9678,0.1954,-0.0215,0.8643,-6.7,6.79,-0.09,31.97
9688,0.1876,-0.0239,0.894,-6.66,6.34,-0.05,31.97
9698,0.1525,-0.0264,0.918,-6.69,7.73,0.0,31.97
9708,0.1559,-0.0247,0.9182,-6.72,9.91,-0.05,31.96
9718,0.1893,-0.0234,0.8892,-6.72,8.64,-0.05,31.96
9728,0.2042,-0.0219,0.8785,-6.63,5.89,-0.11,31.96
9738,0.1686,-0.0259,0.9304,-6.67,7.16,-0.08,31.98
9748,0.1487,-0.0231,0.9215,-6.81,10.64,-0.05,31.99
9758,0.1909,-0.0242,0.8828,-6.79,8.98,-0.02,31.97
9768,0.1956,-0.0181,0.8634,-6.81,6.26,0.03,31.97
9778,0.1776,-0.0247,0.8854,-6.67,6.56,-0.05,31.97
9788,0.1552,-0.0291,0.9077,-6.66,7.83,-0.09,32.01
9798,0.1471,-0.0256,0.9247,-6.73,8.93,-0.14,31.96
9808,0.1776,-0.022,0.9148,-6.76,9.63,-0.02,31.98
9818,0.2087,-0.0234,0.8822,-6.75,6.64,0.03,32.0
9828,0.1775,-0.0276,0.9214,-6.78,6.75,-0.05,31.99
9838,0.1418,-0.0299,0.9225,-6.7,10.21,-0.03,31.99
9848,0.1782,-0.0264,0.8856,-6.78,9.71,-0.02,31.99
9858,0.1971,-0.0244,0.8605,-6.82,7.19,-0.05,31.99
9868,0.1838,-0.0265,0.8699,-6.73,7.85,0.09,31.97
9878,0.17,-0.0288,0.8959,-6.75,7.13,0.0,31.96
9888,0.1501,-0.0269,0.9188,-6.67,8.53,0.0,31.99
9898,0.1713,-0.0222,0.9163,-6.69,9.57,-0.03,31.98
9908,0.2074,-0.0226,0.8754,-6.66,7.01,0.06,31.99
9918,0.1785,-0.028,0.9109,-6.69,6.23,-0.03,31.98
9928,0.1537,-0.025,0.9155,-6.75,7.48,-0.05,31.99
9938,0.1765,-0.0295,0.8772,-6.66,9.37,-0.12,31.98
9948,0.1901,-0.0255,0.8557,-6.69,7.1,-0.03,31.98
9958,0.1812,-0.0251,0.8761,-6.73,6.32,-0.09,31.99
9968,0.1627,-0.0262,0.905,-6.7,6.93,-0.05,32.0
9978,0.1544,-0.0288,0.9209,-6.7,8.21,0.03,32.01
9988,0.176,-0.0192,0.921,-6.69,9.51,0.02,31.98
9998,0.2002,-0.026,0.8815,-6.67,7.51,-0.03,32.02
10008,0.1934,-0.0272,0.8954,-6.63,5.82,-0.09,31.98
10018,0.1379,-0.0302,0.9213,-6.81,9.28,-0.08,31.97
10028,0.1738,-0.0254,0.8961,-6.82,9.94,0.02,32.01
10038,0.1917,-0.0245,0.8572,-6.79,7.53,-0.11,32.01
10048,0.1844,-0.0265,0.8816,-6.7,6.26,-0.06,31.99
10058,0.1558,-0.0243,0.9253,-6.64,7.48,-0.09,31.99
10068,0.1537,-0.0237,0.9238,-6.78,9.28,0.0,31.97
10078,0.188,-0.0203,0.9088,-6.79,9.48,-0.08,31.99
10088,0.2012,-0.02,0.8821,-6.75,7.01,-0.05,31.99
10098,0.1838,-0.0265,0.9042,-6.7,6.17,-0.08,31.97
10108,0.1768,-0.0221,0.9098,-6.75,6.63,-0.03,31.98
10118,0.1732,-0.0238,0.9137,-6.87,9.95,-0.05,31.97
10128,0.1964,-0.025,0.8744,-6.78,8.61,-0.03,31.98
10138,0.1941,-0.028,0.8663,-6.72,6.58,-0.03,32.0
10148,0.1621,-0.0319,0.8867,-6.61,6.49,-0.05,32.01
10158,0.147,-0.0303,0.8988,-6.58,8.14,-0.05,31.98
10168,0.1464,-0.0337,0.9102,-6.72,8.89,0.0,31.97
10178,0.1925,-0.0255,0.8717,-6.73,7.83,-0.03,31.99
10188,0.1978,-0.0271,0.8856,-6.76,5.71,-0.03,31.98
10198,0.1499,-0.0239,0.915,-6.79,7.33,-0.03,31.96
10209,0.1415,-0.0247,0.9312,-6.76,9.3,-0.05,31.96
10219,0.1768,-0.0244,0.9032,-6.82,10.15,0.03,32.0
10229,0.2039,-0.025,0.8688,-6.76,6.55,0.03,31.99
10239,0.1849,-0.0261,0.8884,-6.75,6.35,-0.09,31.99
10249,0.1666,-0.0297,0.8938,-6.67,7.31,-0.03,31.99
10259,0.1567,-0.0306,0.9159,-6.67,8.46,-0.02,31.99
10269,0.149,-0.0247,0.9031,-6.72,9.95,-0.02,32.0
10279,0.2065,-0.0229,0.8733,-6.78,7.62,-0.05,32.02
10289,0.1908,-0.026,0.8828,-6.66,4.63,-0.05,31.98
10299,0.1396,-0.0242,0.9441,-6.82,9.04,-0.02,32.0
10309,0.1765,-0.0193,0.9178,-6.85,10.34,-0.08,32.0
10319,0.2019,-0.0195,0.8915,-6.9,7.59,-0.03,31.97
10329,0.1952,-0.022,0.899,-6.81,8.05,-0.08,32.01
10339,0.1676,-0.0258,0.8893,-6.64,8.11,-0.08,31.98
10349,0.1737,-0.0281,0.8849,-6.66,7.33,-0.08,31.99
10359,0.1553,-0.027,0.9028,-6.61,8.08,-0.05,31.97
10369,0.1718,-0.0223,0.9127,-6.72,9.74,-0.03,32.0
10379,0.2026,-0.026,0.8854,-6.7,7.71,-0.02,31.99
10389,0.1791,-0.0287,0.9033,-6.79,5.76,-0.03,31.98
10399,0.152,-0.0273,0.9285,-6.89,9.45,-0.08,31.98
10409,0.1628,-0.0255,0.8854,-6.82,10.02,-0.14,31.96
10419,0.1932,-0.0295,0.8617,-6.81,8.11,0.06,31.98
10429,0.1792,-0.0258,0.8601,-6.81,6.0,-0.03,31.98
10439,0.1676,-0.0262,0.8983,-6.81,6.26,-0.08,31.99
10449,0.1505,-0.0204,0.9348,-6.81,8.53,-0.05,32.01
10459,0.183,-0.021,0.9331,-6.75,10.24,-0.03,31.99
10469,0.2097,-0.0215,0.9001,-6.72,7.24,-0.09,31.99
10479,0.1791,-0.0289,0.9011,-6.67,6.53,-0.12,31.97
10489,0.1514,-0.0311,0.917,-6.75,9.53,-0.03,31.97
10499,0.1737,-0.0287,0.8578,-6.81,9.69,-0.06,32.0
10509,0.1926,-0.0295,0.8428,-6.73,6.32,-0.11,32.0
10519,0.1625,-0.0281,0.8674,-6.73,5.74,-0.08,31.99
10529,0.1635,-0.0288,0.915,-6.69,7.16,-0.08,31.99
10539,0.1595,-0.021,0.936,-6.72,8.81,0.03,31.99
10549,0.1796,-0.0244,0.9373,-6.72,10.21,0.03,31.99
10559,0.204,-0.0227,0.9009,-6.7,7.45,-0.11,32.01
10569,0.1863,-0.0297,0.8993,-6.66,6.21,-0.06,31.99
10579,0.1478,-0.0288,0.9287,-6.72,9.33,-0.15,31.99
10589,0.1671,-0.0288,0.8734,-6.76,10.82,-0.08,31.99
10599,0.196,-0.0299,0.8539,-6.69,6.9,0.0,32.0
10609,0.1757,-0.03,0.859,-6.61,6.08,-0.09,31.98
10619,0.1653,-0.0255,0.8916,-6.67,6.79,0.06,31.98
10629,0.1578,-0.024,0.903,-6.69,8.08,-0.06,31.98
10639,0.165,-0.0209,0.9204,-6.58,9.33,-0.03,31.99
10649,0.2046,-0.0176,0.9003,-6.75,7.47,-0.09,31.99
10659,0.1929,-0.0242,0.917,-6.67,5.8,-0.09,31.99
10669,0.1549,-0.0255,0.943,-6.79,9.33,-0.17,32.01
10679,0.1646,-0.0249,0.8915,-6.84,11.59,0.0,32.02
10689,0.2007,-0.0288,0.8428,-6.76,7.36,-0.05,32.0
10699,0.176,-0.0309,0.8401,-6.64,5.5,0.02,31.99
10709,0.1569,-0.0331,0.895,-6.56,6.81,-0.06,32.01
10719,0.1599,-0.0294,0.9204,-6.69,8.92,0.02,32.0
10729,0.1685,-0.0225,0.9341,-6.76,9.45,-0.02,31.97
10739,0.2006,-0.0168,0.9084,-6.84,8.23,0.0,31.97
10749,0.1945,-0.022,0.9072,-6.73,6.06,-0.09,31.99
10759,0.1631,-0.0258,0.9354,-6.82,8.34,-0.11,31.99
10769,0.1543,-0.0277,0.9174,-6.87,11.33,-0.02,31.98
10779,0.1953,-0.0298,0.8685,-6.76,8.55,0.05,32.01
10789,0.1833,-0.0312,0.8512,-6.61,6.47,-0.02,32.02
10799,0.1681,-0.0316,0.8693,-6.75,6.56,-0.06,31.99
10809,0.1506,-0.0328,0.8945,-6.76,8.26,-0.02,31.98
10819,0.1581,-0.0267,0.9175,-6.69,9.18,0.06,32.01
10829,0.2095,-0.0201,0.9055,-6.67,7.76,-0.02,32.03
10839,0.1909,-0.0247,0.9091,-6.78,5.48,0.0,32.0
10849,0.1506,-0.0259,0.9457,-6.72,9.51,-0.08,32.0
10859,0.1631,-0.0294,0.8918,-6.84,11.02,-0.02,32.02
10869,0.1981,-0.028,0.861,-6.75,7.45,0.03,32.0
10879,0.1772,-0.0328,0.8708,-6.67,6.06,-0.06,31.99
10889,0.1632,-0.0308,0.8937,-6.58,7.6,0.0,31.99
10899,0.1569,-0.0298,0.9032,-6.67,9.08,-0.02,31.98
10909,0.1616,-0.0242,0.8934,-6.73,8.85,0.03,31.99
10919,0.1909,-0.0221,0.8901,-6.73,7.77,0.03,31.98
10929,0.1956,-0.0205,0.8978,-6.66,5.63,-0.09,31.99
10939,0.1672,-0.0201,0.946,-6.76,7.83,0.0,32.01
10949,0.15,-0.0227,0.9275,-6.82,10.73,-0.05,32.0
10959,0.1958,-0.0256,0.8773,-6.69,8.79,-0.09,32.02
10969,0.1888,-0.0222,0.8698,-6.67,5.89,-0.03,32.0
10979,0.1577,-0.0299,0.9061,-6.72,7.83,-0.05,31.99
10989,0.1536,-0.0266,0.9059,-6.58,10.08,0.03,32.0
10999,0.1765,-0.0249,0.8844,-6.63,8.76,-0.05,31.99
11009,0.1968,-0.0249,0.8763,-6.72,6.93,-0.11,32.0
11019,0.1848,-0.0247,0.8884,-6.79,6.29,-0.08,31.99
11029,0.165,-0.0284,0.9369,-6.7,8.06,-0.09,32.0
11039,0.1432,-0.0238,0.9299,-6.99,10.79,-0.05,32.0
11049,0.2026,-0.0253,0.8766,-6.73,9.19,-0.06,32.01
11059,0.1948,-0.028,0.8594,-6.6,5.53,-0.08,32.02
11069,0.1577,-0.0315,0.9028,-6.7,7.5,-0.11,32.01
11079,0.1538,-0.0297,0.9049,-6.61,7.88,-0.08,31.99
11089,0.1746,-0.0328,0.8837,-6.58,8.41,-0.08,32.01
11099,0.1787,-0.0297,0.8962,-6.63,9.19,0.02,31.99
11109,0.1904,-0.0281,0.858,-6.53,7.42,-0.06,31.99
11119,0.1863,-0.0271,0.873,-6.76,5.62,-0.05,31.99
11129,0.1399,-0.0289,0.9108,-6.7,8.03,0.05,32.0
11139,0.168,-0.0189,0.9075,-6.84,10.21,-0.06,31.97
11149,0.2064,-0.0192,0.8751,-6.75,6.32,-0.03,32.03
11159,0.1724,-0.0228,0.9061,-6.7,6.4,-0.09,32.0
11169,0.1531,-0.0248,0.9156,-6.67,8.21,0.02,32.01
11179,0.1605,-0.0258,0.9056,-6.61,9.15,-0.02,32.0
11189,0.1848,-0.0231,0.9069,-6.56,8.6,-0.02,32.02
11199,0.1899,-0.0234,0.8838,-6.58,7.88,0.0,31.98
11209,0.1956,-0.0314,0.9004,-6.79,5.56,-0.15,32.01
11219,0.1459,-0.0262,0.9318,-6.7,8.85,-0.03,32.03
11229,0.1636,-0.0208,0.9098,-6.85,10.85,0.0,31.99
11239,0.2043,-0.0243,0.865,-6.75,7.44,-0.02,32.02
11249,0.1732,-0.0286,0.8895,-6.66,6.15,-0.05,31.99
11259,0.1622,-0.0297,0.9061,-6.72,7.74,-0.03,32.01
11269,0.1621,-0.0258,0.9088,-6.63,9.22,-0.02,32.0
11279,0.1967,-0.0239,0.9021,-6.73,8.52,0.03,32.0
11289,0.1881,-0.0225,0.8867,-6.9,7.45,0.0,32.01
11299,0.1852,-0.0303,0.8845,-6.73,6.12,-0.05,32.02
11309,0.1425,-0.0247,0.9142,-6.75,8.52,-0.06,32.01
11319,0.1599,-0.0221,0.9011,-6.9,10.84,-0.02,32.02
11329,0.2068,-0.0227,0.8615,-6.69,6.82,-0.11,32.0
11339,0.1783,-0.0244,0.8925,-6.78,5.8,-0.09,32.01
11349,0.1639,-0.0262,0.9222,-6.7,8.05,-0.03,32.0
11359,0.1616,-0.0282,0.9122,-6.73,9.6,-0.05,32.01
11369,0.1888,-0.025,0.8923,-6.69,8.82,0.0,32.0
11379,0.1895,-0.0312,0.8707,-6.66,7.54,-0.06,32.01
11389,0.1835,-0.0299,0.8806,-6.63,6.29,-0.05,32.03
11399,0.1545,-0.0271,0.8867,-6.67,7.71,-0.06,32.01
11409,0.1473,-0.0236,0.9028,-6.81,9.79,0.03,32.02
11419,0.1964,-0.0233,0.8705,-6.82,7.68,-0.12,32.02
11429,0.1841,-0.0253,0.8951,-6.69,5.3,-0.03,32.0
11439,0.1514,-0.0227,0.9447,-6.7,8.56,-0.11,32.0
11449,0.1665,-0.0239,0.9194,-6.72,10.47,-0.03,32.02
11459,0.1992,-0.0229,0.9015,-6.73,7.92,-0.02,32.04
11469,0.1803,-0.0292,0.8868,-6.63,7.3,-0.05,32.02
11479,0.1798,-0.0326,0.8938,-6.67,6.93,-0.08,32.01
11489,0.1489,-0.0332,0.9016,-6.76,8.76,-0.11,32.0
11499,0.1581,-0.0289,0.9042,-6.82,10.18,0.0,32.01
11509,0.1941,-0.0247,0.8682,-6.66,8.32,0.08,31.99
11519,0.1901,-0.0295,0.8707,-6.72,5.04,-0.12,31.99
11529,0.1594,-0.0276,0.9192,-6.67,7.57,-0.05,32.01
11539,0.1562,-0.0292,0.9067,-6.63,9.88,-0.08,32.0
11549,0.1884,-0.0256,0.8893,-6.69,8.4,-0.11,32.02
11559,0.1849,-0.0272,0.8728,-6.67,6.84,0.03,32.02
11569,0.1788,-0.0264,0.9033,-6.73,6.37,-0.02,32.04
11579,0.1488,-0.0239,0.9277,-6.79,9.11,0.03,32.02
11589,0.1688,-0.0228,0.907,-6.89,10.44,-0.03,32.04
11599,0.2078,-0.0226,0.8768,-6.78,7.1,0.02,32.0
11609,0.1864,-0.0233,0.8873,-6.73,5.6,-0.05,32.0
11619,0.1542,-0.0277,0.9213,-6.64,8.46,-0.12,32.01
11629,0.1549,-0.0287,0.9005,-6.84,9.92,-0.05,32.01
11639,0.1921,-0.0255,0.8878,-6.64,8.09,0.03,32.02
11649,0.1826,-0.0238,0.8785,-6.69,6.53,-0.03,31.99
11659,0.1793,-0.0233,0.91,-6.72,7.08,-0.15,32.0
11669,0.1597,-0.0247,0.9164,-6.85,8.41,-0.11,32.02
11679,0.1492,-0.0208,0.9192,-6.9,10.64,-0.05,32.01
11689,0.2001,-0.0216,0.8765,-6.78,8.34,-0.08,32.04
11699,0.1918,-0.0222,0.8829,-6.78,5.76,-0.03,32.02
11709,0.1659,-0.0237,0.9336,-6.75,7.86,-0.06,32.03
11719,0.1533,-0.028,0.9152,-6.67,11.01,-0.06,32.02
11729,0.2029,-0.0284,0.8759,-6.81,7.97,-0.02,32.01
11739,0.1859,-0.0292,0.8771,-6.64,6.12,-0.14,32.04
11749,0.1671,-0.033,0.8999,-6.78,7.83,-0.09,32.01
11759,0.1556,-0.0332,0.8928,-6.76,9.33,-0.02,32.04
11769,0.1598,-0.0286,0.8892,-6.78,9.47,0.0,32.02
11779,0.194,-0.0265,0.8652,-6.72,7.83,-0.05,32.03
11789,0.1954,-0.0255,0.8665,-6.64,4.99,0.0,32.02
11799,0.1548,-0.0249,0.9244,-6.63,7.13,-0.02,32.04
11809,0.1342,-0.0258,0.9307,-6.81,8.34,-0.05,32.02
11819,0.1766,-0.0247,0.9082,-6.66,9.51,-0.12,32.03
11829,0.1945,-0.0216,0.8893,-6.67,7.59,0.02,32.03
11839,0.1777,-0.0249,0.9048,-6.78,7.22,-0.08,32.03
11849,0.1753,-0.0248,0.911,-6.79,7.02,-0.05,32.03
11859,0.1531,-0.0276,0.9141,-6.82,8.61,-0.11,32.03
11869,0.1655,-0.028,0.8959,-6.79,10.11,0.0,32.03
11879,0.198,-0.028,0.8506,-6.66,7.22,0.03,32.02
11889,0.1781,-0.0326,0.8795,-6.61,5.27,-0.05,32.03
11899,0.1316,-0.0286,0.9148,-6.78,8.95,-0.08,32.01
11909,0.173,-0.0234,0.9091,-6.66,9.51,-0.11,32.0
11919,0.1995,-0.0217,0.8909,-6.73,7.42,-0.05,32.04
11929,0.1847,-0.02,0.907,-6.75,6.75,-0.11,32.02
11939,0.1637,-0.0227,0.9292,-6.84,7.98,-0.09,32.03
11949,0.1624,-0.0206,0.9287,-6.81,9.33,-0.09,32.03
11959,0.1833,-0.0211,0.9088,-6.85,10.05,-0.06,32.03
11969,0.1996,-0.0265,0.863,-6.67,7.88,-0.14,32.02
11979,0.1925,-0.0321,0.8743,-6.66,5.44,-0.03,32.03
11989,0.134,-0.0328,0.9025,-6.67,9.11,-0.11,32.04
11999,0.1781,-0.0288,0.8804,-6.66,9.33,-0.06,32.05
12009,0.2009,-0.0254,0.8687,-6.56,6.63,0.03,32.03
12019,0.1792,-0.0291,0.9072,-6.84,6.02,-0.05,32.02
12029,0.153,-0.0248,0.9338,-6.78,8.98,-0.02,32.02
12039,0.1671,-0.0223,0.9111,-6.95,9.98,-0.12,32.02
12049,0.2004,-0.0234,0.8848,-6.84,8.4,-0.03,32.03
12059,0.1827,-0.0288,0.8733,-6.76,7.44,-0.11,32.02
12069,0.1851,-0.0295,0.8806,-6.69,5.74,-0.06,32.03
12079,0.1295,-0.0303,0.912,-6.64,8.76,0.02,32.01
12089,0.1708,-0.0281,0.8925,-6.61,9.89,0.0,32.04
12099,0.1934,-0.0278,0.8716,-6.58,7.27,0.12,32.04
12109,0.1819,-0.026,0.8838,-6.78,5.66,-0.09,32.06
12119,0.1562,-0.0277,0.9297,-6.82,7.8,-0.05,32.04
12129,0.1561,-0.0228,0.9247,-6.85,9.66,0.0,32.05
12139,0.1925,-0.0222,0.9032,-6.79,9.31,-0.03,32.01
12150,0.1768,-0.0206,0.8864,-6.9,8.89,0.0,32.02
12160,0.2008,-0.0228,0.8695,-6.72,6.53,-0.03,32.01
12170,0.1625,-0.0239,0.8964,-6.6,6.4,-0.08,32.02
12180,0.1436,-0.0288,0.9325,-6.7,10.12,-0.08,32.02
12190,0.1868,-0.0232,0.9036,-6.75,9.3,-0.03,32.05
12200,0.2072,-0.0228,0.882,-6.7,6.06,-0.11,32.04
12210,0.1785,-0.0314,0.9203,-6.7,6.64,-0.09,32.04
12220,0.1469,-0.0284,0.9176,-6.7,9.79,-0.06,32.03
12230,0.1686,-0.0316,0.8905,-6.75,9.98,-0.09,32.05
12240,0.1823,-0.0259,0.8519,-6.78,8.0,-0.03,32.03
12250,0.1973,-0.0266,0.8553,-6.66,5.39,-0.02,32.01
12260,0.1628,-0.0271,0.8994,-6.66,6.12,0.0,32.03
12270,0.1395,-0.0247,0.9454,-6.67,9.98,0.0,32.04
12280,0.1938,-0.02,0.9175,-6.82,9.19,-0.02,32.06
12290,0.2096,-0.0212,0.8898,-6.67,6.46,0.0,32.02
12300,0.17,-0.0228,0.9235,-6.73,7.57,-0.09,32.02
12310,0.151,-0.027,0.8894,-6.78,10.5,-0.03,32.01
12320,0.1858,-0.0284,0.8693,-6.7,8.4,0.02,32.03
12330,0.1835,-0.0222,0.86,-6.75,6.79,0.03,32.01
12340,0.1913,-0.0234,0.866,-6.73,7.22,-0.05,32.03
12350,0.1644,-0.0239,0.9132,-6.79,6.99,-0.11,32.02
12360,0.15,-0.0269,0.9446,-6.72,9.8,0.03,32.05
12370,0.182,-0.019,0.9238,-6.84,9.77,-0.03,32.02
12380,0.2089,-0.0222,0.8761,-6.76,6.78,-0.03,32.03
12390,0.1783,-0.0283,0.9125,-6.75,6.63,-0.02,32.05
12400,0.157,-0.0281,0.9263,-6.81,8.21,-0.06,32.03
12410,0.1804,-0.0282,0.8828,-6.87,9.63,0.03,32.02
12420,0.1886,-0.0289,0.8435,-6.75,7.19,0.02,32.03
12430,0.1884,-0.0271,0.8552,-6.72,6.14,-0.02,32.02
12440,0.1678,-0.0284,0.8896,-6.67,6.52,0.0,32.02
12450,0.1398,-0.0284,0.9309,-6.69,9.22,-0.11,32.03
12460,0.1586,-0.0243,0.9304,-6.76,9.86,-0.03,32.05
12470,0.2047,-0.0215,0.8813,-6.67,5.98,-0.03,32.02
12480,0.163,-0.0259,0.9182,-6.67,7.48,-0.03,32.04
12490,0.139,-0.0312,0.9094,-6.82,10.92,-0.11,32.04
12500,0.1935,-0.032,0.8666,-6.81,8.6,0.0,32.04
12510,0.194,-0.0286,0.8617,-6.7,5.76,0.03,32.04
12520,0.1774,-0.0266,0.8986,-6.7,6.82,-0.03,32.03
12530,0.1608,-0.0308,0.9097,-6.7,7.88,-0.02,32.0
12540,0.1523,-0.0272,0.9232,-6.66,8.92,-0.05,32.03
12550,0.1775,-0.0251,0.9021,-6.69,9.4,-0.06,32.01
12560,0.2062,-0.0258,0.8539,-6.76,6.06,-0.08,32.04
12570,0.166,-0.0272,0.9104,-6.7,6.23,-0.05,32.03
12580,0.1388,-0.0302,0.9127,-6.7,7.53,0.02,32.04
12590,0.1597,-0.0281,0.9116,-6.79,9.69,0.05,32.05
12600,0.1964,-0.0173,0.8868,-6.81,6.24,-0.02,32.02
12610,0.1859,-0.0239,0.901,-6.82,6.89,-0.05,32.03
12620,0.1686,-0.0176,0.9152,-6.76,7.16,-0.14,32.03
12630,0.1537,-0.0236,0.9297,-6.66,9.02,-0.05,32.03
12640,0.1843,-0.0214,0.9137,-6.73,9.54,-0.02,32.02
12650,0.1963,-0.0226,0.8898,-6.64,8.11,-0.02,32.07
12660,0.1974,-0.0322,0.8905,-6.67,5.98,-0.11,32.04
12670,0.1504,-0.0302,0.9003,-6.87,8.47,-0.06,32.04
12680,0.1599,-0.0283,0.8951,-6.82,10.44,-0.02,32.04
12690,0.1993,-0.0266,0.8524,-6.75,7.83,-0.02,32.02
12700,0.1772,-0.0275,0.8773,-6.82,6.12,0.02,32.06
12710,0.1666,-0.0233,0.9038,-6.66,7.15,-0.11,32.04
12720,0.1544,-0.0244,0.9144,-6.72,8.6,-0.03,32.04
12730,0.1808,-0.0188,0.916,-6.85,9.42,0.02,32.02
12740,0.1866,-0.0229,0.8906,-6.73,8.31,-0.06,32.04
12750,0.1945,-0.027,0.8956,-6.78,6.5,-0.05,32.04
12761,0.1874,-0.0265,0.901,-6.72,6.43,-0.02,32.04
12771,0.1458,-0.0253,0.9219,-6.84,9.11,-0.03,32.02
12781,0.1693,-0.0267,0.8927,-6.84,10.66,0.0,32.02
12791,0.2013,-0.0288,0.8529,-6.81,6.63,-0.06,32.04
12801,0.1833,-0.025,0.8844,-6.61,5.66,-0.03,32.02
12811,0.1544,-0.028,0.9003,-6.61,7.74,-0.02,32.01
12821,0.1561,-0.0269,0.9225,-6.69,9.4,-0.03,32.02
12831,0.1748,-0.0215,0.9027,-6.7,9.16,-0.11,32.03
12841,0.2101,-0.0233,0.891,-6.69,6.96,0.0,32.03
12851,0.1891,-0.0271,0.8982,-6.76,6.06,-0.03,32.06
12861,0.1644,-0.0309,0.9132,-6.76,6.61,-0.11,32.04
12871,0.1624,-0.0267,0.8937,-6.72,10.38,-0.05,32.05
12881,0.1954,-0.027,0.8519,-6.78,7.02,0.0,32.06
12891,0.1842,-0.0305,0.8817,-6.67,5.98,-0.11,32.03
12901,0.1554,-0.0283,0.9027,-6.76,7.71,0.02,32.03
12911,0.1606,-0.0305,0.9294,-6.7,9.22,0.05,32.04
12921,0.1871,-0.0245,0.9066,-6.63,8.9,-0.03,32.05
12931,0.2148,-0.0254,0.8926,-6.7,6.23,-0.05,32.03
12941,0.1711,-0.0325,0.9095,-6.78,7.04,-0.06,32.03
12951,0.1416,-0.0312,0.9192,-6.82,10.47,-0.08,32.05
12961,0.1748,-0.0308,0.873,-6.69,9.94,0.02,32.02
12971,0.1982,-0.0264,0.8406,-6.81,6.05,-0.05,32.05
12981,0.1753,-0.0297,0.8733,-6.63,6.43,-0.09,32.03
12991,0.149,-0.0278,0.8965,-6.66,7.62,-0.05,32.04
13001,0.1549,-0.0237,0.9211,-6.72,9.18,0.03,32.07
13011,0.1741,-0.0162,0.905,-6.69,8.56,-0.05,32.05
13021,0.2108,-0.0127,0.8973,-6.69,7.01,-0.09,32.04
13031,0.1874,-0.0164,0.9181,-6.89,6.35,0.0,32.04
13041,0.1434,-0.0219,0.9454,-6.76,9.85,-0.09,32.04
13051,0.1759,-0.0222,0.8998,-6.87,10.61,-0.06,32.04
13061,0.2075,-0.0243,0.8464,-6.73,6.47,-0.06,32.04
13071,0.1721,-0.03,0.8901,-6.76,6.49,-0.06,32.04
13081,0.1359,-0.0344,0.9045,-6.72,9.47,-0.11,32.04
13091,0.1763,-0.0275,0.9015,-6.61,9.08,-0.02,32.06
13101,0.1959,-0.0219,0.885,-6.67,7.22,-0.11,32.03
13111,0.1978,-0.0243,0.9038,-6.73,6.6,0.0,32.01
13121,0.1621,-0.0304,0.9148,-6.7,7.54,-0.03,32.05
13131,0.147,-0.0291,0.9237,-6.79,10.18,-0.02,32.04
13141,0.1802,-0.0261,0.8838,-6.82,9.63,-0.02,32.06
13151,0.1989,-0.0233,0.8461,-6.75,6.18,-0.03,32.05
13161,0.1786,-0.028,0.886,-6.72,5.85,-0.05,32.05
13171,0.1354,-0.0278,0.9181,-6.72,8.93,-0.05,32.04
13181,0.1804,-0.0265,0.9098,-6.61,8.9,0.0,32.06
13191,0.1953,-0.0206,0.8932,-6.7,7.56,-0.03,32.07
13201,0.1901,-0.0266,0.8994,-6.69,7.85,-0.06,32.02
13211,0.1665,-0.033,0.9166,-6.75,7.53,0.02,32.04
13221,0.1477,-0.0299,0.92,-6.85,9.66,-0.11,32.05
13231,0.181,-0.0265,0.8818,-6.67,9.6,0.0,32.06
13241,0.1987,-0.0282,0.8406,-6.7,5.76,0.06,32.04
13251,0.1674,-0.0325,0.8951,-6.53,6.21,-0.09,32.06
13261,0.1479,-0.033,0.8956,-6.75,6.76,0.0,32.02
13271,0.1776,-0.0248,0.9056,-6.7,8.89,0.0,32.03
13281,0.1952,-0.0189,0.8911,-6.69,6.99,-0.03,32.04
13291,0.1865,-0.0209,0.9114,-6.69,7.37,-0.05,32.05
13301,0.1749,-0.0275,0.9158,-6.89,7.19,-0.09,32.05
13311,0.1583,-0.0254,0.92,-6.72,6.84,-0.12,32.03
13321,0.1512,-0.0275,0.9269,-6.79,10.24,-0.09,32.04
13331,0.2023,-0.0249,0.8527,-6.76,6.69,-0.09,32.06
13341,0.1769,-0.0286,0.8915,-6.63,5.98,-0.03,32.07
13351,0.1555,-0.0243,0.9082,-6.72,6.47,-0.02,32.07
13361,0.1912,-0.0253,0.908,-6.73,9.39,-0.05,32.06
13371,0.1968,-0.02,0.8983,-6.7,8.6,-0.06,32.04
13381,0.2021,-0.0203,0.8923,-6.67,6.84,-0.05,32.05
13391,0.1814,-0.026,0.9081,-6.73,6.64,-0.05,32.06
13401,0.157,-0.027,0.9208,-6.72,8.78,-0.05,32.04
13411,0.1626,-0.028,0.9052,-6.78,10.64,-0.02,32.06
13421,0.1851,-0.0242,0.8423,-6.72,8.72,-0.02,32.04
13431,0.1987,-0.0341,0.8464,-6.66,5.19,-0.03,32.07
13441,0.1467,-0.0294,0.8962,-6.63,6.67,-0.09,32.08
13451,0.1512,-0.0271,0.9176,-6.72,9.53,-0.05,32.05
13461,0.184,-0.0215,0.9052,-6.7,8.46,0.02,32.04
13471,0.1952,-0.0225,0.9092,-6.63,7.27,-0.06,32.04
13481,0.1868,-0.0171,0.922,-6.73,6.79,-0.08,32.04
13491,0.1505,-0.0232,0.9226,-6.89,9.45,-0.11,32.03
13501,0.1761,-0.0243,0.8914,-6.79,9.97,-0.02,32.03
13511,0.1843,-0.0278,0.85,-6.7,7.91,-0.02,32.04
13521,0.1902,-0.0298,0.8486,-6.72,5.13,-0.14,32.04
13531,0.1521,-0.0302,0.8939,-6.63,6.72,-0.03,32.05
13541,0.1488,-0.0247,0.9242,-6.76,10.08,0.08,32.04
13551,0.2009,-0.02,0.8955,-6.84,8.18,-0.06,32.04
13561,0.1858,-0.0212,0.9067,-6.75,5.89,-0.08,32.05
13571,0.1853,-0.0253,0.9253,-6.72,6.6,-0.12,32.06
13581,0.1682,-0.0251,0.9183,-6.84,9.71,-0.06,32.03
13591,0.1693,-0.0265,0.9049,-6.9,10.11,0.0,32.05
13601,0.1763,-0.0286,0.8584,-6.79,9.19,-0.05,32.04
13611,0.2002,-0.0303,0.8468,-6.63,5.37,-0.03,32.05
13621,0.1553,-0.0304,0.8899,-6.76,6.46,-0.05,32.02
13631,0.1476,-0.0283,0.9204,-6.76,9.73,-0.06,32.05
13641,0.1924,-0.0226,0.8949,-6.64,8.53,-0.05,32.06
13651,0.2,-0.0238,0.9009,-6.67,5.34,-0.05,32.05
13661,0.1611,-0.0255,0.9346,-6.69,7.94,-0.08,32.04
13671,0.1495,-0.0271,0.916,-6.79,10.4,-0.09,32.06
13681,0.181,-0.0245,0.8789,-6.84,9.68,-0.08,32.06
13691,0.1854,-0.0258,0.8518,-6.66,7.15,-0.12,32.04
13701,0.1862,-0.0282,0.8672,-6.66,5.66,0.03,32.04
13711,0.1539,-0.0266,0.9091,-6.72,7.08,-0.03,32.07
13721,0.1539,-0.0211,0.9336,-6.69,10.47,-0.08,32.06
13731,0.2023,-0.0204,0.8977,-6.73,8.27,-0.14,32.04
13741,0.1937,-0.0216,0.8914,-6.64,5.69,-0.08,32.03
13751,0.168,-0.0226,0.9177,-6.78,7.69,-0.09,32.04
13761,0.1531,-0.0222,0.9071,-6.85,9.82,-0.02,32.09
13771,0.1782,-0.0255,0.8915,-6.84,9.05,-0.09,32.06
13781,0.1897,-0.0226,0.8804,-6.79,7.01,-0.11,32.06
13791,0.1868,-0.024,0.8979,-6.78,6.23,-0.12,32.05
13801,0.1448,-0.0277,0.9232,-6.78,8.32,-0.06,32.04
13811,0.1553,-0.0245,0.9087,-6.79,11.04,-0.05,32.05
13821,0.2083,-0.0239,0.8671,-6.64,7.05,0.0,32.06
13831,0.1798,-0.028,0.8939,-6.66,4.9,0.02,32.04
13841,0.1512,-0.0264,0.9385,-6.76,9.69,0.02,32.03
13851,0.1853,-0.0267,0.8889,-6.82,10.06,-0.06,32.04
13861,0.1945,-0.0304,0.8793,-6.7,7.33,-0.06,32.06
13871,0.1625,-0.0278,0.8766,-6.66,7.24,-0.02,32.05
13881,0.1741,-0.0312,0.8715,-6.63,7.74,-0.05,32.05
13891,0.1732,-0.0325,0.8787,-6.75,6.35,-0.09,32.05
13901,0.1377,-0.0287,0.944,-6.55,9.89,0.02,32.05
13911,0.2012,-0.0222,0.897,-6.66,8.9,0.03,32.05
13921,0.1963,-0.0256,0.8857,-6.61,4.98,-0.06,32.06
13931,0.1367,-0.0299,0.9447,-6.64,9.54,-0.03,32.04
13941,0.1687,-0.0233,0.8729,-6.84,11.08,-0.09,32.07
13951,0.2003,-0.0273,0.8429,-6.69,5.97,-0.03,32.05
13961,0.1587,-0.028,0.8715,-6.56,5.63,0.02,32.05
13971,0.1577,-0.0277,0.921,-6.73,8.34,-0.08,32.07
13981,0.1819,-0.0228,0.9197,-6.64,8.37,0.0,32.04
13991,0.1692,-0.0245,0.9275,-6.69,8.32,-0.05,32.05
14001,0.1763,-0.024,0.911,-6.73,8.98,-0.05,32.05
14011,0.1962,-0.0266,0.8705,-6.64,6.31,-0.06,32.05
14021,0.1561,-0.0272,0.9216,-6.7,7.89,-0.11,32.05
14031,0.1539,-0.0229,0.9094,-6.75,11.01,0.02,32.07
14041,0.2065,-0.0258,0.8674,-6.73,7.82,-0.09,32.06
14051,0.1774,-0.0259,0.8854,-6.7,5.11,-0.06,32.06
14061,0.1519,-0.027,0.9238,-6.69,9.07,-0.08,32.06
14071,0.1534,-0.0217,0.9211,-6.76,9.79,-0.05,32.04
14081,0.187,-0.0242,0.8927,-6.75,7.79,-0.12,32.06
14091,0.188,-0.0247,0.8877,-6.72,7.21,-0.02,32.04
14101,0.1763,-0.0299,0.8824,-6.75,6.17,0.05,32.07
14111,0.1646,-0.0273,0.9142,-6.78,7.16,-0.05,32.04
14121,0.1514,-0.0275,0.9109,-6.81,10.2,-0.08,32.04
14131,0.1893,-0.0234,0.886,-6.89,9.19,-0.08,32.04
14141,0.2024,-0.0232,0.861,-6.7,6.37,0.05,32.07
14151,0.1637,-0.0306,0.8876,-6.7,6.7,-0.09,32.06
14161,0.144,-0.0305,0.9037,-6.66,8.92,0.02,32.04
14171,0.1635,-0.0287,0.8932,-6.81,8.27,0.0,32.05
14181,0.1882,-0.0214,0.8977,-6.63,8.26,-0.08,32.06
14191,0.1978,-0.0234,0.8828,-6.72,6.7,-0.03,32.06
14201,0.1738,-0.0254,0.9236,-6.73,6.64,0.02,32.06
14211,0.1432,-0.0266,0.9277,-6.84,10.31,-0.02,32.08
14221,0.1921,-0.0256,0.887,-6.78,9.1,-0.08,32.06
14231,0.1985,-0.0276,0.8645,-6.67,5.89,-0.12,32.08
14241,0.1498,-0.0303,0.9026,-6.63,7.27,-0.05,32.04
14251,0.1483,-0.0344,0.9022,-6.56,9.95,0.03,32.08
14261,0.179,-0.0256,0.8795,-6.61,7.59,0.02,32.06
14271,0.1857,-0.0237,0.9006,-6.6,7.63,-0.05,32.07
14281,0.1962,-0.0231,0.8865,-6.69,6.63,-0.08,32.05
14291,0.1641,-0.0249,0.926,-6.73,7.4,-0.08,32.06
14301,0.1445,-0.0231,0.917,-6.82,10.15,-0.08,32.05
14311,0.1893,-0.024,0.8882,-6.84,9.33,-0.05,32.06
14321,0.2037,-0.022,0.8727,-6.75,6.17,0.02,32.06
14331,0.1663,-0.0302,0.9088,-6.69,6.61,-0.08,32.07
14341,0.1401,-0.0312,0.9215,-6.61,10.27,-0.11,32.06
14351,0.1855,-0.0262,0.8724,-6.61,8.32,-0.06,32.05
14361,0.1913,-0.0281,0.8783,-6.69,6.53,0.0,32.06
14371,0.1656,-0.0277,0.8917,-6.73,7.31,-0.02,32.09
14381,0.1531,-0.0294,0.9205,-6.76,8.98,0.02,32.06
14391,0.1686,-0.0232,0.8949,-6.81,9.24,-0.02,32.06
14401,0.1991,-0.022,0.8768,-6.78,7.79,-0.03,32.05
14411,0.1951,-0.0217,0.8761,-6.64,5.8,0.03,32.05
14421,0.153,-0.027,0.9155,-6.72,7.31,-0.08,32.06
14431,0.1447,-0.026,0.9192,-6.63,10.02,-0.03,32.06
14441,0.1934,-0.0238,0.8822,-6.63,8.37,-0.08,32.06
14451,0.202,-0.0206,0.8942,-6.72,6.0,-0.18,32.07
14461,0.1672,-0.0256,0.9049,-6.76,7.02,-0.03,32.08
14471,0.1509,-0.03,0.9309,-6.85,9.45,-0.06,32.07
14481,0.1672,-0.0215,0.9021,-6.87,9.8,0.08,32.06
14491,0.2019,-0.0231,0.8728,-6.76,8.17,-0.05,32.04
14501,0.1891,-0.0251,0.868,-6.78,6.12,-0.02,32.05
14511,0.1366,-0.03,0.908,-6.81,8.14,-0.09,32.07
14521,0.1603,-0.0284,0.9039,-6.7,10.11,-0.05,32.09
14531,0.2014,-0.0238,0.8695,-6.61,6.99,-0.05,32.06
14541,0.1943,-0.0244,0.9033,-6.66,6.08,-0.09,32.07
14551,0.1539,-0.0255,0.9178,-6.81,8.23,-0.08,32.09
14561,0.1588,-0.031,0.9231,-6.84,9.74,-0.05,32.05
14571,0.1761,-0.0278,0.8796,-6.79,9.24,-0.11,32.06
14581,0.2035,-0.0249,0.8569,-6.75,7.24,-0.02,32.06
14591,0.1877,-0.0311,0.8691,-6.7,5.37,0.0,32.08
14601,0.1392,-0.0303,0.9196,-6.55,8.03,-0.02,32.07
14611,0.162,-0.0225,0.9169,-6.61,9.94,-0.03,32.09
14621,0.2014,-0.0212,0.886,-6.67,7.74,-0.14,32.06
14631,0.1964,-0.0221,0.8983,-6.72,6.31,-0.05,32.11
14641,0.1599,-0.0269,0.9154,-6.81,8.31,-0.05,32.08
14651,0.1625,-0.0283,0.9165,-6.82,9.42,-0.06,32.09
14661,0.1692,-0.0242,0.8772,-6.72,9.44,0.0,32.07
14671,0.2013,-0.0248,0.845,-6.76,6.5,0.0,32.07
14681,0.1693,-0.0278,0.8749,-6.69,5.69,-0.08,32.05
14691,0.1362,-0.0256,0.9319,-6.69,8.99,-0.09,32.07
14701,0.1765,-0.0155,0.9196,-6.73,9.56,-0.03,32.07
14711,0.2032,-0.0155,0.8893,-6.79,7.21,-0.06,32.05
14721,0.1957,-0.0184,0.9193,-6.78,6.56,-0.09,32.05
14731,0.1522,-0.0243,0.9349,-6.84,9.05,0.0,32.06
14741,0.1664,-0.0256,0.9119,-6.76,10.09,-0.11,32.08
14751,0.1812,-0.0248,0.8696,-6.78,9.21,0.05,32.07
14761,0.2058,-0.0249,0.8525,-6.81,6.73,-0.09,32.09
14771,0.1819,-0.0299,0.8778,-6.67,6.11,-0.14,32.07
14781,0.1461,-0.0283,0.9135,-6.64,8.21,0.0,32.08
14791,0.1696,-0.0272,0.9056,-6.7,9.91,-0.05,32.06
14801,0.2107,-0.0251,0.8678,-6.66,6.6,-0.03,32.06
14811,0.1841,-0.0284,0.9055,-6.67,6.24,-0.06,32.05
14821,0.1642,-0.0288,0.9059,-6.69,6.82,-0.06,32.09
14831,0.1678,-0.031,0.9036,-6.82,9.94,0.05,32.06
14841,0.1841,-0.0284,0.8621,-6.78,8.4,-0.02,32.07
14851,0.1986,-0.0256,0.8535,-6.66,6.24,-0.06,32.05
14861,0.1937,-0.0264,0.8558,-6.7,6.08,-0.05,32.08
14871,0.1626,-0.0287,0.8893,-6.7,5.88,-0.09,32.08
14881,0.1482,-0.0258,0.9331,-6.75,9.5,0.0,32.1
14891,0.1826,-0.0234,0.8918,-6.73,9.68,-0.02,32.06
14901,0.2025,-0.0239,0.8829,-6.6,6.29,0.02,32.07
14911,0.1587,-0.0261,0.9076,-6.73,6.81,0.02,32.08
14921,0.1603,-0.0244,0.9125,-6.78,8.96,-0.05,32.1
14931,0.1754,-0.0206,0.882,-6.76,9.3,-0.05,32.05
14941,0.1899,-0.025,0.8673,-6.69,7.04,-0.05,32.07
14951,0.1798,-0.0243,0.8871,-6.66,5.73,-0.08,32.08
14961,0.1538,-0.0245,0.9218,-6.78,7.57,-0.08,32.08
14971,0.1649,-0.0205,0.938,-6.75,10.17,-0.05,32.09
14981,0.1964,-0.026,0.8984,-6.69,9.1,-0.05,32.08
14991,0.2028,-0.0254,0.9008,-6.7,6.4,-0.12,32.06
15001,0.1603,-0.0302,0.9119,-6.72,7.92,-0.03,32.04
15011,0.1542,-0.0303,0.9153,-6.82,9.79,-0.06,32.06
15021,0.1804,-0.0272,0.8763,-6.79,10.0,-0.08,32.05
15031,0.1906,-0.0275,0.8578,-6.75,6.9,0.02,32.07
15041,0.1715,-0.0281,0.8781,-6.69,6.09,-0.02,32.09
15051,0.1536,-0.0292,0.9004,-6.73,7.22,-0.05,32.09
15061,0.1603,-0.0254,0.9288,-6.66,9.5,0.08,32.09
15071,0.1896,-0.0198,0.8983,-6.67,8.99,-0.06,32.08
15081,0.2086,-0.0247,0.8997,-6.67,6.08,-0.12,32.07
15091,0.1503,-0.0264,0.9208,-6.69,7.95,-0.06,32.07
15101,0.156,-0.0253,0.9049,-6.73,10.66,-0.03,32.08
15111,0.1934,-0.0258,0.8489,-6.73,8.67,0.02,32.07
15121,0.1858,-0.025,0.8578,-6.73,5.97,0.06,32.09
15131,0.1661,-0.0222,0.896,-6.67,6.52,-0.02,32.06
15141,0.158,-0.0264,0.9172,-6.72,8.05,-0.03,32.09
15151,0.1736,-0.0237,0.9336,-6.76,9.63,-0.08,32.06
15161,0.192,-0.0216,0.8999,-6.69,8.84,-0.06,32.05
15171,0.2087,-0.0276,0.8904,-6.69,5.77,-0.05,32.08
15181,0.1489,-0.0283,0.9115,-6.75,8.12,-0.06,32.07
15191,0.157,-0.0288,0.9016,-6.79,10.15,-0.08,32.05
15201,0.1842,-0.0277,0.8619,-6.72,9.27,-0.05,32.06
15211,0.1849,-0.0287,0.8578,-6.63,6.27,-0.05,32.08
15221,0.1573,-0.0284,0.9006,-6.67,6.72,-0.09,32.08
15231,0.1511,-0.028,0.9093,-6.73,8.72,-0.05,32.05
15241,0.1882,-0.0205,0.9127,-6.67,9.21,-0.05,32.08
15251,0.1947,-0.0209,0.8965,-6.81,7.63,-0.05,32.04
15261,0.1975,-0.0264,0.9054,-6.72,6.03,-0.08,32.06
15271,0.1451,-0.0304,0.928,-6.75,8.72,-0.05,32.07
15281,0.1641,-0.0249,0.907,-6.82,10.66,-0.02,32.08
15291,0.1945,-0.0277,0.8616,-6.79,8.66,0.02,32.09
15301,0.1868,-0.0266,0.86,-6.76,5.6,-0.05,32.07
15311,0.1556,-0.0278,0.9064,-6.69,7.24,-0.11,32.09
15321,0.1602,-0.0248,0.9087,-6.67,8.64,0.02,32.07
15331,0.1794,-0.0222,0.9156,-6.69,9.56,0.0,32.07
15341,0.189,-0.0262,0.8812,-6.79,8.06,0.03,32.09
15351,0.2001,-0.0247,0.8823,-6.67,6.0,-0.03,32.06
15361,0.152,-0.0223,0.8998,-6.78,7.4,-0.03,32.09
15371,0.1555,-0.0227,0.9113,-6.85,10.64,-0.06,32.08
15381,0.2028,-0.0229,0.8715,-6.76,7.51,-0.02,32.08
15391,0.1859,-0.0226,0.8956,-6.73,5.42,-0.09,32.09
15401,0.1536,-0.0251,0.9329,-6.6,8.32,-0.06,32.08
15411,0.1613,-0.0265,0.9093,-6.64,9.63,-0.02,32.08
15421,0.1847,-0.0261,0.8882,-6.61,8.93,-0.03,32.08
15431,0.1885,-0.028,0.8693,-6.72,7.15,-0.08,32.08
15441,0.1865,-0.0286,0.8933,-6.69,5.91,0.0,32.09
15451,0.1477,-0.025,0.9241,-6.79,8.03,0.02,32.09
15461,0.1616,-0.0255,0.922,-6.9,10.87,0.03,32.08
15471,0.2,-0.021,0.8696,-6.72,8.06,0.0,32.07
15481,0.1908,-0.0288,0.8774,-6.61,5.6,0.02,32.09
15491,0.1544,-0.0315,0.9109,-6.69,7.76,-0.08,32.07
15501,0.1639,-0.0302,0.8976,-6.56,9.83,0.05,32.08
15511,0.1963,-0.0293,0.8777,-6.67,7.65,-0.03,32.07
15521,0.1829,-0.0293,0.8801,-6.7,6.66,-0.05,32.08
15531,0.1718,-0.0325,0.9034,-6.69,6.66,-0.03,32.06
15541,0.1464,-0.0238,0.9082,-6.72,8.98,-0.03,32.07
15551,0.1681,-0.0303,0.8972,-6.73,10.05,-0.06,32.11
15561,0.1774,-0.0251,0.884,-6.82,9.37,-0.08,32.08
15571,0.1993,-0.0227,0.8677,-6.73,6.18,-0.08,32.06
15581,0.1803,-0.0244,0.9083,-6.78,6.12,-0.03,32.07
15591,0.1603,-0.0251,0.9069,-6.76,10.11,0.0,32.09
15601,0.1738,-0.0242,0.9026,-6.64,9.5,0.0,32.07
15611,0.1814,-0.0209,0.8737,-6.5,7.8,-0.05,32.07
15621,0.1987,-0.0216,0.8794,-6.7,6.03,-0.03,32.07
15631,0.1729,-0.0229,0.9174,-6.61,6.81,-0.02,32.08
15641,0.1458,-0.0219,0.9408,-6.87,10.12,-0.03,32.08
15651,0.1758,-0.0211,0.9001,-6.81,10.05,-0.06,32.09
15661,0.2086,-0.0211,0.8508,-6.75,6.29,-0.05,32.09
15671,0.1749,-0.0244,0.8932,-6.6,6.38,-0.11,32.09
15681,0.1373,-0.0247,0.9125,-6.73,9.59,0.05,32.07
15691,0.1749,-0.0275,0.9092,-6.69,9.19,0.0,32.08
15701,0.2,-0.0198,0.89,-6.73,7.33,-0.05,32.08
15712,0.2054,-0.0177,0.9041,-6.73,7.11,-0.02,32.07
15722,0.1818,-0.0228,0.9115,-6.75,6.99,-0.11,32.09
15732,0.1495,-0.0276,0.9219,-6.7,8.78,-0.09,32.1
15742,0.1636,-0.0244,0.9098,-6.81,10.78,-0.05,32.06
15752,0.2041,-0.0226,0.8431,-6.84,8.05,-0.08,32.08
15762,0.1898,-0.0304,0.8572,-6.75,5.44,0.0,32.08
15772,0.1447,-0.0265,0.9009,-6.73,7.74,-0.09,32.09
15782,0.1721,-0.0261,0.9155,-6.67,8.37,-0.12,32.09
15792,0.1827,-0.0248,0.9058,-6.69,8.61,-0.06,32.09
15802,0.1925,-0.0238,0.8861,-6.73,8.15,-0.11,32.07
15812,0.1863,-0.0264,0.8777,-6.69,6.5,-0.09,32.09
15822,0.1414,-0.0309,0.9136,-6.66,7.91,-0.09,32.11
15832,0.1611,-0.0245,0.9181,-6.76,10.43,-0.03,32.09
15842,0.202,-0.0239,0.8597,-6.78,7.94,0.02,32.08
15852,0.1887,-0.0316,0.8757,-6.72,5.27,-0.03,32.09
15862,0.1302,-0.0303,0.9119,-6.75,8.55,-0.02,32.11
15872,0.1722,-0.0302,0.9039,-6.69,9.25,0.05,32.09
15882,0.1957,-0.0217,0.885,-6.76,7.22,0.05,32.12
15892,0.1873,-0.0226,0.9147,-6.75,7.28,0.08,32.07
15902,0.1827,-0.0259,0.9042,-6.76,6.92,0.0,32.1
15912,0.147,-0.0293,0.9279,-6.72,8.14,-0.11,32.09
15922,0.1582,-0.0245,0.9109,-6.76,10.84,-0.09,32.07
15932,0.2061,-0.026,0.8423,-6.66,7.51,-0.03,32.09
15942,0.1722,-0.0359,0.8793,-6.76,5.44,-0.08,32.12
15952,0.1324,-0.031,0.9169,-6.84,9.04,0.02,32.11
15962,0.1875,-0.0232,0.9053,-6.75,9.15,0.0,32.09
15972,0.2061,-0.0197,0.8909,-6.73,6.09,-0.05,32.1
15982,0.1777,-0.0238,0.9252,-6.69,7.42,0.03,32.1
15992,0.1572,-0.027,0.922,-6.75,9.07,-0.08,32.09
16002,0.1599,-0.0288,0.8933,-6.76,9.4,0.03,32.1
16012,0.1807,-0.0259,0.8739,-6.75,9.02,0.03,32.09
16022,0.1949,-0.026,0.8501,-6.69,6.78,-0.08,32.1
16032,0.1768,-0.03,0.8972,-6.67,5.8,-0.05,32.09
16042,0.1359,-0.0271,0.9307,-6.72,9.24,-0.08,32.12
16052,0.1846,-0.0237,0.9004,-6.67,9.56,-0.02,32.07
16062,0.1974,-0.0194,0.8762,-6.69,7.1,0.05,32.09
16072,0.1819,-0.0264,0.89,-6.64,6.95,-0.03,32.08
16082,0.1564,-0.0272,0.9086,-6.76,8.31,0.0,32.09
16092,0.1508,-0.0275,0.9067,-6.92,9.1,-0.03,32.09
16102,0.1875,-0.0219,0.894,-6.84,9.08,-0.03,32.08
16112,0.2035,-0.0261,0.8704,-6.84,6.34,0.0,32.09
16122,0.1714,-0.0288,0.9086,-6.7,6.17,-0.06,32.11
16132,0.1299,-0.0267,0.9224,-6.72,10.63,-0.02,32.1
16142,0.2002,-0.0253,0.8763,-6.67,8.56,0.0,32.1
16152,0.1952,-0.0192,0.887,-6.64,5.66,-0.06,32.06
16162,0.1655,-0.0251,0.9327,-6.81,7.66,-0.03,32.07
16172,0.1611,-0.0249,0.9268,-6.78,9.65,0.03,32.06
16182,0.1669,-0.0289,0.9008,-6.79,9.79,0.09,32.1
16192,0.1897,-0.0233,0.864,-6.76,8.75,-0.06,32.07
16202,0.1974,-0.0325,0.8408,-6.7,5.73,0.03,32.09
16212,0.1599,-0.0375,0.8951,-6.66,6.31,-0.08,32.13
16222,0.145,-0.0275,0.9105,-6.61,7.36,-0.02,32.12
16232,0.2074,-0.0239,0.8912,-6.7,8.38,-0.06,32.09
16242,0.2006,-0.0267,0.8909,-6.76,5.24,0.06,32.11
16252,0.1472,-0.0319,0.9285,-6.72,8.61,-0.09,32.09
16262,0.1595,-0.0308,0.902,-6.75,10.44,-0.02,32.09
16272,0.1876,-0.0293,0.8622,-6.7,7.5,-0.08,32.1
16286,0.1807,-0.0254,0.9132,-6.76,8.05,0.03,32.1
16296,0.1753,-0.0265,0.8848,-6.75,8.49,-0.12,32.1
16306,0.1603,-0.0293,0.8976,-6.67,8.24,-0.11,32.11
16316,0.1547,-0.0258,0.9087,-6.84,10.15,-0.09,32.11
16326,0.2092,-0.025,0.8491,-6.78,7.97,-0.03,32.09
16336,0.1489,-0.0304,0.9133,-6.66,6.79,-0.03,32.09
16346,0.1298,-0.0316,0.9141,-6.66,9.83,0.02,32.09
16356,0.2063,-0.0282,0.868,-6.66,6.7,0.05,32.1
16366,0.1927,-0.0276,0.874,-6.67,5.77,-0.02,32.11
16376,0.1742,-0.0233,0.9186,-6.7,7.37,-0.02,32.1
16386,0.1655,-0.0283,0.9186,-6.72,8.85,-0.09,32.1
16396,0.1609,-0.0277,0.9125,-6.7,9.19,-0.08,32.12
16406,0.1772,-0.0272,0.8812,-6.66,9.3,-0.02,32.09
16416,0.2031,-0.0254,0.8352,-6.66,5.66,-0.03,32.12
16426,0.1666,-0.0297,0.8883,-6.69,5.95,-0.06,32.11
16436,0.1355,-0.028,0.9235,-6.66,9.01,-0.02,32.09
16446,0.1764,-0.0214,0.9215,-6.72,9.1,0.0,32.09
16456,0.2034,-0.0205,0.8959,-6.63,6.96,-0.12,32.13
16466,0.1836,-0.0243,0.9115,-6.67,6.72,-0.05,32.12
16476,0.1516,-0.0292,0.9266,-6.69,9.4,-0.03,32.13
16486,0.1586,-0.0259,0.9005,-6.76,10.14,-0.03,32.09
16496,0.1907,-0.0242,0.8683,-6.7,8.6,-0.05,32.09
16506,0.1937,-0.0271,0.8652,-6.69,5.54,-0.12,32.1
16516,0.1603,-0.0254,0.9275,-6.75,7.73,-0.06,32.12
16526,0.155,-0.0249,0.92,-6.69,10.12,-0.05,32.12
16536,0.1904,-0.0238,0.8979,-6.69,8.78,-0.09,32.12
16546,0.2,-0.0198,0.8754,-6.61,6.49,-0.03,32.12
16556,0.1747,-0.025,0.9071,-6.69,6.96,0.02,32.1
16566,0.1516,-0.0265,0.9183,-6.79,9.07,-0.06,32.09
16576,0.1538,-0.0275,0.9148,-6.78,10.4,-0.09,32.09
16586,0.1996,-0.0243,0.8715,-6.73,8.87,0.0,32.12
16596,0.1954,-0.0278,0.8574,-6.76,5.13,-0.05,32.11
16606,0.149,-0.0315,0.9069,-6.67,7.56,-0.02,32.12
16616,0.1512,-0.0288,0.9015,-6.7,9.71,0.0,32.09
16626,0.1897,-0.0267,0.9028,-6.82,7.79,-0.03,32.07
16636,0.1953,-0.0211,0.9014,-6.72,6.82,-0.11,32.09
16646,0.1833,-0.0205,0.9092,-6.78,7.39,-0.11,32.09
16656,0.1517,-0.0312,0.912,-6.85,9.53,-0.05,32.12
16666,0.1589,-0.0308,0.8804,-6.7,9.5,-0.02,32.07
16676,0.1838,-0.0276,0.8634,-6.6,7.63,-0.06,32.11
16686,0.184,-0.0283,0.8649,-6.69,5.3,-0.06,32.08
16696,0.1519,-0.031,0.9286,-6.69,7.48,-0.06,32.11
16706,0.1543,-0.0217,0.929,-6.66,10.21,-0.06,32.09
16716,0.2073,-0.0215,0.9038,-6.7,8.0,-0.08,32.08
16726,0.1931,-0.0251,0.9032,-6.72,6.24,-0.09,32.1
16736,0.155,-0.028,0.9244,-6.75,8.56,-0.11,32.1
16746,0.1544,-0.027,0.9019,-6.84,10.84,0.03,32.12
16756,0.1735,-0.0306,0.8619,-6.7,8.26,-0.06,32.15
16766,0.1793,-0.0267,0.8789,-6.69,7.5,0.06,32.11
16776,0.1953,-0.0271,0.8801,-6.73,6.44,0.06,32.11
16786,0.1652,-0.0291,0.9197,-6.76,7.01,-0.02,32.12
16796,0.1404,-0.0267,0.9202,-6.66,10.9,-0.15,32.1
16806,0.2091,-0.0255,0.8683,-6.67,7.65,-0.02,32.09
16816,0.1807,-0.0238,0.8877,-6.61,5.53,0.03,32.12
16826,0.1534,-0.0237,0.9258,-6.7,8.72,0.06,32.1
16836,0.1636,-0.0238,0.9098,-6.79,10.5,0.06,32.1
16846,0.1725,-0.0247,0.9001,-6.85,9.65,0.0,32.09
16856,0.2018,-0.026,0.8704,-6.69,6.02,-0.05,32.12
16866,0.1664,-0.0271,0.8884,-6.78,6.47,-0.08,32.09
16876,0.1488,-0.0287,0.9178,-6.69,9.21,0.0,32.12
16886,0.1672,-0.0223,0.8949,-6.75,9.51,-0.05,32.09
16896,0.2096,-0.0215,0.8864,-6.61,6.9,-0.03,32.12
16906,0.2078,-0.0178,0.8846,-6.66,6.15,-0.02,32.11
16916,0.1576,-0.0198,0.9338,-6.76,8.76,0.03,32.08
16926,0.1562,-0.0261,0.9116,-6.85,10.6,0.02,32.09
16936,0.1617,-0.025,0.9025,-6.81,9.62,0.02,32.08
16946,0.1992,-0.0254,0.8553,-6.76,6.66,-0.05,32.13
16956,0.1733,-0.0293,0.8756,-6.72,5.62,-0.05,32.1
16966,0.1466,-0.033,0.918,-6.66,7.13,-0.03,32.1
16976,0.198,-0.0217,0.8921,-6.79,9.25,0.0,32.08
16986,0.2084,-0.028,0.8921,-6.72,5.34,-0.02,32.12
16996,0.1571,-0.028,0.9188,-6.72,7.92,-0.09,32.12
17006,0.1541,-0.028,0.9088,-6.73,10.21,-0.02,32.13
17016,0.1785,-0.0294,0.8673,-6.73,9.22,-0.03,32.1
17026,0.1819,-0.0345,0.8582,-6.81,7.97,-0.06,32.09
17036,0.1788,-0.0314,0.8849,-6.75,6.56,-0.11,32.11
17046,0.1688,-0.0295,0.8964,-6.63,6.79,0.0,32.11
17056,0.1479,-0.0299,0.9308,-6.64,9.16,-0.03,32.11
17066,0.1367,-0.0275,0.9204,-6.67,9.88,0.05,32.09
17076,0.2123,-0.0228,0.8754,-6.61,5.95,-0.06,32.09
17086,0.1959,-0.0247,0.8835,-6.61,5.34,-0.05,32.11
17096,0.1445,-0.0212,0.9379,-6.81,10.7,0.0,32.1
17106,0.161,-0.0243,0.9159,-6.7,10.58,-0.05,32.11
17116,0.1982,-0.0229,0.8649,-6.73,7.53,0.05,32.12
17126,0.1871,-0.0247,0.8842,-6.67,6.38,-0.05,32.12
17136,0.1573,-0.0283,0.8943,-6.64,7.15,0.03,32.09
17146,0.1499,-0.0255,0.9207,-6.75,8.87,-0.05,32.1
17156,0.1643,-0.0203,0.8966,-6.73,9.22,0.06,32.12
17166,0.2064,-0.0192,0.8859,-6.66,6.92,-0.05,32.12
17176,0.1888,-0.0197,0.9058,-6.85,6.47,0.02,32.11
17186,0.151,-0.0269,0.9319,-6.85,8.49,0.06,32.11
17196,0.1552,-0.0269,0.9136,-6.9,11.21,0.03,32.12
17206,0.1979,-0.0281,0.8511,-6.84,7.91,-0.03,32.09
17216,0.1874,-0.0303,0.866,-6.7,6.06,-0.06,32.1
17226,0.1584,-0.0292,0.8921,-6.63,7.16,0.03,32.12
17236,0.1445,-0.0294,0.9301,-6.78,9.31,-0.03,32.12
17246,0.1855,-0.0251,0.8975,-6.67,9.37,0.06,32.11
17256,0.2086,-0.0249,0.8835,-6.69,5.63,-0.09,32.14
17266,0.1566,-0.0265,0.9111,-6.75,7.68,-0.03,32.1
17278,0.1968,-0.0222,0.885,-6.73,7.05,0.05,32.12
17288,0.1656,-0.0253,0.913,-6.78,7.95,-0.03,32.1
17298,0.1547,-0.0276,0.9043,-6.82,9.94,0.02,32.11
17308,0.1873,-0.0283,0.8842,-6.7,8.61,0.0,32.11
17318,0.1942,-0.0262,0.8618,-6.7,6.87,-0.11,32.13
17328,0.1923,-0.03,0.8798,-6.7,4.9,-0.02,32.12
17338,0.1387,-0.0255,0.9235,-6.64,8.98,0.03,32.11
17348,0.1791,-0.0198,0.8914,-6.72,10.18,0.05,32.12
17358,0.2147,-0.0173,0.8773,-6.64,6.34,-0.02,32.11
17368,0.1749,-0.0216,0.9062,-6.84,5.73,-0.06,32.12
17378,0.1583,-0.0222,0.9437,-6.87,10.17,-0.08,32.13
17388,0.2029,-0.0234,0.8826,-6.82,9.88,-0.03,32.13
17398,0.2053,-0.0308,0.8671,-6.84,5.74,0.03,32.13
17408,0.1469,-0.021,0.9022,-6.9,8.61,0.05,32.12
17418,0.1974,-0.0211,0.8781,-6.75,7.95,-0.02,32.12
17428,0.1722,-0.03,0.9128,-6.76,6.38,-0.09,32.12
17438,0.153,-0.0284,0.9418,-6.78,11.94,-0.14,32.11
17448,0.2227,-0.0311,0.8768,-6.69,5.37,-0.03,32.13
17458,0.118,-0.0348,0.9524,-6.84,8.96,-0.05,32.11
17468,0.1814,-0.0294,0.8914,-6.85,11.77,0.03,32.14
17478,0.1853,-0.0242,0.854,-6.96,6.35,0.0,32.14
17488,0.1512,-0.0303,0.8876,-6.78,8.38,-0.12,32.12
17498,0.1682,-0.0273,0.8748,-6.92,8.09,-0.05,32.12
17508,0.1857,-0.0245,0.8926,-6.73,7.76,-0.12,32.1
17518,0.1812,-0.0262,0.8992,-6.58,7.74,-0.09,32.11
17528,0.1544,-0.0275,0.9166,-6.66,8.79,-0.09,32.11
17538,0.1814,-0.021,0.9014,-6.73,8.82,-0.18,32.11
17548,0.1891,-0.0306,0.8861,-6.66,5.97,-0.11,32.11
17558,0.1466,-0.0312,0.9264,-6.82,8.79,-0.03,32.12
17568,0.1605,-0.03,0.8975,-6.79,10.41,-0.08,32.13
17578,0.1895,-0.0256,0.8795,-6.81,8.92,-0.08,32.13
17588,0.1533,-0.0337,0.8861,-6.73,6.02,0.06,32.11
17598,0.1451,-0.0255,0.9108,-6.7,9.51,-0.05,32.11
17608,0.1851,-0.0226,0.8818,-6.55,7.91,0.14,32.12
17618,0.1696,-0.0236,0.9119,-6.61,7.22,0.0,32.12
17628,0.1759,-0.0179,0.9132,-6.72,8.31,-0.03,32.12
17638,0.2062,-0.0271,0.8855,-6.78,6.87,-0.06,32.12
17648,0.1438,-0.0282,0.9319,-6.96,9.95,-0.08,32.11
17658,0.1886,-0.0251,0.8633,-6.73,10.08,-0.15,32.1
17668,0.1952,-0.032,0.859,-6.73,5.1,-0.05,32.09
17678,0.1388,-0.033,0.9119,-6.69,8.18,-0.17,32.12
17688,0.1793,-0.0304,0.906,-6.67,9.34,-0.09,32.11
17698,0.1859,-0.0273,0.8922,-6.7,8.49,-0.05,32.1
17708,0.1708,-0.032,0.9153,-6.63,7.51,0.0,32.12
17718,0.1722,-0.0272,0.9099,-6.67,8.82,-0.02,32.11
17728,0.1887,-0.0245,0.8861,-6.66,6.95,-0.05,32.12
17738,0.1576,-0.0294,0.9218,-6.73,8.15,0.0,32.1
17748,0.1647,-0.0214,0.8933,-6.66,10.9,0.02,32.12
17758,0.2156,-0.0281,0.8534,-6.67,5.33,0.0,32.13
17768,0.1362,-0.0291,0.9116,-6.7,7.01,-0.09,32.11
17778,0.1635,-0.0229,0.8954,-6.75,10.38,-0.12,32.12
17788,0.1935,-0.0214,0.8733,-6.72,6.52,0.02,32.11
17798,0.163,-0.0228,0.9124,-6.7,7.48,-0.08,32.13
17808,0.1704,-0.0244,0.9196,-6.82,8.76,-0.09,32.12
17818,0.1885,-0.0253,0.894,-6.7,7.19,-0.09,32.13
17828,0.1716,-0.0248,0.918,-6.76,7.63,0.03,32.12
17838,0.1447,-0.0216,0.9044,-6.87,11.07,-0.11,32.13
17848,0.2034,-0.031,0.8566,-6.76,4.46,0.02,32.12
17858,0.1615,-0.028,0.8885,-6.67,4.41,-0.08,32.11
17868,0.187,-0.0165,0.9102,-6.82,10.49,-0.11,32.13
17878,0.2037,-0.02,0.8936,-6.78,8.09,-0.08,32.12
17888,0.1808,-0.0247,0.9116,-6.6,6.31,-0.03,32.14
17898,0.1642,-0.0203,0.9218,-6.78,9.08,-0.02,32.11
17908,0.1945,-0.0238,0.8762,-6.81,7.69,-0.02,32.14
17918,0.1716,-0.0319,0.9126,-6.93,7.01,-0.12,32.11
17928,0.1423,-0.026,0.9183,-6.92,11.6,-0.11,32.12
17938,0.2244,-0.0253,0.848,-6.67,6.78,0.0,32.09
17948,0.1573,-0.0309,0.8942,-6.73,5.48,-0.02,32.11
17958,0.1431,-0.0243,0.9103,-6.66,11.18,-0.02,32.12
17968,0.201,-0.0215,0.8635,-6.7,7.13,0.03,32.11
17978,0.1694,-0.0282,0.9022,-6.75,6.05,-0.09,32.11
17988,0.1644,-0.0231,0.9299,-6.67,8.85,-0.08,32.1
17998,0.1891,-0.0243,0.8938,-6.82,8.41,-0.06,32.13
18008,0.1727,-0.0277,0.9003,-6.81,7.83,-0.12,32.11
18018,0.1479,-0.0278,0.8853,-6.87,10.43,-0.08,32.09
18028,0.2117,-0.0288,0.834,-6.67,5.92,-0.12,32.12
18038,0.1569,-0.0297,0.8962,-6.67,5.33,-0.03,32.11
18048,0.1504,-0.0289,0.9255,-6.78,10.44,-0.03,32.11
18058,0.1997,-0.0261,0.8861,-6.67,7.63,-0.05,32.14
18068,0.1783,-0.0242,0.9047,-6.72,6.14,0.03,32.13
18078,0.1685,-0.025,0.9205,-6.78,8.31,-0.06,32.11
18088,0.1868,-0.0261,0.8857,-6.73,7.71,-0.05,32.12
18098,0.1616,-0.0258,0.9197,-6.82,8.43,-0.05,32.12
18108,0.1711,-0.0238,0.8895,-6.84,9.59,-0.05,32.12
18118,0.2054,-0.0289,0.8651,-6.73,5.53,-0.03,32.13
18128,0.1398,-0.0238,0.9229,-6.79,8.15,0.02,32.11
18138,0.176,-0.0236,0.8977,-6.66,10.73,-0.06,32.13
18148,0.1981,-0.0232,0.8801,-6.72,6.35,-0.06,32.11
18159,0.1837,-0.0248,0.8979,-6.73,6.29,-0.02,32.13
18169,0.183,-0.0238,0.9255,-6.7,7.69,-0.09,32.12
18179,0.1637,-0.0277,0.9221,-6.85,8.53,-0.06,32.14
18189,0.1598,-0.024,0.9219,-6.87,9.85,-0.14,32.11
18199,0.1737,-0.0264,0.8778,-6.84,9.76,0.02,32.12
18209,0.2037,-0.0259,0.8575,-6.75,6.26,-0.06,32.12
18219,0.1702,-0.0265,0.8901,-6.69,6.9,-0.02,32.14
18229,0.1564,-0.027,0.9125,-6.75,8.79,-0.06,32.13
18239,0.1743,-0.0273,0.9025,-6.66,8.9,0.06,32.11
18249,0.1899,-0.0232,0.8833,-6.75,7.63,-0.08,32.14
18259,0.1965,-0.0267,0.8899,-6.67,6.47,0.02,32.14
18269,0.149,-0.0286,0.915,-6.76,8.15,-0.08,32.14
18279,0.1635,-0.0289,0.9122,-6.82,10.82,-0.05,32.14
18289,0.1984,-0.0211,0.8567,-6.79,7.3,-0.09,32.13
18299,0.184,-0.0247,0.879,-6.7,6.2,0.0,32.12
18309,0.1564,-0.0277,0.8942,-6.7,8.06,-0.05,32.12
18319,0.161,-0.0281,0.9019,-6.72,8.69,0.02,32.12
18329,0.1656,-0.0232,0.9108,-6.7,8.44,-0.02,32.13
18339,0.1873,-0.0203,0.8981,-6.72,8.23,-0.02,32.12
18349,0.2058,-0.0233,0.9004,-6.79,5.71,-0.11,32.13
18359,0.1467,-0.0278,0.9321,-6.75,8.69,-0.11,32.14
18369,0.1698,-0.0282,0.9045,-6.84,10.72,-0.17,32.14
18379,0.1924,-0.0276,0.8572,-6.76,7.05,-0.02,32.13
18389,0.1788,-0.028,0.8839,-6.81,6.27,0.03,32.12
18399,0.1595,-0.0294,0.905,-6.78,8.12,-0.02,32.12
18409,0.162,-0.031,0.9111,-6.67,9.11,-0.02,32.14
18419,0.1782,-0.0211,0.8998,-6.67,8.79,0.02,32.15
18429,0.2046,-0.0259,0.8773,-6.58,5.89,-0.11,32.13
18439,0.1643,-0.0259,0.9237,-6.72,7.04,-0.11,32.14
18449,0.157,-0.0297,0.9136,-6.73,10.35,0.05,32.14
18459,0.176,-0.0284,0.8962,-6.82,8.66,0.05,32.12
18469,0.1641,-0.0259,0.8833,-6.7,8.44,-0.05,32.15
18479,0.1982,-0.0265,0.8602,-6.75,6.7,-0.06,32.12
18489,0.1632,-0.0288,0.8903,-6.72,6.24,0.0,32.13
18499,0.1306,-0.0231,0.9385,-6.76,10.2,-0.02,32.12
18509,0.1984,-0.0214,0.8905,-6.7,8.73,0.06,32.13
18519,0.1909,-0.0221,0.8984,-6.61,5.07,0.05,32.15
18529,0.1584,-0.02,0.9353,-6.81,8.66,-0.02,32.11
18539,0.172,-0.0221,0.896,-6.79,9.91,0.02,32.12
18549,0.1892,-0.0249,0.8861,-6.76,7.53,0.06,32.16
18559,0.1704,-0.0243,0.8895,-6.79,7.63,-0.03,32.13
18569,0.1884,-0.0278,0.8816,-6.76,6.85,0.0,32.14
18579,0.1777,-0.028,0.8802,-6.66,6.08,-0.03,32.13
18589,0.1332,-0.024,0.9291,-6.79,9.04,0.0,32.12
18599,0.2098,-0.0188,0.8752,-6.7,7.37,-0.12,32.12
18609,0.1737,-0.024,0.9089,-6.76,5.42,-0.09,32.11
18619,0.1562,-0.027,0.9412,-6.78,8.44,-0.12,32.14
18629,0.1676,-0.0265,0.9095,-6.81,9.86,-0.08,32.13
18639,0.1853,-0.0278,0.8967,-6.81,8.17,-0.12,32.17
18649,0.1665,-0.0282,0.8822,-6.87,8.5,-0.09,32.1
18659,0.1886,-0.0288,0.8658,-6.79,7.65,-0.02,32.11
18669,0.1765,-0.0332,0.88,-6.87,6.31,-0.03,32.14
18679,0.1504,-0.0289,0.9199,-6.56,8.81,0.03,32.11
18689,0.1805,-0.0251,0.9001,-6.69,8.96,-0.09,32.11
18699,0.2047,-0.0223,0.8729,-6.61,6.09,0.0,32.15
18709,0.1681,-0.0276,0.916,-6.64,6.85,-0.06,32.14
18719,0.145,-0.0282,0.9133,-6.75,10.29,-0.12,32.14
18729,0.1832,-0.028,0.8846,-6.82,8.69,-0.03,32.13
18739,0.1909,-0.0275,0.8606,-6.78,6.34,-0.09,32.12
18749,0.1726,-0.0312,0.8901,-6.75,6.67,-0.02,32.15
18759,0.1467,-0.0293,0.9071,-6.61,8.55,0.02,32.12
18769,0.1605,-0.0277,0.9103,-6.73,8.75,0.05,32.14
18779,0.1735,-0.0217,0.9147,-6.66,8.6,-0.05,32.13
18789,0.2078,-0.0209,0.8884,-6.73,6.64,-0.08,32.14
18799,0.179,-0.0251,0.9248,-6.69,6.47,-0.05,32.14
18809,0.1377,-0.0233,0.9338,-6.78,11.18,-0.05,32.12
18819,0.202,-0.0254,0.8752,-6.76,8.75,-0.12,32.12
18829,0.186,-0.0242,0.8754,-6.87,6.18,-0.11,32.14
18839,0.1733,-0.0208,0.8965,-6.84,7.51,-0.08,32.11
18849,0.1617,-0.0291,0.9121,-6.7,8.26,-0.03,32.13
18859,0.1571,-0.0251,0.9177,-6.72,9.77,0.02,32.14
18869,0.2023,-0.0211,0.8773,-6.72,8.23,-0.02,32.13
18879,0.1926,-0.0262,0.8867,-6.66,4.93,-0.11,32.14
18889,0.1388,-0.0253,0.9426,-6.75,10.03,-0.06,32.14
18899,0.1829,-0.0251,0.8839,-6.84,10.41,-0.14,32.13
18909,0.2029,-0.0258,0.868,-6.79,6.03,-0.05,32.14
18919,0.1593,-0.0258,0.8894,-6.73,7.76,-0.11,32.12
18929,0.181,-0.0255,0.874,-6.75,7.88,-0.09,32.17
18939,0.1672,-0.0297,0.8895,-6.76,7.07,-0.02,32.14
18949,0.147,-0.0231,0.9204,-6.69,9.85,0.0,32.13
18959,0.2097,-0.0232,0.8842,-6.72,7.33,-0.05,32.11
18969,0.1803,-0.0261,0.9021,-6.7,5.51,-0.03,32.15
18979,0.1523,-0.0242,0.933,-6.81,9.66,-0.03,32.11
18989,0.1771,-0.0262,0.8875,-6.79,9.42,-0.08,32.14
18999,0.1964,-0.027,0.8712,-6.78,6.61,-0.08,32.13
19009,0.1666,-0.0267,0.8868,-6.72,6.44,-0.03,32.11
19019,0.1646,-0.0295,0.9062,-6.75,7.8,-0.11,32.12
19029,0.1567,-0.0282,0.9232,-6.78,9.21,-0.05,32.12
19039,0.1729,-0.0238,0.9066,-6.69,9.05,-0.06,32.1
19049,0.1976,-0.0259,0.8876,-6.72,7.07,0.02,32.11
19059,0.1807,-0.026,0.9086,-6.75,6.34,-0.06,32.12
19069,0.1559,-0.0254,0.9362,-6.78,9.62,0.0,32.14
19079,0.1409,-0.025,0.9305,-6.78,10.4,0.02,32.12
19089,0.2035,-0.0273,0.8552,-6.79,7.59,-0.02,32.11
19099,0.1846,-0.03,0.856,-6.63,5.07,-0.14,32.13
19109,0.1503,-0.0276,0.9078,-6.72,7.86,-0.05,32.11
19119,0.1666,-0.022,0.9091,-6.72,9.8,0.02,32.12
19129,0.1932,-0.0234,0.8959,-6.72,7.57,-0.05,32.12
19139,0.1892,-0.024,0.8962,-6.78,6.41,-0.02,32.12
19149,0.1648,-0.0258,0.9072,-6.76,7.51,-0.06,32.11
19159,0.1516,-0.025,0.9187,-6.79,9.57,-0.06,32.16
19169,0.1694,-0.0236,0.8818,-6.81,10.18,0.0,32.13
19179,0.1963,-0.0242,0.8744,-6.76,8.84,0.02,32.14
19189,0.1625,-0.0271,0.8954,-6.73,6.05,-0.02,32.14
19199,0.1545,-0.0248,0.9165,-6.69,9.4,0.0,32.15
19209,0.1866,-0.0228,0.8872,-6.58,8.69,0.0,32.12
19219,0.1777,-0.0255,0.8977,-6.66,7.36,0.03,32.17
19229,0.1877,-0.0234,0.9048,-6.72,7.33,0.0,32.14
19239,0.1791,-0.0264,0.9067,-6.73,6.63,-0.06,32.14
19249,0.1481,-0.0269,0.9326,-6.85,9.98,-0.05,32.13
19259,0.1785,-0.0275,0.8704,-6.81,9.97,-0.06,32.14
19269,0.2001,-0.0312,0.8615,-6.72,5.59,0.0,32.14
19279,0.1443,-0.0278,0.906,-6.66,7.36,-0.15,32.12
19289,0.1669,-0.0266,0.9143,-6.7,9.86,-0.08,32.12
19299,0.1973,-0.0271,0.8905,-6.66,7.77,-0.03,32.12
19309,0.1842,-0.0226,0.8967,-6.61,7.25,0.0,32.15
19319,0.1763,-0.0275,0.902,-6.67,7.18,-0.02,32.15
19329,0.1761,-0.0266,0.8987,-6.73,6.79,-0.06,32.14
19339,0.1538,-0.0292,0.9342,-6.72,9.27,-0.03,32.14
19349,0.1875,-0.026,0.8673,-6.81,8.18,-0.06,32.15
19359,0.2006,-0.0269,0.8591,-6.73,7.6,0.0,32.15
19369,0.1821,-0.0284,0.8546,-6.69,5.4,-0.03,32.14
19379,0.1509,-0.0282,0.9089,-6.56,7.42,0.02,32.14
19389,0.149,-0.0275,0.9202,-6.72,10.23,0.02,32.14
19400,0.1691,-0.026,0.9081,-6.78,9.1,-0.02,32.12
19410,0.2081,-0.0222,0.889,-6.72,6.96,-0.08,32.14
19420,0.1736,-0.0276,0.9077,-6.69,6.78,-0.08,32.12
19430,0.1547,-0.0272,0.9253,-6.78,9.37,0.02,32.14
19440,0.1636,-0.0276,0.8939,-6.75,9.36,0.0,32.16
19450,0.1923,-0.021,0.8744,-6.79,8.03,-0.06,32.14
19460,0.1956,-0.0248,0.8646,-6.73,6.18,-0.14,32.12
19470,0.1611,-0.0294,0.9081,-6.73,6.46,-0.03,32.14
19480,0.1438,-0.0184,0.9248,-6.66,10.03,0.0,32.12
19490,0.1879,-0.02,0.8906,-6.66,8.46,-0.08,32.13
19500,0.2041,-0.0212,0.8966,-6.73,6.29,-0.06,32.14
19510,0.1719,-0.0231,0.9144,-6.78,7.59,0.02,32.14
19520,0.1654,-0.0302,0.9292,-6.73,9.01,-0.06,32.15
19530,0.1558,-0.0262,0.9075,-6.82,9.91,-0.05,32.15
19540,0.1987,-0.0256,0.8654,-6.81,9.25,-0.08,32.12
19550,0.1934,-0.0305,0.8632,-6.78,5.56,0.03,32.16
19560,0.1439,-0.0298,0.9161,-6.69,8.29,-0.02,32.15
19570,0.1626,-0.0242,0.9069,-6.75,9.71,-0.02,32.14
19580,0.2028,-0.0267,0.8818,-6.73,7.33,-0.03,32.14
19590,0.1887,-0.024,0.8983,-6.63,6.58,0.02,32.15
19600,0.1851,-0.0251,0.8914,-6.75,7.27,-0.08,32.15
19610,0.1489,-0.0315,0.92,-6.82,8.85,-0.12,32.12
19620,0.1609,-0.0255,0.8917,-6.81,10.15,-0.11,32.14
19630,0.2087,-0.0272,0.8513,-6.67,6.93,-0.05,32.14
19640,0.1692,-0.0319,0.8795,-6.7,5.44,0.02,32.17
19650,0.135,-0.03,0.9109,-6.7,9.4,-0.08,32.13
19660,0.1754,-0.0236,0.8955,-6.69,8.63,-0.02,32.13
19670,0.1858,-0.0254,0.896,-6.7,6.9,-0.06,32.13
19680,0.1923,-0.0269,0.9126,-6.7,6.79,-0.03,32.14
19690,0.1719,-0.0297,0.9106,-6.75,7.27,-0.05,32.12
19700,0.1473,-0.0248,0.931,-6.87,9.6,-0.05,32.12
19710,0.176,-0.0237,0.8779,-6.82,9.77,-0.03,32.12
19720,0.2072,-0.0251,0.8616,-6.76,5.56,-0.06,32.14
19730,0.1598,-0.03,0.9056,-6.69,6.99,0.03,32.15
19740,0.1478,-0.0286,0.9266,-6.72,9.88,0.03,32.16
19750,0.1768,-0.0226,0.9086,-6.69,9.15,-0.02,32.14
19760,0.1981,-0.0198,0.8876,-6.63,7.11,-0.03,32.13
19770,0.184,-0.0245,0.9059,-6.66,6.46,0.03,32.15
19780,0.1544,-0.0232,0.9219,-6.81,8.75,-0.06,32.13
19790,0.1652,-0.0258,0.9122,-6.82,10.24,-0.06,32.12
19800,0.1847,-0.0243,0.8721,-6.73,8.55,-0.03,32.14
19810,0.2061,-0.0271,0.8555,-6.73,6.0,-0.18,32.13
19820,0.1707,-0.0302,0.8788,-6.7,6.05,-0.02,32.14
19830,0.1382,-0.0255,0.9187,-6.81,9.45,-0.06,32.14
19840,0.1826,-0.0214,0.8926,-6.73,9.4,-0.03,32.15
19850,0.1996,-0.025,0.8856,-6.66,5.53,0.03,32.13
19860,0.1638,-0.0273,0.9268,-6.66,7.77,-0.06,32.14
19870,0.1595,-0.0253,0.9077,-6.76,10.44,-0.09,32.16
19880,0.1909,-0.0269,0.8763,-6.87,8.38,-0.05,32.14
19890,0.1727,-0.0255,0.8755,-6.81,7.24,-0.08,32.15
19900,0.1906,-0.0222,0.8682,-6.89,7.25,0.0,32.16
19910,0.1605,-0.0281,0.9054,-6.81,6.76,-0.08,32.15
19920,0.1464,-0.0242,0.9232,-6.73,10.63,-0.06,32.14
19930,0.2043,-0.0236,0.8793,-6.67,7.5,-0.03,32.13
19940,0.1829,-0.0233,0.899,-6.76,5.54,-0.08,32.14
19950,0.1666,-0.0281,0.9332,-6.72,8.31,-0.12,32.15
19960,0.1588,-0.0269,0.9208,-6.84,8.61,-0.06,32.16
19970,0.1764,-0.0276,0.8977,-6.79,9.83,-0.03,32.17
19980,0.1931,-0.0289,0.8558,-6.76,7.71,-0.11,32.17
19990,0.1882,-0.0303,0.8754,-6.55,5.33,-0.06,32.16
20000,0.1487,-0.0278,0.9142,-6.63,8.02,-0.11,32.14
20010,0.1663,-0.028,0.9104,-6.78,10.14,-0.05,32.13
20020,0.2012,-0.028,0.8781,-6.7,7.13,-0.02,32.14
20030,0.1699,-0.03,0.9017,-6.67,6.29,-0.06,32.17
20040,0.163,-0.0266,0.9131,-6.64,8.44,-0.08,32.16
20050,0.1562,-0.0286,0.9059,-6.79,9.42,-0.08,32.15
20060,0.1842,-0.0265,0.8864,-6.7,9.65,0.05,32.18
20070,0.1946,-0.0293,0.8524,-6.7,6.26,-0.09,32.14
20080,0.1975,-0.0293,0.8698,-6.67,5.73,-0.08,32.13
20090,0.1525,-0.0229,0.9094,-6.69,8.67,0.05,32.14
20100,0.1658,-0.0219,0.9131,-6.64,9.31,0.03,32.14
20110,0.1611,-0.0203,0.9193,-6.73,9.54,0.05,32.16
20120,0.2097,-0.0172,0.8807,-6.75,7.31,0.0,32.15
20130,0.194,-0.0237,0.9095,-6.73,5.77,-0.05,32.18
20140,0.1379,-0.0243,0.9302,-6.89,9.8,-0.08,32.18
20150,0.1819,-0.0228,0.8956,-6.92,9.97,-0.08,32.17
20160,0.1979,-0.0233,0.8595,-6.78,6.26,-0.12,32.13
20170,0.1722,-0.0282,0.8961,-6.73,6.46,-0.02,32.13
20180,0.1506,-0.0272,0.915,-6.69,8.93,-0.11,32.14
20190,0.1628,-0.0278,0.9146,-6.69,9.47,-0.05,32.14
20200,0.1824,-0.0229,0.9014,-6.69,9.15,-0.03,32.15
20210,0.2103,-0.0287,0.8687,-6.69,5.74,-0.09,32.15
20220,0.1613,-0.0288,0.9299,-6.69,7.27,-0.02,32.15
20230,0.1545,-0.0259,0.9196,-6.72,10.92,-0.11,32.18
20240,0.1951,-0.0267,0.8802,-6.73,8.73,-0.08,32.13
20250,0.1853,-0.0278,0.8636,-6.7,7.07,-0.06,32.14
20260,0.1859,-0.0297,0.8663,-6.81,6.31,-0.15,32.14
20270,0.1486,-0.0312,0.8972,-6.63,7.5,-0.05,32.15
20280,0.144,-0.0273,0.9192,-6.73,10.35,-0.06,32.17
20290,0.1976,-0.0249,0.8848,-6.61,7.89,0.0,32.18
20300,0.1903,-0.0289,0.895,-6.66,5.13,0.03,32.19
20310,0.1493,-0.0228,0.9374,-6.75,9.22,0.0,32.17
20320,0.1683,-0.024,0.8943,-6.75,10.2,0.03,32.16
20330,0.1938,-0.0286,0.871,-6.67,7.36,-0.02,32.16
20340,0.1763,-0.0287,0.8771,-6.76,6.02,-0.11,32.17
20350,0.1722,-0.0286,0.8997,-6.7,6.58,0.03,32.18
20360,0.1473,-0.0245,0.9233,-6.69,8.66,-0.03,32.18
20370,0.179,-0.0188,0.9072,-6.72,9.6,-0.09,32.15
20380,0.1992,-0.0212,0.8918,-6.72,6.58,-0.03,32.15
20390,0.1764,-0.026,0.9072,-6.7,6.38,-0.05,32.16
20400,0.1656,-0.0272,0.9299,-6.7,8.64,0.03,32.15
20410,0.1505,-0.0239,0.9172,-6.84,10.72,-0.03,32.15
20420,0.1968,-0.0243,0.8705,-6.76,8.84,-0.05,32.18
20430,0.189,-0.0265,0.8563,-6.84,5.3,-0.03,32.18
20440,0.1543,-0.0275,0.9152,-6.75,8.15,-0.09,32.18
20450,0.1653,-0.0198,0.9009,-6.79,9.82,-0.08,32.17
20460,0.1975,-0.0239,0.8864,-6.73,7.86,0.05,32.15
20470,0.1843,-0.0248,0.9017,-6.7,6.85,-0.08,32.18
20480,0.1715,-0.0265,0.9006,-6.79,7.3,-0.03,32.15
20490,0.1594,-0.0287,0.9148,-6.82,8.72,-0.02,32.15
20500,0.1569,-0.0242,0.8982,-6.81,10.89,-0.14,32.15
20510,0.2064,-0.0312,0.8564,-6.78,7.5,-0.08,32.16
20520,0.1694,-0.0316,0.8734,-6.75,5.1,-0.12,32.14
20530,0.1484,-0.0265,0.9091,-6.66,8.98,-0.03,32.15
20540,0.1786,-0.027,0.8898,-6.67,8.37,-0.03,32.16
20550,0.1771,-0.0228,0.9031,-6.58,8.18,-0.05,32.14
20560,0.2001,-0.0247,0.8978,-6.7,7.16,-0.08,32.17
20570,0.1765,-0.0249,0.9099,-6.73,6.0,-0.03,32.17
20580,0.1479,-0.0255,0.933,-6.75,9.97,-0.09,32.14
20590,0.187,-0.024,0.8646,-6.85,9.82,-0.02,32.17
20600,0.2004,-0.0291,0.8678,-6.7,5.04,-0.06,32.15
20610,0.1331,-0.0303,0.9187,-6.76,8.12,-0.06,32.17
20620,0.1707,-0.0267,0.91,-6.73,9.33,-0.11,32.18
20630,0.1909,-0.0228,0.8955,-6.63,7.57,0.0,32.14
20640,0.1711,-0.0214,0.9137,-6.73,8.6,-0.03,32.17
20650,0.201,-0.0243,0.8905,-6.72,7.47,-0.09,32.14
20660,0.1614,-0.0288,0.9241,-6.82,6.43,-0.05,32.15
20670,0.1553,-0.0227,0.9323,-6.82,11.97,-0.09,32.17
20680,0.1846,-0.025,0.8837,-6.87,11.25,-0.06,32.17
20690,0.1711,-0.0312,0.8853,-6.78,6.15,-0.02,32.17
20700,0.147,-0.03,0.892,-6.73,8.93,-0.05,32.16
20710,0.1807,-0.0278,0.8934,-6.66,7.73,-0.11,32.16
20720,0.1716,-0.0225,0.9044,-6.67,8.21,-0.05,32.18
20730,0.1943,-0.0256,0.8983,-6.69,8.24,0.03,32.16
20740,0.21,-0.0233,0.8837,-6.66,6.64,-0.08,32.17
20750,0.1418,-0.0264,0.9254,-6.79,9.28,-0.09,32.15
20760,0.1851,-0.0259,0.8829,-6.78,9.77,-0.08,32.16
20770,0.1954,-0.0291,0.8542,-6.79,6.35,-0.06,32.16
20780,0.1753,-0.0325,0.8956,-6.73,6.38,-0.03,32.17
20790,0.1454,-0.0275,0.9141,-6.67,8.43,0.06,32.17
20800,0.1545,-0.0277,0.9155,-6.69,8.4,0.05,32.17
20810,0.1943,-0.0204,0.8905,-6.7,8.08,-0.11,32.18
20820,0.1918,-0.0243,0.8927,-6.69,6.38,-0.05,32.18
20830,0.1558,-0.0278,0.9271,-6.76,7.8,-0.08,32.16
20840,0.1565,-0.0244,0.9176,-6.79,9.59,-0.08,32.13
20850,0.1638,-0.0302,0.9249,-6.93,10.02,0.02,32.16
20860,0.1686,-0.0261,0.8877,-6.84,9.89,-0.12,32.15
20870,0.2064,-0.0258,0.8562,-6.69,6.85,0.02,32.15
20880,0.1702,-0.03,0.8796,-6.75,5.56,0.0,32.18
20890,0.1444,-0.0299,0.9214,-6.75,9.42,-0.02,32.15
20900,0.1919,-0.0238,0.8885,-6.66,8.95,-0.03,32.17
20910,0.1931,-0.0272,0.8917,-6.58,6.11,-0.17,32.16
20920,0.1654,-0.028,0.9187,-6.78,7.8,-0.12,32.17
20930,0.1698,-0.0253,0.9031,-6.76,8.63,-0.03,32.16
20940,0.1678,-0.0261,0.9041,-6.84,9.34,-0.05,32.15
20950,0.184,-0.0262,0.871,-6.75,9.15,-0.02,32.17
20960,0.2084,-0.0288,0.8619,-6.72,5.59,-0.06,32.16
20970,0.1466,-0.0311,0.9053,-6.78,6.69,-0.08,32.15
20980,0.158,-0.0242,0.9089,-6.81,9.65,-0.03,32.14
20990,0.1885,-0.0206,0.8921,-6.72,8.32,-0.03,32.18
21000,0.1855,-0.0212,0.9072,-6.76,7.27,0.02,32.15
21010,0.1865,-0.0226,0.9109,-6.76,6.7,0.02,32.17
21020,0.1558,-0.0253,0.9182,-6.75,8.34,-0.06,32.15
21030,0.1652,-0.0209,0.9073,-6.72,10.75,0.05,32.17
21040,0.2021,-0.0276,0.8522,-6.72,6.9,-0.08,32.15
21050,0.1724,-0.0289,0.8944,-6.67,5.71,-0.08,32.15
21060,0.1439,-0.0289,0.9198,-6.66,9.24,-0.08,32.17
21070,0.1785,-0.0253,0.9044,-6.75,9.22,-0.02,32.17
21080,0.1871,-0.0223,0.8918,-6.78,7.86,-0.02,32.16
21090,0.1858,-0.0214,0.8969,-6.66,7.42,-0.05,32.16
21100,0.1782,-0.0266,0.9033,-6.76,6.64,-0.05,32.16
21110,0.1449,-0.0259,0.9275,-6.84,10.06,-0.06,32.17
21120,0.1948,-0.0265,0.884,-6.92,10.29,0.02,32.19
21130,0.1908,-0.0319,0.8546,-6.76,6.4,0.05,32.14
21140,0.1681,-0.0298,0.8832,-6.66,6.7,0.0,32.18
21150,0.151,-0.0334,0.8971,-6.7,8.11,-0.02,32.17
21160,0.1484,-0.0293,0.9081,-6.64,8.98,-0.03,32.17
21170,0.198,-0.0245,0.8875,-6.64,7.33,-0.09,32.17
21180,0.1846,-0.0298,0.9054,-6.64,5.92,-0.02,32.18
21190,0.1462,-0.0265,0.9264,-6.69,8.99,-0.03,32.19
21200,0.1693,-0.0275,0.8867,-6.75,9.95,-0.03,32.17
21210,0.1969,-0.0245,0.87,-6.75,7.16,-0.05,32.17
21220,0.174,-0.0242,0.8724,-6.69,7.89,-0.02,32.17
21230,0.1764,-0.0332,0.8962,-6.69,6.15,0.0,32.16
21240,0.1367,-0.0271,0.9268,-6.69,8.93,0.03,32.16
21250,0.183,-0.0229,0.9011,-6.56,9.69,-0.02,32.16
21260,0.2009,-0.0253,0.882,-6.67,5.68,0.02,32.18
21270,0.1594,-0.0255,0.9285,-6.73,7.34,-0.09,32.14
21280,0.1627,-0.0216,0.9275,-6.84,9.02,0.0,32.17
21290,0.1689,-0.0265,0.9033,-6.76,8.89,-0.03,32.19
21300,0.1805,-0.0233,0.8936,-6.67,8.99,-0.02,32.17
21310,0.1946,-0.0292,0.855,-6.67,7.04,-0.09,32.18
21320,0.1665,-0.0302,0.8988,-6.76,5.91,-0.06,32.15
21330,0.1432,-0.0264,0.9309,-6.69,10.61,-0.03,32.17
21340,0.1781,-0.0205,0.9087,-6.75,10.61,-0.06,32.17
21350,0.186,-0.0251,0.907,-6.69,6.17,-0.09,32.16
21360,0.1531,-0.0267,0.9218,-6.9,9.19,-0.05,32.17
21370,0.1697,-0.027,0.8971,-6.85,9.21,-0.09,32.2
21380,0.1757,-0.0238,0.8801,-6.89,8.75,-0.06,32.17
21390,0.2007,-0.0282,0.8712,-6.76,7.57,-0.02,32.18
21400,0.1985,-0.0276,0.853,-6.78,6.82,-0.11,32.15
21410,0.1487,-0.0283,0.9178,-6.66,8.23,-0.05,32.17
21420,0.1595,-0.0251,0.9022,-6.7,9.08,-0.08,32.18
21430,0.1964,-0.0221,0.895,-6.7,8.27,-0.05,32.16
21440,0.2009,-0.0239,0.8906,-6.76,6.6,-0.03,32.18
21450,0.1611,-0.0309,0.9176,-6.69,7.08,-0.08,32.19
21460,0.1479,-0.0262,0.9315,-6.85,8.41,-0.11,32.18
21470,0.204,-0.0253,0.8502,-6.79,7.73,-0.05,32.16
21480,0.1791,-0.0314,0.885,-6.67,5.24,-0.05,32.16
21490,0.1428,-0.0303,0.9098,-6.7,9.5,-0.03,32.19
21500,0.1868,-0.0291,0.8942,-6.67,7.92,-0.03,32.17
21510,0.16,-0.0244,0.9159,-6.72,7.83,-0.06,32.19
21520,0.1842,-0.0223,0.9067,-6.7,9.34,-0.08,32.19
21530,0.2041,-0.0299,0.8793,-6.73,5.79,-0.09,32.14
21540,0.1422,-0.0311,0.9303,-6.75,8.11,-0.02,32.15
21550,0.1638,-0.0293,0.9104,-6.79,11.22,-0.05,32.17
21560,0.2025,-0.0298,0.8518,-6.76,6.89,-0.18,32.17
21570,0.1799,-0.0284,0.884,-6.76,6.18,-0.02,32.15
21580,0.1648,-0.0315,0.8809,-6.79,7.21,-0.03,32.17
21590,0.1652,-0.0319,0.8937,-6.75,7.18,-0.09,32.16
21600,0.1729,-0.0201,0.9056,-6.64,8.96,-0.05,32.16
21610,0.1941,-0.0233,0.8917,-6.69,8.47,-0.15,32.17
21621,0.2064,-0.0272,0.885,-6.66,7.01,-0.14,32.17
21631,0.1766,-0.0275,0.9048,-6.69,5.77,-0.06,32.18
21641,0.1627,-0.0284,0.9222,-6.75,9.07,0.03,32.15
21651,0.1606,-0.0297,0.8956,-6.82,9.98,0.06,32.17
21661,0.1827,-0.0248,0.8774,-6.81,8.81,-0.05,32.16
21671,0.1952,-0.0282,0.8611,-6.7,5.97,-0.02,32.17
21681,0.1663,-0.0267,0.8989,-6.64,6.37,-0.06,32.17
21691,0.1442,-0.0249,0.918,-6.66,9.28,-0.06,32.17
21701,0.1807,-0.0231,0.8989,-6.66,9.36,0.05,32.16
21711,0.1958,-0.0197,0.8895,-6.67,6.79,0.02,32.17
21721,0.1812,-0.0203,0.9088,-6.76,6.32,-0.05,32.17
21731,0.1665,-0.0247,0.9343,-6.79,8.2,0.06,32.16
21741,0.1494,-0.0209,0.9177,-6.89,10.92,-0.09,32.17
21751,0.2042,-0.0245,0.8687,-6.7,8.32,0.0,32.16
21761,0.179,-0.0254,0.8717,-6.92,5.3,-0.05,32.14
21771,0.1464,-0.0267,0.9264,-6.76,8.81,-0.06,32.15
21781,0.1748,-0.025,0.9027,-6.76,9.82,-0.02,32.15
21791,0.1934,-0.0231,0.8979,-6.63,7.86,-0.02,32.17
21801,0.1918,-0.0254,0.892,-6.76,7.04,-0.05,32.19
21811,0.1708,-0.0265,0.9001,-6.81,6.84,-0.12,32.17
21821,0.1497,-0.0256,0.9272,-6.89,9.85,-0.05,32.17
21831,0.1858,-0.0256,0.8727,-6.84,10.18,-0.08,32.2
21841,0.1987,-0.0298,0.8662,-6.7,5.88,-0.08,32.17
21851,0.1505,-0.0284,0.8904,-6.66,7.48,-0.05,32.17
21861,0.1699,-0.0302,0.889,-6.7,7.97,0.03,32.16
21871,0.1671,-0.0282,0.8979,-6.66,7.77,-0.03,32.15
21881,0.1696,-0.0254,0.9125,-6.7,8.84,-0.03,32.17
21891,0.2023,-0.0284,0.8838,-6.63,7.02,-0.02,32.17
21901,0.1581,-0.0287,0.9152,-6.76,6.6,-0.08,32.17
21911,0.1521,-0.0226,0.9154,-6.79,10.9,-0.08,32.18
21921,0.2013,-0.0287,0.8464,-6.78,7.4,-0.05,32.16
21931,0.1738,-0.0303,0.8922,-6.7,5.66,-0.08,32.16
21941,0.1443,-0.0259,0.9122,-6.67,8.95,0.03,32.15
21951,0.1703,-0.0278,0.9061,-6.72,8.52,-0.08,32.17
21961,0.1709,-0.022,0.9066,-6.72,8.82,-0.06,32.17
21971,0.1985,-0.0189,0.8948,-6.69,7.68,0.02,32.19
21981,0.1847,-0.0223,0.9137,-6.67,5.86,0.0,32.17
21991,0.1428,-0.0237,0.9426,-6.84,9.69,-0.06,32.17
22001,0.1868,-0.0233,0.9015,-6.84,10.21,-0.02,32.15
22011,0.1941,-0.0238,0.8661,-6.73,8.03,-0.06,32.18
22021,0.1899,-0.0262,0.8632,-6.67,6.53,-0.15,32.18
22031,0.1497,-0.0302,0.8977,-6.72,6.99,-0.02,32.17
22041,0.1565,-0.0255,0.9213,-6.72,9.88,-0.09,32.17
22051,0.2073,-0.0231,0.8882,-6.73,8.05,-0.05,32.16
22061,0.1897,-0.0215,0.9006,-6.72,5.83,0.0,32.15
22071,0.1472,-0.0264,0.9303,-6.69,9.01,0.03,32.17
22081,0.1663,-0.0265,0.8938,-6.84,9.88,0.0,32.16
22091,0.1898,-0.0236,0.8761,-6.82,8.14,-0.05,32.18
22101,0.1788,-0.0242,0.8746,-6.84,7.59,-0.05,32.17
22111,0.1937,-0.0319,0.8729,-6.69,6.11,-0.02,32.18
22121,0.1362,-0.0297,0.9183,-6.76,7.5,-0.06,32.18
22131,0.1719,-0.0206,0.905,-6.67,10.82,0.02,32.17
22141,0.2161,-0.0222,0.868,-6.67,5.01,0.0,32.19
22151,0.1588,-0.028,0.9301,-6.76,7.37,-0.03,32.16
22161,0.1604,-0.0229,0.9276,-6.81,10.0,-0.06,32.17
22171,0.1854,-0.026,0.8875,-6.84,8.21,0.06,32.16
22181,0.1774,-0.0248,0.886,-6.75,7.79,-0.09,32.18
22191,0.1809,-0.0253,0.8632,-6.78,7.44,-0.11,32.18
22201,0.1774,-0.0336,0.8921,-6.66,6.32,-0.08,32.18
22211,0.1318,-0.0259,0.9329,-6.78,9.56,-0.05,32.16
22221,0.2054,-0.0256,0.892,-6.6,9.16,0.06,32.18
22231,0.1993,-0.0201,0.8876,-6.7,5.28,0.0,32.17
22241,0.156,-0.0249,0.9227,-6.69,8.64,-0.14,32.18
22251,0.1711,-0.0302,0.9039,-6.78,8.82,0.02,32.18
22261,0.1517,-0.0287,0.9052,-6.82,8.93,-0.02,32.19
22271,0.202,-0.0254,0.874,-6.79,8.99,-0.02,32.16
22281,0.1929,-0.0321,0.858,-6.56,4.87,-0.05,32.19
22291,0.1388,-0.0269,0.917,-6.67,8.99,0.03,32.17
22301,0.1735,-0.0311,0.8784,-6.66,9.22,-0.02,32.19
22311,0.1943,-0.0228,0.8934,-6.64,6.02,-0.03,32.22
22321,0.1768,-0.0192,0.9159,-6.6,7.48,-0.02,32.19
22331,0.1837,-0.0234,0.913,-6.73,8.18,0.03,32.17
22341,0.1542,-0.0244,0.9163,-6.73,9.33,-0.05,32.19
22351,0.1652,-0.0251,0.8831,-6.9,9.66,-0.05,32.17
22361,0.2047,-0.0259,0.8578,-6.79,6.05,0.02,32.2
22371,0.1873,-0.0234,0.8665,-6.75,5.82,0.02,32.19
22381,0.1647,-0.0288,0.9214,-6.69,7.31,-0.06,32.17
22391,0.1558,-0.0277,0.9122,-6.73,8.82,0.0,32.18
22401,0.1788,-0.0223,0.9041,-6.75,8.93,-0.06,32.18
22411,0.2021,-0.0199,0.8816,-6.67,7.01,0.03,32.19
22421,0.1769,-0.0249,0.9133,-6.7,6.4,-0.06,32.18
22431,0.1455,-0.0221,0.9435,-6.84,9.74,-0.06,32.17
22441,0.1776,-0.0217,0.8966,-6.78,10.08,-0.03,32.15
22451,0.2003,-0.0226,0.8787,-6.79,7.33,-0.05,32.19
22461,0.1698,-0.0266,0.8721,-6.79,7.59,-0.05,32.19
22471,0.1658,-0.0309,0.8871,-6.69,7.5,-0.02,32.19
22481,0.1493,-0.026,0.9099,-6.7,8.46,0.0,32.18
22491,0.1917,-0.0226,0.899,-6.67,9.69,-0.06,32.19
22501,0.2114,-0.0261,0.8783,-6.63,5.08,-0.08,32.18
22511,0.1393,-0.0275,0.9303,-6.76,8.7,-0.15,32.19
22521,0.1688,-0.0258,0.8917,-6.89,10.34,-0.08,32.17
22531,0.1964,-0.0278,0.8585,-6.73,7.11,-0.05,32.17
22541,0.1812,-0.0277,0.8832,-6.81,6.66,0.0,32.18
22551,0.165,-0.0331,0.8887,-6.72,7.79,-0.12,32.18
22561,0.1642,-0.0343,0.9027,-6.72,7.3,0.03,32.16
22571,0.1361,-0.0238,0.9178,-6.7,10.23,-0.02,32.2
22581,0.2144,-0.0226,0.8651,-6.69,6.96,-0.05,32.2
22591,0.1759,-0.0219,0.9092,-6.73,5.6,0.0,32.19
22601,0.1455,-0.0221,0.9414,-6.84,10.2,0.0,32.19
22611,0.1879,-0.0255,0.8928,-6.79,9.25,0.0,32.19
22621,0.1796,-0.0239,0.8793,-6.7,6.5,-0.03,32.19
22631,0.1698,-0.0225,0.8905,-6.72,7.94,-0.09,32.17
22641,0.1759,-0.0281,0.8802,-6.66,6.96,0.0,32.16
22651,0.1427,-0.0266,0.9399,-6.69,8.67,0.0,32.17
22661,0.173,-0.0229,0.9138,-6.81,10.15,-0.11,32.16
22671,0.2207,-0.0237,0.8833,-6.73,5.54,-0.09,32.19
22681,0.1569,-0.0225,0.9281,-6.89,7.68,0.0,32.17
22691,0.1602,-0.0256,0.9154,-6.73,10.64,-0.05,32.18
22701,0.1807,-0.0267,0.8896,-6.79,9.11,-0.02,32.18
22711,0.189,-0.0244,0.8693,-6.76,7.45,-0.06,32.17
22721,0.1957,-0.0282,0.8785,-6.78,6.21,-0.09,32.17
22731,0.156,-0.0289,0.8983,-6.67,7.25,0.0,32.17
22741,0.1526,-0.0288,0.9159,-6.61,9.88,0.06,32.19
22751,0.1848,-0.0261,0.8853,-6.69,8.14,0.05,32.18
22761,0.1945,-0.0209,0.8971,-6.73,6.24,-0.05,32.19
22771,0.1714,-0.0232,0.9122,-6.81,7.45,-0.06,32.19
22781,0.1505,-0.028,0.9229,-6.82,9.98,-0.06,32.16
22791,0.1755,-0.025,0.8792,-6.79,10.03,-0.05,32.17
22801,0.2046,-0.0288,0.8411,-6.72,5.5,-0.06,32.15
22811,0.1632,-0.0289,0.8999,-6.66,5.98,-0.14,32.17
22821,0.1456,-0.0276,0.9236,-6.75,9.71,-0.09,32.17
22831,0.1947,-0.0233,0.8977,-6.75,8.49,-0.02,32.19
22841,0.1849,-0.0248,0.8971,-6.69,6.4,-0.05,32.2
22851,0.1759,-0.0219,0.9161,-6.75,7.62,-0.15,32.18
22861,0.1737,-0.026,0.9027,-6.81,8.03,-0.05,32.19
22871,0.1467,-0.0284,0.922,-6.78,9.48,-0.08,32.18
22881,0.1781,-0.0254,0.8816,-6.85,10.17,0.0,32.19
22891,0.2037,-0.03,0.8582,-6.67,4.9,-0.03,32.19
22901,0.1479,-0.0272,0.9142,-6.67,8.0,-0.06,32.18
22911,0.162,-0.0254,0.8918,-6.69,10.18,-0.08,32.16
22921,0.2012,-0.0254,0.8781,-6.7,6.55,-0.02,32.2
22931,0.1719,-0.0233,0.9135,-6.72,6.79,-0.03,32.19
22941,0.1747,-0.0229,0.9244,-6.72,8.15,-0.12,32.21
22951,0.1729,-0.0261,0.9042,-6.75,8.35,-0.08,32.21
22961,0.158,-0.0262,0.9023,-6.85,10.11,0.02,32.19
22971,0.1943,-0.0271,0.8552,-6.72,8.21,-0.03,32.18
22981,0.1782,-0.0281,0.8702,-6.66,4.9,-0.06,32.18
22991,0.1425,-0.0237,0.9313,-6.67,9.21,-0.03,32.2
23001,0.1809,-0.0233,0.8929,-6.6,9.24,-0.05,32.18
23011,0.1923,-0.0215,0.897,-6.7,7.24,0.06,32.18
23021,0.1752,-0.0221,0.8948,-6.72,7.66,-0.05,32.17
23031,0.1786,-0.0288,0.9084,-6.79,6.85,-0.09,32.21
23041,0.1522,-0.0212,0.9264,-6.85,9.37,-0.03,32.17
23051,0.1892,-0.0232,0.8884,-6.79,10.05,0.0,32.18
23061,0.1979,-0.0311,0.8656,-6.72,5.57,-0.02,32.17
23071,0.1366,-0.0297,0.9143,-6.82,8.29,-0.09,32.16
23081,0.1564,-0.0262,0.9125,-6.75,9.22,-0.05,32.16
23091,0.1748,-0.0251,0.8873,-6.79,9.04,-0.14,32.19
23101,0.1858,-0.024,0.9116,-6.79,7.8,0.0,32.19
23111,0.1802,-0.0266,0.8998,-6.72,7.51,-0.06,32.2
23121,0.1938,-0.0287,0.9048,-6.72,5.95,-0.03,32.17
23131,0.1422,-0.0266,0.9333,-6.85,9.88,-0.05,32.19
23141,0.1807,-0.0248,0.8795,-6.79,10.92,0.02,32.2
23151,0.2063,-0.0325,0.8507,-6.76,5.76,0.0,32.18
23161,0.1483,-0.0344,0.895,-6.75,6.43,-0.06,32.19
23171,0.1655,-0.0311,0.9064,-6.58,9.22,-0.05,32.17
23181,0.1829,-0.0298,0.8792,-6.63,7.74,0.05,32.15
23191,0.1774,-0.026,0.8958,-6.63,7.44,0.02,32.19
23201,0.1761,-0.028,0.89,-6.73,7.22,0.02,32.17
23211,0.1718,-0.0302,0.9181,-6.79,7.13,-0.05,32.18
23221,0.1482,-0.0229,0.9257,-6.87,10.81,-0.05,32.19
23231,0.2039,-0.0245,0.8658,-6.67,8.23,-0.08,32.21
23241,0.1798,-0.0275,0.8761,-6.64,5.71,-0.03,32.19
23251,0.1512,-0.026,0.9016,-6.76,8.0,0.02,32.19
23261,0.172,-0.0225,0.8964,-6.75,8.55,-0.02,32.17
23271,0.1781,-0.0209,0.8984,-6.69,8.12,0.02,32.19
23281,0.2,-0.0177,0.9091,-6.66,7.69,-0.11,32.18
23291,0.1824,-0.0236,0.9023,-6.78,5.97,-0.03,32.2
23301,0.1528,-0.0247,0.9363,-6.9,9.36,-0.05,32.2
23311,0.1733,-0.0166,0.8896,-6.9,10.63,-0.08,32.21
23321,0.1987,-0.0253,0.8645,-6.73,6.76,-0.05,32.2
23331,0.1647,-0.027,0.9072,-6.81,6.85,-0.08,32.19
23341,0.1559,-0.0297,0.9133,-6.67,9.4,0.0,32.2
23351,0.1847,-0.0261,0.8927,-6.79,8.79,-0.08,32.17
23361,0.1886,-0.0237,0.8784,-6.66,7.73,-0.02,32.17
23371,0.1968,-0.025,0.8856,-6.79,6.63,0.0,32.19
23381,0.1588,-0.0305,0.9135,-6.73,7.21,0.02,32.2
23391,0.1567,-0.0244,0.9238,-6.9,10.58,0.03,32.18
23401,0.2009,-0.022,0.8678,-6.81,8.69,-0.02,32.19
23411,0.1886,-0.0286,0.8668,-6.73,6.03,-0.02,32.19
23421,0.1532,-0.0291,0.8905,-6.61,7.4,0.0,32.2
23431,0.1528,-0.0283,0.8922,-6.75,8.47,-0.03,32.2
23441,0.1747,-0.0261,0.9006,-6.69,8.63,-0.02,32.2
23451,0.1952,-0.0234,0.8871,-6.66,6.9,-0.05,32.19
23461,0.1871,-0.025,0.9127,-6.72,6.84,0.0,32.18
23471,0.1558,-0.0244,0.917,-6.84,8.31,-0.02,32.19
23481,0.1625,-0.0272,0.9052,-6.81,10.03,-0.08,32.19
23491,0.2003,-0.0244,0.844,-6.69,7.48,-0.08,32.18
23501,0.1801,-0.0312,0.8771,-6.66,4.93,-0.06,32.19
23511,0.1329,-0.0282,0.9304,-6.81,8.87,-0.03,32.18
23521,0.1685,-0.0258,0.9124,-6.69,9.68,0.06,32.19
23531,0.203,-0.0193,0.9026,-6.76,7.45,-0.06,32.19
23541,0.1884,-0.0271,0.8926,-6.67,6.55,-0.08,32.21
23551,0.1581,-0.0287,0.9207,-6.79,8.47,0.0,32.18
23561,0.1519,-0.0305,0.9087,-6.79,9.91,-0.02,32.18
23571,0.1736,-0.026,0.8923,-6.89,9.25,-0.06,32.19
23581,0.2015,-0.0233,0.8633,-6.67,7.42,-0.05,32.19
23591,0.1874,-0.0266,0.885,-6.73,6.05,-0.05,32.19
23601,0.1436,-0.0309,0.9149,-6.67,8.6,0.03,32.19
23611,0.1614,-0.0287,0.8939,-6.6,9.48,0.02,32.21
23621,0.2109,-0.0216,0.8754,-6.64,6.26,-0.03,32.18
23631,0.1731,-0.0205,0.9081,-6.73,6.24,-0.08,32.22
23641,0.1556,-0.0265,0.9437,-6.84,9.95,0.02,32.19
23651,0.1737,-0.0254,0.8951,-6.84,10.0,0.02,32.19
23661,0.1981,-0.0283,0.8689,-6.84,7.6,-0.06,32.17
23671,0.1836,-0.0253,0.8668,-6.72,6.2,-0.12,32.19
23681,0.1665,-0.0245,0.8964,-6.67,7.3,-0.02,32.2
23691,0.1549,-0.0256,0.9126,-6.75,8.67,-0.03,32.21
23701,0.1605,-0.0219,0.9182,-6.72,9.77,-0.09,32.19
23711,0.2177,-0.0173,0.8824,-6.72,6.92,-0.11,32.2
23721,0.1785,-0.0233,0.9137,-6.73,5.92,-0.12,32.18
23731,0.1454,-0.0259,0.9354,-6.9,10.58,0.06,32.22
23741,0.1744,-0.0238,0.8802,-6.87,9.82,-0.08,32.2
23751,0.2019,-0.0276,0.8608,-6.75,6.46,0.0,32.19
23761,0.1658,-0.0277,0.8901,-6.82,6.18,-0.12,32.2
23771,0.1526,-0.0282,0.921,-6.78,9.27,-0.05,32.21
23781,0.1805,-0.0242,0.9073,-6.69,9.33,-0.02,32.21
23791,0.1964,-0.0286,0.8876,-6.66,7.66,-0.08,32.18
23801,0.1877,-0.0253,0.8855,-6.67,6.4,0.0,32.21
23811,0.1571,-0.03,0.89,-6.7,7.22,-0.02,32.2
23821,0.1499,-0.0339,0.912,-6.72,8.08,-0.03,32.19
23831,0.1796,-0.0267,0.8802,-6.81,9.08,-0.12,32.21
23841,0.207,-0.0269,0.8707,-6.81,8.21,-0.08,32.2
23851,0.1503,-0.0309,0.9065,-6.75,6.49,-0.06,32.22
23861,0.1501,-0.0305,0.9061,-6.64,10.18,-0.02,32.19
23871,0.1627,-0.0319,0.89,-6.66,9.28,0.11,32.2
23881,0.1842,-0.025,0.8763,-6.66,7.11,-0.05,32.17
23891,0.186,-0.0267,0.8998,-6.64,6.72,-0.02,32.21
23901,0.1682,-0.0251,0.9147,-6.79,7.45,0.02,32.21
23911,0.1547,-0.0258,0.9355,-6.78,9.51,-0.02,32.19
23921,0.1643,-0.0228,0.8972,-6.72,10.11,0.0,32.22
23931,0.2103,-0.0245,0.8573,-6.72,7.08,-0.08,32.21
23941,0.175,-0.0284,0.8774,-6.7,5.73,0.03,32.19
23951,0.1384,-0.0267,0.9189,-6.75,8.87,-0.03,32.21
23961,0.1699,-0.0225,0.9099,-6.76,9.5,-0.03,32.22
23971,0.2004,-0.0195,0.9012,-6.73,6.93,0.02,32.19
23981,0.1949,-0.0204,0.9254,-6.79,6.46,-0.12,32.21
23991,0.1527,-0.0222,0.9366,-6.78,9.11,-0.05,32.18
24001,0.1659,-0.027,0.9088,-6.81,10.73,-0.02,32.19
24011,0.1794,-0.0278,0.8607,-6.87,8.72,0.05,32.19
24021,0.1995,-0.028,0.8497,-6.75,5.95,-0.05,32.17
24031,0.1694,-0.0302,0.8885,-6.67,6.14,-0.03,32.21
24041,0.1504,-0.0298,0.9283,-6.75,9.3,-0.03,32.23
24051,0.1777,-0.0245,0.9097,-6.73,9.68,0.0,32.18
24061,0.208,-0.0215,0.8755,-6.69,6.7,-0.12,32.23
24071,0.1793,-0.0284,0.9016,-6.73,6.41,-0.06,32.22
24081,0.1469,-0.0269,0.9052,-6.64,9.4,-0.03,32.21
24091,0.1705,-0.0281,0.8896,-6.75,9.98,-0.06,32.19
24101,0.1873,-0.0284,0.8568,-6.79,7.57,-0.06,32.2
24111,0.1908,-0.0302,0.8691,-6.73,5.47,-0.05,32.18
24121,0.1533,-0.0249,0.8958,-6.79,6.87,0.02,32.19
24131,0.1472,-0.0244,0.9263,-6.61,9.68,-0.05,32.2
24141,0.1859,-0.0205,0.9056,-6.61,8.92,0.03,32.19
24151,0.2012,-0.0225,0.89,-6.69,5.66,-0.09,32.18
24161,0.1683,-0.0247,0.9247,-6.84,7.18,-0.08,32.17
24171,0.1501,-0.0303,0.9209,-6.78,9.95,-0.08,32.19
24181,0.1805,-0.0298,0.882,-6.76,9.73,-0.03,32.21
24191,0.1862,-0.0281,0.8489,-6.78,6.69,-0.02,32.21
24201,0.1719,-0.0319,0.8851,-6.73,5.8,-0.05,32.21
24211,0.1459,-0.031,0.9164,-6.63,8.29,-0.02,32.2
24221,0.1636,-0.024,0.9263,-6.7,10.35,-0.09,32.2
24231,0.2063,-0.0216,0.8964,-6.67,7.74,-0.06,32.21
24241,0.1907,-0.0271,0.9075,-6.69,5.82,-0.03,32.17
24251,0.1569,-0.0278,0.9257,-6.78,8.87,-0.08,32.19
24261,0.1628,-0.0293,0.8905,-6.76,10.46,0.02,32.18
24271,0.1948,-0.0261,0.8544,-6.73,8.56,-0.08,32.19
24288,0.1622,-0.0225,0.9266,-6.79,9.95,0.0,32.18
24298,0.1996,-0.0221,0.9027,-6.76,6.79,0.0,32.2
24308,0.1744,-0.0269,0.9316,-6.82,6.87,-0.06,32.2
24318,0.1444,-0.031,0.915,-6.73,10.41,-0.09,32.19
24328,0.1576,-0.0277,0.9034,-6.81,10.75,-0.15,32.2
24338,0.1913,-0.0278,0.8534,-6.7,6.23,-0.11,32.18
24348,0.1516,-0.0314,0.8954,-6.76,6.41,-0.05,32.19
24358,0.1479,-0.0289,0.9147,-6.63,9.56,-0.08,32.2
24368,0.1857,-0.0242,0.891,-6.66,8.43,0.0,32.19
24378,0.198,-0.0256,0.8973,-6.66,7.39,0.02,32.19
24388,0.1947,-0.0253,0.889,-6.67,7.04,-0.02,32.2
24398,0.1554,-0.03,0.9332,-6.76,8.31,-0.02,32.19
24408,0.1545,-0.0264,0.9031,-6.72,10.55,-0.11,32.2
24418,0.21,-0.0237,0.8569,-6.76,8.14,0.03,32.21
24428,0.1907,-0.0272,0.8663,-6.72,5.68,-0.05,32.2
24438,0.1527,-0.031,0.9039,-6.69,6.96,-0.08,32.19
24448,0.1542,-0.0295,0.9066,-6.64,7.4,0.02,32.2
24458,0.1841,-0.0233,0.8926,-6.66,8.52,0.03,32.2
24468,0.2015,-0.021,0.8969,-6.69,6.34,-0.06,32.22
24478,0.1842,-0.0259,0.8977,-6.66,6.4,-0.05,32.21
24488,0.1572,-0.0222,0.9261,-6.82,9.69,-0.02,32.22
24498,0.1715,-0.0239,0.8788,-6.82,9.69,0.02,32.21
24508,0.1846,-0.0209,0.8657,-6.78,9.27,-0.05,32.22
24518,0.1741,-0.0231,0.8748,-6.75,6.0,-0.08,32.2
24528,0.1428,-0.0259,0.9308,-6.76,8.27,-0.11,32.2
24538,0.1665,-0.0201,0.9287,-6.78,9.42,0.0,32.2
24548,0.1993,-0.0168,0.9025,-6.79,7.86,-0.06,32.2
24558,0.1987,-0.0193,0.907,-6.73,6.5,-0.02,32.21
24568,0.1582,-0.026,0.9166,-6.89,8.24,-0.02,32.22
24578,0.1572,-0.0309,0.9194,-6.84,9.97,-0.14,32.22
24588,0.1653,-0.0233,0.8884,-6.79,10.02,-0.08,32.24
24598,0.2076,-0.0271,0.8552,-6.87,7.56,0.0,32.2
24608,0.2008,-0.0305,0.8597,-6.78,6.87,-0.06,32.19
24618,0.168,-0.0309,0.886,-6.79,6.24,0.0,32.18
24628,0.153,-0.0288,0.912,-6.66,9.19,0.0,32.19
24638,0.1832,-0.0245,0.8787,-6.67,9.16,-0.02,32.19
24648,0.2065,-0.0239,0.8895,-6.69,6.32,-0.08,32.2
24658,0.1674,-0.0249,0.9106,-6.69,6.44,-0.03,32.22
24668,0.1628,-0.026,0.9315,-6.87,9.21,-0.06,32.19
24678,0.1761,-0.0226,0.9014,-6.84,10.05,-0.11,32.19
24688,0.1981,-0.0243,0.8701,-6.87,8.17,-0.11,32.19
24698,0.1886,-0.03,0.8629,-6.73,6.21,-0.03,32.22
24708,0.1455,-0.0348,0.8929,-6.69,6.78,0.0,32.22
24718,0.145,-0.0297,0.9015,-6.67,9.33,-0.02,32.19
24728,0.1844,-0.0269,0.8727,-6.66,8.24,0.0,32.22
24738,0.2025,-0.0282,0.8922,-6.66,6.03,-0.09,32.2
24748,0.1976,-0.0244,0.897,-6.76,5.22,-0.08,32.21
24758,0.1606,-0.0277,0.9333,-6.81,9.91,0.02,32.21
24768,0.1836,-0.0223,0.8809,-6.9,9.02,-0.09,32.2
24778,0.1864,-0.025,0.8672,-6.76,7.19,-0.08,32.19
24788,0.1678,-0.0327,0.8881,-6.82,6.35,-0.05,32.19
24798,0.1417,-0.0287,0.9288,-6.67,8.46,-0.05,32.22
24808,0.1731,-0.0226,0.9224,-6.72,9.86,-0.08,32.19
24818,0.201,-0.0223,0.8865,-6.69,8.0,-0.15,32.19
24828,0.1952,-0.0286,0.8917,-6.75,6.72,-0.08,32.2
24838,0.1473,-0.0302,0.9053,-6.78,8.09,0.0,32.21
24848,0.1532,-0.0288,0.9027,-6.87,10.05,0.05,32.21
24858,0.1975,-0.0223,0.8594,-6.81,8.38,0.03,32.19
24868,0.1891,-0.0242,0.8749,-6.76,7.97,-0.03,32.2
24878,0.1688,-0.0223,0.9017,-6.7,6.72,0.05,32.2
24888,0.1492,-0.0262,0.9202,-6.73,8.76,-0.05,32.21
24898,0.1782,-0.0203,0.9172,-6.67,9.3,-0.02,32.21
24908,0.2024,-0.0222,0.8833,-6.7,7.42,-0.05,32.2
24918,0.1865,-0.0265,0.9006,-6.63,6.41,-0.02,32.19
24929,0.1664,-0.0273,0.9,-6.81,6.61,-0.08,32.21
24939,0.1511,-0.0243,0.9146,-6.73,10.03,0.03,32.19
24949,0.1809,-0.0259,0.8619,-6.82,9.68,0.03,32.19
24959,0.1844,-0.0254,0.8506,-6.87,6.41,-0.05,32.21
24969,0.167,-0.0248,0.8866,-6.7,6.05,-0.03,32.22
24979,0.1499,-0.0243,0.9156,-6.76,7.95,-0.06,32.21
24989,0.1688,-0.0226,0.9276,-6.79,9.53,-0.05,32.19
24999,0.1859,-0.0216,0.9158,-6.76,8.64,-0.09,32.2
25009,0.2144,-0.0233,0.9098,-6.75,6.52,-0.06,32.18
25019,0.1593,-0.0297,0.92,-6.73,7.56,-0.08,32.19
25029,0.1523,-0.0304,0.9092,-6.75,10.53,-0.02,32.19
25039,0.1886,-0.0294,0.8518,-6.73,9.01,0.05,32.19
25049,0.1841,-0.0304,0.8535,-6.73,6.09,-0.02,32.19
25059,0.1603,-0.0297,0.9032,-6.73,6.64,-0.08,32.19
25069,0.1572,-0.0288,0.9247,-6.73,8.89,-0.08,32.21
25079,0.1936,-0.0221,0.9156,-6.72,9.05,-0.02,32.2
25089,0.1825,-0.0223,0.9095,-6.78,9.18,0.02,32.19
25099,0.1848,-0.0286,0.8926,-6.64,6.34,-0.02,32.19
25109,0.1392,-0.0289,0.9016,-6.76,8.85,-0.05,32.19
25119,0.1724,-0.0267,0.8842,-6.78,9.79,-0.05,32.2
25129,0.201,-0.0254,0.8558,-6.72,7.05,0.02,32.19
25139,0.1816,-0.0299,0.8859,-6.67,5.97,-0.12,32.23
25149,0.1536,-0.0283,0.9189,-6.67,8.03,-0.09,32.22
25159,0.1547,-0.0261,0.9093,-6.67,9.34,-0.06,32.19
25169,0.1818,-0.0249,0.8892,-6.7,8.69,0.0,32.19
25179,0.1936,-0.0205,0.8748,-6.67,6.66,-0.06,32.19
25189,0.1753,-0.0254,0.9218,-6.76,6.47,0.03,32.19
25199,0.1539,-0.0209,0.9458,-6.84,9.21,-0.12,32.21
25209,0.1847,-0.0183,0.9113,-6.79,10.61,-0.18,32.2
25219,0.2061,-0.0245,0.8584,-6.87,6.89,-0.12,32.19
25229,0.1593,-0.0312,0.8817,-6.78,6.4,0.03,32.22
25239,0.14,-0.0273,0.9094,-6.79,9.33,-0.06,32.2
25249,0.1753,-0.0226,0.8918,-6.73,8.95,-0.02,32.2
25259,0.2079,-0.0216,0.8969,-6.73,6.9,-0.05,32.21
25269,0.1857,-0.0272,0.9055,-6.84,6.78,-0.05,32.22
25279,0.1633,-0.0275,0.938,-6.78,8.46,0.0,32.21
25289,0.1495,-0.027,0.913,-6.82,10.66,-0.05,32.22
25299,0.1953,-0.0261,0.8611,-6.92,9.19,0.02,32.18
25309,0.1959,-0.0312,0.8401,-6.78,5.82,-0.05,32.21
25319,0.1522,-0.0325,0.8859,-6.73,6.41,-0.03,32.2
25329,0.1454,-0.0321,0.9135,-6.64,9.51,0.0,32.2
25339,0.1876,-0.028,0.8982,-6.6,7.97,0.05,32.21
25349,0.1971,-0.0244,0.9071,-6.69,8.14,0.0,32.2
25359,0.1953,-0.0266,0.8997,-6.75,6.7,-0.02,32.21
25369,0.1754,-0.027,0.9167,-6.75,7.04,-0.06,32.21
25379,0.1573,-0.0295,0.8685,-6.78,10.31,0.0,32.2
25389,0.1836,-0.0288,0.8578,-6.75,9.27,0.05,32.21
25399,0.1936,-0.0306,0.8525,-6.75,6.06,-0.11,32.19
25409,0.1682,-0.0303,0.895,-6.73,5.53,0.02,32.2
25419,0.1516,-0.0276,0.937,-6.72,8.84,0.05,32.21
25429,0.1742,-0.0222,0.9076,-6.75,9.36,-0.03,32.19
25439,0.1947,-0.0254,0.8904,-6.6,7.71,0.03,32.19
25449,0.1866,-0.0237,0.8867,-6.75,6.52,0.02,32.19
25459,0.1676,-0.0284,0.9219,-6.69,7.05,-0.12,32.19
25469,0.1494,-0.0244,0.924,-6.78,9.56,0.02,32.21
25479,0.1866,-0.0216,0.8915,-6.85,10.03,-0.02,32.22
25489,0.1998,-0.0223,0.8676,-6.78,6.26,-0.12,32.24
25499,0.1495,-0.0278,0.911,-6.7,7.04,-0.06,32.2
25509,0.1533,-0.0237,0.9204,-6.64,10.38,0.0,32.22
25519,0.2,-0.0171,0.8763,-6.63,8.11,-0.06,32.22
25529,0.197,-0.0222,0.8997,-6.72,6.12,-0.02,32.21
25539,0.1595,-0.0247,0.9181,-6.72,7.8,0.02,32.21
25549,0.1655,-0.0247,0.9219,-6.89,9.39,-0.08,32.22
25559,0.1782,-0.0228,0.8894,-6.84,8.9,-0.06,32.23
25569,0.1976,-0.0239,0.8694,-6.81,8.17,0.06,32.21
25579,0.1959,-0.0292,0.8522,-6.75,5.82,-0.03,32.22
25589,0.1415,-0.0304,0.9086,-6.76,7.01,-0.05,32.21
25599,0.1533,-0.0214,0.9253,-6.67,10.24,-0.03,32.2
25609,0.2097,-0.0214,0.8781,-6.67,7.44,-0.08,32.22
25619,0.1913,-0.0227,0.9111,-6.6,6.06,-0.09,32.22
25629,0.1445,-0.0254,0.9231,-6.79,9.85,0.06,32.24
25639,0.1774,-0.0291,0.8918,-6.85,9.25,0.08,32.23
25649,0.1835,-0.022,0.8693,-6.89,7.24,0.03,32.2
25659,0.1885,-0.0226,0.8754,-6.82,7.18,-0.14,32.23
25669,0.1997,-0.0258,0.8652,-6.78,6.78,0.0,32.21
25679,0.1348,-0.0299,0.9363,-6.76,8.84,-0.06,32.21
25689,0.1782,-0.024,0.9056,-6.63,10.05,-0.08,32.2
25699,0.2086,-0.0265,0.8668,-6.6,5.59,0.02,32.2
25709,0.1667,-0.0302,0.9272,-6.79,6.72,-0.06,32.21
25719,0.1475,-0.0282,0.9336,-6.82,10.6,-0.03,32.22
25729,0.191,-0.032,0.9005,-6.89,9.22,-0.02,32.22
25739,0.1863,-0.0251,0.8719,-6.76,7.6,-0.05,32.22
25749,0.1904,-0.0262,0.8619,-6.67,6.95,-0.08,32.19
25759,0.1699,-0.0332,0.8815,-6.66,6.23,0.02,32.21
25769,0.1345,-0.03,0.9266,-6.64,9.28,-0.06,32.22
25779,0.1884,-0.0227,0.9015,-6.58,9.47,0.03,32.22
25789,0.2129,-0.027,0.8777,-6.72,4.56,-0.08,32.21
25799,0.1421,-0.0291,0.9413,-6.79,8.52,-0.02,32.23
25809,0.1609,-0.0245,0.9004,-6.84,10.95,0.03,32.21
25819,0.1981,-0.0258,0.8651,-6.82,7.4,0.02,32.24
25829,0.1748,-0.024,0.8728,-6.78,5.73,-0.03,32.24
25839,0.1678,-0.0229,0.9022,-6.66,7.31,-0.09,32.22
25849,0.1593,-0.0228,0.9209,-6.75,8.47,-0.02,32.2
25859,0.1575,-0.0214,0.9222,-6.7,9.77,0.05,32.22
25869,0.1974,-0.0177,0.89,-6.72,8.29,-0.12,32.21
25879,0.1984,-0.0205,0.8805,-6.76,4.96,-0.11,32.22
25889,0.1542,-0.0266,0.9354,-6.81,8.2,-0.02,32.21
25899,0.1558,-0.0237,0.9165,-6.89,11.3,0.03,32.22
25909,0.2065,-0.0253,0.879,-6.78,7.65,-0.05,32.22
25919,0.1754,-0.0269,0.8856,-6.7,6.2,-0.12,32.2
25929,0.1586,-0.0265,0.9008,-6.75,8.46,-0.15,32.23
25939,0.1611,-0.0245,0.8911,-6.78,9.66,-0.09,32.22
25949,0.1796,-0.0267,0.8835,-6.63,8.2,0.05,32.23
25959,0.1907,-0.022,0.8966,-6.72,6.96,0.0,32.22
25969,0.1841,-0.026,0.9072,-6.75,6.09,-0.09,32.24
25979,0.1569,-0.0271,0.939,-6.7,9.45,-0.05,32.23
25989,0.1698,-0.027,0.8851,-6.82,11.19,-0.02,32.23
25999,0.2083,-0.0325,0.8448,-6.75,6.49,-0.03,32.2
26009,0.1608,-0.0314,0.8625,-6.66,5.82,-0.15,32.2
26019,0.1531,-0.0298,0.8921,-6.58,8.15,-0.08,32.22
26029,0.1608,-0.0245,0.8964,-6.67,8.78,0.03,32.21
26039,0.1815,-0.0247,0.905,-6.69,8.31,0.02,32.22
26049,0.199,-0.0161,0.8986,-6.67,6.56,-0.05,32.21
26059,0.1682,-0.02,0.928,-6.79,7.04,-0.06,32.24
26069,0.1617,-0.022,0.9247,-6.87,9.97,-0.03,32.22
26079,0.1843,-0.0256,0.8702,-6.79,9.13,-0.08,32.22
26089,0.1926,-0.0303,0.8666,-6.81,6.06,-0.08,32.23
26099,0.1482,-0.0309,0.8982,-6.72,6.89,-0.06,32.22
26109,0.1543,-0.0264,0.9012,-6.67,7.4,0.03,32.22
26119,0.1484,-0.0288,0.9152,-6.67,10.23,0.02,32.22
26129,0.1812,-0.0233,0.8876,-6.67,8.05,0.0,32.23
26139,0.1997,-0.0199,0.8927,-6.64,6.09,-0.02,32.24
26149,0.1669,-0.02,0.9249,-6.82,6.63,-0.14,32.21
26159,0.1548,-0.0198,0.9517,-6.82,10.35,-0.08,32.23
26169,0.1729,-0.0225,0.9082,-6.93,10.29,-0.08,32.23
26179,0.2034,-0.0242,0.8704,-6.79,7.53,-0.08,32.23
26189,0.1761,-0.0258,0.8795,-6.82,6.38,-0.06,32.22
26199,0.1565,-0.0266,0.9138,-6.73,8.78,-0.11,32.23
26209,0.1704,-0.025,0.8928,-6.72,10.12,-0.02,32.22
26219,0.1982,-0.0281,0.8652,-6.76,6.9,-0.03,32.22
26229,0.1793,-0.027,0.8894,-6.64,5.97,-0.11,32.2
26239,0.1602,-0.0237,0.9113,-6.73,7.59,-0.02,32.23
26249,0.1598,-0.022,0.9287,-6.81,10.55,0.03,32.22
26259,0.1819,-0.0217,0.8763,-6.92,8.78,-0.05,32.2
26269,0.2041,-0.0284,0.8671,-6.67,6.2,-0.06,32.21
26279,0.1575,-0.0275,0.899,-6.81,6.47,0.03,32.24
26289,0.1503,-0.0264,0.9144,-6.75,9.86,0.03,32.21
26299,0.1809,-0.0256,0.894,-6.7,8.96,-0.02,32.22
26310,0.1844,-0.0249,0.8864,-6.64,8.53,-0.05,32.2
26320,0.2058,-0.0249,0.8829,-6.67,5.98,-0.05,32.22
26330,0.1654,-0.0277,0.8998,-6.64,7.05,0.03,32.23
26340,0.1455,-0.0288,0.9202,-6.73,9.5,0.03,32.25
26350,0.1639,-0.0256,0.8787,-6.84,9.45,-0.09,32.22
26360,0.2078,-0.0271,0.86,-6.75,5.77,-0.05,32.24
26370,0.1644,-0.0239,0.8937,-6.76,5.59,-0.08,32.21
26380,0.1411,-0.024,0.9384,-6.66,10.09,-0.02,32.22
26390,0.1899,-0.0204,0.9081,-6.81,9.1,-0.08,32.22
26400,0.2007,-0.0204,0.9053,-6.67,6.52,-0.14,32.2
26410,0.2002,-0.0216,0.908,-6.67,6.81,-0.08,32.22
26420,0.1555,-0.0292,0.9138,-6.73,9.44,-0.09,32.22
26430,0.1677,-0.0288,0.9047,-6.85,10.2,-0.03,32.21
26440,0.1769,-0.026,0.8684,-6.78,9.07,-0.03,32.23
26450,0.2074,-0.0275,0.8533,-6.79,5.86,0.02,32.23
26460,0.1692,-0.0303,0.8833,-6.7,6.0,-0.02,32.22
26470,0.1353,-0.0265,0.9174,-6.69,9.25,-0.03,32.22
26480,0.1768,-0.0248,0.8938,-6.64,8.9,0.02,32.22
26490,0.1973,-0.0208,0.8925,-6.67,6.2,0.03,32.22
26500,0.1854,-0.0208,0.9316,-6.76,6.44,-0.15,32.23
26511,0.161,-0.0245,0.9431,-6.73,7.68,-0.05,32.23
26521,0.1592,-0.0253,0.9374,-6.85,10.58,-0.2,32.24
26531,0.1764,-0.0226,0.8754,-6.81,9.73,-0.09,32.23
26541,0.2029,-0.0262,0.8408,-6.67,7.02,-0.06,32.24
26551,0.1732,-0.0331,0.8608,-6.69,5.69,-0.06,32.22
26561,0.1307,-0.0303,0.9117,-6.76,8.14,-0.12,32.23
26571,0.1643,-0.0236,0.9158,-6.75,9.56,-0.02,32.25
26581,0.2042,-0.0164,0.8972,-6.75,7.08,0.05,32.24
26591,0.2008,-0.0194,0.9175,-6.75,6.03,-0.05,32.24
26601,0.1522,-0.0253,0.9415,-6.89,8.37,-0.11,32.24
26611,0.1633,-0.0267,0.9294,-6.84,11.01,-0.06,32.2
26621,0.193,-0.0276,0.8558,-6.85,8.81,-0.08,32.24
26631,0.1967,-0.0303,0.8469,-6.67,5.94,-0.06,32.24
26641,0.1475,-0.0322,0.8826,-6.73,7.33,-0.05,32.22
26651,0.1411,-0.0309,0.9073,-6.76,9.91,-0.06,32.23
26661,0.1873,-0.0223,0.8879,-6.63,8.37,0.02,32.24
26671,0.202,-0.0206,0.8867,-6.72,5.27,0.05,32.25
26681,0.1721,-0.0248,0.9355,-6.75,7.37,-0.02,32.21
26691,0.1476,-0.0262,0.9301,-6.79,10.17,-0.02,32.2
26701,0.179,-0.0242,0.9069,-6.76,9.91,-0.03,32.26
26711,0.1974,-0.0266,0.8607,-6.79,7.21,-0.03,32.22
26721,0.1882,-0.0328,0.8682,-6.66,5.47,-0.09,32.23
26731,0.1428,-0.0344,0.8999,-6.69,8.03,-0.05,32.24
26741,0.1506,-0.0308,0.896,-6.69,9.45,-0.09,32.22
26751,0.1882,-0.0242,0.8843,-6.67,7.85,0.0,32.22
26761,0.1962,-0.0242,0.8857,-6.76,5.42,-0.03,32.22
26771,0.1652,-0.0251,0.9388,-6.78,7.56,-0.06,32.26
26781,0.1503,-0.0261,0.9232,-6.89,10.53,-0.05,32.23
26791,0.1882,-0.0256,0.8885,-6.78,8.89,-0.02,32.23
26801,0.1895,-0.0266,0.8646,-6.81,6.14,-0.03,32.22
26811,0.17,-0.0298,0.8981,-6.67,6.49,0.0,32.23
26821,0.1394,-0.0236,0.9222,-6.81,9.51,-0.03,32.26
26831,0.1786,-0.0232,0.9021,-6.73,9.27,-0.11,32.22
26841,0.2026,-0.0215,0.8895,-6.66,6.47,-0.09,32.24
26851,0.1954,-0.0198,0.8864,-6.69,5.69,-0.03,32.24
26861,0.1696,-0.0237,0.9342,-6.78,6.99,0.0,32.24
26871,0.1691,-0.0238,0.9135,-6.95,11.08,0.0,32.22
26881,0.1823,-0.0219,0.9086,-6.93,9.82,0.05,32.23
26891,0.1984,-0.0228,0.865,-6.87,7.4,-0.05,32.23
26901,0.1808,-0.0299,0.88,-6.85,6.6,-0.06,32.23
26911,0.1434,-0.0302,0.9172,-6.76,8.73,-0.02,32.25
26921,0.163,-0.028,0.9028,-6.66,9.51,-0.05,32.24
26931,0.2063,-0.022,0.8759,-6.72,7.48,-0.15,32.23
26941,0.1941,-0.0258,0.871,-6.7,5.48,-0.06,32.24
26951,0.1562,-0.0277,0.9221,-6.84,7.83,-0.03,32.23
26961,0.1506,-0.025,0.9167,-7.01,10.6,-0.03,32.24
26971,0.2095,-0.024,0.8755,-6.81,8.03,-0.03,32.23
26981,0.1888,-0.0271,0.8768,-6.78,5.6,0.0,32.21
26991,0.1631,-0.0309,0.9059,-6.73,7.48,-0.06,32.22
27001,0.1442,-0.0302,0.9166,-6.7,9.73,0.05,32.22
27011,0.1737,-0.0254,0.8806,-6.6,9.02,0.02,32.24
27021,0.2,-0.0254,0.8746,-6.69,6.63,-0.03,32.22
27031,0.1803,-0.0261,0.8815,-6.7,6.35,0.03,32.23
27041,0.153,-0.0269,0.9318,-6.9,8.6,-0.08,32.25
27051,0.1703,-0.0221,0.8978,-6.89,10.12,-0.05,32.26
27061,0.2059,-0.0261,0.869,-6.79,6.72,-0.03,32.26
27071,0.1759,-0.032,0.8826,-6.81,5.37,-0.06,32.24
27081,0.1346,-0.0319,0.9231,-6.73,9.07,-0.09,32.24
27091,0.1729,-0.0277,0.908,-6.76,9.83,0.06,32.24
27101,0.1963,-0.0219,0.8972,-6.7,6.95,-0.08,32.24
27111,0.1844,-0.0228,0.9177,-6.64,6.55,-0.05,32.22
27121,0.1616,-0.0272,0.9288,-6.79,8.43,-0.05,32.26
27131,0.1615,-0.0259,0.9263,-6.85,10.82,-0.08,32.24
27141,0.1804,-0.0286,0.8772,-6.87,10.0,-0.05,32.25
27151,0.2068,-0.0291,0.8403,-6.78,5.91,0.0,32.26
27161,0.161,-0.0328,0.8848,-6.6,6.37,-0.03,32.23
27171,0.146,-0.0314,0.9097,-6.7,9.11,0.02,32.25
27181,0.1844,-0.0323,0.8967,-6.66,9.27,-0.05,32.24
27191,0.2034,-0.0253,0.8828,-6.7,5.51,-0.05,32.26
27201,0.1713,-0.0281,0.9305,-6.64,6.93,-0.12,32.26
27211,0.1509,-0.0247,0.9314,-6.92,9.88,-0.06,32.25
27221,0.1837,-0.0251,0.8989,-6.84,10.06,-0.06,32.24
27231,0.1875,-0.0265,0.87,-6.75,7.51,-0.06,32.23
27241,0.189,-0.0287,0.8737,-6.66,5.69,-0.06,32.24
27251,0.1547,-0.0286,0.9036,-6.67,6.79,-0.03,32.25
27261,0.1443,-0.0222,0.9178,-6.66,10.09,-0.08,32.26
27271,0.1831,-0.0214,0.882,-6.78,9.21,-0.03,32.22
27281,0.1986,-0.0209,0.8757,-6.79,5.8,-0.06,32.22
27291,0.1715,-0.0227,0.9208,-6.79,6.58,-0.09,32.24
27301,0.151,-0.0233,0.9285,-6.79,9.65,-0.06,32.21
27311,0.191,-0.0222,0.8931,-6.75,9.8,-0.05,32.22
27321,0.189,-0.0229,0.8722,-6.85,6.76,-0.03,32.24
27331,0.1696,-0.0288,0.9006,-6.78,7.04,-0.03,32.24
27341,0.1548,-0.0251,0.9106,-6.76,8.84,-0.03,32.25
27351,0.1781,-0.0227,0.9026,-6.75,9.77,-0.05,32.25
