t_ms,accel_x_g,accel_y_g,accel_z_g,gyro_x_dps,gyro_y_dps,gyro_z_dps,imu_temp_c
3289,0.0461,-0.3074,0.8468,-5.89,8.18,0.11,21.84
3300,0.0444,-0.3032,0.8558,-6.12,8.15,0.08,21.82
3310,0.0438,-0.306,0.8516,-6.26,7.79,-0.03,21.84
3320,0.0457,-0.3069,0.8505,-6.37,7.31,-0.17,21.84
3330,0.0476,-0.3105,0.8473,-6.24,7.1,-0.14,21.83
3340,0.0504,-0.3071,0.8407,-6.26,7.22,-0.14,21.81
3350,0.0574,-0.3076,0.8431,-6.06,7.74,-0.11,21.84
3360,0.0537,-0.3053,0.8473,-5.88,8.32,0.02,21.84
3370,0.0524,-0.3087,0.8517,-5.97,8.53,0.12,21.83
3380,0.0475,-0.3057,0.855,-6.08,8.29,0.08,21.82
3390,0.0437,-0.3043,0.8491,-6.21,7.53,-0.05,21.86
3400,0.0486,-0.3042,0.8459,-6.23,7.07,-0.2,21.83
3410,0.0504,-0.304,0.8406,-6.17,7.08,-0.17,21.84
3420,0.0553,-0.3049,0.845,-5.97,7.44,-0.08,21.85
3430,0.0552,-0.302,0.8479,-5.91,8.12,-0.03,21.87
3440,0.0485,-0.3036,0.851,-6.0,8.38,0.05,21.85
3450,0.0448,-0.3053,0.848,-6.15,8.18,0.03,21.84
3460,0.0486,-0.3048,0.8461,-6.2,7.69,-0.12,21.86
3470,0.0477,-0.3035,0.8488,-6.17,7.34,-0.2,21.85
3480,0.0525,-0.3057,0.8489,-6.02,7.4,-0.08,21.85
3490,0.0562,-0.3065,0.8481,-6.03,7.8,-0.03,21.87
3500,0.0481,-0.3004,0.8506,-6.14,8.09,-0.05,21.84
3510,0.0458,-0.2966,0.8489,-6.34,8.05,0.02,21.84
3520,0.0447,-0.2981,0.8384,-6.38,7.69,-0.08,21.84
3530,0.0443,-0.2963,0.8325,-6.44,7.56,-0.14,21.83
3540,0.0522,-0.3007,0.8301,-6.17,7.62,-0.17,21.86
3550,0.0542,-0.3062,0.8446,-5.95,8.18,0.02,21.86
3560,0.051,-0.3071,0.8428,-5.97,8.66,0.14,21.87
3570,0.0483,-0.3102,0.8556,-6.06,8.44,0.11,21.84
3580,0.0464,-0.3058,0.8572,-6.08,7.89,-0.08,21.85
3590,0.0483,-0.3087,0.8573,-6.12,7.21,-0.18,21.86
3600,0.048,-0.3096,0.8514,-6.31,6.93,-0.31,21.87
3610,0.0527,-0.3043,0.8453,-6.43,6.93,-0.21,21.86
3620,0.0527,-0.3002,0.8312,-6.5,7.48,-0.09,21.87
3630,0.051,-0.3033,0.8352,-6.08,8.21,0.06,21.87
3640,0.0503,-0.2999,0.8402,-5.76,8.64,0.2,21.87
3650,0.0446,-0.3009,0.8524,-5.76,8.81,0.2,21.84
3660,0.0432,-0.3033,0.8625,-5.91,8.43,0.14,21.87
3670,0.0425,-0.3048,0.8595,-6.26,7.74,-0.14,21.87
3680,0.0464,-0.308,0.8529,-6.56,6.93,-0.31,21.87
3690,0.0488,-0.3113,0.8387,-6.64,6.76,-0.38,21.87
3700,0.054,-0.3087,0.8304,-6.4,6.93,-0.32,21.86
3710,0.0582,-0.3022,0.8287,-5.97,7.71,-0.03,21.86
3720,0.052,-0.3005,0.8309,-5.73,8.56,0.31,21.86
3730,0.0497,-0.2972,0.8444,-5.56,8.93,0.38,21.87
3740,0.0482,-0.2968,0.8503,-5.74,8.61,0.32,21.87
3750,0.0458,-0.2968,0.8518,-6.11,7.88,0.06,21.88
3760,0.0461,-0.3027,0.8521,-6.32,7.42,-0.15,21.87
3770,0.0527,-0.3062,0.847,-6.55,7.36,-0.21,21.88
3780,0.054,-0.3086,0.8436,-6.61,7.8,-0.21,21.89
3790,0.0552,-0.307,0.8363,-6.44,8.18,0.0,21.88
3800,0.0557,-0.3065,0.8408,-6.17,8.64,0.08,21.87
3810,0.0459,-0.3065,0.8429,-5.86,8.63,0.21,21.87
3820,0.0436,-0.3058,0.8468,-5.94,8.34,0.15,21.87
3830,0.0435,-0.3018,0.8524,-6.06,8.06,0.08,21.87
3840,0.0426,-0.3016,0.8505,-6.27,7.73,0.0,21.89
3850,0.0448,-0.3022,0.8545,-6.4,7.76,0.03,21.87
3860,0.0458,-0.304,0.8478,-6.24,7.88,0.02,21.87
3870,0.0481,-0.3068,0.8519,-6.23,8.15,0.02,21.89
3880,0.0439,-0.3069,0.8534,-6.09,8.26,0.05,21.89
3890,0.0449,-0.3098,0.8599,-5.94,8.29,0.15,21.89
3900,0.0468,-0.3058,0.856,-5.95,7.98,0.08,21.9
3910,0.046,-0.3079,0.8557,-6.06,7.79,0.0,21.88
3920,0.0441,-0.3041,0.8507,-6.21,7.73,0.02,21.87
3930,0.0483,-0.3046,0.8499,-6.41,7.77,-0.03,21.87
3940,0.0526,-0.302,0.8425,-6.32,7.88,0.02,21.88
3950,0.0496,-0.3038,0.8367,-6.09,8.03,0.03,21.89
3960,0.0513,-0.3042,0.8408,-5.94,8.15,0.11,21.89
3970,0.0488,-0.3031,0.8466,-5.89,8.11,0.11,21.9
3980,0.0504,-0.3052,0.8523,-5.91,8.11,0.02,21.87
3990,0.0508,-0.3065,0.8528,-6.03,8.0,0.06,21.88
4000,0.0508,-0.3068,0.8597,-6.14,7.97,-0.06,21.89
4010,0.054,-0.3057,0.8542,-6.24,7.8,-0.03,21.91
4020,0.052,-0.3052,0.8506,-6.29,7.66,-0.08,21.87
4030,0.0498,-0.3026,0.8414,-6.23,7.54,-0.14,21.89
4040,0.0535,-0.3005,0.8335,-6.17,7.5,-0.06,21.89
4050,0.0518,-0.3004,0.8353,-6.0,7.69,-0.11,21.86
4060,0.0546,-0.2992,0.8429,-5.8,8.15,0.06,21.87
4070,0.0476,-0.3043,0.849,-5.98,8.7,0.15,21.89
4080,0.0442,-0.3037,0.8499,-6.21,8.89,0.2,21.9
4090,0.0389,-0.3046,0.8534,-6.44,8.49,0.05,21.9
4100,0.0375,-0.3041,0.8459,-6.44,7.69,-0.12,21.87
4110,0.0436,-0.303,0.8428,-6.32,6.92,-0.31,21.87
4120,0.0452,-0.3013,0.8418,-6.18,6.72,-0.12,21.9
4130,0.0513,-0.3016,0.8384,-6.09,7.15,-0.23,21.87
4140,0.0514,-0.3042,0.8391,-6.18,7.94,-0.02,21.91
4150,0.0496,-0.3009,0.8424,-6.18,8.46,0.02,21.9
4160,0.0443,-0.3076,0.85,-6.2,8.63,0.09,21.9
4170,0.043,-0.3091,0.8521,-6.21,8.24,0.03,21.9
4180,0.0415,-0.3103,0.859,-6.24,7.77,-0.02,21.91
4190,0.0461,-0.309,0.8555,-6.2,7.18,-0.15,21.9
4200,0.0502,-0.3088,0.8503,-6.34,6.93,-0.24,21.89
4210,0.0507,-0.3055,0.8416,-6.26,6.96,-0.31,21.88
4220,0.0518,-0.3059,0.8359,-6.32,7.19,-0.18,21.88
4230,0.0526,-0.3046,0.8367,-6.15,7.8,-0.03,21.91
4240,0.0494,-0.3074,0.84,-6.03,8.15,0.11,21.91
4250,0.0482,-0.3049,0.845,-5.97,8.32,0.11,21.91
4260,0.0477,-0.3031,0.8531,-5.86,8.18,0.09,21.9
4270,0.0442,-0.3041,0.8589,-5.95,7.77,0.03,21.91
4280,0.0416,-0.3033,0.8575,-6.09,7.31,-0.24,21.89
4291,0.046,-0.3032,0.8522,-6.35,7.08,-0.27,21.92
4302,0.0481,-0.3054,0.8436,-6.41,7.16,-0.23,21.92
4312,0.0476,-0.3049,0.8386,-6.29,7.47,-0.14,21.91
4322,0.0524,-0.306,0.8414,-6.02,7.85,-0.03,21.95
4332,0.0481,-0.3065,0.8436,-5.86,8.2,0.02,21.91
4342,0.0474,-0.3042,0.848,-5.91,8.15,0.14,21.91
4352,0.0463,-0.3043,0.8507,-5.98,7.92,-0.05,21.91
4362,0.0474,-0.303,0.8484,-6.2,7.51,-0.14,21.92
4372,0.048,-0.3,0.8439,-6.29,7.3,-0.18,21.93
4382,0.0485,-0.3027,0.843,-6.37,7.21,-0.2,21.92
4392,0.0497,-0.3013,0.8431,-6.23,7.31,-0.18,21.92
4402,0.0499,-0.3026,0.8429,-6.11,7.69,-0.02,21.94
4412,0.0494,-0.3011,0.8472,-5.95,8.09,0.03,21.92
4422,0.0469,-0.301,0.848,-5.95,8.31,0.14,21.93
4432,0.0447,-0.2958,0.8569,-5.98,8.18,0.08,21.93
4442,0.0447,-0.302,0.8529,-6.06,7.54,-0.09,21.92
4452,0.05,-0.2983,0.8549,-6.17,7.16,-0.14,21.93
4462,0.0581,-0.297,0.8452,-6.23,7.1,-0.14,21.9
4472,0.0566,-0.2996,0.8458,-6.21,7.45,-0.12,21.93
4482,0.0579,-0.3031,0.8486,-6.26,7.98,-0.05,21.91
4492,0.0544,-0.3022,0.8481,-6.2,8.43,0.09,21.9
4502,0.0483,-0.3055,0.8492,-6.2,8.43,0.05,21.94
4512,0.0449,-0.3041,0.8489,-6.23,8.14,-0.02,21.93
4522,0.0426,-0.3043,0.8501,-6.26,7.77,-0.08,21.92
4532,0.046,-0.3053,0.8496,-6.18,7.57,-0.06,21.93
4542,0.0463,-0.3069,0.8459,-6.02,7.53,-0.12,21.94
4552,0.0459,-0.3048,0.844,-5.94,7.69,-0.06,21.93
4562,0.0463,-0.3031,0.8475,-5.97,7.76,-0.03,21.92
4572,0.0413,-0.2971,0.8485,-5.97,7.69,-0.08,21.94
4582,0.0222,-0.2965,0.8392,-6.56,7.8,-0.29,21.93
4592,0.0565,-0.3018,0.8241,-6.4,7.16,-0.05,21.95
4602,0.0492,-0.3127,0.8347,-5.33,7.31,0.02,21.93
4612,0.0525,-0.3021,0.8535,-5.63,7.05,-0.35,21.95
4622,0.0521,-0.2963,0.8429,-5.65,8.06,-0.23,21.92
4632,0.0492,-0.3081,0.8596,-6.12,8.06,-0.05,21.9
4642,0.0443,-0.3066,0.8497,-6.43,8.69,0.08,21.92
4652,0.0479,-0.3104,0.8496,-6.98,8.43,-0.02,21.92
4662,0.0498,-0.3079,0.844,-6.64,8.14,-0.17,21.93
4672,0.048,-0.3069,0.8447,-5.91,7.25,-0.12,21.93
4682,0.0471,-0.3149,0.8422,-5.85,7.15,0.21,21.94
4692,0.0443,-0.3025,0.8555,-6.26,8.32,0.05,21.92
4702,0.0399,-0.2803,0.8529,-6.35,8.37,-0.23,21.95
4712,0.0559,-0.3047,0.849,-6.09,8.06,-0.08,21.91
4722,0.041,-0.3048,0.8411,-5.6,6.66,-0.21,21.91
4732,0.0511,-0.3019,0.8524,-5.33,6.35,-0.32,21.92
4742,0.0618,-0.2983,0.8386,-5.85,6.79,-0.17,21.96
4752,0.0577,-0.3204,0.8391,-6.55,7.94,-0.17,21.93
4762,0.0553,-0.3104,0.8412,-7.34,8.6,-0.11,21.93
4772,0.0477,-0.3096,0.8376,-7.08,9.01,0.03,21.91
4782,0.0457,-0.3065,0.8345,-5.88,8.26,0.17,21.96
4792,0.0449,-0.3098,0.8457,-4.87,7.05,0.09,21.93
4802,0.0529,-0.2994,0.8561,-4.81,6.98,-0.02,21.93
4812,0.0555,-0.2943,0.866,-5.42,7.36,-0.05,21.94
4822,0.0479,-0.3015,0.8643,-6.38,8.15,-0.05,21.94
4832,0.0486,-0.3054,0.8536,-7.33,8.34,-0.18,21.93
4842,0.0474,-0.3075,0.8455,-7.27,8.29,-0.23,21.95
4852,0.0458,-0.3104,0.8398,-6.56,7.68,-0.17,21.92
4862,0.0463,-0.3093,0.8324,-5.71,7.31,-0.08,21.93
4872,0.0475,-0.3022,0.8412,-5.4,7.25,0.06,21.94
4882,0.048,-0.2974,0.8387,-5.47,7.66,0.09,21.93
4892,0.0436,-0.2913,0.8461,-5.65,7.8,0.05,21.92
4902,0.0458,-0.291,0.8502,-6.09,7.91,0.02,21.94
4912,0.051,-0.2942,0.8455,-6.49,7.77,-0.08,21.94
4922,0.0469,-0.2954,0.8469,-6.6,7.92,-0.08,21.93
4932,0.0485,-0.301,0.8446,-6.52,7.95,-0.12,21.93
4942,0.0469,-0.3044,0.8436,-6.46,8.09,-0.08,21.95
4952,0.0457,-0.306,0.8438,-6.37,8.02,-0.06,21.94
4962,0.0463,-0.3093,0.838,-6.17,7.66,-0.06,21.93
4972,0.0455,-0.3063,0.8429,-5.98,7.45,-0.08,21.94
4982,0.0496,-0.304,0.8435,-6.09,7.48,-0.08,21.95
4992,0.0507,-0.3025,0.8419,-6.21,7.56,-0.06,21.94
5002,0.0507,-0.2985,0.8462,-6.12,7.8,0.05,21.94
5012,0.0488,-0.2991,0.8459,-6.26,7.85,-0.05,21.95
5022,0.0514,-0.2969,0.8517,-6.21,7.89,-0.09,21.93
5032,0.0466,-0.3004,0.8522,-6.26,7.86,-0.05,21.95
5042,0.051,-0.3077,0.8535,-6.26,7.95,-0.08,21.94
5052,0.0497,-0.3088,0.8557,-6.32,8.03,-0.06,21.94
5062,0.0491,-0.3114,0.8549,-6.27,8.0,-0.14,21.95
5072,0.0476,-0.3102,0.8556,-6.29,7.73,-0.05,21.95
5082,0.0483,-0.306,0.8503,-6.2,7.37,-0.09,21.95
5092,0.0502,-0.3018,0.8479,-6.2,7.22,-0.11,21.97
5102,0.0494,-0.3019,0.8425,-6.0,7.27,-0.12,21.94
5112,0.05,-0.2957,0.8441,-5.98,7.6,-0.03,21.96
5122,0.0551,-0.2975,0.8435,-6.03,7.98,0.05,21.95
5132,0.0496,-0.299,0.8507,-6.15,8.29,0.02,21.95
5142,0.0485,-0.3022,0.8489,-6.4,8.21,-0.05,21.95
5152,0.0465,-0.3087,0.8497,-6.67,7.97,-0.2,21.95
5162,0.048,-0.3063,0.848,-6.6,7.56,-0.26,21.99
5172,0.0496,-0.3116,0.8428,-6.41,7.18,-0.2,21.98
5182,0.0497,-0.3099,0.8423,-6.06,7.25,-0.12,21.97
5192,0.0508,-0.3049,0.8423,-5.83,7.59,0.03,21.98
5202,0.0492,-0.3046,0.8473,-5.79,8.0,0.08,21.95
5212,0.0481,-0.3011,0.8523,-5.95,8.26,0.06,21.97
5222,0.0461,-0.2994,0.8501,-6.21,8.11,0.06,21.96
5232,0.0447,-0.3019,0.8501,-6.43,7.88,-0.08,21.99
5242,0.0469,-0.3058,0.84,-6.5,7.47,-0.15,21.96
5252,0.0482,-0.3025,0.8405,-6.4,7.27,-0.21,21.95
5262,0.0499,-0.3088,0.8405,-6.17,7.42,-0.15,21.96
5272,0.05,-0.3065,0.8365,-6.12,7.89,0.03,21.96
5282,0.0469,-0.3066,0.8389,-6.12,8.02,-0.02,21.97
5292,0.0493,-0.304,0.8462,-5.97,7.95,0.03,21.97
5302,0.0452,-0.3042,0.8469,-5.97,7.82,0.06,21.96
5312,0.0475,-0.3011,0.8488,-6.12,7.63,-0.08,21.97
5322,0.0481,-0.2996,0.8492,-6.12,7.59,-0.08,21.97
5332,0.0525,-0.3004,0.8492,-6.15,7.56,-0.09,21.96
5342,0.0487,-0.3036,0.8474,-6.23,7.77,-0.14,21.98
5352,0.0514,-0.3041,0.8484,-6.2,7.94,-0.09,21.96
5362,0.0519,-0.3063,0.8496,-6.18,7.88,-0.08,21.97
5372,0.0483,-0.3054,0.8485,-6.15,7.76,-0.02,21.97
5382,0.0485,-0.3035,0.8448,-6.2,7.62,-0.12,21.96
5392,0.0498,-0.302,0.8455,-6.21,7.56,-0.11,21.96
5402,0.046,-0.3035,0.8452,-6.11,7.59,-0.08,21.97
5412,0.0482,-0.3027,0.8488,-6.12,7.62,-0.05,21.96
5422,0.048,-0.2993,0.8467,-6.12,7.74,-0.05,21.97
5432,0.0502,-0.3022,0.8455,-6.21,7.92,-0.06,21.95
5442,0.0496,-0.3031,0.8488,-6.23,7.85,-0.08,21.96
5452,0.0482,-0.3021,0.8528,-6.23,7.83,-0.11,21.98
5462,0.0504,-0.3076,0.848,-6.29,7.74,-0.06,21.98
5472,0.0507,-0.3047,0.8484,-6.18,7.63,-0.11,21.96
5482,0.0514,-0.3037,0.8491,-6.29,7.51,-0.12,21.99
5492,0.0509,-0.302,0.8463,-6.11,7.5,-0.08,21.97
5502,0.0514,-0.3016,0.8474,-6.11,7.65,-0.14,21.97
5512,0.0499,-0.2997,0.8416,-6.03,7.83,0.0,21.99
5522,0.0474,-0.2991,0.8439,-6.03,7.89,-0.03,21.99
5532,0.0464,-0.298,0.8475,-6.24,7.89,-0.08,21.97
5542,0.0461,-0.3008,0.8458,-6.21,7.8,-0.02,21.97
5552,0.0485,-0.3003,0.8402,-6.35,7.69,-0.12,21.95
5562,0.049,-0.3063,0.8445,-6.26,7.63,-0.08,21.97
5572,0.0498,-0.3054,0.8427,-6.24,7.66,-0.03,21.96
5582,0.05,-0.3041,0.845,-6.17,7.77,-0.03,21.97
5592,0.0487,-0.306,0.8479,-6.11,7.82,0.05,21.95
5602,0.0476,-0.3033,0.8491,-6.08,7.76,-0.02,21.97
5612,0.0485,-0.302,0.8501,-6.14,7.6,-0.05,21.98
5622,0.0479,-0.3035,0.8453,-6.18,7.51,-0.09,21.93
5632,0.0494,-0.3022,0.8436,-6.21,7.56,-0.12,21.97
5642,0.0491,-0.3011,0.847,-6.29,7.71,-0.02,21.99
5652,0.0493,-0.3022,0.8492,-6.23,7.86,-0.03,21.97
5662,0.0487,-0.3048,0.8444,-6.24,7.91,-0.03,21.97
5672,0.0446,-0.3057,0.8477,-6.14,7.85,-0.11,21.97
5682,0.0486,-0.3057,0.8499,-6.31,7.71,-0.14,21.97
5692,0.0494,-0.3044,0.8423,-6.31,7.62,-0.11,21.99
5702,0.049,-0.3057,0.8425,-6.27,7.48,-0.11,21.97
5712,0.0535,-0.3046,0.8418,-6.15,7.53,-0.08,21.99
5722,0.048,-0.304,0.8459,-5.94,7.76,0.02,21.99
5732,0.0475,-0.3027,0.847,-5.97,7.92,0.08,22.0
5742,0.049,-0.3016,0.848,-5.98,8.02,0.05,21.99
5752,0.0502,-0.3016,0.8546,-6.18,7.94,-0.05,22.0
5762,0.0487,-0.3057,0.8533,-6.4,7.76,-0.14,21.98
5772,0.0515,-0.3074,0.8497,-6.43,7.47,-0.17,21.98
5782,0.0509,-0.3041,0.8452,-6.29,7.45,-0.18,21.98
5792,0.0477,-0.3043,0.8429,-6.2,7.51,-0.08,21.98
5802,0.0519,-0.304,0.8367,-6.11,7.66,-0.09,22.0
5812,0.0504,-0.3032,0.8352,-6.09,7.8,-0.08,21.99
5822,0.0486,-0.3054,0.8451,-6.02,7.98,0.02,22.0
5832,0.0483,-0.3052,0.853,-5.97,8.06,-0.05,21.98
5842,0.0509,-0.306,0.8558,-5.98,8.05,0.02,21.99
5852,0.0515,-0.3051,0.8601,-6.08,7.63,-0.02,22.0
5862,0.0525,-0.3046,0.8569,-6.18,7.42,-0.08,22.01
5872,0.051,-0.3038,0.855,-6.23,7.21,-0.17,21.97
5882,0.0502,-0.3059,0.8512,-6.34,7.27,-0.14,21.99
5892,0.0514,-0.3022,0.8423,-6.37,7.59,-0.14,22.02
5902,0.0494,-0.3018,0.8389,-6.32,7.88,-0.08,22.02
5912,0.049,-0.3011,0.8376,-6.17,8.09,0.02,22.01
5922,0.0459,-0.301,0.8419,-6.03,8.15,0.0,22.0
5932,0.051,-0.3054,0.8458,-6.05,7.91,0.08,21.98
5942,0.0505,-0.3035,0.8505,-5.92,7.63,-0.03,21.99
5952,0.048,-0.2981,0.8514,-6.06,7.48,-0.17,21.98
5962,0.0488,-0.3019,0.8474,-6.26,7.42,-0.21,22.0
5972,0.0511,-0.3025,0.8496,-6.44,7.31,-0.24,22.02
5982,0.0494,-0.3021,0.8396,-6.34,7.42,-0.17,22.0
5992,0.0525,-0.2998,0.8416,-6.27,7.66,-0.06,22.02
6002,0.0488,-0.2992,0.8381,-6.06,7.88,-0.05,22.01
6012,0.0488,-0.2993,0.8455,-5.95,8.08,0.08,22.01
6022,0.0494,-0.302,0.8506,-5.98,8.12,0.03,22.02
6032,0.0486,-0.303,0.8514,-6.09,8.0,-0.02,22.02
6042,0.0465,-0.3014,0.8533,-6.35,7.65,-0.09,22.01
6052,0.0493,-0.3033,0.8508,-6.47,7.37,-0.26,22.0
6062,0.0481,-0.3062,0.8445,-6.43,7.16,-0.29,22.01
6072,0.0511,-0.3062,0.8394,-6.44,7.37,-0.18,21.99
6082,0.0532,-0.306,0.8386,-6.12,7.68,0.0,22.01
6092,0.0527,-0.3036,0.8401,-5.95,8.06,0.06,22.01
6102,0.0475,-0.3066,0.8519,-5.89,8.32,0.08,21.99
6112,0.047,-0.3052,0.8522,-5.95,8.09,0.03,21.99
6122,0.0461,-0.3018,0.855,-6.26,7.65,-0.06,22.03
6132,0.0463,-0.3016,0.8494,-6.43,7.22,-0.12,21.99
6142,0.049,-0.3029,0.8439,-6.46,7.05,-0.23,22.0
6152,0.053,-0.3014,0.8386,-6.38,7.27,-0.15,21.99
6162,0.0529,-0.3015,0.8383,-6.21,7.74,-0.08,22.0
6172,0.0536,-0.3035,0.8438,-5.91,8.15,0.09,22.01
6182,0.0486,-0.3041,0.8502,-5.91,8.41,0.17,22.01
6192,0.0497,-0.3054,0.8557,-6.02,8.03,0.05,22.01
6202,0.0499,-0.3051,0.8591,-6.14,7.65,-0.08,22.02
6212,0.0498,-0.3046,0.8573,-6.14,7.25,-0.14,22.02
6222,0.0514,-0.3038,0.8533,-6.38,7.07,-0.23,22.02
6232,0.0544,-0.3069,0.8491,-6.38,7.24,-0.23,22.02
6242,0.0544,-0.3052,0.844,-6.34,7.59,-0.12,22.01
6252,0.0529,-0.3053,0.8409,-6.11,7.82,-0.05,22.02
6262,0.05,-0.3075,0.8484,-6.03,7.98,0.02,22.03
6272,0.0503,-0.306,0.8444,-6.05,7.8,0.0,22.0
6282,0.0487,-0.3042,0.8422,-6.2,7.62,-0.11,22.02
6292,0.0465,-0.3016,0.8436,-6.27,7.4,-0.12,22.0
6302,0.0505,-0.3005,0.8418,-6.2,7.39,-0.2,21.98
6312,0.0522,-0.3019,0.838,-6.17,7.53,-0.09,22.02
6322,0.0498,-0.2993,0.8402,-6.17,7.69,-0.12,22.02
6332,0.0479,-0.2996,0.8424,-6.06,7.92,-0.09,22.01
6342,0.0486,-0.3005,0.8447,-6.12,7.94,-0.05,21.99
6352,0.0453,-0.2983,0.843,-6.29,7.82,-0.12,21.99
6362,0.0452,-0.2993,0.8424,-6.27,7.65,-0.06,22.04
6372,0.0469,-0.2998,0.8411,-6.35,7.66,-0.05,22.0
6382,0.0487,-0.3007,0.8411,-6.31,7.66,-0.06,22.01
6392,0.0488,-0.3018,0.8442,-6.17,7.89,-0.05,22.02
6402,0.0508,-0.3011,0.8456,-6.08,8.0,0.08,22.0
6412,0.0486,-0.3087,0.8514,-6.14,8.02,0.02,22.03
6422,0.0538,-0.3068,0.8539,-6.09,7.8,0.02,22.01
6432,0.0469,-0.3064,0.8542,-6.12,7.62,-0.03,22.01
6445,0.0492,-0.3046,0.8528,-6.5,7.5,0.34,22.02
6455,0.0548,-0.3083,0.8485,-6.27,7.57,-0.06,22.03
6465,0.0529,-0.3049,0.8513,-6.21,7.71,0.02,22.0
6475,0.0525,-0.306,0.8474,-6.14,7.98,-0.02,22.01
6485,0.0482,-0.3036,0.8528,-6.09,8.06,0.06,22.01
6495,0.0469,-0.3036,0.8544,-6.11,7.91,-0.02,22.0
6505,0.0463,-0.3008,0.8549,-6.17,7.66,-0.14,22.02
6515,0.0475,-0.3016,0.8477,-6.29,7.36,-0.17,22.01
6525,0.0531,-0.2999,0.8481,-6.29,7.25,-0.17,22.01
6535,0.0522,-0.3051,0.8469,-6.18,7.54,-0.09,22.02
6545,0.0544,-0.3014,0.8445,-6.09,7.85,-0.11,21.99
6555,0.0519,-0.3036,0.8455,-6.0,8.05,-0.03,22.01
6565,0.0513,-0.3013,0.847,-6.11,8.09,0.06,22.04
6576,0.0496,-0.2999,0.8478,-6.23,7.79,-0.08,22.05
6586,0.051,-0.3015,0.8458,-6.32,7.54,-0.18,22.0
6596,0.0509,-0.3015,0.8407,-6.37,7.42,-0.15,22.0
6606,0.0516,-0.3047,0.8424,-6.24,7.57,-0.08,22.04
6616,0.0479,-0.3037,0.8427,-6.11,7.92,0.02,22.03
6626,0.049,-0.3037,0.8425,-6.06,8.17,0.05,22.02
6636,0.0492,-0.3016,0.8438,-6.05,8.18,0.0,22.03
6646,0.0458,-0.3011,0.8507,-6.17,7.89,0.03,22.03
6656,0.0471,-0.2994,0.847,-6.27,7.56,-0.12,22.03
6666,0.0525,-0.3026,0.8396,-6.4,7.4,-0.15,22.02
6676,0.05,-0.304,0.8373,-6.41,7.44,-0.2,22.01
6686,0.0525,-0.3,0.8413,-6.21,7.83,-0.05,22.02
6696,0.0507,-0.3036,0.8423,-6.12,8.03,0.05,22.03
6706,0.0497,-0.3043,0.8413,-6.12,8.17,0.06,22.02
6716,0.049,-0.3014,0.8448,-6.08,8.08,0.02,22.01
6726,0.052,-0.3031,0.854,-6.08,7.73,0.0,22.04
6736,0.0486,-0.3062,0.8527,-6.29,7.68,-0.06,22.02
6746,0.0493,-0.3059,0.8535,-6.37,7.62,-0.05,22.03
6756,0.0507,-0.3064,0.8483,-6.32,7.77,-0.17,22.01
6766,0.0527,-0.3062,0.8479,-6.31,7.74,-0.08,22.02
6776,0.0519,-0.3036,0.8489,-6.12,7.89,-0.03,22.04
6786,0.0508,-0.3036,0.8523,-6.05,7.79,-0.02,22.02
6796,0.0492,-0.3052,0.8456,-6.09,7.76,0.02,22.03
6806,0.0472,-0.3032,0.8502,-6.21,7.68,-0.11,22.01
6816,0.0516,-0.3013,0.847,-6.21,7.47,-0.05,22.01
6826,0.053,-0.3022,0.8492,-6.18,7.59,-0.18,22.01
6836,0.0524,-0.3022,0.8435,-6.12,7.73,-0.06,22.02
6846,0.0527,-0.3021,0.8479,-6.03,7.95,-0.02,22.02
6856,0.0511,-0.3011,0.8522,-6.15,8.05,-0.08,22.0
6866,0.0469,-0.3036,0.8468,-6.18,7.98,-0.03,22.03
6876,0.0468,-0.3011,0.8446,-6.15,7.71,-0.02,22.04
6886,0.0499,-0.3004,0.8514,-6.18,7.59,0.0,22.01
6896,0.0465,-0.3062,0.8512,-6.09,7.54,-0.12,22.04
6906,0.0522,-0.3041,0.8373,-6.15,7.6,-0.09,22.04
6916,0.0531,-0.2985,0.8433,-6.12,7.73,-0.11,22.04
6926,0.0522,-0.3005,0.8414,-6.0,7.8,0.0,22.03
6936,0.0507,-0.3013,0.8468,-6.06,8.05,0.05,22.03
6946,0.0483,-0.2988,0.8469,-6.18,8.05,-0.06,22.02
6956,0.0466,-0.2996,0.8467,-6.37,7.82,-0.05,22.04
6966,0.0475,-0.3044,0.843,-6.34,7.65,-0.06,22.02
6976,0.0477,-0.3074,0.8391,-6.35,7.68,-0.09,22.01
6986,0.0504,-0.3031,0.8418,-6.15,7.89,-0.06,22.02
6996,0.0493,-0.3024,0.8463,-6.03,7.91,0.12,22.03
7006,0.0499,-0.304,0.8496,-6.0,8.03,0.05,22.03
7016,0.0476,-0.3054,0.8522,-6.08,7.91,-0.05,22.02
7026,0.0488,-0.3011,0.8521,-6.23,7.76,-0.08,22.05
7036,0.0483,-0.3011,0.8524,-6.26,7.56,-0.08,22.03
7046,0.048,-0.3029,0.8497,-6.29,7.57,-0.14,22.02
7056,0.0536,-0.2999,0.8486,-6.24,7.57,-0.08,22.03
7066,0.0548,-0.3014,0.8427,-6.29,7.79,-0.05,22.01
7076,0.0558,-0.3062,0.8448,-6.15,8.02,-0.08,22.03
7086,0.0509,-0.3051,0.8489,-6.14,8.15,0.02,22.05
7096,0.0518,-0.3063,0.8466,-6.2,8.18,0.02,22.01
7106,0.0529,-0.3059,0.8539,-6.2,8.0,0.02,22.04
7116,0.049,-0.3013,0.8501,-6.15,7.86,-0.14,22.03
7126,0.0503,-0.3041,0.8469,-6.29,7.62,-0.08,22.02
7136,0.0471,-0.301,0.8472,-6.17,7.53,-0.09,22.03
7146,0.0514,-0.3048,0.8464,-6.12,7.48,-0.11,22.04
7156,0.0507,-0.3035,0.85,-6.15,7.63,-0.09,22.05
7166,0.0514,-0.306,0.8491,-6.08,7.8,-0.21,22.03
7176,0.0509,-0.3054,0.8468,-6.23,7.91,-0.09,22.02
7186,0.0494,-0.302,0.8458,-6.27,7.85,-0.12,22.03
7196,0.0481,-0.3002,0.8422,-6.26,7.63,-0.06,22.04
7206,0.0499,-0.3037,0.8422,-6.21,7.59,-0.11,22.04
7216,0.0513,-0.2972,0.8416,-6.08,7.69,-0.12,22.04
7226,0.052,-0.3002,0.8466,-6.17,7.86,-0.08,22.01
7236,0.0498,-0.3033,0.8461,-6.34,8.06,0.03,22.02
7246,0.0485,-0.3047,0.8392,-6.38,7.98,-0.09,22.02
7257,0.0482,-0.3102,0.8466,-6.23,7.88,0.0,22.04
7267,0.0494,-0.3077,0.8506,-6.17,7.8,-0.14,22.04
7277,0.0472,-0.3058,0.8459,-5.97,7.71,0.05,22.04
7287,0.0474,-0.3007,0.8502,-5.97,7.6,-0.02,22.03
7302,0.0474,-0.3013,0.8459,-6.09,7.63,-0.06,22.02
7312,0.05,-0.304,0.8435,-6.31,7.76,-0.03,22.05
7322,0.0477,-0.3014,0.8439,-6.29,7.79,-0.14,22.02
7332,0.0518,-0.3052,0.8444,-6.34,7.73,-0.03,22.02
7342,0.0494,-0.3029,0.8453,-6.2,7.83,-0.03,22.04
7352,0.0502,-0.304,0.85,-6.08,7.82,-0.03,22.04
7362,0.0525,-0.3024,0.8468,-6.05,7.8,0.0,22.04
7372,0.05,-0.3032,0.8467,-6.11,7.88,-0.03,22.03
7382,0.0516,-0.3035,0.849,-6.15,7.8,-0.06,22.06
7392,0.0504,-0.3055,0.849,-6.29,7.8,-0.08,22.07
7402,0.0504,-0.3054,0.8513,-6.26,7.71,-0.09,22.04
7412,0.0498,-0.3026,0.8473,-6.31,7.59,-0.21,22.07
7422,0.0507,-0.3051,0.8477,-6.11,7.56,-0.08,22.04
7432,0.052,-0.3046,0.8452,-5.94,7.57,-0.03,22.02
7444,0.0526,-0.2994,0.851,-5.95,7.79,0.03,22.03
7454,0.0529,-0.3008,0.8481,-6.08,8.02,-0.05,22.06
7464,0.0505,-0.3007,0.849,-6.31,8.05,-0.06,22.05
7474,0.0479,-0.3018,0.8467,-6.35,7.8,-0.18,22.05
7484,0.0492,-0.3047,0.8412,-6.38,7.62,-0.2,22.04
7494,0.0508,-0.3003,0.8406,-6.21,7.37,-0.14,22.04
7504,0.0491,-0.3008,0.8412,-6.2,7.4,-0.08,22.04
7514,0.0516,-0.3014,0.842,-5.98,7.8,-0.03,22.05
7524,0.0531,-0.3018,0.8479,-6.0,8.15,-0.02,22.05
7534,0.0486,-0.2997,0.8513,-6.06,8.29,0.08,22.05
7544,0.047,-0.2996,0.851,-6.17,8.03,-0.03,22.04
7554,0.0491,-0.3013,0.853,-6.29,7.66,-0.08,22.04
7564,0.0503,-0.3021,0.8497,-6.37,7.36,-0.18,22.06
7574,0.0524,-0.3014,0.8417,-6.26,7.42,-0.12,22.07
7584,0.0541,-0.3033,0.8396,-6.21,7.63,-0.11,22.05
7594,0.0533,-0.3057,0.8438,-6.2,7.92,0.03,22.05
7604,0.0509,-0.302,0.8453,-6.14,8.14,0.06,22.04
7614,0.0482,-0.3014,0.8474,-6.17,8.0,0.09,22.03
7624,0.0518,-0.3024,0.8473,-6.08,7.71,0.0,22.05
7634,0.0522,-0.3014,0.8455,-6.24,7.62,-0.03,22.07
7644,0.0526,-0.3036,0.848,-6.12,7.6,-0.06,22.07
7654,0.0537,-0.3057,0.848,-6.18,7.79,-0.05,22.07
7664,0.0544,-0.3046,0.8483,-6.24,7.97,-0.09,22.06
7674,0.0511,-0.304,0.8524,-6.18,7.88,-0.09,22.06
7684,0.0505,-0.3074,0.8497,-6.26,7.83,-0.09,22.04
7694,0.0488,-0.3042,0.8484,-6.24,7.77,-0.11,22.06
7704,0.0479,-0.3068,0.847,-6.31,7.69,-0.09,22.04
7714,0.0497,-0.3029,0.8423,-6.11,7.65,-0.03,22.07
7724,0.049,-0.3026,0.8448,-6.11,7.69,-0.05,22.07
7734,0.0499,-0.3049,0.8461,-6.06,7.74,-0.08,22.05
7744,0.0497,-0.3038,0.8445,-5.97,7.86,0.03,22.05
7754,0.0486,-0.3024,0.8507,-6.12,7.8,0.02,22.05
7764,0.051,-0.3035,0.8503,-6.26,7.79,-0.08,22.05
7774,0.0524,-0.3066,0.8485,-6.35,7.62,-0.14,22.06
7784,0.0552,-0.3051,0.8445,-6.29,7.51,-0.15,22.07
7794,0.0541,-0.3052,0.8398,-6.23,7.69,-0.12,22.07
7804,0.0531,-0.3053,0.8418,-6.0,8.09,0.03,22.06
7814,0.0499,-0.3063,0.8413,-6.08,8.26,0.09,22.05
7824,0.0474,-0.2998,0.8488,-6.14,8.06,0.0,22.07
7834,0.0428,-0.3,0.8486,-6.14,7.71,-0.12,22.05
7844,0.0466,-0.2974,0.8444,-6.17,7.31,-0.11,22.07
7854,0.0503,-0.3015,0.8467,-6.15,7.4,-0.12,22.07
7864,0.0499,-0.3024,0.8477,-6.27,7.68,-0.05,22.08
7874,0.0507,-0.3021,0.8435,-6.24,8.0,-0.02,22.05
7884,0.0486,-0.3038,0.8467,-6.31,8.18,0.0,22.07
7894,0.0514,-0.3047,0.8451,-6.14,8.08,-0.02,22.06
7904,0.0507,-0.3053,0.8521,-6.2,7.77,0.0,22.04
7914,0.0479,-0.3087,0.8491,-6.09,7.68,-0.08,22.05
7924,0.0538,-0.3036,0.8494,-6.14,7.53,-0.11,22.07
7934,0.0504,-0.3036,0.8534,-6.21,7.74,-0.14,22.07
7944,0.0551,-0.3065,0.8499,-6.35,7.77,-0.09,22.09
7954,0.0499,-0.3052,0.8503,-6.26,7.95,-0.11,22.08
7964,0.0526,-0.3049,0.8489,-6.26,7.95,0.05,22.08
7974,0.0525,-0.3059,0.849,-6.2,7.82,0.02,22.06
7984,0.048,-0.3053,0.8455,-6.15,7.68,-0.06,22.05
7994,0.0505,-0.3058,0.8453,-6.17,7.71,-0.08,22.06
8004,0.0536,-0.3041,0.8458,-6.18,7.6,-0.06,22.05
8014,0.0525,-0.3021,0.8478,-6.02,7.63,-0.09,22.06
8024,0.0514,-0.3003,0.8424,-6.06,7.65,-0.09,22.06
8034,0.05,-0.3036,0.8418,-6.03,7.73,-0.12,22.07
8044,0.0508,-0.3021,0.8458,-6.17,7.95,-0.05,22.06
8054,0.0494,-0.3004,0.8462,-6.15,7.83,0.08,22.06
8064,0.0463,-0.3025,0.8467,-6.14,7.89,-0.02,22.06
8074,0.0482,-0.3025,0.8466,-6.26,7.91,-0.06,22.04
8084,0.0502,-0.3019,0.8483,-6.32,7.83,-0.08,22.08
8094,0.0483,-0.2998,0.849,-6.26,7.82,-0.09,22.08
8104,0.05,-0.3015,0.8452,-6.26,7.68,-0.08,22.07
8114,0.0494,-0.303,0.8453,-6.18,7.73,-0.02,22.08
8124,0.0475,-0.3042,0.8491,-6.08,7.8,-0.09,22.07
8134,0.0463,-0.3036,0.8566,-6.08,7.89,-0.06,22.06
8144,0.0477,-0.304,0.8494,-6.18,7.73,-0.06,22.06
8154,0.0507,-0.3027,0.8463,-6.21,7.68,-0.06,22.07
8164,0.0532,-0.3015,0.8472,-6.21,7.54,-0.05,22.08
8174,0.0525,-0.3048,0.8469,-6.21,7.54,-0.06,22.08
8184,0.0518,-0.3009,0.8489,-6.18,7.74,0.0,22.07
8194,0.0533,-0.3004,0.8468,-6.21,7.8,-0.05,22.06
8204,0.0505,-0.3024,0.8442,-6.18,7.79,-0.15,22.07
8214,0.0536,-0.3026,0.8446,-6.21,7.8,-0.06,22.07
8224,0.0524,-0.3043,0.8445,-6.23,7.86,-0.03,22.07
8234,0.051,-0.3016,0.8488,-6.21,7.89,0.02,22.07
8244,0.0469,-0.3031,0.8441,-6.21,7.91,-0.05,22.08
8254,0.0469,-0.3031,0.8478,-6.18,7.85,-0.02,22.07
8264,0.0474,-0.3031,0.8442,-6.15,7.92,0.0,22.07
8274,0.0497,-0.3026,0.8435,-6.21,7.66,-0.11,22.07
8284,0.0493,-0.3046,0.8494,-6.18,7.71,-0.15,22.09
8294,0.0492,-0.3033,0.8511,-6.2,7.77,-0.11,22.09
8304,0.0509,-0.3063,0.8474,-6.11,7.86,-0.05,22.08
8314,0.0511,-0.3018,0.8496,-6.23,7.83,-0.08,22.07
8324,0.0486,-0.3032,0.8528,-6.18,7.79,-0.09,22.08
8334,0.0493,-0.3032,0.8491,-6.18,7.71,-0.03,22.06
8344,0.0482,-0.3038,0.8492,-6.18,7.63,-0.15,22.08
8354,0.0503,-0.3033,0.8481,-6.17,7.62,-0.09,22.04
8364,0.05,-0.3024,0.8484,-6.17,7.65,-0.14,22.07
8374,0.0515,-0.3019,0.8472,-6.17,7.89,-0.06,22.08
8384,0.0515,-0.3035,0.8499,-6.15,7.82,0.05,22.07
8394,0.0497,-0.3044,0.8444,-6.18,7.83,-0.06,22.07
8404,0.0486,-0.3046,0.8418,-6.18,7.68,-0.03,22.07
8414,0.0509,-0.3063,0.8422,-6.18,7.63,-0.06,22.08
8424,0.0498,-0.3036,0.8446,-6.12,7.68,-0.02,22.09
8434,0.0494,-0.2998,0.8445,-6.08,7.8,-0.05,22.08
8444,0.051,-0.3013,0.8501,-6.02,7.82,-0.06,22.07
8454,0.0476,-0.3022,0.8505,-6.15,7.88,-0.02,22.07
8464,0.0504,-0.3007,0.8489,-6.21,7.83,-0.05,22.04
8474,0.0519,-0.3032,0.8508,-6.24,7.69,0.05,22.06
8484,0.0513,-0.3031,0.8481,-6.23,7.68,-0.15,22.06
8494,0.052,-0.3025,0.8446,-6.26,7.65,-0.02,22.07
8504,0.0504,-0.3015,0.8447,-6.23,7.79,-0.11,22.07
8514,0.0503,-0.3027,0.8434,-6.24,7.92,-0.08,22.07
8524,0.0474,-0.3009,0.8439,-6.31,7.89,-0.02,22.05
8534,0.0497,-0.3014,0.8455,-6.23,7.83,-0.12,22.08
8544,0.0483,-0.3018,0.8411,-6.29,7.74,-0.14,22.08
8554,0.0483,-0.3009,0.845,-6.32,7.65,-0.09,22.09
8564,0.0483,-0.3057,0.845,-6.21,7.82,-0.03,22.1
8574,0.0503,-0.3033,0.8479,-6.03,8.06,0.06,22.07
8584,0.05,-0.3018,0.8523,-6.12,8.12,0.08,22.08
8594,0.0449,-0.3032,0.8561,-6.15,8.11,0.05,22.07
8604,0.0507,-0.3047,0.8568,-6.18,7.76,0.03,22.06
8614,0.0479,-0.3004,0.8492,-6.24,7.48,-0.21,22.07
8624,0.0527,-0.3007,0.8436,-6.38,7.16,-0.2,22.09
8634,0.0549,-0.3015,0.8412,-6.37,7.15,-0.21,22.08
8644,0.0559,-0.3011,0.8304,-6.08,7.53,-0.11,22.07
8654,0.0541,-0.3044,0.8342,-6.12,8.02,0.02,22.08
8664,0.0521,-0.3044,0.8375,-6.06,8.44,0.21,22.07
8674,0.0454,-0.3041,0.8489,-5.92,8.63,0.17,22.06
8684,0.0427,-0.3025,0.855,-6.03,8.41,0.11,22.09
8694,0.0448,-0.3011,0.8579,-6.0,7.8,-0.05,22.08
8704,0.0449,-0.3019,0.8531,-6.15,7.28,-0.18,22.09
8714,0.0524,-0.3021,0.8497,-6.21,7.08,-0.23,22.09
8724,0.0525,-0.3013,0.8451,-6.29,7.28,-0.18,22.1
8734,0.0573,-0.3019,0.8456,-6.26,7.73,-0.09,22.1
8744,0.0541,-0.3052,0.8448,-6.18,8.14,0.03,22.09
8754,0.0522,-0.3021,0.8448,-6.24,8.17,0.12,22.11
8764,0.0508,-0.3022,0.8452,-6.18,8.02,-0.02,22.1
8774,0.0527,-0.3002,0.8418,-6.05,7.65,-0.02,22.11
8784,0.052,-0.2982,0.8489,-5.97,7.45,-0.03,22.07
8794,0.0522,-0.2969,0.8478,-6.11,7.51,0.0,22.07
8804,0.056,-0.2981,0.8448,-6.24,7.83,0.05,22.09
8814,0.0508,-0.2988,0.8447,-6.43,8.12,-0.06,22.07
8824,0.0491,-0.3029,0.8461,-6.44,8.26,0.0,22.07
8834,0.0464,-0.3069,0.847,-6.29,8.14,0.02,22.07
8844,0.0455,-0.3054,0.8512,-6.14,7.95,-0.05,22.08
8854,0.0485,-0.3075,0.8489,-6.14,7.57,-0.15,22.09
8864,0.0494,-0.3047,0.8511,-6.11,7.5,-0.09,22.09
8874,0.0525,-0.3016,0.8512,-6.05,7.54,-0.12,22.07
8884,0.0516,-0.3009,0.8544,-6.06,7.71,0.0,22.07
8894,0.0497,-0.3014,0.8505,-6.14,7.89,-0.03,22.09
8904,0.0504,-0.304,0.8458,-6.27,8.0,0.03,22.07
8914,0.049,-0.3002,0.8452,-6.44,7.88,-0.06,22.08
8924,0.0482,-0.3053,0.8442,-6.34,7.66,-0.12,22.07
8934,0.0479,-0.3054,0.8419,-6.17,7.56,-0.08,22.1
8944,0.0494,-0.3051,0.8462,-6.0,7.68,-0.05,22.09
8954,0.0507,-0.3032,0.8469,-5.94,7.89,0.0,22.08
8964,0.0486,-0.3031,0.8497,-6.03,7.98,0.06,22.08
8974,0.0461,-0.3016,0.8541,-6.2,7.97,-0.03,22.08
8984,0.0474,-0.3022,0.8528,-6.32,7.74,-0.09,22.08
8994,0.0477,-0.3047,0.844,-6.38,7.47,-0.12,22.07
9004,0.049,-0.3047,0.8433,-6.37,7.33,-0.23,22.1
9014,0.0536,-0.301,0.8387,-6.35,7.44,-0.12,22.09
9024,0.0532,-0.3014,0.8417,-6.12,7.82,-0.09,22.09
9034,0.0549,-0.3053,0.8444,-5.98,8.08,-0.03,22.12
9044,0.052,-0.3019,0.8472,-6.05,8.12,0.05,22.11
9054,0.0526,-0.304,0.8495,-6.24,7.89,0.03,22.1
9064,0.0507,-0.3049,0.8462,-6.32,7.62,-0.09,22.08
9074,0.0487,-0.3007,0.8438,-6.29,7.47,-0.09,22.1
9084,0.052,-0.2999,0.842,-6.37,7.54,-0.11,22.09
9094,0.0524,-0.3016,0.8408,-6.27,7.82,-0.06,22.09
9104,0.0513,-0.3051,0.8429,-6.06,7.97,0.02,22.1
9114,0.0482,-0.3025,0.8489,-6.12,8.14,0.03,22.08
9124,0.0443,-0.3002,0.8511,-6.21,8.0,-0.09,22.09
9134,0.0481,-0.3005,0.8503,-6.32,7.69,-0.09,22.09
9144,0.0505,-0.3029,0.8468,-6.26,7.48,-0.12,22.09
9154,0.05,-0.302,0.8469,-6.18,7.45,-0.12,22.08
9164,0.0521,-0.3036,0.8466,-6.17,7.66,-0.05,22.08
9174,0.0549,-0.3003,0.8469,-6.08,8.05,0.03,22.12
9184,0.0524,-0.3042,0.8514,-6.08,8.11,0.02,22.09
9194,0.049,-0.3036,0.8502,-6.15,8.02,0.03,22.12
9204,0.0471,-0.3016,0.8511,-6.27,7.86,0.0,22.1
9214,0.0487,-0.3007,0.8496,-6.35,7.56,-0.12,22.11
9224,0.0511,-0.3024,0.8464,-6.31,7.6,-0.14,22.09
9234,0.0505,-0.3046,0.8445,-6.23,7.6,-0.09,22.1
9244,0.0525,-0.3019,0.8452,-6.08,7.77,-0.06,22.1
9254,0.0507,-0.304,0.8473,-6.09,8.02,0.03,22.09
9264,0.0479,-0.306,0.8475,-6.24,7.92,0.05,22.08
9274,0.0468,-0.3019,0.8525,-6.15,7.83,-0.02,22.09
9284,0.0508,-0.3015,0.8503,-6.18,7.65,-0.17,22.08
9294,0.0514,-0.3007,0.8457,-6.32,7.57,-0.14,22.1
9304,0.0502,-0.3018,0.8467,-6.18,7.56,-0.02,22.1
9314,0.0498,-0.3031,0.8466,-6.32,7.79,0.0,22.09
9324,0.0516,-0.2976,0.8453,-6.08,7.98,-0.06,22.1
9334,0.0522,-0.299,0.8489,-6.03,8.0,0.0,22.1
9344,0.049,-0.3011,0.8481,-6.23,7.89,-0.05,22.1
9354,0.0469,-0.3007,0.8474,-6.23,7.63,-0.03,22.09
9364,0.0494,-0.3053,0.8486,-6.29,7.56,-0.11,22.11
9374,0.0502,-0.3,0.843,-6.31,7.6,-0.12,22.11
9384,0.0508,-0.3044,0.8459,-6.23,7.79,0.0,22.12
9394,0.0497,-0.3043,0.8453,-6.2,7.95,-0.02,22.09
9404,0.0503,-0.3032,0.8459,-6.11,7.98,-0.06,22.11
9414,0.0486,-0.3002,0.8513,-6.18,7.89,0.0,22.09
9424,0.0488,-0.3011,0.8451,-6.23,7.71,-0.11,22.12
9434,0.0515,-0.3042,0.8474,-6.29,7.53,-0.12,22.1
9444,0.0497,-0.3016,0.8502,-6.32,7.53,-0.05,22.09
9454,0.0526,-0.3041,0.8463,-6.21,7.71,-0.06,22.12
9464,0.0493,-0.3043,0.8412,-6.18,7.94,-0.02,22.14
9474,0.0482,-0.3047,0.8479,-6.06,8.05,0.0,22.11
9484,0.0483,-0.3008,0.8488,-6.09,7.97,0.02,22.11
9494,0.0498,-0.3029,0.8522,-6.2,7.77,-0.05,22.12
9504,0.0505,-0.3054,0.8524,-6.34,7.6,-0.11,22.11
9514,0.051,-0.3025,0.8489,-6.2,7.66,-0.11,22.11
9524,0.0503,-0.3035,0.8502,-6.23,7.71,-0.08,22.12
9534,0.0498,-0.3032,0.8485,-6.21,7.82,-0.06,22.12
9544,0.0482,-0.3033,0.8463,-6.17,7.85,-0.05,22.1
9554,0.0498,-0.3051,0.847,-6.11,7.89,0.0,22.11
9564,0.0486,-0.2997,0.8499,-6.11,7.76,0.05,22.11
9574,0.0509,-0.2991,0.843,-6.15,7.74,-0.05,22.1
9584,0.0497,-0.3019,0.8455,-6.24,7.74,-0.06,22.11
9594,0.0491,-0.302,0.8481,-6.34,7.77,-0.05,22.12
9604,0.0494,-0.3018,0.8464,-6.29,7.76,-0.03,22.1
9614,0.0494,-0.3035,0.8483,-6.15,7.79,-0.06,22.09
9624,0.0503,-0.3043,0.8468,-6.11,7.94,-0.02,22.1
9634,0.0469,-0.3015,0.8455,-6.14,7.86,-0.05,22.09
9644,0.0494,-0.304,0.8473,-6.24,7.69,-0.06,22.12
9654,0.0507,-0.3019,0.8479,-6.17,7.65,-0.15,22.12
9664,0.0483,-0.3002,0.8497,-6.18,7.73,-0.11,22.09
9674,0.0505,-0.3035,0.8461,-6.26,7.73,-0.11,22.1
9684,0.0516,-0.3037,0.8445,-6.27,7.77,-0.03,22.11
9694,0.0499,-0.3027,0.8427,-6.21,7.88,-0.03,22.1
9704,0.0515,-0.3059,0.8477,-6.14,7.94,-0.05,22.13
9714,0.0509,-0.3042,0.8453,-6.18,7.86,-0.08,22.12
9724,0.0499,-0.302,0.8477,-6.11,7.82,-0.09,22.09
9734,0.051,-0.3008,0.847,-6.14,7.68,-0.08,22.12
9744,0.0508,-0.3005,0.8484,-6.2,7.76,-0.05,22.1
9754,0.0494,-0.3009,0.8463,-6.27,7.76,-0.06,22.1
9764,0.0531,-0.3029,0.8497,-6.31,7.77,-0.06,22.09
9774,0.0507,-0.3048,0.8502,-6.17,7.83,-0.02,22.1
9784,0.0492,-0.3035,0.8516,-6.15,7.91,0.03,22.12
9794,0.0469,-0.3014,0.8489,-6.2,7.83,-0.08,22.1
9804,0.0502,-0.3025,0.851,-6.31,7.77,-0.09,22.13
9814,0.051,-0.302,0.8442,-6.2,7.62,-0.09,22.12
9824,0.0494,-0.3048,0.8478,-6.18,7.63,-0.03,22.12
9834,0.0508,-0.3007,0.8492,-6.15,7.68,-0.02,22.12
9844,0.0516,-0.3019,0.8452,-6.2,7.8,-0.03,22.09
9854,0.0524,-0.3016,0.8463,-6.18,7.88,0.03,22.12
9864,0.0494,-0.303,0.8473,-6.23,7.83,-0.09,22.11
9874,0.0518,-0.3015,0.8503,-6.23,7.82,-0.09,22.13
9884,0.0482,-0.3057,0.8461,-6.2,7.74,-0.03,22.11
9894,0.0487,-0.304,0.849,-6.26,7.69,-0.02,22.12
9904,0.0497,-0.3019,0.8494,-6.2,7.74,-0.06,22.12
9914,0.0503,-0.2986,0.8474,-6.21,7.82,-0.02,22.1
9924,0.0511,-0.2985,0.8481,-6.12,7.83,-0.06,22.12
9934,0.0507,-0.2988,0.8481,-6.17,7.92,-0.02,22.13
9944,0.0496,-0.301,0.8466,-6.27,7.74,-0.05,22.1
9954,0.0468,-0.3033,0.8468,-6.26,7.73,-0.03,22.12
9964,0.048,-0.3035,0.8477,-6.31,7.6,-0.03,22.12
9974,0.0518,-0.303,0.8419,-6.32,7.63,-0.05,22.14
9984,0.0525,-0.3037,0.8472,-6.18,7.8,-0.05,22.13
9994,0.0529,-0.3032,0.8485,-6.15,7.83,0.02,22.12
10004,0.0516,-0.3044,0.8491,-6.23,7.89,-0.08,22.11
10014,0.0491,-0.3059,0.8525,-6.18,7.86,-0.03,22.11
10024,0.0498,-0.3024,0.8484,-6.26,7.73,-0.14,22.12
10034,0.0521,-0.3018,0.8479,-6.27,7.6,-0.05,22.11
10044,0.049,-0.3009,0.8474,-6.18,7.62,0.0,22.12
10054,0.0524,-0.3027,0.8463,-6.17,7.62,-0.02,22.12
10064,0.0529,-0.3011,0.8499,-6.15,7.91,0.02,22.12
10074,0.0514,-0.3019,0.8441,-6.18,8.03,0.0,22.11
10084,0.0492,-0.3037,0.851,-6.27,7.94,0.03,22.11
10094,0.049,-0.2999,0.847,-6.17,7.79,-0.02,22.1
10104,0.0492,-0.3049,0.8501,-6.27,7.71,-0.15,22.11
10114,0.0518,-0.3021,0.8519,-6.23,7.66,-0.08,22.12
10124,0.0542,-0.304,0.8459,-6.29,7.63,-0.06,22.11
10134,0.0507,-0.3033,0.8428,-6.12,7.85,-0.06,22.11
10144,0.0503,-0.2992,0.8459,-6.18,7.85,-0.03,22.13
10154,0.0499,-0.2999,0.8494,-6.18,7.95,-0.02,22.12
10164,0.0488,-0.3025,0.8467,-6.26,7.83,-0.14,22.12
10174,0.0509,-0.3027,0.8494,-6.27,7.69,-0.08,22.12
10184,0.0492,-0.3011,0.8474,-6.26,7.73,-0.09,22.13
10194,0.0522,-0.3024,0.8456,-6.18,7.73,-0.12,22.12
10204,0.0513,-0.3033,0.8425,-6.24,7.74,-0.03,22.12
10214,0.0508,-0.3052,0.8444,-6.14,7.82,-0.05,22.14
10224,0.0498,-0.3019,0.8475,-6.15,7.82,-0.08,22.14
10234,0.0497,-0.3025,0.8481,-6.15,7.77,-0.08,22.13
10244,0.0475,-0.3038,0.8535,-6.08,7.71,-0.03,22.13
10254,0.0497,-0.3013,0.8497,-6.23,7.76,0.0,22.11
10264,0.0498,-0.3018,0.8503,-6.27,7.74,-0.03,22.12
10274,0.0481,-0.3009,0.845,-6.26,7.79,-0.06,22.14
10284,0.051,-0.3031,0.8431,-6.21,7.8,-0.05,22.12
10294,0.0487,-0.3024,0.8444,-6.26,7.79,-0.03,22.11
10304,0.0509,-0.3025,0.8463,-6.23,7.77,-0.02,22.13
10314,0.0515,-0.3013,0.8486,-6.21,7.74,-0.03,22.13
10324,0.0513,-0.3014,0.848,-6.18,7.83,-0.09,22.11
10334,0.0507,-0.3024,0.8534,-6.2,7.83,-0.06,22.12
10344,0.0491,-0.3024,0.8469,-6.31,7.76,-0.06,22.13
10354,0.0525,-0.3019,0.8477,-6.27,7.73,-0.08,22.14
10364,0.0516,-0.3031,0.8461,-6.27,7.71,-0.12,22.14
10374,0.0537,-0.303,0.8451,-6.2,7.69,-0.14,22.13
10384,0.0496,-0.3007,0.8462,-6.15,7.76,-0.11,22.12
10394,0.0514,-0.304,0.8448,-6.18,7.89,-0.05,22.14
10404,0.0466,-0.3011,0.8507,-6.15,7.97,-0.03,22.12
10415,0.0481,-0.3038,0.8495,-6.24,7.98,-0.02,22.11
10425,0.045,-0.3027,0.8518,-6.23,7.83,-0.02,22.13
10435,0.0455,-0.3025,0.85,-6.24,7.59,-0.05,22.12
10446,0.0515,-0.3026,0.8485,-6.2,7.57,-0.06,22.12
10456,0.0547,-0.3024,0.8491,-6.18,7.62,-0.08,22.12
10466,0.0505,-0.3025,0.8478,-6.11,7.89,0.0,22.14
10476,0.0479,-0.2991,0.8479,-6.14,7.94,0.02,22.13
10486,0.0499,-0.3048,0.8512,-6.24,7.85,0.0,22.13
10496,0.0493,-0.3014,0.8477,-6.24,7.62,-0.12,22.12
10506,0.0469,-0.3031,0.851,-6.24,7.62,-0.11,22.14
10516,0.0504,-0.3038,0.8438,-6.23,7.51,-0.06,22.15
10526,0.0533,-0.3029,0.848,-6.14,7.65,0.06,22.11
10536,0.0516,-0.3031,0.8485,-6.14,7.94,0.03,22.13
10546,0.0494,-0.3058,0.8496,-6.2,7.98,0.0,22.11
10556,0.0511,-0.3022,0.8448,-6.15,7.94,0.02,22.09
10566,0.0476,-0.3011,0.8472,-6.27,7.74,-0.06,22.14
10576,0.0494,-0.3033,0.8468,-6.17,7.6,-0.15,22.14
10586,0.0516,-0.3002,0.8463,-6.24,7.51,-0.09,22.12
10596,0.0515,-0.3013,0.8484,-6.24,7.65,-0.12,22.14
10606,0.0525,-0.3021,0.8451,-6.12,7.76,-0.03,22.13
10616,0.0515,-0.3019,0.8455,-6.18,7.88,-0.03,22.13
10626,0.0527,-0.3038,0.8448,-6.14,7.85,-0.08,22.1
10636,0.0463,-0.3042,0.8473,-6.21,7.79,-0.08,22.12
10646,0.0516,-0.3035,0.8479,-6.27,7.68,-0.12,22.13
10656,0.0524,-0.3005,0.8485,-6.26,7.62,-0.14,22.15
10666,0.0493,-0.3041,0.8467,-6.21,7.73,-0.11,22.12
10676,0.0513,-0.3043,0.8461,-6.21,7.94,-0.05,22.13
10686,0.0505,-0.3054,0.853,-6.11,7.98,-0.03,22.12
10696,0.0504,-0.3057,0.8508,-6.2,7.95,-0.02,22.12
10706,0.051,-0.3024,0.8486,-6.23,7.68,0.0,22.14
10716,0.0482,-0.3013,0.8534,-6.34,7.56,-0.09,22.11
10726,0.0522,-0.3026,0.8503,-6.23,7.56,-0.14,22.1
10736,0.0505,-0.3042,0.8477,-6.2,7.62,-0.06,22.15
10746,0.0481,-0.3022,0.8478,-6.2,7.86,-0.03,22.14
10756,0.0504,-0.3022,0.8459,-6.17,8.02,0.03,22.13
10766,0.0482,-0.3018,0.8481,-6.17,8.09,0.0,22.13
10776,0.0487,-0.3033,0.8511,-6.15,7.92,-0.02,22.14
10786,0.0496,-0.3,0.8488,-6.2,7.62,-0.15,22.15
10796,0.0486,-0.3004,0.8507,-6.34,7.51,-0.12,22.14
10806,0.0494,-0.3005,0.8452,-6.23,7.48,-0.08,22.14
10816,0.0515,-0.303,0.8483,-6.2,7.74,-0.11,22.14
10826,0.0522,-0.3014,0.8451,-6.15,7.97,0.06,22.14
10836,0.0503,-0.3019,0.8462,-6.18,8.14,0.08,22.13
10846,0.049,-0.3022,0.8497,-6.17,8.06,0.0,22.15
10856,0.0476,-0.3011,0.8527,-6.29,7.76,-0.09,22.13
10866,0.0504,-0.3035,0.8502,-6.34,7.54,-0.17,22.13
10876,0.0497,-0.303,0.8433,-6.27,7.48,-0.15,22.13
10886,0.05,-0.3025,0.8474,-6.15,7.68,-0.03,22.14
10896,0.0516,-0.3016,0.8447,-6.11,7.89,0.0,22.15
10906,0.0502,-0.3003,0.8521,-6.06,8.12,0.02,22.12
10916,0.0476,-0.3027,0.8523,-6.15,8.0,-0.05,22.13
10926,0.0503,-0.3026,0.8513,-6.24,7.79,-0.06,22.12
10936,0.0518,-0.3021,0.8535,-6.26,7.56,-0.12,22.14
10946,0.0514,-0.3032,0.8517,-6.37,7.51,-0.11,22.14
10956,0.0549,-0.2997,0.8466,-6.29,7.69,-0.15,22.12
10966,0.0524,-0.3037,0.8434,-6.26,7.86,-0.09,22.13
10976,0.053,-0.3048,0.8479,-6.15,8.0,0.03,22.14
10986,0.0509,-0.3057,0.8464,-6.14,7.94,0.0,22.14
10996,0.0494,-0.3025,0.8496,-6.18,7.74,-0.03,22.16
11006,0.047,-0.2999,0.8473,-6.18,7.59,-0.08,22.14
11016,0.048,-0.2988,0.8455,-6.21,7.53,-0.09,22.12
11026,0.0508,-0.3019,0.8433,-6.11,7.74,-0.06,22.16
11036,0.0526,-0.2986,0.8466,-6.2,8.02,0.0,22.14
11046,0.0487,-0.3027,0.8502,-6.15,8.15,-0.03,22.15
11056,0.0466,-0.3009,0.8505,-6.23,8.08,-0.03,22.1
11066,0.0487,-0.3038,0.8444,-6.34,7.95,-0.06,22.15
11076,0.0454,-0.3042,0.8468,-6.35,7.56,-0.09,22.14
11086,0.0481,-0.3053,0.8472,-6.37,7.39,-0.14,22.12
11096,0.0522,-0.3027,0.8394,-6.27,7.42,-0.14,22.13
11106,0.0522,-0.3042,0.8403,-6.08,7.57,-0.08,22.13
11116,0.054,-0.3015,0.845,-6.08,7.91,0.03,22.12
11126,0.0498,-0.2999,0.8483,-6.0,8.03,0.08,22.14
11136,0.0504,-0.3002,0.8496,-6.14,8.09,0.06,22.14
11146,0.0465,-0.2992,0.8534,-6.29,7.95,0.0,22.16
11156,0.0494,-0.304,0.8478,-6.37,7.73,-0.15,22.16
11166,0.0537,-0.304,0.847,-6.5,7.57,-0.2,22.15
11176,0.0514,-0.3063,0.849,-6.21,7.65,-0.12,22.15
11186,0.054,-0.3026,0.8435,-6.21,7.71,0.0,22.16
11196,0.0494,-0.3048,0.8469,-6.18,7.97,0.03,22.14
11206,0.0508,-0.303,0.8468,-6.06,7.92,0.06,22.14
11216,0.0509,-0.3032,0.8525,-6.06,7.82,-0.02,22.15
11226,0.049,-0.3021,0.8464,-6.21,7.77,-0.11,22.15
11236,0.0496,-0.3013,0.8478,-6.27,7.68,-0.06,22.13
11246,0.0511,-0.3021,0.8503,-6.31,7.76,-0.09,22.14
11256,0.0485,-0.3029,0.8478,-6.35,7.8,-0.08,22.14
11266,0.0502,-0.3037,0.8481,-6.35,7.89,0.02,22.12
11276,0.0504,-0.3025,0.8457,-6.18,7.83,-0.08,22.14
11286,0.0481,-0.3016,0.8502,-6.18,7.71,-0.03,22.14
11296,0.0529,-0.3038,0.8463,-6.18,7.63,-0.12,22.15
11306,0.0553,-0.3038,0.8475,-6.14,7.59,-0.11,22.14
11316,0.0521,-0.3024,0.8514,-6.15,7.69,-0.06,22.13
11326,0.0546,-0.3021,0.8514,-6.2,7.88,-0.11,22.15
11336,0.0525,-0.3011,0.8529,-6.18,7.98,0.03,22.14
11346,0.0492,-0.3009,0.8488,-6.2,7.97,-0.05,22.15
11356,0.051,-0.3015,0.8491,-6.31,7.8,-0.02,22.12
11366,0.0476,-0.3037,0.848,-6.32,7.62,-0.14,22.17
11376,0.0488,-0.3026,0.8446,-6.26,7.51,-0.09,22.14
11386,0.0492,-0.3015,0.8417,-6.2,7.62,-0.05,22.15
11396,0.0548,-0.2999,0.8477,-6.14,7.97,0.06,22.15
11406,0.0493,-0.3015,0.8506,-6.09,8.03,0.0,22.14
11416,0.0492,-0.3003,0.8472,-6.23,8.03,0.03,22.13
11426,0.0483,-0.3007,0.8475,-6.26,7.77,-0.05,22.16
11436,0.0463,-0.2998,0.8469,-6.24,7.53,-0.11,22.14
11446,0.0515,-0.298,0.8445,-6.32,7.47,-0.14,22.14
11456,0.0537,-0.3031,0.8423,-6.2,7.71,-0.08,22.14
11466,0.0493,-0.3049,0.8461,-6.17,8.06,0.02,22.15
11476,0.0522,-0.3077,0.843,-6.21,8.15,0.06,22.15
11486,0.0472,-0.3036,0.8529,-6.21,8.08,-0.03,22.14
11496,0.0502,-0.3033,0.8464,-6.24,7.65,-0.06,22.15
11506,0.0505,-0.3029,0.8486,-6.21,7.31,-0.12,22.15
11516,0.053,-0.3021,0.8461,-6.15,7.25,-0.15,22.13
11526,0.0543,-0.3004,0.8483,-6.12,7.53,-0.12,22.17
11536,0.0527,-0.3021,0.8456,-6.17,8.08,-0.02,22.16
11546,0.0509,-0.3027,0.855,-6.24,8.29,0.02,22.15
11556,0.0487,-0.3032,0.8539,-6.11,8.2,0.05,22.15
11566,0.0463,-0.3025,0.8538,-6.21,7.74,-0.11,22.15
11576,0.0492,-0.3024,0.851,-6.24,7.45,-0.11,22.17
11586,0.0488,-0.3044,0.8535,-6.18,7.34,-0.14,22.15
11596,0.0551,-0.3042,0.8478,-6.14,7.5,-0.11,22.14
11606,0.0529,-0.3035,0.8492,-6.09,7.83,-0.02,22.16
11616,0.052,-0.3049,0.8481,-6.21,8.12,-0.02,22.17
11626,0.0503,-0.3066,0.8489,-6.21,8.08,0.03,22.16
11636,0.0487,-0.3031,0.8472,-6.23,7.77,-0.09,22.18
11646,0.0494,-0.3029,0.8497,-6.2,7.45,-0.12,22.16
11656,0.0527,-0.2994,0.8492,-6.2,7.37,-0.12,22.15
11666,0.0524,-0.3036,0.8495,-6.17,7.54,-0.15,22.14
11676,0.0526,-0.3022,0.8452,-6.11,7.82,-0.06,22.17
11686,0.0522,-0.3021,0.8512,-6.11,8.02,-0.02,22.15
11696,0.0485,-0.299,0.8467,-6.23,8.0,-0.03,22.15
11706,0.0503,-0.2987,0.8461,-6.27,7.71,-0.08,22.14
11716,0.0464,-0.2988,0.8408,-6.18,7.48,-0.06,22.16
11726,0.0515,-0.3002,0.8407,-6.23,7.45,-0.05,22.15
11736,0.0521,-0.3007,0.8431,-6.23,7.71,-0.12,22.16
11746,0.0532,-0.3021,0.8438,-6.24,8.0,0.08,22.19
11756,0.0515,-0.3022,0.8442,-6.29,8.26,0.11,22.15
11766,0.051,-0.3029,0.8474,-6.32,8.2,0.03,22.16
11776,0.0481,-0.3032,0.8527,-6.27,7.92,-0.08,22.15
11786,0.0507,-0.3054,0.8477,-6.2,7.63,-0.09,22.16
11796,0.053,-0.3063,0.8475,-6.31,7.62,-0.11,22.15
11806,0.0494,-0.3042,0.8492,-6.2,7.74,-0.05,22.14
11816,0.0507,-0.3038,0.8523,-6.21,8.02,0.02,22.17
11826,0.0479,-0.3038,0.8475,-6.2,8.12,-0.03,22.17
11836,0.0439,-0.3049,0.8522,-6.15,8.05,-0.02,22.14
11846,0.0474,-0.3024,0.8481,-6.24,7.73,0.0,22.17
11856,0.0464,-0.3031,0.8475,-6.18,7.45,-0.08,22.19
11866,0.0482,-0.3016,0.8508,-6.18,7.47,-0.06,22.18
11876,0.0541,-0.3033,0.849,-6.24,7.59,-0.06,22.14
11886,0.0525,-0.3021,0.8447,-6.26,7.85,-0.05,22.18
11896,0.0509,-0.3014,0.8492,-6.18,8.02,-0.03,22.17
11906,0.0503,-0.3037,0.8518,-6.23,7.97,0.06,22.16
11916,0.0471,-0.3025,0.8492,-6.21,7.77,-0.09,22.15
11926,0.0481,-0.3053,0.8475,-6.26,7.56,-0.09,22.13
11936,0.0458,-0.303,0.8457,-6.2,7.51,-0.15,22.15
11946,0.0535,-0.3021,0.849,-6.17,7.68,-0.09,22.17
11956,0.051,-0.3046,0.8455,-6.24,7.91,-0.05,22.15
11966,0.0499,-0.3069,0.85,-6.2,7.98,-0.05,22.16
11976,0.0461,-0.3041,0.8468,-6.21,7.92,-0.11,22.18
11986,0.05,-0.3002,0.8529,-6.14,7.79,-0.05,22.17
11996,0.0504,-0.3069,0.85,-6.21,7.6,-0.02,22.18
12006,0.0481,-0.3035,0.8438,-6.2,7.51,-0.09,22.17
12016,0.0546,-0.2998,0.8452,-6.12,7.45,-0.15,22.16
12026,0.0507,-0.3013,0.8513,-6.12,7.66,-0.06,22.16
12036,0.0522,-0.3,0.8458,-6.12,7.97,-0.03,22.17
12046,0.0509,-0.2996,0.8406,-6.18,7.97,-0.09,22.16
12056,0.0514,-0.2971,0.8486,-6.17,7.94,-0.06,22.17
12066,0.0477,-0.3026,0.8496,-6.27,7.82,-0.06,22.19
12076,0.0493,-0.3041,0.8525,-6.2,7.88,-0.03,22.2
12086,0.0498,-0.3029,0.8484,-6.21,7.86,-0.05,22.18
12096,0.05,-0.3018,0.8495,-6.21,7.73,-0.06,22.18
12106,0.052,-0.3054,0.8501,-6.34,7.71,-0.02,22.16
12116,0.0505,-0.306,0.8446,-6.26,7.59,-0.03,22.19
12126,0.0529,-0.303,0.8424,-6.14,7.65,-0.05,22.17
12136,0.0522,-0.3024,0.8501,-6.09,7.82,0.03,22.17
12146,0.0525,-0.303,0.8483,-6.23,7.92,0.0,22.18
12156,0.0536,-0.3032,0.8492,-6.23,7.95,-0.02,22.17
12166,0.0511,-0.3033,0.8475,-6.35,7.82,-0.02,22.18
12176,0.0499,-0.3024,0.8473,-6.27,7.68,-0.06,22.17
12186,0.0526,-0.3002,0.8456,-6.31,7.5,-0.14,22.17
12196,0.052,-0.3024,0.8458,-6.17,7.59,-0.14,22.17
12206,0.0521,-0.3033,0.8483,-6.09,7.73,-0.08,22.17
12216,0.0511,-0.3027,0.8528,-6.11,7.92,0.0,22.18
12226,0.0487,-0.3013,0.8512,-6.11,7.97,0.03,22.17
12236,0.053,-0.2997,0.8514,-6.31,7.94,-0.02,22.19
12246,0.0486,-0.3042,0.8452,-6.32,7.65,-0.08,22.17
12256,0.0522,-0.3043,0.8475,-6.29,7.53,-0.15,22.17
12266,0.0526,-0.3027,0.8442,-6.2,7.53,-0.12,22.18
12276,0.0514,-0.2988,0.8438,-6.14,7.73,0.0,22.17
12286,0.052,-0.3025,0.8477,-6.14,7.95,-0.06,22.18
12296,0.0497,-0.2998,0.8462,-6.14,8.02,-0.03,22.17
12309,0.0469,-0.3021,0.8492,-6.23,7.88,-0.02,22.18
12319,0.0492,-0.2992,0.8489,-6.23,7.63,-0.09,22.19
12329,0.0513,-0.3005,0.8485,-6.23,7.62,-0.14,22.2
12339,0.0547,-0.3007,0.8451,-6.27,7.65,-0.11,22.18
12349,0.0538,-0.3035,0.8446,-6.23,7.79,-0.03,22.17
12359,0.0526,-0.3016,0.8456,-6.23,7.92,-0.05,22.16
12369,0.0504,-0.3019,0.8541,-6.14,8.11,0.0,22.17
12379,0.0479,-0.304,0.8542,-6.26,7.91,0.02,22.18
12390,0.0482,-0.3032,0.8483,-6.26,7.79,-0.11,22.18
12400,0.0502,-0.3026,0.8472,-6.27,7.65,-0.06,22.17
12410,0.0516,-0.3035,0.8442,-6.29,7.6,-0.14,22.16
12420,0.051,-0.3013,0.8451,-6.18,7.79,-0.03,22.17
12430,0.0514,-0.3048,0.847,-6.2,7.83,-0.02,22.15
12440,0.052,-0.3041,0.8489,-6.11,7.88,-0.02,22.17
12450,0.0522,-0.3035,0.8517,-6.14,7.76,-0.03,22.16
12460,0.049,-0.3059,0.8474,-6.2,7.73,-0.08,22.17
12470,0.0507,-0.2992,0.8502,-6.21,7.63,-0.14,22.17
12480,0.0502,-0.3054,0.8484,-6.26,7.65,-0.12,22.18
12490,0.0496,-0.3032,0.844,-6.18,7.73,-0.12,22.17
12500,0.0522,-0.3041,0.8467,-6.24,7.86,-0.06,22.17
12510,0.0503,-0.2994,0.8475,-6.09,7.98,-0.03,22.18
12520,0.0488,-0.3019,0.8446,-6.09,7.91,-0.02,22.16
12530,0.0492,-0.304,0.8442,-6.17,7.8,-0.14,22.14
12540,0.0503,-0.3009,0.8462,-6.21,7.65,-0.09,22.18
12550,0.05,-0.3031,0.8451,-6.24,7.51,-0.15,22.18
12560,0.0494,-0.3019,0.8469,-6.12,7.62,-0.11,22.16
12570,0.052,-0.3029,0.8456,-6.05,7.82,-0.08,22.17
12580,0.052,-0.3018,0.844,-6.09,7.88,0.0,22.15
12590,0.053,-0.3025,0.8484,-6.15,7.97,-0.06,22.2
12600,0.0493,-0.3037,0.85,-6.18,7.86,0.0,22.17
12610,0.0486,-0.3021,0.8459,-6.29,7.65,-0.06,22.16
12620,0.0525,-0.3033,0.8463,-6.27,7.59,-0.08,22.18
12630,0.051,-0.3016,0.8488,-6.29,7.68,-0.05,22.16
12640,0.0524,-0.3048,0.8457,-6.21,7.88,-0.03,22.19
12650,0.0525,-0.303,0.8452,-6.12,7.95,0.0,22.16
12660,0.0496,-0.3033,0.8494,-6.09,8.0,-0.02,22.19
12670,0.0502,-0.303,0.8473,-6.18,7.88,-0.03,22.16
12680,0.0499,-0.3035,0.8522,-6.23,7.68,-0.05,22.16
12690,0.0502,-0.3037,0.8488,-6.24,7.65,-0.11,22.18
12700,0.0488,-0.3057,0.849,-6.24,7.63,-0.02,22.18
12710,0.0507,-0.3009,0.8462,-6.21,7.74,-0.08,22.17
12720,0.0498,-0.3026,0.8478,-6.14,7.86,-0.05,22.18
12730,0.0505,-0.3043,0.8516,-6.24,7.92,0.03,22.18
12740,0.0524,-0.3036,0.849,-6.21,7.92,-0.05,22.19
12750,0.0514,-0.3008,0.8499,-6.26,7.77,-0.03,22.19
12760,0.0518,-0.3007,0.8495,-6.18,7.51,-0.14,22.19
12770,0.053,-0.3024,0.8483,-6.21,7.53,-0.11,22.17
12780,0.0537,-0.3007,0.8453,-6.24,7.73,-0.05,22.2
12790,0.0541,-0.3048,0.8463,-6.24,7.86,0.05,22.18
12800,0.0492,-0.2996,0.8461,-6.24,8.09,0.02,22.18
12810,0.0505,-0.3008,0.8486,-6.2,7.92,-0.02,22.19
12820,0.0494,-0.3008,0.8489,-6.24,7.8,-0.09,22.18
12830,0.0477,-0.3018,0.8479,-6.26,7.63,-0.09,22.18
12840,0.0526,-0.3035,0.8479,-6.14,7.48,-0.15,22.17
12850,0.052,-0.3025,0.8468,-6.15,7.65,-0.11,22.18
12860,0.0529,-0.3026,0.8448,-6.2,7.82,-0.03,22.2
12870,0.0516,-0.3042,0.8468,-6.15,7.98,0.0,22.16
12880,0.0476,-0.3051,0.8467,-6.17,8.03,0.02,22.18
12890,0.0497,-0.3035,0.8503,-6.14,7.88,-0.02,22.19
12900,0.0497,-0.302,0.8446,-6.26,7.57,-0.11,22.19
12910,0.05,-0.3014,0.8466,-6.17,7.54,-0.06,22.18
12920,0.0524,-0.3059,0.845,-6.29,7.59,-0.09,22.19
12930,0.0511,-0.3018,0.8466,-6.21,7.8,-0.08,22.19
12940,0.0513,-0.3042,0.8477,-6.2,7.89,-0.05,22.19
12950,0.0533,-0.3053,0.8492,-6.2,7.98,0.02,22.2
12960,0.0474,-0.3058,0.8488,-6.26,7.91,-0.11,22.18
12970,0.0509,-0.3046,0.8473,-6.32,7.69,-0.03,22.17
12980,0.0507,-0.3015,0.8484,-6.2,7.53,-0.14,22.18
12990,0.0513,-0.3029,0.8506,-6.24,7.57,-0.09,22.15
13000,0.0515,-0.3032,0.8491,-6.21,7.74,0.0,22.19
13010,0.0488,-0.3027,0.8514,-6.18,7.95,-0.02,22.18
13020,0.051,-0.3008,0.851,-6.2,8.08,0.03,22.18
13030,0.0516,-0.3055,0.851,-6.24,7.83,0.03,22.18
13040,0.0505,-0.3024,0.8508,-6.32,7.65,-0.06,22.19
13050,0.0516,-0.3015,0.8463,-6.32,7.47,-0.18,22.18
13060,0.0542,-0.3003,0.843,-6.21,7.56,-0.03,22.19
13070,0.0487,-0.3004,0.8424,-6.18,7.77,-0.05,22.19
13080,0.0477,-0.3007,0.8459,-6.14,8.03,0.03,22.17
13090,0.0481,-0.2997,0.8489,-6.21,8.08,0.03,22.15
13100,0.0493,-0.302,0.85,-6.27,7.86,-0.02,22.15
13110,0.052,-0.3005,0.8501,-6.29,7.65,-0.09,22.18
13120,0.0483,-0.3035,0.8439,-6.24,7.6,-0.09,22.17
13130,0.0507,-0.3042,0.8439,-6.29,7.66,-0.05,22.19
13140,0.0536,-0.303,0.8438,-6.2,7.85,-0.09,22.19
13150,0.0504,-0.3029,0.8472,-6.14,7.91,0.02,22.18
13160,0.0488,-0.3031,0.8531,-6.14,8.0,0.0,22.21
13170,0.0509,-0.3018,0.8469,-6.17,7.88,-0.02,22.17
13180,0.0485,-0.2986,0.8456,-6.24,7.69,-0.02,22.19
13190,0.0516,-0.3005,0.8462,-6.2,7.5,-0.14,22.17
13200,0.052,-0.3002,0.8458,-6.31,7.62,-0.11,22.18
13210,0.0514,-0.3003,0.851,-6.12,7.68,-0.12,22.19
13220,0.0486,-0.302,0.8483,-6.2,8.02,0.0,22.19
13230,0.0491,-0.3021,0.8485,-6.26,8.02,0.06,22.21
13240,0.0525,-0.3018,0.8496,-6.26,8.02,-0.03,22.19
13250,0.0504,-0.3008,0.8477,-6.31,7.85,-0.08,22.18
13260,0.0515,-0.3032,0.8467,-6.23,7.68,-0.17,22.19
13270,0.0487,-0.3063,0.8535,-6.26,7.62,-0.08,22.19
13280,0.0522,-0.3014,0.8474,-6.23,7.6,-0.14,22.19
13290,0.0547,-0.302,0.8505,-6.2,7.83,0.02,22.19
13300,0.0516,-0.3035,0.8481,-6.17,7.92,0.06,22.19
13310,0.0485,-0.3033,0.8491,-6.14,7.88,0.02,22.18
13320,0.0491,-0.3025,0.8491,-6.17,7.83,-0.05,22.19
13330,0.05,-0.3038,0.8463,-6.31,7.77,-0.06,22.2
13340,0.0515,-0.3021,0.8446,-6.34,7.73,-0.08,22.21
13350,0.0504,-0.3011,0.8484,-6.17,7.74,-0.05,22.17
13360,0.0508,-0.3027,0.8424,-6.18,7.71,-0.14,22.18
13370,0.0494,-0.3044,0.8451,-6.17,7.8,-0.05,22.2
13380,0.052,-0.3055,0.8431,-6.15,7.91,-0.02,22.2
13390,0.0481,-0.303,0.8473,-6.26,7.76,-0.06,22.19
13400,0.047,-0.302,0.8462,-6.21,7.69,-0.03,22.2
13410,0.0486,-0.3018,0.8494,-6.23,7.63,-0.08,22.2
13420,0.049,-0.3004,0.8455,-6.15,7.69,-0.08,22.18
13430,0.052,-0.3021,0.8447,-6.15,7.74,0.0,22.2
13440,0.0507,-0.3046,0.8472,-6.11,7.91,-0.06,22.18
13450,0.0494,-0.3014,0.8459,-6.24,7.94,0.02,22.18
13460,0.0487,-0.3038,0.8524,-6.17,7.83,-0.02,22.2
13470,0.0483,-0.3046,0.8473,-6.14,7.76,-0.08,22.18
13480,0.0504,-0.3038,0.8473,-6.23,7.66,-0.12,22.2
13490,0.0518,-0.3016,0.8439,-6.23,7.63,-0.06,22.19
13500,0.0525,-0.3008,0.8489,-6.14,7.71,-0.05,22.19
13510,0.0498,-0.3015,0.8456,-6.18,7.91,-0.08,22.22
13520,0.0529,-0.3035,0.8469,-6.23,8.02,-0.05,22.19
13530,0.048,-0.3021,0.849,-6.2,7.94,0.03,22.2
13540,0.0496,-0.3051,0.8549,-6.15,7.85,-0.12,22.2
13550,0.0492,-0.3038,0.8474,-6.27,7.77,-0.06,22.2
13560,0.0487,-0.2997,0.8485,-6.21,7.47,-0.09,22.19
13570,0.0493,-0.3016,0.8435,-6.23,7.62,-0.06,22.21
13580,0.0537,-0.3013,0.8467,-6.17,7.8,-0.06,22.2
13590,0.0505,-0.3054,0.8478,-6.23,7.92,-0.03,22.18
13600,0.0508,-0.3,0.8497,-6.17,7.92,-0.05,22.21
13610,0.0522,-0.3031,0.8508,-6.26,7.79,0.0,22.21
13620,0.0479,-0.3025,0.8492,-6.2,7.63,-0.11,22.21
13630,0.0471,-0.2999,0.847,-6.2,7.59,-0.08,22.22
13640,0.0507,-0.3004,0.8425,-6.18,7.76,-0.05,22.21
13650,0.05,-0.3002,0.847,-6.24,7.86,-0.03,22.22
13660,0.0497,-0.3036,0.8511,-6.21,8.0,-0.03,22.22
13670,0.0514,-0.3011,0.8479,-6.21,7.88,0.02,22.19
13680,0.0519,-0.3007,0.8525,-6.29,7.88,-0.05,22.22
13690,0.0471,-0.3025,0.8501,-6.21,7.68,-0.06,22.19
13700,0.0494,-0.3033,0.8441,-6.17,7.6,-0.11,22.2
13710,0.0515,-0.3031,0.8473,-6.18,7.71,-0.06,22.2
13720,0.0503,-0.3036,0.8448,-6.26,7.91,-0.03,22.21
13730,0.049,-0.3035,0.8428,-6.18,7.97,0.0,22.2
13740,0.049,-0.301,0.8478,-6.2,7.88,-0.03,22.22
13750,0.0494,-0.3016,0.8499,-6.29,7.83,-0.12,22.21
13760,0.0491,-0.3003,0.8463,-6.27,7.65,-0.08,22.22
13770,0.0497,-0.3021,0.8494,-6.15,7.63,-0.06,22.2
13780,0.0526,-0.3049,0.8453,-6.17,7.73,-0.11,22.22
13790,0.0483,-0.3018,0.8489,-6.09,7.83,0.0,22.19
13800,0.0509,-0.3014,0.8501,-6.23,7.91,-0.03,22.24
13810,0.0509,-0.3036,0.8516,-6.27,7.83,-0.08,22.2
13820,0.0514,-0.3035,0.8495,-6.38,7.73,-0.12,22.2
13830,0.0515,-0.3043,0.848,-6.32,7.63,-0.12,22.21
13840,0.0502,-0.3029,0.8444,-6.21,7.65,0.03,22.22
13850,0.0515,-0.2996,0.843,-6.21,7.76,-0.11,22.2
13860,0.0529,-0.3009,0.8474,-6.03,7.83,-0.08,22.21
13870,0.051,-0.3026,0.8512,-6.12,7.88,-0.09,22.22
13880,0.0518,-0.3025,0.8519,-6.23,7.83,-0.08,22.21
13890,0.0518,-0.3008,0.8473,-6.34,7.79,-0.11,22.22
13900,0.0488,-0.302,0.8463,-6.35,7.76,-0.08,22.2
13910,0.0514,-0.302,0.8412,-6.34,7.74,-0.09,22.21
13920,0.0498,-0.3032,0.8457,-6.32,7.66,-0.12,22.23
13930,0.0521,-0.3049,0.8455,-6.08,7.66,-0.06,22.2
13940,0.0525,-0.3029,0.8481,-6.06,7.79,-0.05,22.19
13950,0.0511,-0.302,0.8491,-6.15,7.85,-0.03,22.22
13960,0.0532,-0.3014,0.849,-6.2,7.89,-0.06,22.23
13970,0.0499,-0.302,0.849,-6.18,7.71,-0.09,22.18
13980,0.051,-0.3033,0.8488,-6.2,7.74,-0.12,22.19
13990,0.0498,-0.303,0.848,-6.23,7.77,-0.08,22.22
14000,0.0518,-0.3008,0.8448,-6.15,7.82,-0.03,22.21
14010,0.0498,-0.302,0.8464,-6.21,7.82,-0.08,22.22
14020,0.0479,-0.3003,0.8464,-6.17,7.83,-0.02,22.23
14030,0.0498,-0.3035,0.8422,-6.18,7.76,-0.09,22.21
14040,0.0485,-0.303,0.8502,-6.14,7.8,-0.06,22.19
14050,0.0493,-0.3032,0.8461,-6.14,7.71,-0.05,22.19
14060,0.0516,-0.3037,0.8452,-6.2,7.68,-0.09,22.22
14070,0.0503,-0.2999,0.8472,-6.14,7.82,-0.08,22.21
14081,0.0477,-0.3036,0.845,-6.21,7.82,-0.03,22.22
14091,0.0533,-0.3019,0.8497,-6.24,7.74,-0.02,22.2
14101,0.0526,-0.3048,0.8475,-6.17,7.73,0.03,22.22
14111,0.052,-0.3042,0.8503,-6.23,7.73,-0.09,22.23
14121,0.0526,-0.3018,0.8462,-6.14,7.76,-0.12,22.22
14131,0.054,-0.3033,0.8453,-6.09,7.85,-0.03,22.2
14141,0.0498,-0.3022,0.8535,-6.17,7.89,-0.06,22.21
14151,0.0491,-0.3025,0.8512,-6.18,7.97,-0.03,22.2
14161,0.0515,-0.3013,0.8492,-6.27,7.8,-0.12,22.23
14172,0.0496,-0.303,0.8527,-6.21,7.77,-0.06,22.2
14182,0.0482,-0.3005,0.8511,-6.24,7.69,-0.11,22.22
14192,0.0497,-0.3024,0.8517,-6.27,7.71,-0.12,22.2
14202,0.0498,-0.3013,0.8497,-6.2,7.76,0.0,22.22
14212,0.053,-0.3011,0.8472,-6.18,7.82,0.03,22.2
14222,0.0511,-0.3018,0.8511,-6.17,7.83,0.02,22.23
14232,0.0491,-0.3035,0.8512,-6.14,7.83,-0.06,22.23
14242,0.0508,-0.3026,0.8518,-6.21,7.73,-0.06,22.23
14252,0.0508,-0.2983,0.8463,-6.2,7.63,-0.08,22.21
14262,0.0493,-0.3004,0.8429,-6.12,7.62,-0.12,22.23
14272,0.0549,-0.3005,0.8433,-6.14,7.69,-0.12,22.21
14282,0.0514,-0.3007,0.8408,-6.27,7.85,0.0,22.21
14293,0.0518,-0.3024,0.8436,-6.18,7.89,-0.05,22.23
14304,0.051,-0.3024,0.8431,-6.24,7.94,0.0,22.24
14314,0.0472,-0.3042,0.844,-6.2,7.94,-0.08,22.22
14324,0.0497,-0.303,0.8427,-6.26,7.76,-0.05,22.23
14334,0.0499,-0.3002,0.8468,-6.17,7.83,-0.08,22.23
14344,0.0519,-0.3033,0.8467,-6.24,7.77,-0.05,22.22
14354,0.0471,-0.3018,0.8464,-6.31,7.79,-0.02,22.23
14364,0.0522,-0.3025,0.8477,-6.14,7.71,-0.05,22.22
14374,0.0511,-0.3013,0.8495,-6.06,7.85,-0.09,22.21
14384,0.0516,-0.3027,0.8514,-6.12,7.86,-0.05,22.23
14394,0.0491,-0.3042,0.8544,-6.14,7.8,0.0,22.23
14404,0.0497,-0.3033,0.8555,-6.18,7.83,0.02,22.23
14414,0.0493,-0.3027,0.8561,-6.29,7.86,-0.03,22.21
14424,0.0493,-0.3036,0.8539,-6.27,7.77,-0.05,22.22
14434,0.0518,-0.3075,0.8518,-6.21,7.73,-0.06,22.22
14444,0.053,-0.3081,0.8516,-6.24,7.66,-0.05,22.2
14454,0.0527,-0.3047,0.8507,-6.18,7.63,-0.03,22.2
14464,0.0521,-0.306,0.8492,-6.24,7.69,-0.06,22.23
14474,0.0494,-0.3024,0.8489,-6.21,7.73,0.0,22.22
14484,0.0497,-0.3022,0.8484,-6.29,7.77,-0.03,22.22
14494,0.0502,-0.3035,0.8472,-6.27,7.69,-0.08,22.19
14504,0.05,-0.2974,0.8453,-6.24,7.6,-0.09,22.22
14514,0.0483,-0.3009,0.8386,-6.2,7.54,-0.09,22.23
14524,0.0515,-0.2986,0.84,-6.17,7.63,-0.09,22.2
14534,0.0519,-0.2985,0.8391,-6.09,7.69,-0.09,22.22
14544,0.0492,-0.3,0.8364,-6.11,7.89,0.02,22.2
14554,0.0514,-0.2994,0.8396,-6.17,7.8,-0.03,22.22
14564,0.0493,-0.2993,0.8418,-6.15,7.83,0.02,22.21
14574,0.0468,-0.2994,0.8445,-6.24,7.8,-0.09,22.21
14584,0.0476,-0.302,0.8458,-6.17,7.8,-0.06,22.21
14594,0.0493,-0.3013,0.8464,-6.14,7.88,0.02,22.22
14604,0.0505,-0.3031,0.8472,-6.27,7.91,-0.02,22.22
14614,0.0504,-0.3025,0.8518,-6.21,7.92,-0.11,22.24
14624,0.0466,-0.3005,0.8486,-6.14,7.88,-0.03,22.23
14634,0.0498,-0.3073,0.8511,-6.23,7.76,-0.03,22.2
14644,0.0504,-0.3032,0.8486,-6.15,7.77,-0.09,22.24
14654,0.0505,-0.3022,0.8512,-6.14,7.76,-0.06,22.22
14664,0.0518,-0.3027,0.8506,-6.15,7.85,-0.02,22.2
14674,0.05,-0.3018,0.8539,-6.15,7.92,0.03,22.23
14684,0.05,-0.3019,0.8568,-6.15,7.83,-0.02,22.22
14694,0.0471,-0.3042,0.8503,-6.15,7.62,-0.06,22.22
14704,0.0537,-0.303,0.8512,-6.23,7.63,-0.09,22.22
14714,0.0531,-0.3008,0.8512,-6.18,7.68,-0.09,22.21
14724,0.0516,-0.302,0.8492,-6.23,7.77,-0.03,22.22
14734,0.0543,-0.2994,0.8497,-6.17,7.8,0.06,22.24
14744,0.0507,-0.3041,0.8489,-6.31,7.85,-0.08,22.23
14754,0.0508,-0.3018,0.8485,-6.26,7.8,-0.09,22.25
14764,0.0526,-0.3027,0.8461,-6.15,7.66,-0.03,22.23
14774,0.0496,-0.3005,0.8448,-6.12,7.71,-0.09,22.25
14784,0.0518,-0.2986,0.8427,-6.14,7.79,-0.06,22.22
14794,0.054,-0.3021,0.8459,-6.17,7.85,-0.02,22.23
14804,0.0497,-0.3005,0.8424,-6.17,7.88,-0.09,22.24
14814,0.0532,-0.3008,0.839,-6.31,7.82,-0.09,22.24
14824,0.0508,-0.3013,0.8418,-6.24,7.79,-0.05,22.24
14834,0.0491,-0.2991,0.8486,-6.21,7.76,-0.03,22.23
14844,0.0476,-0.3021,0.8472,-6.17,7.74,0.0,22.23
14854,0.0507,-0.3036,0.8458,-6.23,7.89,-0.03,22.26
14864,0.0525,-0.3025,0.8416,-6.21,7.89,-0.05,22.25
14874,0.0496,-0.3002,0.8445,-6.18,7.88,-0.05,22.26
14884,0.0486,-0.2993,0.844,-6.24,7.83,-0.03,22.24
14894,0.0493,-0.301,0.8469,-6.21,7.79,-0.11,22.23
14904,0.0529,-0.3025,0.8475,-6.21,7.74,-0.02,22.23
14914,0.0527,-0.3024,0.8474,-6.26,7.73,-0.09,22.24
14924,0.0503,-0.3035,0.8467,-6.23,7.76,-0.02,22.23
14934,0.0522,-0.3036,0.8508,-6.24,7.91,0.05,22.23
14944,0.0503,-0.3011,0.8505,-6.21,7.92,-0.02,22.25
14954,0.0497,-0.3038,0.8507,-6.17,7.79,0.03,22.24
14964,0.0511,-0.3048,0.8479,-6.15,7.69,-0.12,22.23
14974,0.0496,-0.3031,0.8519,-6.24,7.68,-0.08,22.22
14984,0.0498,-0.304,0.8472,-6.14,7.65,-0.09,22.24
14994,0.0519,-0.3043,0.8511,-6.11,7.73,-0.03,22.25
15004,0.0525,-0.3013,0.8511,-6.2,7.79,-0.05,22.23
15014,0.0524,-0.3048,0.854,-6.06,7.73,0.02,22.23
15024,0.0535,-0.3025,0.8513,-6.14,7.74,-0.02,22.24
15034,0.0488,-0.3026,0.8484,-6.11,7.74,-0.06,22.22
15044,0.0493,-0.299,0.8501,-6.2,7.71,-0.05,22.22
15054,0.0529,-0.3042,0.8505,-6.14,7.69,-0.06,22.23
15064,0.0538,-0.3008,0.8448,-6.15,7.8,-0.14,22.24
15074,0.0524,-0.299,0.8448,-6.15,7.89,-0.08,22.22
15084,0.0504,-0.2977,0.8438,-6.32,7.92,-0.05,22.23
15094,0.0499,-0.2992,0.8466,-6.21,7.91,-0.08,22.22
15104,0.0503,-0.3015,0.8442,-6.24,7.89,-0.14,22.25
15114,0.049,-0.3022,0.8436,-6.21,7.79,-0.09,22.25
15124,0.0493,-0.2994,0.8456,-6.2,7.77,-0.06,22.25
15134,0.0543,-0.3015,0.8436,-6.17,7.74,-0.03,22.26
15144,0.0507,-0.3007,0.8435,-6.21,7.79,-0.05,22.25
15154,0.0498,-0.3014,0.8452,-6.15,7.89,-0.05,22.22
15164,0.05,-0.3016,0.8458,-6.18,7.91,-0.05,22.22
15174,0.0471,-0.3051,0.8438,-6.18,7.83,0.03,22.24
15184,0.0502,-0.3068,0.8472,-6.17,7.88,-0.12,22.22
15194,0.0494,-0.302,0.8491,-6.24,7.65,-0.06,22.23
15204,0.0469,-0.3009,0.8479,-6.23,7.62,-0.05,22.23
15214,0.0504,-0.3005,0.8458,-6.18,7.62,-0.09,22.27
15224,0.0514,-0.2998,0.847,-6.18,7.79,-0.08,22.24
15234,0.052,-0.3031,0.848,-6.18,7.89,0.02,22.25
15244,0.0505,-0.3014,0.8507,-6.15,7.91,-0.06,22.27
15254,0.0522,-0.3036,0.8534,-6.26,7.94,-0.02,22.22
15264,0.0521,-0.3032,0.8485,-6.24,7.76,0.0,22.23
15274,0.0504,-0.303,0.8508,-6.23,7.6,-0.06,22.24
15284,0.0493,-0.3015,0.8463,-6.27,7.57,-0.06,22.22
15294,0.0527,-0.2994,0.8478,-6.23,7.57,-0.06,22.22
15304,0.0535,-0.3042,0.8479,-6.12,7.69,-0.02,22.26
15314,0.0516,-0.3027,0.8457,-6.12,7.91,-0.02,22.23
15324,0.0492,-0.3013,0.8534,-6.14,8.0,0.0,22.24
15334,0.0525,-0.3031,0.848,-6.18,7.83,-0.06,22.23
15344,0.0537,-0.3027,0.85,-6.24,7.62,-0.03,22.24
15354,0.0533,-0.3031,0.8457,-6.23,7.5,-0.11,22.22
15364,0.0542,-0.301,0.8439,-6.27,7.59,-0.06,22.2
15374,0.0543,-0.3016,0.8442,-6.23,7.73,-0.08,22.24
15384,0.0548,-0.2998,0.8469,-6.24,7.94,0.0,22.23
15394,0.0519,-0.3008,0.8464,-6.12,8.06,-0.02,22.23
15404,0.0479,-0.3003,0.8477,-6.21,7.95,-0.03,22.25
15414,0.0487,-0.2997,0.8484,-6.2,7.86,-0.03,22.25
15424,0.0508,-0.3009,0.8473,-6.15,7.71,0.0,22.25
15434,0.0487,-0.3024,0.8488,-6.09,7.65,-0.09,22.25
15444,0.0525,-0.302,0.8459,-6.18,7.79,-0.08,22.22
15454,0.0504,-0.3019,0.8455,-6.18,7.85,-0.08,22.23
15464,0.0498,-0.3024,0.8516,-6.23,7.83,-0.05,22.23
15474,0.0488,-0.3013,0.8483,-6.24,7.89,-0.06,22.23
15484,0.0496,-0.3035,0.8508,-6.21,7.74,-0.05,22.23
15494,0.0533,-0.2992,0.8455,-6.12,7.69,-0.06,22.24
15504,0.0514,-0.301,0.8505,-6.09,7.57,-0.05,22.26
15514,0.0515,-0.3029,0.8486,-6.17,7.71,0.03,22.23
15524,0.0519,-0.3013,0.8506,-6.18,7.91,0.0,22.24
15534,0.0504,-0.3025,0.8531,-6.29,7.92,-0.09,22.25
15544,0.0525,-0.3043,0.8516,-6.21,7.86,-0.17,22.23
15554,0.0502,-0.304,0.8528,-6.21,7.74,-0.17,22.25
15564,0.0519,-0.3043,0.8488,-6.26,7.66,-0.06,22.23
15574,0.0531,-0.3029,0.85,-6.15,7.66,-0.03,22.23
15584,0.0537,-0.302,0.8464,-6.11,7.66,-0.02,22.25
15594,0.0535,-0.3019,0.8474,-6.05,7.8,0.03,22.26
15604,0.0511,-0.3015,0.8492,-6.2,7.85,-0.08,22.24
15615,0.0497,-0.3031,0.8438,-6.26,7.83,-0.02,22.23
15625,0.0508,-0.3002,0.8466,-6.27,7.79,-0.05,22.25
15635,0.0515,-0.3016,0.8453,-6.24,7.69,-0.06,22.25
15645,0.0477,-0.3008,0.8468,-6.23,7.66,-0.05,22.26
15655,0.0514,-0.3019,0.8472,-6.11,7.66,-0.06,22.27
15665,0.0529,-0.3004,0.8456,-6.11,7.76,0.0,22.24
15675,0.0505,-0.3007,0.8458,-6.12,7.94,-0.03,22.24
15685,0.0521,-0.2986,0.8474,-6.21,7.95,-0.09,22.27
15695,0.0498,-0.3008,0.8445,-6.26,7.92,-0.11,22.25
15705,0.0487,-0.3016,0.8502,-6.37,7.74,-0.08,22.21
15715,0.0485,-0.3008,0.849,-6.29,7.71,-0.08,22.25
15725,0.0513,-0.3005,0.8451,-6.11,7.65,-0.05,22.22
15735,0.052,-0.2994,0.847,-6.14,7.82,-0.05,22.25
15745,0.0525,-0.3052,0.8486,-6.15,7.92,-0.03,22.24
15755,0.05,-0.3031,0.8486,-6.2,7.92,-0.12,22.24
15765,0.0486,-0.3035,0.8473,-6.15,7.82,-0.05,22.24
15775,0.053,-0.3033,0.851,-6.24,7.76,-0.09,22.24
15785,0.0511,-0.3016,0.8456,-6.27,7.6,-0.17,22.26
15795,0.0499,-0.3021,0.8483,-6.26,7.66,-0.02,22.26
15805,0.0513,-0.3048,0.8512,-6.15,7.79,-0.09,22.22
15815,0.0508,-0.3041,0.8529,-6.21,7.92,-0.05,22.24
15825,0.0507,-0.302,0.8483,-6.2,7.98,-0.05,22.23
15835,0.0465,-0.3024,0.8512,-6.26,7.8,-0.09,22.24
15845,0.0513,-0.3026,0.8486,-6.31,7.65,-0.05,22.25
15855,0.0537,-0.3015,0.8486,-6.18,7.57,-0.2,22.26
15865,0.0542,-0.3024,0.8456,-6.24,7.47,-0.12,22.22
15875,0.0564,-0.303,0.8436,-6.17,7.6,-0.08,22.26
15885,0.0536,-0.3025,0.8446,-6.17,7.77,0.0,22.24
15895,0.0514,-0.3011,0.8438,-6.06,7.97,-0.03,22.24
15905,0.0496,-0.2979,0.8414,-6.14,7.97,0.05,22.28
15915,0.0521,-0.2982,0.8489,-6.26,7.94,-0.02,22.26
15925,0.0482,-0.3022,0.8511,-6.23,7.65,-0.05,22.26
15935,0.0515,-0.3038,0.8466,-6.26,7.73,-0.11,22.24
15945,0.05,-0.3037,0.85,-6.21,7.79,-0.05,22.25
15955,0.0502,-0.3051,0.8461,-6.2,7.91,0.0,22.23
15965,0.048,-0.3049,0.8472,-6.08,7.97,-0.05,22.23
15975,0.0474,-0.3019,0.8489,-6.14,7.91,-0.05,22.22
15985,0.0491,-0.3065,0.8461,-6.23,7.66,-0.02,22.26
15995,0.051,-0.301,0.848,-6.2,7.5,-0.12,22.27
16005,0.0529,-0.3046,0.8473,-6.12,7.51,-0.11,22.26
16015,0.0516,-0.3003,0.8459,-6.23,7.69,-0.14,22.27
16025,0.0522,-0.2982,0.8486,-6.21,7.88,-0.06,22.25
16035,0.0498,-0.302,0.8494,-6.18,8.0,0.02,22.25
16045,0.047,-0.3015,0.8486,-6.14,8.0,0.02,22.28
16055,0.0477,-0.304,0.8545,-6.2,7.86,-0.02,22.27
16065,0.0486,-0.3046,0.853,-6.26,7.71,-0.06,22.25
16075,0.051,-0.3079,0.8489,-6.23,7.69,-0.03,22.27
16085,0.051,-0.3036,0.8539,-6.32,7.71,-0.03,22.26
16095,0.0502,-0.301,0.8501,-6.27,7.68,-0.09,22.26
16105,0.0515,-0.3042,0.8439,-6.29,7.69,-0.09,22.27
16115,0.05,-0.3019,0.8459,-6.18,7.66,-0.02,22.25
16125,0.0529,-0.303,0.8503,-6.17,7.8,-0.09,22.28
16135,0.051,-0.3009,0.8497,-6.08,7.88,-0.09,22.28
16145,0.0516,-0.3041,0.849,-6.26,7.89,-0.05,22.25
16155,0.0496,-0.3022,0.8486,-6.34,7.83,-0.05,22.28
16165,0.0483,-0.3003,0.8477,-6.31,7.77,-0.14,22.28
16176,0.0499,-0.3041,0.844,-6.24,7.6,-0.21,22.27
16186,0.049,-0.3011,0.8435,-6.17,7.63,-0.09,22.26
16196,0.0487,-0.3037,0.8466,-6.12,7.74,-0.09,22.27
16206,0.0496,-0.303,0.8467,-6.12,7.88,0.06,22.26
16216,0.0496,-0.3002,0.8497,-6.17,7.91,-0.03,22.3
16226,0.0509,-0.2998,0.8466,-6.2,7.89,-0.05,22.28
16236,0.0485,-0.3025,0.8475,-6.35,7.77,-0.09,22.28
16246,0.0511,-0.3027,0.8456,-6.34,7.69,-0.06,22.28
16256,0.0518,-0.3041,0.8452,-6.31,7.69,-0.08,22.26
16266,0.0531,-0.3055,0.8446,-6.06,7.79,-0.02,22.27
16276,0.0521,-0.3044,0.8406,-6.02,7.95,-0.03,22.29
16286,0.051,-0.3036,0.8501,-6.08,7.91,0.05,22.26
16296,0.0486,-0.2998,0.8502,-6.15,7.8,0.0,22.25
16306,0.0496,-0.3016,0.8511,-6.26,7.77,-0.08,22.26
16316,0.05,-0.3004,0.8488,-6.27,7.68,-0.09,22.27
16326,0.0525,-0.3016,0.8508,-6.32,7.68,-0.08,22.27
16336,0.0516,-0.2992,0.8473,-6.24,7.8,-0.05,22.28
16346,0.0515,-0.2993,0.8502,-6.09,7.85,0.05,22.26
16356,0.05,-0.301,0.8483,-6.17,7.89,-0.03,22.27
16366,0.0516,-0.3029,0.8519,-6.15,7.82,-0.02,22.28
16376,0.0509,-0.3018,0.847,-6.15,7.85,0.05,22.26
16386,0.0507,-0.3007,0.8507,-6.34,7.79,-0.14,22.25
16396,0.0516,-0.3027,0.847,-6.37,7.82,-0.08,22.27
16406,0.0488,-0.3044,0.849,-6.34,7.63,-0.08,22.26
16416,0.0535,-0.3042,0.8477,-6.15,7.85,-0.02,22.25
16426,0.0492,-0.304,0.8483,-6.21,7.83,-0.09,22.25
16436,0.0486,-0.3062,0.8503,-6.18,7.71,-0.09,22.28
16446,0.0493,-0.3008,0.8473,-5.98,7.57,-0.05,22.26
16456,0.0548,-0.2993,0.848,-6.12,7.65,-0.09,22.26
16466,0.052,-0.298,0.8488,-6.24,7.8,-0.09,22.27
16476,0.0508,-0.2998,0.8394,-6.29,7.86,0.0,22.25
16486,0.0497,-0.304,0.85,-6.11,7.89,0.02,22.23
16496,0.048,-0.3003,0.8484,-6.26,8.03,0.06,22.25
16506,0.0511,-0.299,0.8519,-6.31,8.05,-0.09,22.26
16516,0.0491,-0.2998,0.8466,-6.21,7.8,-0.09,22.27
16526,0.0465,-0.3059,0.8452,-6.14,7.59,-0.12,22.26
16536,0.0488,-0.3037,0.8484,-6.2,7.54,-0.14,22.26
16546,0.0454,-0.3015,0.8459,-6.14,7.63,-0.02,22.26
16556,0.0498,-0.3026,0.8444,-6.05,7.65,-0.02,22.27
16566,0.0498,-0.3043,0.8513,-6.21,7.73,-0.02,22.27
16576,0.0498,-0.3011,0.8478,-6.23,7.89,-0.03,22.28
16586,0.0521,-0.2987,0.8466,-6.17,7.88,-0.06,22.26
16596,0.0521,-0.3022,0.8534,-6.18,7.74,-0.12,22.27
16606,0.0503,-0.3044,0.8513,-6.35,7.76,-0.08,22.29
16616,0.0521,-0.3002,0.845,-6.4,7.79,-0.06,22.29
16626,0.0544,-0.3013,0.8456,-6.27,7.76,-0.12,22.27
16636,0.0519,-0.3022,0.8496,-6.17,7.86,-0.03,22.25
16646,0.0503,-0.3049,0.8507,-6.21,7.86,-0.06,22.28
16656,0.05,-0.3005,0.8499,-6.12,7.88,0.0,22.29
16666,0.0496,-0.3018,0.8467,-6.0,7.76,-0.05,22.26
16676,0.0482,-0.3032,0.8484,-6.11,7.63,-0.12,22.27
16686,0.0531,-0.3029,0.8496,-6.29,7.82,-0.06,22.26
16696,0.0508,-0.2991,0.8531,-6.29,7.71,-0.06,22.28
16706,0.0518,-0.3026,0.8538,-6.23,7.79,-0.12,22.29
16716,0.0485,-0.3015,0.8456,-6.32,7.65,-0.06,22.27
16726,0.0515,-0.3027,0.8492,-6.29,7.63,-0.08,22.27
16736,0.0525,-0.3013,0.8455,-6.18,7.51,-0.09,22.27
16746,0.0486,-0.3015,0.8402,-6.02,7.66,-0.09,22.28
16756,0.0525,-0.2988,0.8459,-6.08,7.89,0.02,22.3
16766,0.0518,-0.298,0.847,-6.11,7.97,0.05,22.29
16776,0.0477,-0.2991,0.8466,-6.21,7.95,-0.05,22.3
16786,0.0507,-0.3013,0.8456,-6.21,7.89,-0.08,22.27
16796,0.0508,-0.3029,0.8448,-6.37,7.77,-0.06,22.27
16806,0.0524,-0.3021,0.8438,-6.27,7.65,0.03,22.27
16816,0.0494,-0.3053,0.847,-6.24,7.74,-0.09,22.28
16826,0.0514,-0.302,0.8461,-6.17,7.88,-0.02,22.29
16836,0.0522,-0.3032,0.8467,-6.14,7.94,0.03,22.28
16846,0.049,-0.3009,0.8499,-6.17,7.89,-0.08,22.27
16856,0.0487,-0.3005,0.848,-6.17,7.73,-0.08,22.27
16866,0.0498,-0.3025,0.8505,-6.27,7.62,-0.03,22.28
16876,0.0521,-0.3021,0.8484,-6.23,7.53,-0.18,22.26
16886,0.0519,-0.2998,0.8483,-6.2,7.71,-0.06,22.27
16896,0.0515,-0.3041,0.8472,-6.26,7.83,0.03,22.26
16906,0.0522,-0.3024,0.8481,-6.18,8.03,0.0,22.27
16916,0.0527,-0.303,0.8506,-6.2,7.83,-0.05,22.26
16926,0.0518,-0.3069,0.8519,-6.26,7.77,-0.05,22.28
16936,0.0537,-0.3003,0.8488,-6.31,7.6,-0.05,22.3
16946,0.0522,-0.3042,0.8485,-6.2,7.53,-0.09,22.29
16956,0.0514,-0.3026,0.8481,-6.2,7.71,-0.08,22.27
16966,0.0519,-0.3029,0.8481,-6.14,7.89,-0.09,22.27
16976,0.0511,-0.2998,0.8491,-6.14,7.91,0.0,22.25
16986,0.0549,-0.3019,0.8483,-6.23,7.89,-0.05,22.27
16996,0.0546,-0.3015,0.8451,-6.26,7.83,-0.09,22.25
17006,0.052,-0.3027,0.8486,-6.29,7.62,-0.11,22.24
17016,0.0516,-0.3022,0.8486,-6.31,7.62,-0.12,22.28
17026,0.051,-0.3053,0.845,-6.2,7.71,-0.06,22.25
17036,0.0496,-0.3037,0.8489,-6.24,7.86,-0.09,22.29
17046,0.0497,-0.302,0.8417,-6.21,7.91,0.02,22.25
17056,0.0502,-0.302,0.8468,-6.23,7.83,-0.02,22.27
17066,0.0493,-0.3024,0.847,-6.21,7.73,-0.06,22.27
17076,0.0491,-0.3013,0.8499,-6.12,7.68,-0.08,22.28
17086,0.0504,-0.3018,0.8478,-6.15,7.69,0.0,22.28
17096,0.0474,-0.3009,0.8481,-6.26,7.76,0.0,22.29
17106,0.0521,-0.3048,0.8468,-6.24,7.82,-0.09,22.27
17116,0.0487,-0.3054,0.844,-6.31,7.82,-0.05,22.29
17126,0.0491,-0.3008,0.8407,-6.2,7.85,-0.03,22.29
17136,0.0497,-0.3022,0.8444,-6.14,7.79,-0.05,22.25
17146,0.0474,-0.298,0.8486,-6.12,7.8,0.05,22.29
17156,0.0499,-0.2943,0.8447,-6.17,7.77,0.0,22.28
17166,0.0516,-0.299,0.8516,-6.2,7.71,-0.02,22.29
17176,0.0505,-0.3029,0.847,-6.34,7.83,-0.09,22.27
17186,0.0519,-0.304,0.8529,-6.31,7.76,-0.05,22.3
17196,0.0533,-0.3048,0.8481,-6.35,7.77,-0.06,22.29
17206,0.0544,-0.3019,0.848,-6.29,7.83,-0.06,22.3
17216,0.053,-0.3046,0.8485,-6.17,7.73,-0.06,22.28
17226,0.0524,-0.3046,0.8448,-6.14,7.73,-0.02,22.28
17236,0.0542,-0.3037,0.8459,-6.14,7.83,-0.06,22.25
17246,0.0516,-0.3018,0.8489,-6.17,7.77,-0.05,22.28
17256,0.0498,-0.3042,0.8478,-6.17,7.79,-0.03,22.29
17266,0.0507,-0.3008,0.8512,-6.2,7.8,-0.06,22.27
17276,0.0516,-0.2993,0.8497,-6.24,7.73,-0.11,22.29
17286,0.0529,-0.3005,0.8461,-6.27,7.71,-0.06,22.25
17296,0.0532,-0.3018,0.8467,-6.24,7.77,-0.02,22.28
17306,0.0515,-0.3041,0.8458,-6.15,7.86,-0.03,22.28
17316,0.0524,-0.3043,0.8483,-6.21,7.91,-0.02,22.29
17326,0.0476,-0.3021,0.851,-6.21,7.91,0.02,22.29
17336,0.0514,-0.3025,0.8467,-6.21,7.82,-0.08,22.29
17346,0.0519,-0.3042,0.8499,-6.27,7.68,-0.05,22.25
17356,0.0498,-0.2999,0.8484,-6.09,7.68,-0.05,22.3
17366,0.0497,-0.3013,0.8477,-6.12,7.71,-0.11,22.3
17376,0.0518,-0.3002,0.8439,-6.14,7.8,-0.05,22.27
17386,0.0525,-0.3013,0.8456,-6.21,7.86,-0.06,22.27
17396,0.0514,-0.3021,0.8442,-6.24,7.8,-0.08,22.26
17406,0.0514,-0.3031,0.8453,-6.27,7.68,-0.03,22.29
17416,0.0487,-0.3032,0.8431,-6.2,7.63,0.02,22.27
17426,0.0498,-0.3011,0.8445,-6.29,7.71,-0.05,22.28
17436,0.0508,-0.3026,0.8436,-6.14,7.79,0.0,22.3
17446,0.0514,-0.3009,0.8489,-6.18,7.82,-0.03,22.32
17456,0.0492,-0.3016,0.8455,-6.15,7.91,-0.02,22.28
17466,0.0482,-0.3008,0.847,-6.21,7.82,0.0,22.29
17476,0.0511,-0.3025,0.8462,-6.21,7.77,-0.05,22.29
17486,0.0514,-0.3035,0.8508,-6.27,7.76,-0.11,22.29
17496,0.0491,-0.3009,0.85,-6.24,7.69,-0.02,22.29
17506,0.0522,-0.302,0.8502,-6.17,7.73,-0.08,22.29
17516,0.0524,-0.3062,0.8497,-6.12,7.83,-0.08,22.32
17526,0.0513,-0.3018,0.8497,-6.17,7.92,-0.03,22.28
17536,0.049,-0.303,0.8503,-6.11,7.76,-0.11,22.29
17546,0.0498,-0.3009,0.8475,-6.26,7.76,-0.11,22.29
17556,0.0487,-0.3003,0.8527,-6.21,7.68,0.02,22.28
17566,0.0532,-0.3016,0.8463,-6.27,7.71,-0.08,22.27
17576,0.0486,-0.3019,0.847,-6.21,7.68,-0.05,22.28
17586,0.0524,-0.3024,0.8466,-6.18,7.71,-0.05,22.3
17596,0.0498,-0.3005,0.8439,-6.11,7.88,-0.08,22.3
17606,0.0509,-0.3008,0.8462,-6.15,7.85,0.03,22.27
17616,0.0513,-0.3015,0.8473,-6.18,7.73,-0.05,22.26
17626,0.0493,-0.3007,0.848,-6.21,7.73,-0.05,22.26
17636,0.0497,-0.3007,0.8436,-6.24,7.77,-0.18,22.29
17646,0.0535,-0.3008,0.8455,-6.18,7.71,-0.11,22.28
17656,0.0491,-0.3011,0.8494,-6.27,7.83,-0.09,22.28
17666,0.0486,-0.2993,0.8481,-6.2,7.85,-0.05,22.27
17676,0.0504,-0.3005,0.8481,-6.23,7.92,-0.05,22.32
17686,0.052,-0.3005,0.8507,-6.24,7.86,0.0,22.29
17696,0.0522,-0.3019,0.8477,-6.23,7.79,-0.08,22.28
17706,0.0522,-0.2983,0.8463,-6.23,7.74,-0.06,22.27
17716,0.0494,-0.3026,0.8444,-6.17,7.76,-0.06,22.29
17726,0.0516,-0.3029,0.849,-6.15,7.8,-0.08,22.27
17736,0.0533,-0.3033,0.8494,-6.17,7.88,-0.08,22.29
17746,0.0514,-0.3018,0.8485,-6.18,7.97,-0.11,22.27
17756,0.0474,-0.3015,0.8457,-6.32,7.89,-0.05,22.28
17766,0.0503,-0.3031,0.8503,-6.29,7.73,-0.14,22.27
17776,0.0511,-0.3022,0.8453,-6.21,7.68,-0.08,22.29
17786,0.0537,-0.3021,0.8492,-6.31,7.65,-0.05,22.28
17796,0.0525,-0.3013,0.8463,-6.2,7.74,-0.09,22.3
17806,0.0497,-0.3027,0.8489,-6.14,7.89,-0.02,22.31
17816,0.0524,-0.3049,0.8506,-6.14,8.02,0.0,22.27
17826,0.0513,-0.3049,0.8536,-6.23,7.79,-0.08,22.28
17836,0.0488,-0.3022,0.8511,-6.23,7.73,-0.11,22.27
17846,0.0524,-0.3025,0.8486,-6.29,7.62,-0.12,22.26
17856,0.054,-0.301,0.8486,-6.18,7.56,-0.15,22.27
17866,0.0542,-0.3009,0.848,-6.17,7.66,-0.09,22.28
17876,0.0542,-0.3019,0.8469,-6.14,7.85,-0.05,22.25
17886,0.0521,-0.3003,0.8473,-6.08,7.94,0.02,22.28
17896,0.05,-0.3013,0.8477,-6.2,7.85,-0.08,22.29
17906,0.0479,-0.301,0.8469,-6.29,7.82,-0.08,22.27
17916,0.0486,-0.3029,0.8448,-6.26,7.62,-0.09,22.29
17926,0.0482,-0.3009,0.8466,-6.21,7.68,-0.06,22.3
17936,0.0471,-0.302,0.8429,-6.27,7.76,-0.11,22.27
17946,0.0487,-0.2999,0.8423,-6.21,7.66,0.02,22.27
17956,0.0513,-0.3014,0.8485,-6.17,7.86,0.03,22.29
17966,0.051,-0.301,0.8467,-6.2,7.94,0.0,22.29
17976,0.0485,-0.3009,0.8491,-6.15,7.92,-0.08,22.29
17986,0.0485,-0.3037,0.8514,-6.26,7.83,0.02,22.28
17996,0.0521,-0.3014,0.85,-6.24,7.77,-0.12,22.28
18006,0.0515,-0.301,0.8479,-6.31,7.63,-0.09,22.27
18016,0.0519,-0.3031,0.8458,-6.27,7.63,-0.02,22.29
18026,0.0526,-0.3024,0.8429,-6.18,7.77,-0.09,22.27
18036,0.0518,-0.3049,0.8453,-6.18,7.83,-0.05,22.28
18046,0.0538,-0.2998,0.8479,-6.17,7.92,0.02,22.28
18056,0.0532,-0.2991,0.8466,-6.14,7.91,0.09,22.29
18066,0.0515,-0.2979,0.8505,-6.12,7.86,-0.11,22.26
18076,0.0515,-0.302,0.8521,-6.24,7.74,-0.09,22.27
18086,0.049,-0.3027,0.8463,-6.26,7.74,-0.14,22.27
18096,0.051,-0.3016,0.8514,-6.37,7.69,-0.09,22.28
18106,0.052,-0.3021,0.849,-6.31,7.85,-0.08,22.27
18116,0.0514,-0.3046,0.8481,-6.24,7.8,-0.11,22.28
18126,0.0494,-0.3053,0.8455,-6.24,7.83,-0.06,22.29
18136,0.0511,-0.302,0.8486,-6.18,7.8,-0.03,22.29
18146,0.052,-0.3024,0.8452,-6.09,7.79,0.02,22.31
18156,0.0536,-0.3004,0.8461,-6.12,7.76,-0.05,22.28
18166,0.0542,-0.3015,0.848,-6.23,7.74,-0.06,22.29
18176,0.0513,-0.3016,0.8464,-6.21,7.68,-0.11,22.27
18186,0.051,-0.3042,0.845,-6.18,7.73,-0.08,22.3
18196,0.05,-0.3021,0.8491,-6.14,7.89,-0.05,22.28
18206,0.0492,-0.3007,0.8491,-6.29,7.88,-0.11,22.3
18216,0.0504,-0.3008,0.8492,-6.24,7.89,-0.03,22.29
18226,0.05,-0.3029,0.8494,-6.29,7.68,0.0,22.29
18236,0.0486,-0.3016,0.8458,-6.2,7.71,-0.03,22.29
18246,0.0494,-0.3,0.8461,-6.27,7.65,-0.14,22.27
18256,0.0527,-0.304,0.8478,-6.12,7.69,-0.09,22.31
18266,0.0532,-0.3033,0.8459,-6.15,7.79,-0.08,22.28
18276,0.051,-0.3008,0.8458,-6.15,7.91,-0.06,22.3
18286,0.0521,-0.302,0.8496,-6.26,7.91,-0.06,22.29
18296,0.053,-0.303,0.853,-6.24,7.8,-0.08,22.28
18306,0.0497,-0.3009,0.8495,-6.27,7.77,-0.08,22.28
18316,0.0491,-0.3029,0.8484,-6.21,7.76,-0.05,22.3
18326,0.0529,-0.3043,0.8494,-6.23,7.74,-0.03,22.29
18336,0.0508,-0.3048,0.8495,-6.18,7.74,-0.03,22.29
18346,0.0514,-0.3037,0.8452,-6.11,7.79,-0.03,22.28
18356,0.0518,-0.3059,0.8434,-6.2,7.85,-0.02,22.27
18366,0.0488,-0.3026,0.8475,-6.18,7.82,-0.08,22.29
18376,0.049,-0.3004,0.8505,-6.14,7.8,0.02,22.3
18386,0.0505,-0.3047,0.8508,-6.17,7.8,0.02,22.28
18397,0.0479,-0.3042,0.8467,-6.32,7.76,-0.09,22.3
18407,0.0481,-0.3026,0.8468,-6.32,7.65,-0.18,22.32
18417,0.0521,-0.3027,0.8478,-6.29,7.68,-0.11,22.29
18427,0.0503,-0.3018,0.8445,-6.23,7.71,-0.06,22.29
18437,0.0499,-0.302,0.8455,-6.18,7.8,-0.12,22.32
18447,0.0499,-0.303,0.8497,-6.23,7.89,-0.03,22.29
18457,0.0532,-0.3013,0.8488,-6.2,7.92,-0.02,22.29
18467,0.0526,-0.3008,0.849,-6.14,7.73,-0.05,22.31
18477,0.0507,-0.3008,0.8508,-6.21,7.69,-0.05,22.29
18487,0.051,-0.3042,0.85,-6.18,7.74,-0.08,22.3
18497,0.0499,-0.3004,0.8502,-6.14,7.82,-0.08,22.3
18507,0.0509,-0.3,0.8464,-6.24,7.76,-0.05,22.29
18517,0.0505,-0.2997,0.8439,-6.24,7.68,-0.03,22.3
18527,0.0509,-0.2996,0.8447,-6.27,7.56,-0.11,22.31
18537,0.0494,-0.2991,0.8469,-6.31,7.68,-0.15,22.31
18547,0.0507,-0.3002,0.8441,-6.23,7.77,-0.08,22.29
18557,0.0522,-0.2999,0.8459,-6.14,7.91,0.0,22.3
18567,0.0474,-0.2969,0.8453,-6.17,8.03,0.02,22.3
18577,0.0486,-0.3003,0.85,-6.06,7.94,0.03,22.31
18587,0.0488,-0.3015,0.8538,-6.09,7.89,0.0,22.29
18597,0.0476,-0.3021,0.8551,-6.35,7.79,-0.03,22.29
18607,0.049,-0.303,0.8522,-6.31,7.68,-0.11,22.3
18617,0.0502,-0.3052,0.8503,-6.46,7.76,-0.06,22.32
18627,0.0507,-0.3024,0.8446,-6.38,7.74,-0.09,22.3
18637,0.0522,-0.3035,0.8467,-6.23,7.73,-0.12,22.31
18647,0.054,-0.3042,0.8436,-6.03,7.63,-0.15,22.31
18657,0.0541,-0.3009,0.8435,-6.0,7.63,-0.08,22.31
18667,0.0513,-0.2999,0.8485,-6.18,7.65,0.02,22.32
18677,0.0508,-0.2992,0.8455,-6.2,7.68,0.0,22.32
18687,0.0531,-0.3021,0.8417,-6.29,7.8,-0.06,22.29
18697,0.0542,-0.298,0.848,-6.34,7.83,-0.05,22.3
18707,0.0485,-0.3005,0.849,-6.21,8.02,-0.03,22.31
18717,0.053,-0.3022,0.8478,-6.26,8.0,0.0,22.31
18727,0.0516,-0.3021,0.8517,-6.2,7.91,-0.09,22.27
18737,0.0516,-0.3015,0.8486,-6.32,7.76,-0.11,22.31
18747,0.0509,-0.3042,0.8485,-6.29,7.57,-0.14,22.32
18757,0.0542,-0.2996,0.8438,-6.29,7.48,-0.09,22.32
18767,0.0529,-0.3036,0.8422,-6.2,7.71,-0.06,22.31
18777,0.0541,-0.2983,0.8436,-6.12,7.82,0.03,22.32
18787,0.0524,-0.3024,0.8479,-6.03,8.03,0.06,22.31
18797,0.0477,-0.3,0.8488,-6.09,8.09,0.02,22.32
18807,0.0503,-0.302,0.8529,-6.27,7.97,-0.03,22.29
18817,0.05,-0.3015,0.8523,-6.34,7.69,-0.06,22.29
18827,0.0463,-0.2991,0.8469,-6.35,7.5,-0.18,22.29
18837,0.0527,-0.3011,0.8466,-6.31,7.57,-0.2,22.3
18847,0.0527,-0.3063,0.8462,-6.21,7.68,-0.09,22.29
18857,0.0531,-0.3048,0.8464,-6.15,7.91,0.09,22.28
18867,0.0519,-0.3036,0.8527,-6.14,7.91,0.02,22.31
18877,0.051,-0.3002,0.8512,-6.15,7.85,-0.03,22.33
18887,0.0511,-0.2996,0.8536,-6.24,7.71,-0.14,22.3
18897,0.0518,-0.3036,0.8525,-6.24,7.68,-0.14,22.3
18907,0.0513,-0.3002,0.85,-6.31,7.74,-0.08,22.32
18917,0.0497,-0.3009,0.8483,-6.31,7.86,-0.08,22.3
18927,0.0486,-0.3009,0.8418,-6.29,7.88,0.0,22.3
18937,0.0514,-0.3029,0.8481,-6.2,7.82,-0.02,22.33
18947,0.0503,-0.3033,0.8489,-6.17,7.63,-0.05,22.32
18957,0.0504,-0.3032,0.849,-6.11,7.56,-0.05,22.32
18967,0.0497,-0.3022,0.8508,-6.05,7.56,0.0,22.32
18979,0.0507,-0.3018,0.8479,-6.11,7.76,-0.06,22.32
18989,0.0513,-0.2999,0.8473,-6.24,7.74,-0.05,22.29
18999,0.0514,-0.3003,0.8455,-6.23,7.79,-0.09,22.32
19009,0.0531,-0.3005,0.8502,-6.23,7.8,-0.06,22.31
19020,0.0511,-0.2991,0.8486,-6.23,7.85,-0.02,22.3
19030,0.05,-0.3021,0.8464,-6.18,7.95,-0.08,22.32
19040,0.0504,-0.304,0.8441,-6.37,7.83,-0.06,22.31
19050,0.0488,-0.2999,0.8462,-6.26,7.76,-0.03,22.31
19060,0.0492,-0.302,0.8472,-6.12,7.65,-0.06,22.3
19070,0.0488,-0.2998,0.8491,-6.18,7.71,-0.15,22.29
19080,0.0502,-0.3032,0.8475,-6.2,7.82,0.02,22.29
19090,0.0494,-0.3009,0.8461,-6.18,7.92,-0.06,22.29
19100,0.0496,-0.3024,0.8499,-6.2,7.91,-0.03,22.29
19110,0.0488,-0.2998,0.851,-6.27,7.76,-0.02,22.29
19120,0.05,-0.3019,0.8446,-6.24,7.68,-0.11,22.3
19130,0.0505,-0.3016,0.8464,-6.21,7.56,-0.12,22.29
19140,0.0507,-0.3027,0.8494,-6.2,7.69,-0.02,22.31
19150,0.0527,-0.301,0.8488,-6.14,7.82,-0.08,22.31
19160,0.0518,-0.3009,0.8459,-6.2,7.89,-0.08,22.3
19170,0.0514,-0.3038,0.8478,-6.15,7.92,-0.08,22.3
19180,0.0494,-0.3029,0.8475,-6.27,7.86,-0.09,22.32
19190,0.0507,-0.2986,0.8483,-6.26,7.77,-0.09,22.31
19200,0.0494,-0.3009,0.8484,-6.29,7.68,-0.12,22.31
19210,0.0492,-0.3003,0.843,-6.26,7.69,-0.11,22.33
19220,0.0492,-0.2992,0.848,-6.18,7.77,-0.05,22.29
19230,0.0521,-0.3031,0.8481,-6.17,7.95,0.0,22.31
19240,0.0531,-0.3011,0.8495,-6.23,8.05,-0.08,22.31
19250,0.0475,-0.3022,0.8513,-6.2,7.86,-0.09,22.29
19260,0.0476,-0.3031,0.8479,-6.31,7.73,-0.08,22.29
19270,0.0493,-0.3016,0.8469,-6.21,7.63,-0.11,22.29
19280,0.0487,-0.3033,0.8468,-6.17,7.59,-0.11,22.31
19290,0.0536,-0.3022,0.8442,-6.2,7.66,-0.08,22.31
19300,0.0511,-0.301,0.8463,-6.18,7.82,-0.11,22.3
19310,0.0514,-0.3022,0.8462,-6.2,7.88,-0.06,22.31
19320,0.0515,-0.3,0.8456,-6.18,7.82,0.0,22.32
19330,0.0507,-0.2993,0.845,-6.18,7.8,-0.05,22.31
19340,0.0511,-0.3004,0.8484,-6.23,7.76,-0.08,22.34
19350,0.0505,-0.301,0.8457,-6.2,7.76,0.0,22.31
19360,0.0494,-0.3015,0.8503,-6.2,7.79,-0.06,22.3
19370,0.0491,-0.3026,0.8497,-6.17,7.82,-0.03,22.32
19380,0.0465,-0.3046,0.8463,-6.23,7.85,-0.05,22.32
19390,0.0504,-0.3032,0.8489,-6.23,7.79,-0.05,22.33
19400,0.0504,-0.3022,0.8491,-6.26,7.77,-0.06,22.31
19410,0.0527,-0.3044,0.8474,-6.32,7.73,-0.03,22.31
19420,0.0505,-0.3032,0.8452,-6.32,7.74,-0.08,22.32
19430,0.0503,-0.303,0.8499,-6.17,7.77,0.0,22.31
19440,0.0511,-0.3042,0.8461,-6.17,7.79,0.03,22.3
19450,0.0537,-0.2991,0.8544,-6.06,7.69,-0.05,22.29
19460,0.0521,-0.2993,0.8506,-6.06,7.68,-0.09,22.3
19470,0.0525,-0.3002,0.848,-6.23,7.63,-0.08,22.29
19480,0.052,-0.2982,0.8467,-6.29,7.62,0.0,22.31
19490,0.0532,-0.2952,0.8439,-6.23,7.63,-0.03,22.31
19500,0.0536,-0.2983,0.8433,-6.23,7.76,-0.05,22.33
19510,0.0526,-0.3,0.8469,-6.17,7.86,-0.05,22.33
19520,0.0509,-0.3007,0.8463,-6.18,7.98,-0.02,22.3
19530,0.0498,-0.3033,0.8477,-6.2,7.92,0.02,22.32
19540,0.0503,-0.3021,0.8521,-6.18,7.8,-0.03,22.29
19550,0.05,-0.3018,0.8459,-6.21,7.74,-0.15,22.3
19560,0.0536,-0.3047,0.8463,-6.23,7.62,-0.03,22.3
19570,0.0546,-0.2996,0.8469,-6.21,7.71,-0.05,22.32
19580,0.0521,-0.2999,0.8468,-6.12,7.82,-0.02,22.32
19590,0.0483,-0.3,0.8512,-6.15,8.02,0.0,22.31
19600,0.048,-0.3037,0.8473,-6.15,8.0,-0.09,22.31
19610,0.0535,-0.2982,0.8472,-6.14,7.8,-0.03,22.32
19620,0.0514,-0.304,0.8481,-6.23,7.73,-0.05,22.31
19630,0.0511,-0.3014,0.8527,-6.21,7.62,-0.09,22.32
19640,0.0507,-0.3025,0.8458,-6.23,7.77,-0.11,22.33
19650,0.0532,-0.2992,0.8458,-6.2,7.79,-0.03,22.34
19660,0.0504,-0.3022,0.8494,-6.31,7.88,-0.06,22.33
19670,0.049,-0.3002,0.8517,-6.21,7.88,0.0,22.31
19680,0.0491,-0.303,0.855,-6.18,7.92,-0.08,22.3
19690,0.0521,-0.3038,0.8519,-6.32,7.82,-0.05,22.31
19700,0.0515,-0.3025,0.8562,-6.29,7.74,-0.11,22.3
19710,0.0515,-0.3027,0.8541,-6.26,7.65,-0.02,22.3
19720,0.0515,-0.3018,0.8511,-6.14,7.62,-0.09,22.31
19730,0.0537,-0.302,0.8447,-6.17,7.73,-0.02,22.32
19740,0.0531,-0.3031,0.847,-6.12,7.85,-0.09,22.3
19750,0.05,-0.3049,0.8483,-6.17,7.86,-0.03,22.32
19760,0.0518,-0.2998,0.8514,-6.21,7.79,-0.06,22.3
19770,0.0526,-0.302,0.8481,-6.24,7.74,-0.09,22.32
19780,0.0488,-0.3009,0.8462,-6.24,7.66,-0.05,22.32
19790,0.0504,-0.3027,0.844,-6.15,7.71,-0.09,22.34
19800,0.0518,-0.3016,0.844,-6.24,7.79,-0.06,22.31
19810,0.0515,-0.2983,0.8447,-6.21,7.8,-0.09,22.29
19820,0.0513,-0.3003,0.8488,-6.11,7.85,0.11,22.31
19830,0.0509,-0.3,0.8451,-6.09,7.88,-0.05,22.32
19840,0.0493,-0.3002,0.8479,-6.14,7.89,-0.06,22.33
19850,0.0511,-0.3014,0.8451,-6.18,7.82,-0.03,22.32
19860,0.0488,-0.3003,0.8478,-6.2,7.65,-0.03,22.32
19870,0.0509,-0.3026,0.8488,-6.27,7.69,-0.08,22.32
19880,0.0505,-0.3011,0.8478,-6.23,7.68,-0.09,22.29
19890,0.0518,-0.3011,0.8469,-6.17,7.79,0.03,22.31
19900,0.0511,-0.3044,0.8461,-6.12,7.91,-0.06,22.33
19910,0.0505,-0.3032,0.8524,-6.21,8.03,0.05,22.33
19920,0.0488,-0.3043,0.855,-6.24,7.98,-0.12,22.33
19930,0.0507,-0.3038,0.8505,-6.14,7.74,-0.06,22.32
19940,0.0524,-0.3021,0.8506,-6.27,7.57,-0.03,22.31
19950,0.0513,-0.3015,0.8466,-6.31,7.51,-0.09,22.3
19960,0.054,-0.2987,0.8412,-6.23,7.54,-0.09,22.29
19970,0.0547,-0.3018,0.842,-6.11,7.69,-0.09,22.31
19980,0.0544,-0.2998,0.847,-6.06,7.85,-0.03,22.33
19990,0.0519,-0.2998,0.8448,-6.12,7.89,-0.05,22.29
20000,0.0536,-0.2985,0.8502,-6.29,7.89,0.0,22.3
20010,0.0508,-0.3019,0.8457,-6.24,7.66,-0.11,22.3
20020,0.0497,-0.3011,0.8435,-6.31,7.6,-0.14,22.31
20030,0.0491,-0.2996,0.8468,-6.26,7.65,-0.05,22.33
20040,0.0519,-0.3003,0.8431,-6.26,7.76,-0.08,22.31
20050,0.05,-0.3009,0.8473,-6.18,7.92,-0.05,22.33
20060,0.0521,-0.3011,0.8455,-6.2,8.09,0.03,22.32
20070,0.0475,-0.3011,0.8484,-6.24,8.0,0.02,22.32
20080,0.0505,-0.3051,0.8512,-6.26,7.74,-0.08,22.29
20090,0.0499,-0.3021,0.8479,-6.35,7.66,-0.14,22.31
20100,0.0521,-0.3022,0.847,-6.21,7.54,-0.15,22.32
20110,0.051,-0.3003,0.8474,-6.02,7.66,-0.06,22.32
20120,0.0511,-0.3014,0.8483,-6.06,7.86,0.08,22.3
20130,0.0482,-0.3019,0.8527,-6.08,8.03,-0.05,22.33
20140,0.048,-0.3032,0.8531,-6.2,8.02,-0.03,22.31
20150,0.0498,-0.2987,0.8506,-6.24,7.8,-0.06,22.33
20160,0.05,-0.301,0.8539,-6.34,7.59,-0.12,22.31
20170,0.05,-0.304,0.8423,-6.37,7.6,-0.14,22.31
20180,0.0542,-0.3015,0.8425,-6.26,7.6,-0.08,22.31
20190,0.0531,-0.3055,0.8457,-6.14,7.85,-0.03,22.29
20200,0.0504,-0.2999,0.8462,-6.14,8.0,-0.02,22.31
20210,0.0502,-0.2998,0.8492,-6.03,8.02,0.03,22.33
20220,0.0469,-0.3008,0.8519,-6.27,7.74,-0.02,22.32
20230,0.052,-0.3026,0.851,-6.24,7.57,-0.11,22.32
20240,0.0498,-0.3015,0.8486,-6.23,7.51,-0.15,22.34
20250,0.0543,-0.302,0.8423,-6.21,7.57,-0.21,22.32
20260,0.0504,-0.3007,0.8469,-6.17,7.82,-0.05,22.3
20270,0.0504,-0.2998,0.8463,-6.12,7.95,0.0,22.32
20280,0.0492,-0.2982,0.8508,-6.09,7.89,-0.02,22.32
20290,0.0491,-0.2972,0.8491,-6.21,7.79,-0.02,22.35
20300,0.0504,-0.2994,0.8484,-6.14,7.65,-0.06,22.33
20310,0.0494,-0.3031,0.8456,-6.26,7.68,-0.08,22.31
20320,0.0529,-0.3018,0.8473,-6.29,7.66,-0.12,22.32
20330,0.0518,-0.3007,0.85,-6.26,7.88,-0.09,22.32
20340,0.0541,-0.3031,0.8499,-6.18,8.0,0.02,22.32
20350,0.0498,-0.3021,0.8511,-6.23,7.98,0.02,22.34
20360,0.0494,-0.3049,0.8533,-6.14,7.92,0.02,22.31
20370,0.0511,-0.3037,0.8462,-6.14,7.71,-0.11,22.32
20380,0.0505,-0.304,0.851,-6.26,7.6,-0.12,22.29
20390,0.0497,-0.3033,0.8483,-6.34,7.51,-0.11,22.33
20400,0.0514,-0.3025,0.845,-6.24,7.63,-0.09,22.32
20410,0.0511,-0.3015,0.8475,-6.18,7.73,0.0,22.32
20420,0.0533,-0.3008,0.8486,-6.14,7.97,-0.11,22.34
20430,0.0514,-0.2998,0.845,-6.12,7.95,0.0,22.31
20440,0.048,-0.3011,0.8459,-6.21,7.8,-0.02,22.32
20450,0.0508,-0.3003,0.8456,-6.32,7.71,-0.06,22.34
20460,0.0522,-0.3011,0.8484,-6.27,7.57,-0.17,22.32
20470,0.0516,-0.2981,0.8447,-6.31,7.54,-0.06,22.33
20480,0.0505,-0.2988,0.8486,-6.18,7.8,-0.05,22.33
20490,0.0496,-0.3021,0.8455,-6.12,8.05,0.02,22.32
20500,0.0488,-0.3011,0.8497,-6.17,8.09,0.03,22.34
20510,0.05,-0.3036,0.8508,-6.24,7.92,0.0,22.35
20520,0.0487,-0.3016,0.8507,-6.29,7.73,-0.15,22.38
20530,0.0488,-0.3015,0.8445,-6.27,7.66,-0.12,22.34
20540,0.0551,-0.3043,0.8497,-6.26,7.6,-0.11,22.36
20550,0.0526,-0.3016,0.8446,-6.18,7.71,0.0,22.33
20560,0.0516,-0.3049,0.8503,-6.12,7.82,0.02,22.35
20570,0.0498,-0.3036,0.8464,-6.18,7.94,-0.02,22.33
20580,0.05,-0.2983,0.8456,-6.27,7.86,-0.03,22.34
20590,0.0496,-0.2991,0.8456,-6.24,7.79,0.0,22.33
20600,0.0509,-0.3014,0.8483,-6.35,7.62,-0.11,22.34
20610,0.05,-0.3007,0.8506,-6.26,7.74,-0.03,22.34
20620,0.0483,-0.3011,0.8445,-6.2,7.76,-0.05,22.32
20630,0.0493,-0.3026,0.8456,-6.23,7.95,0.06,22.3
20640,0.0502,-0.3018,0.8514,-6.21,7.92,0.08,22.32
20650,0.0476,-0.3016,0.851,-6.2,7.82,0.0,22.31
20660,0.0518,-0.2998,0.8496,-6.2,7.69,-0.03,22.32
20670,0.0516,-0.304,0.8451,-6.23,7.59,-0.08,22.35
20680,0.0515,-0.3013,0.8479,-6.24,7.59,-0.18,22.35
20690,0.0525,-0.3009,0.8416,-6.27,7.74,-0.06,22.34
20700,0.0516,-0.303,0.8467,-6.27,7.79,-0.03,22.34
20710,0.0521,-0.3009,0.8456,-6.21,7.98,0.06,22.32
20720,0.0468,-0.3018,0.8495,-6.15,7.88,0.05,22.34
20730,0.049,-0.3015,0.8475,-6.14,7.83,-0.02,22.33
20740,0.0497,-0.3018,0.8481,-6.26,7.68,-0.05,22.34
20750,0.051,-0.2997,0.8505,-6.23,7.59,-0.08,22.34
20760,0.054,-0.2991,0.8472,-6.24,7.59,-0.09,22.32
20770,0.0522,-0.3027,0.8469,-6.2,7.77,-0.11,22.35
20780,0.0524,-0.303,0.8472,-6.34,7.95,-0.09,22.34
20790,0.0519,-0.3038,0.8459,-6.27,7.94,-0.05,22.35
20800,0.0497,-0.3038,0.8494,-6.34,7.89,-0.05,22.35
20810,0.0526,-0.3025,0.8451,-6.24,7.79,-0.15,22.34
20820,0.0511,-0.2994,0.848,-6.18,7.66,-0.09,22.32
20830,0.0519,-0.3044,0.8499,-6.15,7.68,-0.11,22.32
20840,0.0502,-0.3011,0.8512,-6.09,7.88,-0.08,22.34
20850,0.0502,-0.2988,0.847,-6.23,8.0,0.03,22.35
20860,0.0518,-0.3005,0.8511,-6.26,8.0,-0.03,22.32
20870,0.0487,-0.3026,0.8536,-6.24,7.91,-0.03,22.34
20880,0.0516,-0.3054,0.8508,-6.35,7.65,-0.03,22.34
20890,0.0518,-0.3004,0.8453,-6.31,7.5,-0.15,22.36
20900,0.0524,-0.3018,0.8448,-6.21,7.57,-0.09,22.34
20910,0.0553,-0.3022,0.8472,-6.27,7.6,-0.02,22.35
20920,0.0527,-0.2996,0.8488,-6.18,7.97,0.02,22.33
20930,0.0541,-0.2994,0.8501,-6.23,8.02,0.03,22.33
20940,0.0515,-0.3019,0.8516,-6.21,7.88,-0.02,22.33
20950,0.0454,-0.3021,0.8499,-6.2,7.69,-0.12,22.33
20960,0.0538,-0.3018,0.8474,-6.24,7.48,-0.14,22.33
20970,0.0515,-0.3025,0.8467,-6.23,7.44,-0.06,22.33
20980,0.0496,-0.2991,0.8459,-6.12,7.65,-0.09,22.33
20990,0.054,-0.2996,0.8489,-6.21,7.85,-0.02,22.34
21000,0.0526,-0.3009,0.8473,-6.14,8.02,-0.03,22.35
21010,0.0491,-0.2998,0.8479,-6.23,7.91,-0.03,22.32
21020,0.0518,-0.301,0.8448,-6.26,7.74,-0.09,22.36
21030,0.0515,-0.3004,0.847,-6.23,7.54,-0.15,22.34
21040,0.0527,-0.3008,0.8433,-6.11,7.53,-0.08,22.34
21050,0.0509,-0.3007,0.8488,-6.12,7.73,0.02,22.35
21060,0.0499,-0.2997,0.8491,-6.23,8.05,-0.05,22.34
21070,0.0507,-0.2997,0.8483,-6.27,8.02,0.05,22.35
21080,0.0499,-0.3033,0.8462,-6.26,7.86,-0.09,22.34
21090,0.0508,-0.3021,0.8474,-6.2,7.66,-0.11,22.34
21100,0.053,-0.3048,0.8463,-6.17,7.5,-0.11,22.35
21110,0.0519,-0.3003,0.8429,-6.18,7.5,-0.05,22.33
21120,0.0524,-0.3026,0.8545,-6.17,7.76,-0.02,22.34
21130,0.0504,-0.3013,0.8511,-6.27,7.95,-0.03,22.34
21140,0.0509,-0.3024,0.8512,-6.21,8.05,0.02,22.34
21150,0.0496,-0.3005,0.8496,-6.27,7.95,-0.02,22.35
21160,0.0494,-0.3014,0.8456,-6.38,7.74,0.0,22.33
21170,0.0526,-0.3035,0.8505,-6.26,7.59,-0.09,22.37
21180,0.0514,-0.3037,0.8474,-6.21,7.53,-0.06,22.34
21190,0.0514,-0.303,0.8428,-6.17,7.63,-0.06,22.34
21200,0.0524,-0.2992,0.8488,-6.15,7.82,-0.03,22.34
21210,0.0532,-0.2977,0.8418,-6.09,7.92,-0.12,22.35
21220,0.0497,-0.3,0.8489,-6.23,7.97,0.0,22.37
21230,0.0514,-0.3007,0.8492,-6.23,7.8,-0.11,22.34
21240,0.0504,-0.3036,0.849,-6.34,7.82,-0.11,22.33
21250,0.0513,-0.3018,0.8468,-6.24,7.74,-0.14,22.36
21260,0.0508,-0.3022,0.8495,-6.12,7.77,-0.05,22.33
21270,0.0502,-0.3049,0.8485,-6.09,7.88,-0.05,22.34
21280,0.0513,-0.2994,0.8516,-6.14,7.91,0.0,22.34
21293,0.0507,-0.3002,0.8488,-6.2,7.8,-0.06,22.33
21303,0.0493,-0.2994,0.8521,-6.26,7.63,-0.11,22.34
21313,0.0507,-0.2987,0.8458,-6.31,7.53,-0.08,22.34
21323,0.0537,-0.2986,0.8391,-6.15,7.56,-0.03,22.35
21333,0.0538,-0.3014,0.8445,-5.98,7.76,-0.03,22.35
21343,0.0536,-0.301,0.851,-6.11,8.11,-0.08,22.35
21353,0.0513,-0.2999,0.8478,-6.24,8.18,0.02,22.36
21363,0.0481,-0.3036,0.8477,-6.21,7.97,0.02,22.33
21373,0.0461,-0.3037,0.8491,-6.29,7.68,-0.14,22.35
21383,0.0509,-0.3038,0.848,-6.31,7.48,-0.11,22.35
21393,0.0487,-0.3021,0.8456,-6.12,7.5,-0.08,22.36
21403,0.052,-0.3009,0.8472,-6.08,7.68,0.0,22.34
21413,0.05,-0.2997,0.8501,-6.08,7.95,-0.08,22.37
21423,0.05,-0.3002,0.8522,-6.18,7.92,0.0,22.35
21433,0.0491,-0.3007,0.8472,-6.23,7.8,-0.06,22.33
21443,0.0486,-0.2988,0.85,-6.29,7.65,-0.09,22.35
21453,0.0521,-0.3016,0.8455,-6.31,7.59,-0.09,22.35
21463,0.0527,-0.2992,0.8419,-6.23,7.63,-0.12,22.36
21474,0.0549,-0.2998,0.8441,-6.14,7.76,0.03,22.34
21484,0.0519,-0.2968,0.8499,-6.06,7.94,0.05,22.34
21494,0.0505,-0.3026,0.8539,-6.18,7.98,0.03,22.34
21504,0.0508,-0.3026,0.8528,-6.23,7.91,0.02,22.37
21514,0.0498,-0.303,0.8496,-6.23,7.73,-0.09,22.35
21524,0.0526,-0.3,0.8529,-6.34,7.63,-0.08,22.33
21534,0.0525,-0.3031,0.8459,-6.27,7.6,-0.06,22.37
21544,0.0532,-0.3068,0.8467,-6.17,7.8,-0.05,22.34
21554,0.0513,-0.3019,0.8477,-6.06,7.92,-0.03,22.34
21564,0.0518,-0.3059,0.8533,-6.08,7.98,-0.03,22.34
21574,0.0497,-0.3014,0.8485,-6.15,7.88,-0.03,22.32
21584,0.052,-0.2992,0.8485,-6.2,7.63,-0.08,22.34
21594,0.0496,-0.2993,0.8464,-6.24,7.5,-0.14,22.35
21604,0.0521,-0.3024,0.8445,-6.31,7.45,-0.06,22.37
21614,0.0529,-0.3002,0.8434,-6.17,7.66,-0.05,22.34
21624,0.0532,-0.2969,0.8434,-6.12,7.94,0.02,22.34
21634,0.0503,-0.2987,0.8464,-6.08,8.14,0.02,22.34
21644,0.0492,-0.3021,0.8486,-6.14,8.03,-0.06,22.35
21654,0.0475,-0.304,0.8552,-6.24,7.86,-0.06,22.37
21664,0.0497,-0.2997,0.85,-6.37,7.62,-0.14,22.34
21674,0.0508,-0.302,0.8464,-6.31,7.44,-0.12,22.36
21684,0.0552,-0.303,0.8412,-6.32,7.6,-0.09,22.33
21694,0.0554,-0.3037,0.8459,-6.2,7.82,-0.02,22.35
21704,0.053,-0.3042,0.8472,-6.18,8.08,0.0,22.36
21714,0.0535,-0.3043,0.8448,-6.12,8.0,0.0,22.35
21724,0.0479,-0.3022,0.8502,-6.14,7.85,-0.05,22.39
21734,0.0529,-0.3016,0.8489,-6.21,7.63,-0.03,22.4
21744,0.0502,-0.3024,0.8519,-6.27,7.47,-0.09,22.34
21754,0.052,-0.2994,0.8501,-6.14,7.54,-0.15,22.36
21764,0.0515,-0.3018,0.8488,-6.15,7.86,-0.09,22.35
21774,0.0513,-0.3029,0.8469,-6.12,8.18,0.0,22.36
21784,0.0497,-0.3013,0.8514,-6.27,8.17,0.09,22.37
21794,0.0508,-0.3032,0.8486,-6.24,7.88,-0.06,22.35
21804,0.0475,-0.3025,0.8488,-6.29,7.57,-0.08,22.36
21814,0.0492,-0.3015,0.8485,-6.15,7.42,-0.12,22.37
21824,0.0516,-0.3035,0.8474,-6.12,7.48,-0.12,22.34
21834,0.053,-0.3015,0.848,-6.17,7.79,-0.06,22.37
21844,0.0538,-0.3015,0.8451,-6.12,8.03,-0.02,22.36
21854,0.0526,-0.3021,0.8524,-6.23,8.18,0.05,22.35
21864,0.0502,-0.3025,0.8501,-6.23,7.98,-0.05,22.39
21874,0.0497,-0.3031,0.8488,-6.27,7.71,-0.09,22.38
21884,0.0524,-0.3043,0.8495,-6.23,7.45,-0.14,22.37
21894,0.0538,-0.3035,0.8456,-6.21,7.45,-0.06,22.34
21904,0.0525,-0.3011,0.845,-6.2,7.73,0.02,22.37
21914,0.0527,-0.2985,0.8458,-6.09,7.89,0.02,22.34
21924,0.0518,-0.302,0.8495,-6.11,8.03,0.06,22.35
21934,0.053,-0.3018,0.8491,-6.18,7.94,0.09,22.37
21944,0.0487,-0.2985,0.8507,-6.21,7.79,0.0,22.37
21954,0.051,-0.2987,0.8478,-6.24,7.59,-0.09,22.36
21964,0.0554,-0.3032,0.8441,-6.21,7.57,-0.2,22.34
21974,0.053,-0.3014,0.8452,-6.31,7.69,-0.08,22.38
21984,0.0505,-0.3036,0.8442,-6.2,7.8,0.0,22.36
21994,0.051,-0.3022,0.845,-6.12,8.02,-0.03,22.37
22004,0.0498,-0.2997,0.8469,-6.15,7.86,-0.02,22.36
22014,0.0513,-0.2999,0.8518,-6.11,7.77,0.03,22.36
22024,0.0487,-0.3027,0.8502,-6.14,7.62,-0.12,22.37
22034,0.0503,-0.3014,0.8478,-6.23,7.63,-0.09,22.38
22044,0.0524,-0.2999,0.8485,-6.18,7.74,0.0,22.36
22054,0.0526,-0.3021,0.8483,-6.31,7.88,0.0,22.36
22064,0.0516,-0.299,0.8445,-6.23,7.94,-0.03,22.37
22074,0.0513,-0.3014,0.8534,-6.14,7.88,0.02,22.36
22084,0.049,-0.3005,0.8477,-6.24,7.79,-0.06,22.37
22094,0.0505,-0.303,0.8503,-6.32,7.62,-0.14,22.38
22104,0.0518,-0.3011,0.8468,-6.21,7.6,-0.09,22.37
22114,0.0538,-0.3041,0.842,-6.21,7.62,-0.02,22.37
22124,0.0547,-0.3013,0.8436,-6.11,7.86,-0.03,22.38
22134,0.0541,-0.303,0.8466,-6.09,7.83,-0.06,22.39
22144,0.0497,-0.2986,0.8475,-6.2,7.92,0.0,22.38
22154,0.0525,-0.302,0.8513,-6.17,7.8,0.0,22.38
22164,0.05,-0.3011,0.8516,-6.31,7.71,-0.08,22.38
22174,0.0455,-0.2986,0.8485,-6.29,7.66,-0.09,22.36
22184,0.0499,-0.3035,0.8484,-6.23,7.79,-0.03,22.37
22194,0.0498,-0.3029,0.8445,-6.23,7.83,-0.02,22.37
22204,0.0507,-0.301,0.8467,-6.21,7.77,-0.02,22.36
22214,0.0515,-0.3014,0.8502,-6.23,7.88,0.03,22.37
22224,0.0524,-0.3005,0.851,-6.15,7.85,-0.06,22.38
22234,0.053,-0.3016,0.8522,-6.2,7.73,-0.11,22.37
22244,0.0511,-0.3036,0.85,-6.24,7.68,-0.08,22.33
22254,0.0524,-0.3015,0.8494,-6.2,7.79,-0.02,22.36
22264,0.0511,-0.3025,0.8475,-6.15,7.83,-0.09,22.39
22274,0.054,-0.3022,0.8467,-6.21,7.8,0.0,22.36
22284,0.0514,-0.3042,0.847,-6.2,7.85,-0.02,22.35
22294,0.0526,-0.3005,0.8481,-6.14,7.79,-0.03,22.37
22304,0.0497,-0.3009,0.8484,-6.18,7.65,-0.08,22.36
22314,0.0513,-0.3029,0.8431,-6.21,7.62,-0.14,22.37
22324,0.0546,-0.3021,0.8446,-6.14,7.65,-0.11,22.38
22334,0.0502,-0.2986,0.843,-6.18,7.74,-0.05,22.38
22344,0.0509,-0.3032,0.8489,-6.18,8.0,-0.08,22.36
22354,0.0508,-0.3047,0.8475,-6.2,7.97,-0.03,22.39
22364,0.0498,-0.3,0.8507,-6.21,7.92,0.0,22.36
22374,0.0499,-0.3027,0.8466,-6.27,7.83,-0.11,22.36
22384,0.0516,-0.2999,0.8475,-6.27,7.68,-0.08,22.37
22394,0.0481,-0.3019,0.8456,-6.27,7.65,-0.06,22.4
22404,0.0518,-0.2993,0.8453,-6.17,7.66,-0.11,22.37
22414,0.0502,-0.3044,0.8477,-6.17,7.66,-0.08,22.38
22424,0.0497,-0.3018,0.8463,-6.14,7.82,-0.09,22.37
22434,0.0507,-0.3029,0.8463,-6.15,7.86,-0.03,22.35
22444,0.0502,-0.301,0.8472,-6.27,7.94,-0.05,22.37
22454,0.0526,-0.3041,0.8507,-6.26,7.8,-0.06,22.36
22464,0.0521,-0.2992,0.8447,-6.23,7.73,-0.09,22.37
22474,0.0487,-0.302,0.8463,-6.2,7.65,-0.12,22.39
22484,0.0494,-0.3013,0.8462,-6.2,7.68,-0.08,22.38
22494,0.0503,-0.3009,0.849,-6.15,7.76,-0.05,22.39
22504,0.0481,-0.3007,0.847,-6.23,7.88,0.0,22.38
22514,0.0497,-0.3007,0.8503,-6.2,7.89,-0.09,22.38
22524,0.0479,-0.3011,0.8496,-6.24,7.88,0.03,22.36
22534,0.0464,-0.301,0.8496,-6.17,7.82,-0.08,22.39
22544,0.0458,-0.2996,0.8434,-6.34,7.73,-0.06,22.36
22554,0.0498,-0.2988,0.8518,-6.23,7.66,-0.08,22.41
22564,0.0521,-0.3026,0.8462,-6.14,7.76,0.0,22.41
22574,0.0486,-0.2994,0.8485,-6.11,7.82,-0.05,22.4
22584,0.0533,-0.3026,0.8508,-6.2,7.85,-0.06,22.38
22594,0.0481,-0.3052,0.849,-6.17,7.76,-0.06,22.39
22604,0.051,-0.3046,0.8525,-6.23,7.79,-0.11,22.4
22614,0.0513,-0.3041,0.8501,-6.18,7.62,-0.02,22.39
22624,0.0533,-0.3016,0.8516,-6.24,7.54,-0.15,22.36
22634,0.053,-0.3015,0.8492,-6.14,7.56,-0.14,22.39
22644,0.0536,-0.2997,0.8463,-6.11,7.74,-0.06,22.37
22654,0.0542,-0.3029,0.8472,-6.14,7.8,-0.12,22.37
22664,0.0537,-0.3022,0.8517,-6.17,7.77,-0.05,22.39
22674,0.0529,-0.3013,0.85,-6.37,7.63,-0.12,22.37
22684,0.0557,-0.2981,0.8451,-6.27,7.51,-0.14,22.39
22694,0.0519,-0.2999,0.8433,-6.24,7.56,-0.08,22.39
22704,0.0546,-0.3015,0.8394,-6.15,7.76,-0.12,22.37
22714,0.0513,-0.2994,0.8427,-6.18,7.91,-0.02,22.36
22724,0.0507,-0.3014,0.8427,-6.21,7.98,0.0,22.38
22734,0.0526,-0.3021,0.8494,-6.21,7.91,-0.05,22.43
22744,0.0494,-0.3031,0.845,-6.21,7.8,-0.15,22.39
22754,0.0527,-0.2998,0.8478,-6.2,7.53,-0.06,22.38
22764,0.0497,-0.2987,0.8446,-6.31,7.56,-0.08,22.4
22774,0.0519,-0.2987,0.8427,-6.26,7.59,-0.06,22.37
22784,0.0537,-0.3003,0.8486,-6.2,7.76,-0.08,22.4
22794,0.0542,-0.3014,0.8467,-6.14,7.98,0.0,22.37
22804,0.0493,-0.301,0.8481,-6.18,7.97,0.0,22.39
22814,0.0503,-0.2994,0.851,-6.2,7.89,-0.03,22.37
22824,0.0503,-0.2982,0.8503,-6.35,7.8,-0.08,22.37
22834,0.05,-0.3027,0.8477,-6.23,7.57,0.02,22.39
22844,0.0504,-0.3019,0.8468,-6.18,7.74,-0.17,22.39
22854,0.0507,-0.3013,0.8477,-6.09,7.91,-0.05,22.39
22864,0.0524,-0.3031,0.8531,-6.11,7.98,-0.03,22.37
22874,0.0471,-0.3019,0.8542,-6.14,7.98,-0.06,22.37
22884,0.0492,-0.3014,0.8533,-6.23,7.92,-0.05,22.36
22894,0.0507,-0.3036,0.8547,-6.29,7.54,0.02,22.41
22904,0.0546,-0.302,0.8542,-6.27,7.47,-0.08,22.39
22914,0.0562,-0.3015,0.8481,-6.23,7.44,-0.06,22.4
22924,0.0568,-0.2971,0.845,-6.21,7.59,-0.02,22.38
22934,0.0538,-0.2965,0.8447,-6.24,7.83,-0.05,22.39
22944,0.0531,-0.2985,0.8417,-6.24,8.09,0.03,22.4
22954,0.0497,-0.2988,0.8417,-6.34,8.21,0.0,22.39
22964,0.0493,-0.2999,0.8383,-6.34,8.26,0.03,22.37
22974,0.0483,-0.3002,0.8414,-6.11,8.09,0.09,22.38
22984,0.0466,-0.3005,0.8486,-6.03,7.91,0.06,22.39
22994,0.0503,-0.303,0.8555,-6.05,7.85,-0.02,22.37
23004,0.0488,-0.3016,0.853,-6.14,7.82,-0.03,22.36
23014,0.0498,-0.3025,0.8596,-6.14,7.85,-0.08,22.37
23024,0.0485,-0.3026,0.8553,-6.31,7.79,-0.05,22.39
23034,0.048,-0.3025,0.8567,-6.34,7.76,-0.05,22.37
23044,0.0522,-0.3035,0.8512,-6.35,7.69,-0.11,22.39
23054,0.0571,-0.3074,0.8436,-6.12,7.8,-0.03,22.41
23064,0.0558,-0.3035,0.8523,-6.12,7.8,0.02,22.38
23074,0.0574,-0.3014,0.8481,-6.24,7.83,-0.08,22.39
23084,0.058,-0.2988,0.8405,-6.34,7.86,-0.02,22.4
23094,0.0585,-0.2982,0.8367,-6.58,7.66,-0.03,22.38
23104,0.0557,-0.2985,0.8363,-6.4,7.83,-0.03,22.39
23114,0.0559,-0.2987,0.835,-6.31,7.94,0.02,22.39
23124,0.057,-0.2964,0.8337,-6.2,8.15,0.05,22.39
23134,0.0543,-0.2981,0.8313,-6.18,8.4,0.17,22.38
23144,0.0504,-0.2952,0.8308,-6.18,8.52,0.12,22.39
23154,0.0454,-0.2948,0.8346,-6.27,8.4,0.09,22.37
23164,0.0455,-0.2953,0.8372,-6.43,8.31,0.0,22.37
23174,0.0438,-0.2961,0.8401,-6.21,8.21,0.05,22.39
23184,0.0443,-0.2982,0.8429,-6.12,8.23,0.15,22.37
23194,0.0458,-0.2991,0.8503,-6.12,8.41,0.11,22.37
23204,0.0431,-0.3008,0.8566,-6.12,8.52,0.17,22.38
23214,0.0438,-0.3059,0.8621,-6.12,8.43,0.18,22.38
23224,0.0455,-0.309,0.8671,-6.0,8.41,0.14,22.36
23234,0.0454,-0.3063,0.8634,-6.15,8.24,0.18,22.37
23244,0.0419,-0.3036,0.8655,-6.27,8.2,0.05,22.39
23254,0.048,-0.3079,0.8606,-6.24,7.82,-0.05,22.37
23264,0.0477,-0.3047,0.8635,-6.24,7.85,0.02,22.37
23274,0.0529,-0.3099,0.8635,-6.17,8.05,0.03,22.39
23284,0.0562,-0.307,0.8618,-6.18,8.26,0.12,22.38
23294,0.0541,-0.3091,0.8658,-6.08,8.27,0.08,22.37
23304,0.0538,-0.3085,0.8602,-6.26,8.09,0.11,22.37
23314,0.0515,-0.3064,0.8638,-6.31,7.83,-0.15,22.39
23324,0.0542,-0.306,0.8541,-6.2,7.63,-0.08,22.37
23334,0.0571,-0.3074,0.8507,-6.11,7.76,-0.09,22.39
23344,0.0551,-0.3075,0.8467,-6.08,7.88,-0.03,22.39
23354,0.054,-0.3041,0.8484,-6.03,8.0,-0.05,22.39
23364,0.053,-0.3035,0.8497,-6.06,7.97,0.0,22.4
23374,0.0515,-0.2963,0.8473,-6.09,7.82,-0.05,22.39
23384,0.054,-0.297,0.8444,-6.12,7.56,-0.12,22.37
23394,0.0481,-0.2935,0.8413,-6.31,7.59,-0.14,22.37
23404,0.0513,-0.2968,0.8333,-6.37,7.76,-0.11,22.37
23414,0.0471,-0.2976,0.8311,-6.43,8.08,-0.08,22.36
23424,0.0441,-0.2932,0.8287,-6.32,8.35,-0.06,22.38
23434,0.0422,-0.2987,0.8308,-6.17,8.4,0.03,22.35
23444,0.0385,-0.2958,0.826,-6.14,8.18,0.05,22.35
23454,0.0428,-0.2954,0.8368,-6.14,7.77,0.02,22.38
23464,0.0414,-0.3009,0.8369,-6.23,7.51,-0.08,22.37
23474,0.0441,-0.2994,0.839,-6.2,7.39,-0.08,22.37
23484,0.0496,-0.3013,0.8407,-6.17,7.59,-0.11,22.39
23494,0.0504,-0.3007,0.8461,-6.2,7.83,-0.05,22.36
23504,0.0526,-0.2999,0.8472,-6.11,8.03,0.06,22.36
23514,0.0515,-0.3021,0.8539,-6.2,8.06,0.08,22.37
23524,0.0482,-0.3033,0.8551,-6.31,8.05,0.11,22.37
23534,0.0461,-0.302,0.8549,-6.46,7.82,-0.03,22.37
23544,0.0441,-0.3074,0.8507,-6.52,7.54,-0.15,22.35
23554,0.0482,-0.3071,0.856,-6.37,7.56,-0.11,22.38
23564,0.0499,-0.3091,0.8488,-6.21,7.54,-0.12,22.36
23574,0.0511,-0.3121,0.8555,-6.02,7.79,-0.05,22.35
23584,0.0508,-0.3108,0.8616,-5.98,7.76,-0.03,22.37
23594,0.0493,-0.3087,0.8633,-5.97,7.59,-0.06,22.37
23604,0.0477,-0.3077,0.8671,-6.06,7.47,-0.09,22.41
23614,0.0496,-0.3066,0.8674,-6.14,7.21,-0.18,22.37
23624,0.051,-0.3052,0.8634,-6.23,7.05,-0.18,22.39
23634,0.0505,-0.3054,0.8567,-6.2,7.25,-0.26,22.39
23644,0.0526,-0.3046,0.8546,-6.12,7.21,-0.21,22.39
23654,0.0518,-0.3031,0.8505,-6.02,7.3,-0.15,22.38
23664,0.05,-0.3015,0.8503,-6.03,7.4,-0.12,22.39
23674,0.0535,-0.2985,0.847,-6.11,7.3,-0.11,22.38
23684,0.0515,-0.2979,0.8488,-6.17,7.27,-0.15,22.38
23694,0.0526,-0.2957,0.8381,-6.24,7.22,-0.23,22.42
23704,0.0551,-0.297,0.8295,-6.27,7.28,-0.2,22.39
23714,0.0569,-0.2986,0.83,-6.31,7.36,-0.21,22.39
23724,0.0544,-0.2981,0.8302,-6.11,7.47,-0.15,22.39
23734,0.0541,-0.2955,0.8265,-6.09,7.48,-0.08,22.41
23744,0.0563,-0.2925,0.83,-5.97,7.57,-0.11,22.4
23754,0.0538,-0.2904,0.8282,-6.05,7.59,-0.03,22.4
23764,0.0498,-0.2886,0.8345,-6.11,7.57,-0.12,22.41
23774,0.0527,-0.2897,0.8341,-6.23,7.73,-0.06,22.41
23784,0.0542,-0.2891,0.8368,-6.32,7.79,-0.06,22.37
23794,0.0508,-0.2921,0.8367,-6.38,8.0,-0.05,22.37
23804,0.0486,-0.2968,0.8392,-6.29,8.15,0.02,22.38
23814,0.045,-0.2981,0.8412,-6.32,8.26,0.14,22.38
23824,0.0432,-0.2992,0.8451,-6.26,8.18,0.05,22.39
23834,0.0457,-0.2991,0.8517,-6.23,8.14,0.09,22.4
23844,0.0446,-0.3008,0.8512,-6.34,8.08,0.12,22.41
23854,0.0463,-0.3044,0.8541,-6.41,7.98,-0.02,22.41
23864,0.0466,-0.3048,0.8569,-6.35,8.0,0.03,22.41
23874,0.0477,-0.3031,0.8553,-6.34,8.06,0.05,22.4
23884,0.0488,-0.3035,0.8573,-6.21,8.21,0.03,22.39
23894,0.0496,-0.307,0.859,-6.21,8.14,0.08,22.38
23904,0.048,-0.307,0.8604,-6.15,8.09,0.09,22.4
23914,0.0497,-0.3059,0.8635,-6.2,8.02,0.0,22.39
23924,0.051,-0.308,0.8683,-6.23,8.02,-0.05,22.4
23934,0.0487,-0.3062,0.8672,-6.23,7.82,-0.05,22.41
23944,0.051,-0.307,0.8619,-6.27,7.71,-0.11,22.4
23954,0.0515,-0.3073,0.8564,-6.27,7.66,-0.05,22.39
23964,0.0513,-0.3057,0.8539,-6.26,7.77,-0.08,22.38
23974,0.0513,-0.302,0.8528,-6.11,7.86,-0.08,22.38
23984,0.0505,-0.3014,0.8473,-6.12,7.95,0.02,22.4
23994,0.0513,-0.2982,0.8461,-6.12,8.17,0.0,22.39
24004,0.0546,-0.3025,0.8451,-6.12,8.26,0.05,22.38
24014,0.0533,-0.2988,0.8483,-6.02,7.97,0.03,22.38
24024,0.0492,-0.2992,0.8475,-6.15,8.09,-0.05,22.4
24034,0.0475,-0.2987,0.8406,-6.46,7.86,-0.08,22.4
24044,0.0421,-0.2963,0.8268,-6.82,7.77,-0.23,22.4
24054,0.0416,-0.298,0.8147,-6.84,7.79,-0.18,22.4
24064,0.0427,-0.2977,0.8118,-6.32,8.02,0.03,22.39
24074,0.0459,-0.2953,0.8252,-5.82,8.21,0.21,22.41
24084,0.0448,-0.293,0.8429,-5.53,8.46,0.27,22.39
24094,0.049,-0.2953,0.8616,-5.36,8.41,0.26,22.39
24104,0.0544,-0.2963,0.8739,-5.56,8.23,0.21,22.4
24114,0.0439,-0.2908,0.869,-6.2,8.12,0.06,22.42
24124,0.0406,-0.2925,0.8586,-6.99,7.74,-0.15,22.41
24134,0.0376,-0.2957,0.8412,-7.4,7.74,-0.24,22.39
24144,0.0385,-0.2992,0.8342,-7.37,7.53,-0.15,22.38
24154,0.041,-0.3031,0.8304,-6.67,7.83,0.02,22.4
24164,0.0454,-0.3052,0.8323,-6.21,8.14,0.17,22.4
24174,0.0466,-0.3015,0.8473,-5.8,8.58,0.32,22.41
24184,0.0432,-0.3036,0.8569,-5.83,8.61,0.26,22.41
24194,0.0408,-0.3063,0.8627,-6.37,8.38,0.09,22.39
24204,0.0436,-0.3094,0.8649,-6.75,7.73,-0.12,22.44
24214,0.0466,-0.3135,0.8651,-6.84,7.04,-0.31,22.39
24224,0.0544,-0.3147,0.8585,-6.56,6.56,-0.29,22.42
24234,0.0645,-0.314,0.864,-5.8,6.81,-0.14,22.4
24244,0.0647,-0.3093,0.8719,-5.6,7.22,-0.11,22.39
24254,0.0627,-0.3085,0.8732,-5.57,7.83,0.02,22.42
24264,0.0552,-0.304,0.8717,-6.24,7.92,0.0,22.43
24274,0.0536,-0.2996,0.858,-6.84,7.53,-0.18,22.43
24284,0.0543,-0.298,0.8383,-7.05,7.02,-0.41,22.42
24294,0.0569,-0.2977,0.8264,-6.93,6.78,-0.41,22.4
24304,0.0593,-0.2999,0.8199,-6.44,7.01,-0.35,22.42
24314,0.0602,-0.3053,0.8225,-6.14,7.88,-0.09,22.4
24324,0.0574,-0.3036,0.8239,-5.86,8.4,-0.06,22.39
24334,0.0516,-0.3087,0.8392,-5.82,8.35,-0.05,22.38
24344,0.0481,-0.3063,0.8419,-5.98,7.76,-0.15,22.38
24354,0.0492,-0.3037,0.84,-6.17,6.89,-0.4,22.39
24364,0.0516,-0.2998,0.833,-6.23,6.35,-0.46,22.41
24374,0.0541,-0.2957,0.8274,-6.09,6.69,-0.27,22.39
24384,0.0565,-0.2932,0.8293,-5.94,7.54,0.02,22.42
24394,0.054,-0.2938,0.8406,-5.89,8.61,0.2,22.39
24404,0.0507,-0.2985,0.8518,-5.91,9.11,0.18,22.4
24414,0.0428,-0.2999,0.8552,-6.35,8.7,0.11,22.4
24424,0.0391,-0.3026,0.8555,-6.6,7.97,-0.11,22.41
24434,0.0421,-0.3092,0.8501,-6.76,7.19,-0.29,22.4
24444,0.0443,-0.3083,0.8346,-6.89,6.87,-0.37,22.39
24454,0.0479,-0.3151,0.8318,-6.53,7.31,-0.27,22.41
24464,0.0518,-0.3135,0.8397,-6.08,8.0,0.06,22.41
24474,0.046,-0.3135,0.85,-5.59,8.47,0.29,22.39
24484,0.0452,-0.3105,0.8629,-5.4,8.46,0.24,22.4
24494,0.0468,-0.3042,0.8744,-5.51,7.97,0.15,22.39
24504,0.0448,-0.3055,0.8755,-5.95,7.19,-0.02,22.4
24514,0.0481,-0.3065,0.8757,-6.43,6.67,-0.26,22.39
24524,0.0531,-0.3021,0.8618,-6.69,6.72,-0.35,22.4
24534,0.0555,-0.3042,0.8519,-6.55,7.31,-0.17,22.41
24544,0.0547,-0.3091,0.8499,-6.32,7.98,-0.08,22.4
24554,0.0509,-0.3081,0.8538,-5.86,8.37,0.06,22.4
24564,0.048,-0.3079,0.8572,-5.71,8.08,0.08,22.37
24574,0.0455,-0.3058,0.8583,-5.91,7.48,-0.02,22.4
24585,0.0488,-0.3,0.8464,-6.2,6.7,-0.32,22.39
24595,0.0546,-0.2966,0.8339,-6.29,6.47,-0.38,22.4
24605,0.058,-0.2927,0.821,-6.18,6.85,-0.31,22.38
24615,0.0575,-0.2877,0.8236,-6.05,7.53,-0.09,22.39
24625,0.0548,-0.2898,0.828,-5.66,8.15,0.03,22.4
24635,0.0509,-0.2871,0.8325,-5.6,8.34,0.12,22.4
24645,0.0471,-0.2869,0.8417,-5.69,8.05,0.02,22.4
24655,0.047,-0.2883,0.8439,-6.03,7.63,-0.21,22.4
24665,0.0476,-0.288,0.8383,-6.44,7.3,-0.27,22.39
24675,0.0527,-0.2855,0.8333,-6.6,7.3,-0.27,22.41
24685,0.0529,-0.2837,0.8226,-6.63,7.66,-0.15,22.42
24695,0.0503,-0.2876,0.8247,-6.41,8.12,0.05,22.4
24705,0.0472,-0.2882,0.83,-6.08,8.5,0.27,22.42
24715,0.0465,-0.2891,0.8364,-5.94,8.67,0.21,22.39
24725,0.0435,-0.2932,0.8516,-6.2,8.55,0.14,22.39
24735,0.0422,-0.2928,0.86,-6.41,8.23,0.02,22.43
24745,0.0442,-0.2955,0.8607,-6.76,7.88,-0.06,22.39
24755,0.0444,-0.2988,0.8568,-6.9,7.79,-0.15,22.41
24765,0.0477,-0.3043,0.8624,-6.73,7.85,-0.09,22.39
24775,0.0493,-0.306,0.8638,-6.37,8.14,0.0,22.4
24785,0.0483,-0.3083,0.8704,-6.11,8.14,0.05,22.39
24795,0.049,-0.309,0.8766,-6.17,8.15,0.09,22.38
24805,0.0461,-0.3044,0.8806,-6.24,8.05,0.02,22.41
24815,0.0497,-0.3107,0.8669,-6.67,7.76,-0.06,22.4
24825,0.0468,-0.3101,0.8649,-6.99,7.69,-0.14,22.38
24835,0.0527,-0.3069,0.8489,-6.9,7.63,-0.15,22.42
24846,0.0487,-0.304,0.8408,-6.52,7.74,-0.09,22.4
24856,0.0526,-0.3074,0.8422,-6.09,7.76,-0.03,22.4
24866,0.0544,-0.3102,0.8513,-5.97,8.14,0.02,22.42
24876,0.0546,-0.3108,0.8497,-6.09,8.38,-0.09,22.41
24886,0.0527,-0.3118,0.853,-6.35,8.09,-0.08,22.42
24896,0.0525,-0.3063,0.8506,-6.21,7.65,-0.2,22.39
24906,0.0559,-0.3087,0.8442,-6.12,7.24,-0.24,22.39
24916,0.0576,-0.3038,0.8417,-6.03,7.42,-0.18,22.38
24926,0.058,-0.308,0.8503,-5.79,7.69,-0.11,22.41
24936,0.0482,-0.2997,0.8544,-5.73,8.32,-0.02,22.42
24946,0.0476,-0.2988,0.8507,-6.0,8.21,0.02,22.39
24956,0.0525,-0.3064,0.8489,-6.37,7.4,-0.26,22.39
24966,0.064,-0.3044,0.8505,-6.31,7.4,-0.35,22.38
24976,0.0581,-0.3149,0.8525,-6.27,7.86,-0.34,22.4
24986,0.0409,-0.3107,0.8152,-6.67,8.5,-0.11,22.41
24996,0.0386,-0.3125,0.8071,-7.1,8.24,-0.15,22.42
25006,0.0383,-0.316,0.8051,-6.37,7.68,-0.09,22.41
25016,0.0493,-0.3107,0.8274,-5.21,7.36,0.0,22.41
25026,0.0526,-0.3082,0.8538,-4.37,7.47,0.06,22.41
25036,0.0527,-0.3025,0.8845,-4.34,7.73,0.29,22.42
25046,0.0466,-0.2981,0.8792,-5.51,7.94,0.14,22.4
25056,0.0409,-0.2968,0.8579,-6.89,7.13,-0.15,22.4
25066,0.0409,-0.2965,0.84,-7.37,6.96,-0.34,22.43
25076,0.0332,-0.292,0.8092,-7.65,6.92,-0.46,22.39
25086,0.0393,-0.2964,0.7961,-7.22,7.16,-0.34,22.41
25096,0.0453,-0.2982,0.798,-6.12,7.8,0.12,22.43
25106,0.0526,-0.3022,0.8328,-4.99,8.63,0.49,22.43
25116,0.054,-0.3042,0.8727,-4.31,9.22,0.69,22.4
25126,0.0498,-0.3033,0.8899,-4.52,8.96,0.52,22.4
25136,0.0438,-0.3007,0.8965,-5.56,7.77,0.11,22.43
25146,0.0424,-0.3057,0.8823,-7.07,6.56,-0.38,22.42
25156,0.048,-0.2994,0.8524,-7.73,5.73,-0.55,22.42
25166,0.0557,-0.2958,0.8341,-7.5,5.45,-0.66,22.42
25176,0.0685,-0.2966,0.833,-6.31,6.56,-0.29,22.41
25186,0.0757,-0.3009,0.8448,-5.34,8.0,0.2,22.41
25196,0.0712,-0.3031,0.8761,-4.7,9.94,0.6,22.4
25206,0.0634,-0.3022,0.8983,-4.84,10.67,0.69,22.41
25216,0.0485,-0.3011,0.9053,-5.4,9.54,0.34,22.42
25226,0.0458,-0.303,0.9014,-6.43,6.84,-0.38,22.42
25236,0.0547,-0.2972,0.8689,-6.96,4.85,-0.9,22.39
25246,0.0577,-0.3019,0.8502,-7.51,4.49,-1.08,22.42
25256,0.0686,-0.3029,0.8251,-7.5,5.92,-0.81,22.4
25266,0.0693,-0.2955,0.8195,-6.75,7.83,-0.32,22.41
25276,0.064,-0.3087,0.8215,-5.68,9.25,0.26,22.43
25286,0.0559,-0.2933,0.8439,-4.73,10.02,0.56,22.44
25296,0.0411,-0.2844,0.8557,-4.61,9.18,0.4,22.41
25306,0.0396,-0.2782,0.8624,-5.1,7.56,0.02,22.42
25316,0.0363,-0.2809,0.8473,-6.12,6.15,-0.46,22.42
25326,0.0436,-0.2809,0.8373,-7.28,6.0,-0.82,22.42
25336,0.0515,-0.2916,0.818,-7.79,6.72,-0.75,22.42
25346,0.0526,-0.2981,0.8114,-7.44,7.95,-0.37,22.42
25356,0.0496,-0.301,0.8073,-6.58,8.92,0.11,22.42
25366,0.042,-0.301,0.8169,-5.79,9.15,0.24,22.43
25376,0.0332,-0.2959,0.8263,-5.28,8.82,0.32,22.42
25386,0.0316,-0.2921,0.8376,-5.48,7.97,0.18,22.4
25396,0.0319,-0.2908,0.8361,-6.2,7.51,0.0,22.43
25406,0.0317,-0.2896,0.8331,-7.08,7.33,-0.15,22.46
25416,0.0403,-0.2949,0.8314,-7.3,7.56,-0.21,22.43
25426,0.0431,-0.3041,0.8334,-6.93,8.15,0.02,22.44
25436,0.0457,-0.3036,0.8362,-6.31,8.47,0.14,22.41
25446,0.0428,-0.3102,0.8505,-5.77,8.4,0.24,22.4
25456,0.0442,-0.3063,0.8649,-5.8,8.21,0.17,22.41
25466,0.047,-0.3107,0.8682,-6.23,7.76,0.06,22.41
25476,0.0475,-0.313,0.8673,-6.66,7.54,-0.11,22.42
25486,0.0537,-0.3121,0.8556,-6.95,7.57,-0.12,22.42
25496,0.0594,-0.3119,0.856,-6.7,7.69,-0.03,22.43
25506,0.0599,-0.3179,0.8572,-5.97,8.0,0.11,22.42
25516,0.0547,-0.3156,0.8695,-5.59,8.29,0.21,22.41
25526,0.0549,-0.3135,0.8839,-5.48,8.18,0.17,22.43
25536,0.0547,-0.3127,0.8873,-5.8,7.82,0.06,22.42
25546,0.0538,-0.3125,0.877,-6.23,7.48,-0.15,22.43
25556,0.0586,-0.316,0.8701,-6.79,7.22,-0.32,22.43
25566,0.0603,-0.3141,0.8567,-6.75,7.27,-0.32,22.43
25576,0.062,-0.314,0.8475,-6.23,7.54,-0.15,22.43
25587,0.0636,-0.3116,0.849,-5.71,7.86,-0.05,22.42
25597,0.0588,-0.308,0.8497,-5.42,7.95,0.08,22.42
25607,0.0562,-0.2981,0.8527,-5.48,7.66,-0.05,22.44
25617,0.0527,-0.2957,0.8517,-5.86,7.13,-0.31,22.4
25627,0.0526,-0.2933,0.8318,-6.24,6.87,-0.37,22.43
25637,0.0579,-0.2876,0.8192,-6.55,6.95,-0.34,22.44
25647,0.0542,-0.2823,0.8138,-6.6,7.65,-0.27,22.43
25657,0.0524,-0.2864,0.8055,-6.4,8.18,-0.11,22.42
25667,0.05,-0.2843,0.8071,-5.95,8.37,0.23,22.42
25677,0.0477,-0.2848,0.8215,-5.74,8.38,0.17,22.44
25687,0.0457,-0.2847,0.8322,-5.59,8.11,0.14,22.44
25697,0.0416,-0.2827,0.8409,-6.0,7.95,0.12,22.44
25707,0.0388,-0.2833,0.8441,-6.46,7.94,0.0,22.41
25717,0.0408,-0.2849,0.8502,-6.66,7.85,-0.05,22.43
25728,0.042,-0.2916,0.8513,-6.6,7.95,-0.02,22.42
25738,0.0433,-0.2991,0.8663,-6.26,8.32,0.14,22.42
25748,0.0439,-0.3013,0.8751,-6.21,8.37,0.12,22.45
25758,0.0405,-0.3055,0.8821,-6.24,8.37,0.11,22.44
25768,0.0339,-0.3088,0.8788,-6.89,7.94,-0.02,22.44
25778,0.0398,-0.3099,0.8604,-7.28,7.39,-0.24,22.44
25788,0.0406,-0.309,0.8457,-7.33,7.16,-0.26,22.46
25798,0.0433,-0.3151,0.8375,-6.92,7.19,-0.21,22.44
25808,0.0482,-0.3135,0.8353,-6.38,7.74,-0.09,22.42
25818,0.0502,-0.312,0.8462,-5.77,8.18,0.05,22.43
25828,0.0536,-0.3064,0.8617,-5.39,8.27,0.15,22.44
25838,0.0538,-0.3065,0.877,-5.56,7.85,-0.02,22.42
25848,0.0524,-0.3048,0.876,-6.0,7.13,-0.24,22.42
25858,0.0547,-0.3005,0.8617,-6.64,6.52,-0.41,22.42
25868,0.0562,-0.2981,0.8428,-6.82,6.29,-0.55,22.44
25878,0.0608,-0.2998,0.8317,-6.66,6.73,-0.4,22.43
25888,0.0624,-0.3024,0.8297,-6.18,7.53,-0.09,22.42
25898,0.0612,-0.3022,0.8354,-5.62,8.53,0.24,22.42
25908,0.056,-0.2997,0.8452,-5.54,9.13,0.37,22.41
25918,0.051,-0.3082,0.8567,-5.95,9.01,0.11,22.41
25928,0.0497,-0.3101,0.8553,-6.52,8.2,-0.15,22.4
25938,0.0475,-0.3123,0.848,-6.87,7.15,-0.38,22.42
25948,0.0551,-0.313,0.8328,-6.85,6.56,-0.6,22.4
25958,0.0598,-0.3119,0.822,-6.49,6.55,-0.46,22.4
25968,0.059,-0.3077,0.8213,-5.86,7.33,-0.26,22.42
25978,0.0591,-0.304,0.8252,-5.39,8.14,0.09,22.4
25988,0.0543,-0.3021,0.8361,-5.39,8.82,0.27,22.39
25998,0.0505,-0.296,0.8505,-5.57,8.81,0.18,22.4
26008,0.0459,-0.2921,0.8557,-6.11,8.17,0.08,22.41
26018,0.0432,-0.2947,0.856,-6.43,7.4,-0.17,22.42
26028,0.0465,-0.2947,0.8445,-6.64,7.08,-0.26,22.43
26038,0.05,-0.2961,0.8444,-6.6,7.33,-0.06,22.4
26048,0.0529,-0.3038,0.8477,-6.37,7.92,0.06,22.41
26058,0.0521,-0.3055,0.851,-6.09,8.55,0.17,22.41
26068,0.0486,-0.3058,0.8593,-6.02,8.72,0.24,22.42
26078,0.046,-0.3075,0.8652,-6.23,8.37,0.21,22.43
26088,0.0457,-0.3073,0.8611,-6.37,7.82,-0.03,22.43
26098,0.048,-0.3112,0.8552,-6.6,7.31,-0.03,22.42
26108,0.0503,-0.311,0.8483,-6.6,7.27,-0.17,22.42
26118,0.0563,-0.3121,0.847,-6.37,7.54,-0.12,22.42
26128,0.0516,-0.3076,0.8456,-6.08,7.92,0.06,22.42
26138,0.054,-0.3051,0.8502,-5.73,7.97,0.03,22.41
26148,0.0535,-0.3053,0.8586,-5.68,7.88,0.06,22.44
26158,0.049,-0.299,0.8575,-5.95,7.4,-0.17,22.41
26168,0.0537,-0.2982,0.856,-6.17,7.05,-0.24,22.44
26178,0.0565,-0.295,0.8496,-6.27,7.05,-0.32,22.43
26188,0.0575,-0.2943,0.8461,-6.29,7.42,-0.18,22.42
26198,0.0582,-0.2913,0.837,-6.17,7.88,0.02,22.41
26208,0.0546,-0.2903,0.8361,-5.92,8.15,0.11,22.43
26218,0.0521,-0.2925,0.8466,-5.92,8.14,0.08,22.44
26228,0.0471,-0.2936,0.8412,-6.03,7.86,-0.03,22.43
26238,0.0485,-0.2915,0.8445,-6.14,7.44,-0.14,22.41
26248,0.0476,-0.2955,0.8369,-6.23,7.39,-0.17,22.42
26258,0.0522,-0.2941,0.8412,-6.41,7.57,-0.11,22.43
26268,0.0505,-0.2952,0.8381,-6.32,7.95,-0.14,22.42
26278,0.0481,-0.2983,0.8363,-6.18,8.18,0.03,22.42
26288,0.045,-0.278,0.8481,-5.57,8.0,0.15,22.42
26298,0.0487,-0.3127,0.8525,-6.7,8.34,-0.41,22.42
26309,0.0482,-0.2892,0.8501,-6.18,8.0,-0.12,22.42
26319,0.0491,-0.296,0.855,-5.15,7.01,0.31,22.44
26329,0.0454,-0.3112,0.8717,-5.86,7.79,0.18,22.43
26340,0.0494,-0.2949,0.8506,-7.68,7.82,-0.37,22.41
26350,0.0575,-0.2992,0.8529,-6.75,7.71,-0.08,22.4
26360,0.0483,-0.2976,0.8484,-5.88,7.69,0.08,22.43
26370,0.0487,-0.3104,0.8517,-6.67,7.97,-0.15,22.4
26380,0.0531,-0.3025,0.8505,-6.72,8.4,-0.03,22.43
26390,0.0536,-0.2971,0.8562,-5.77,8.08,0.21,22.46
26400,0.0477,-0.3145,0.8625,-5.88,7.79,0.11,22.42
26410,0.0469,-0.312,0.8646,-6.84,8.06,-0.23,22.41
26420,0.0516,-0.295,0.8563,-6.78,7.57,-0.32,22.42
26430,0.0557,-0.3035,0.855,-5.95,7.01,-0.05,22.43
26440,0.0518,-0.3121,0.8538,-6.43,7.53,-0.24,22.44
26450,0.0544,-0.3018,0.8434,-6.85,7.86,-0.24,22.45
26460,0.0553,-0.2996,0.8429,-5.95,7.8,0.03,22.44
26470,0.0507,-0.3053,0.8472,-5.69,7.92,0.03,22.42
26480,0.0493,-0.3047,0.8433,-6.49,7.95,-0.05,22.42
26490,0.054,-0.3024,0.8453,-6.5,7.89,-0.06,22.42
26500,0.0549,-0.2988,0.8413,-5.97,7.62,-0.06,22.4
26510,0.051,-0.3075,0.8389,-6.26,7.3,-0.18,22.42
26520,0.0555,-0.3047,0.837,-6.64,7.76,-0.23,22.43
26530,0.0529,-0.2986,0.8308,-6.24,7.71,-0.05,22.43
26540,0.054,-0.3052,0.8342,-5.79,7.73,0.06,22.42
26550,0.0508,-0.306,0.8374,-6.21,8.12,-0.03,22.42
26560,0.0516,-0.3016,0.8422,-6.32,8.24,-0.05,22.43
26570,0.0485,-0.3013,0.8533,-5.88,8.0,0.05,22.41
26580,0.0468,-0.3065,0.8531,-5.86,7.95,0.06,22.43
26590,0.0483,-0.304,0.856,-6.34,7.86,-0.08,22.4
26600,0.0481,-0.3037,0.8557,-6.35,7.88,-0.05,22.44
26610,0.0461,-0.3068,0.8546,-6.08,7.74,-0.08,22.43
26620,0.0483,-0.3121,0.8528,-6.24,7.62,-0.06,22.44
26630,0.0522,-0.3077,0.8508,-6.32,7.74,-0.02,22.42
26640,0.052,-0.3005,0.8491,-5.94,7.56,0.05,22.42
26650,0.0486,-0.306,0.8558,-5.74,7.54,-0.02,22.43
26660,0.0457,-0.3031,0.8535,-6.23,7.74,-0.11,22.42
26670,0.0541,-0.3071,0.8556,-6.38,7.51,-0.02,22.44
26680,0.0635,-0.2935,0.8613,-6.05,7.68,0.06,22.42
26690,0.0452,-0.2966,0.8536,-6.18,7.94,-0.11,22.41
26700,0.0477,-0.3086,0.8464,-6.69,7.37,-0.14,22.42
26710,0.05,-0.2933,0.8359,-6.6,7.54,-0.08,22.41
26720,0.0549,-0.2959,0.8403,-5.97,7.4,-0.14,22.44
26730,0.0444,-0.2999,0.838,-5.82,7.71,0.03,22.45
26740,0.0476,-0.2947,0.8402,-6.49,7.69,-0.08,22.43
26750,0.0525,-0.2931,0.8458,-6.15,7.88,0.14,22.46
26760,0.0513,-0.2919,0.8428,-6.09,7.74,0.03,22.42
26770,0.0496,-0.301,0.8473,-6.38,7.76,-0.11,22.44
26780,0.0533,-0.2974,0.8468,-6.38,8.03,0.06,22.42
26790,0.0514,-0.2968,0.8513,-6.41,8.09,0.05,22.42
26800,0.0461,-0.2986,0.8467,-6.15,7.98,-0.02,22.41
26810,0.0422,-0.2993,0.8527,-6.49,7.83,-0.17,22.43
26820,0.0433,-0.3026,0.8551,-6.38,7.33,-0.15,22.45
26830,0.0496,-0.2996,0.8538,-5.79,7.13,-0.06,22.4
26840,0.0599,-0.3041,0.8619,-5.68,7.05,-0.15,22.42
26850,0.0553,-0.3036,0.8684,-5.94,7.69,-0.06,22.42
26860,0.0549,-0.2932,0.859,-6.41,7.97,0.0,22.41
26870,0.0516,-0.3014,0.8564,-6.53,7.95,-0.02,22.44
26880,0.0477,-0.3031,0.8464,-6.67,7.82,-0.14,22.42
26890,0.0486,-0.3035,0.8408,-6.85,7.66,-0.21,22.42
26900,0.0544,-0.3004,0.8369,-6.41,7.42,-0.29,22.42
26910,0.0564,-0.3112,0.8429,-5.88,7.56,-0.11,22.41
26920,0.0565,-0.3102,0.8495,-5.76,7.83,0.02,22.4
26930,0.058,-0.3031,0.8597,-5.69,7.77,-0.03,22.46
26940,0.0535,-0.3029,0.8663,-5.71,7.48,-0.15,22.45
26950,0.0551,-0.2991,0.8616,-6.26,7.11,-0.21,22.42
26960,0.0547,-0.2969,0.849,-6.78,7.02,-0.4,22.43
26970,0.0563,-0.2939,0.8362,-6.84,7.16,-0.31,22.44
26980,0.0605,-0.301,0.8322,-6.4,7.47,-0.18,22.44
26990,0.0568,-0.3055,0.8387,-6.15,8.21,-0.09,22.42
27000,0.0594,-0.304,0.8427,-5.94,8.5,0.08,22.43
27010,0.0587,-0.3121,0.8407,-6.2,8.99,0.29,22.43
27020,0.0519,-0.3088,0.8505,-5.39,9.19,0.4,22.43
27030,0.0376,-0.2789,0.8319,-6.08,6.73,-0.17,22.44
27040,0.0535,-0.2992,0.854,-6.67,5.39,-0.82,22.43
27050,0.0531,-0.2878,0.8284,-6.17,6.32,-0.38,22.43
27060,0.0642,-0.2921,0.8369,-6.24,7.08,0.14,22.46
27070,0.056,-0.3116,0.8397,-7.08,9.65,0.09,22.41
27080,0.0493,-0.3074,0.8411,-7.5,11.3,0.11,22.42
27090,0.0328,-0.3102,0.837,-6.38,9.27,0.43,22.44
27100,0.036,-0.3284,0.8585,-5.53,7.22,0.18,22.46
27110,0.0405,-0.302,0.8518,-5.74,6.55,-0.34,22.44
27120,0.0494,-0.3011,0.8469,-6.05,5.59,-0.31,22.46
27130,0.0587,-0.3002,0.8474,-5.62,6.38,0.03,22.45
27140,0.0583,-0.2861,0.8463,-6.06,8.35,0.2,22.46
27150,0.0533,-0.298,0.8512,-6.75,9.42,0.15,22.44
27160,0.0455,-0.2994,0.8511,-6.29,9.54,0.34,22.44
27170,0.0374,-0.2979,0.8568,-6.05,8.12,0.17,22.44
27180,0.0409,-0.3036,0.8551,-6.41,6.96,-0.24,22.42
27190,0.0492,-0.3197,0.8423,-7.01,6.72,-0.44,22.43
27200,0.0574,-0.3005,0.8341,-6.46,6.85,-0.11,22.46
27210,0.0652,-0.2997,0.8391,-5.28,6.76,0.14,22.43
27220,0.0662,-0.3025,0.8657,-4.89,8.56,0.21,22.42
27230,0.0476,-0.287,0.8616,-6.26,9.69,-0.05,22.45
27240,0.0498,-0.3062,0.8589,-6.64,8.37,0.03,22.44
27250,0.0465,-0.3058,0.8624,-6.06,7.5,0.06,22.44
27260,0.0518,-0.2942,0.8557,-6.56,6.58,-0.35,22.45
27270,0.0604,-0.3101,0.8461,-6.78,6.7,-0.41,22.45
27280,0.0607,-0.3019,0.8447,-6.18,7.51,-0.17,22.44
27293,0.0594,-0.3048,0.8434,-5.86,7.97,0.17,22.44
27303,0.0581,-0.3055,0.8525,-5.88,8.79,0.18,22.46
27313,0.0469,-0.2863,0.8523,-6.06,8.53,0.02,22.49
27323,0.048,-0.2958,0.8566,-5.85,7.27,-0.02,22.46
27333,0.0496,-0.2986,0.8523,-6.32,6.92,-0.26,22.4
27343,0.0519,-0.2897,0.8477,-6.87,7.15,-0.34,22.43
27353,0.0564,-0.2931,0.8378,-6.55,7.48,-0.23,22.44
27363,0.053,-0.301,0.8405,-6.21,8.31,0.0,22.44
27373,0.0476,-0.297,0.8406,-6.26,8.67,0.06,22.48
27384,0.0458,-0.3062,0.8522,-6.32,8.58,0.09,22.46
27394,0.0433,-0.3019,0.8533,-6.06,8.18,-0.05,22.43
27404,0.0443,-0.3053,0.8525,-6.34,7.15,-0.14,22.44
27414,0.0492,-0.3051,0.8516,-6.49,7.02,-0.29,22.46
27424,0.0524,-0.2965,0.8412,-6.37,7.19,-0.18,22.45
