t_ms,accel_x_g,accel_y_g,accel_z_g,gyro_x_dps,gyro_y_dps,gyro_z_dps,imu_temp_c
3280,0.2173,-0.0432,0.8861,-6.78,7.91,-0.09,31.09
3291,0.2159,-0.0397,0.8878,-6.76,7.83,0.0,31.08
3301,0.2217,-0.0326,0.8932,-6.79,7.95,0.0,31.08
3311,0.2196,-0.0348,0.886,-6.76,7.89,-0.03,31.08
3321,0.2175,-0.0345,0.8881,-6.78,7.95,0.08,31.09
3331,0.2173,-0.0326,0.8885,-6.81,7.86,0.0,31.1
3341,0.2179,-0.0347,0.8906,-6.9,7.94,-0.05,31.09
3351,0.2205,-0.0369,0.8848,-6.79,8.02,-0.05,31.1
3361,0.2172,-0.0343,0.8854,-6.81,7.94,-0.11,31.09
3371,0.2196,-0.0336,0.8896,-6.78,7.98,-0.02,31.1
3381,0.218,-0.0293,0.8883,-6.76,8.05,-0.03,31.1
3391,0.2178,-0.0319,0.8856,-6.75,7.98,-0.05,31.09
3401,0.2196,-0.0287,0.8921,-6.84,7.94,-0.02,31.08
3411,0.2192,-0.0327,0.886,-6.81,8.05,-0.06,31.11
3421,0.2173,-0.0345,0.8895,-6.78,7.98,-0.03,31.11
3431,0.2172,-0.0374,0.8904,-6.79,8.03,-0.11,31.09
3441,0.2195,-0.0403,0.8959,-6.87,7.98,-0.08,31.1
3451,0.2174,-0.04,0.8873,-6.82,8.02,-0.12,31.1
3461,0.2163,-0.0413,0.8896,-6.7,7.94,-0.08,31.1
3471,0.2158,-0.0393,0.8875,-6.72,7.94,-0.11,31.13
3481,0.2235,-0.0365,0.8872,-6.72,7.94,-0.06,31.09
3491,0.219,-0.0326,0.8831,-6.79,7.97,-0.11,31.09
3501,0.2136,-0.0291,0.8828,-6.84,8.0,-0.06,31.12
3511,0.2145,-0.0269,0.8842,-6.78,7.86,-0.06,31.09
3521,0.2147,-0.0267,0.8911,-6.67,7.97,0.06,31.11
3531,0.2156,-0.0267,0.8878,-6.76,7.92,0.0,31.11
3541,0.2159,-0.028,0.8901,-6.76,7.79,-0.02,31.11
3551,0.2205,-0.0283,0.9019,-6.89,7.86,-0.05,31.09
3561,0.2184,-0.0363,0.8971,-6.98,7.8,0.35,31.1
3571,0.2124,-0.04,0.8929,-6.82,8.11,0.06,31.13
3581,0.2144,-0.0452,0.8845,-6.87,8.05,-0.03,31.11
3591,0.213,-0.0433,0.882,-6.85,8.03,-0.09,31.1
3601,0.2188,-0.0354,0.8787,-6.76,8.03,-0.06,31.11
3611,0.213,-0.0356,0.8834,-6.87,7.95,-0.08,31.11
3621,0.2146,-0.0331,0.8868,-6.87,7.77,-0.08,31.11
3631,0.2195,-0.0261,0.891,-6.79,7.94,-0.09,31.14
3641,0.2207,-0.0315,0.89,-6.85,8.12,0.0,31.12
3651,0.2212,-0.0345,0.8895,-6.79,8.03,-0.08,31.1
3661,0.2236,-0.0316,0.8892,-6.85,7.98,-0.05,31.11
3671,0.2194,-0.0365,0.8937,-6.84,8.12,-0.06,31.13
3681,0.2197,-0.0403,0.8855,-6.96,8.02,-0.08,31.11
3691,0.2123,-0.0414,0.8868,-6.87,7.94,-0.06,31.11
3701,0.2164,-0.0385,0.8899,-6.76,7.94,-0.03,31.14
3711,0.2137,-0.0363,0.8859,-6.78,8.06,-0.05,31.11
3721,0.2128,-0.0381,0.8846,-6.66,8.0,-0.15,31.11
3731,0.218,-0.0354,0.8899,-6.84,7.98,-0.05,31.14
3741,0.2185,-0.0334,0.8907,-6.81,8.09,0.02,31.12
3751,0.2205,-0.0354,0.8917,-6.9,8.12,0.0,31.13
3761,0.2195,-0.033,0.8879,-6.81,7.97,-0.08,31.11
3771,0.2209,-0.0336,0.89,-6.81,8.0,-0.02,31.13
3781,0.2174,-0.0289,0.8938,-6.84,8.06,-0.03,31.15
3791,0.218,-0.0303,0.8871,-6.84,8.0,0.0,31.12
3801,0.2161,-0.0321,0.8878,-6.75,7.98,-0.08,31.11
3811,0.2159,-0.0367,0.8878,-6.79,7.98,-0.02,31.12
3821,0.2136,-0.0396,0.8895,-6.84,8.02,0.08,31.1
3831,0.217,-0.0389,0.8857,-6.75,7.98,-0.03,31.12
3841,0.2185,-0.0378,0.8855,-6.85,7.92,-0.08,31.12
3851,0.2203,-0.0345,0.8895,-6.84,8.02,0.0,31.14
3861,0.2201,-0.0344,0.8918,-6.78,7.97,-0.02,31.11
3871,0.22,-0.0345,0.8875,-6.81,7.97,-0.09,31.13
3881,0.2169,-0.0345,0.892,-6.84,8.02,0.02,31.14
3891,0.2186,-0.0349,0.8856,-6.9,8.02,0.05,31.14
3901,0.2166,-0.0321,0.8829,-6.84,7.94,-0.02,31.12
3911,0.2157,-0.0314,0.8846,-6.76,7.95,-0.02,31.15
3921,0.214,-0.0337,0.8888,-6.85,7.98,-0.03,31.14
3931,0.2153,-0.0369,0.8915,-6.82,7.94,-0.06,31.12
3941,0.2135,-0.0398,0.8912,-6.76,7.86,-0.09,31.12
3951,0.2164,-0.0348,0.8923,-6.87,7.86,-0.02,31.12
3961,0.2188,-0.0332,0.8915,-6.95,7.94,-0.09,31.13
3971,0.2155,-0.0327,0.8901,-6.84,7.92,-0.03,31.12
3981,0.2162,-0.0314,0.8856,-6.81,7.86,0.0,31.14
3991,0.2208,-0.0358,0.8888,-6.76,7.89,-0.08,31.12
4001,0.2186,-0.0369,0.8867,-6.87,7.91,-0.02,31.12
4011,0.2196,-0.0352,0.8922,-6.81,7.98,-0.03,31.14
4021,0.2207,-0.0347,0.8873,-6.75,7.94,-0.06,31.13
4031,0.2207,-0.0369,0.8898,-6.85,8.03,0.05,31.13
4041,0.2208,-0.0365,0.8907,-6.82,7.98,-0.05,31.14
4051,0.2205,-0.0365,0.8955,-6.78,7.97,-0.03,31.11
4061,0.2172,-0.0377,0.8889,-6.81,8.09,-0.06,31.12
4071,0.2161,-0.0375,0.8921,-6.72,8.09,0.03,31.15
4081,0.214,-0.0356,0.8922,-6.82,7.98,0.02,31.15
4091,0.2109,-0.0343,0.8853,-6.87,8.05,-0.03,31.13
4101,0.2119,-0.0294,0.8845,-6.81,8.02,-0.02,31.15
4111,0.2163,-0.0297,0.8829,-6.87,7.92,0.08,31.12
4121,0.2168,-0.0328,0.8812,-6.9,7.95,-0.02,31.12
4131,0.2177,-0.0332,0.8826,-6.85,7.98,0.02,31.14
4141,0.2172,-0.0348,0.8879,-6.79,8.0,0.0,31.15
4151,0.2209,-0.0413,0.8875,-6.9,7.95,-0.05,31.12
4161,0.2225,-0.0387,0.8937,-6.78,7.91,-0.06,31.14
4171,0.2189,-0.037,0.8925,-6.92,7.94,-0.03,31.11
4181,0.2183,-0.0392,0.8878,-6.78,8.12,0.02,31.12
4191,0.2198,-0.0354,0.8906,-6.78,8.02,-0.03,31.12
4201,0.2186,-0.0321,0.8907,-6.82,7.97,0.0,31.14
4211,0.2128,-0.0293,0.8865,-6.82,7.98,-0.03,31.14
4221,0.2156,-0.0294,0.8877,-6.73,8.0,0.03,31.14
4231,0.217,-0.0306,0.8851,-6.89,7.95,0.0,31.14
4241,0.2169,-0.032,0.8862,-6.84,7.95,0.0,31.15
4251,0.2164,-0.0334,0.8838,-6.81,8.02,-0.02,31.14
4261,0.2168,-0.037,0.8888,-6.73,8.0,-0.02,31.16
4271,0.2197,-0.0382,0.8911,-6.78,8.05,0.0,31.14
4282,0.2191,-0.04,0.8878,-6.82,7.91,-0.11,31.14
4292,0.2203,-0.038,0.8872,-6.85,7.95,-0.08,31.14
4302,0.2194,-0.0365,0.8884,-6.76,8.02,-0.03,31.16
4312,0.2178,-0.0337,0.8907,-6.79,7.98,-0.09,31.17
4322,0.2191,-0.0322,0.8862,-6.93,8.0,0.0,31.14
4332,0.2179,-0.0308,0.8923,-6.81,8.0,-0.03,31.15
4342,0.2162,-0.0308,0.8898,-6.85,8.03,-0.03,31.17
4352,0.2155,-0.0338,0.8898,-6.79,8.02,-0.05,31.14
4362,0.2192,-0.0366,0.8865,-6.78,7.92,0.0,31.15
4372,0.2173,-0.0369,0.887,-6.82,7.88,-0.05,31.17
4382,0.2174,-0.0374,0.8835,-6.87,8.0,-0.06,31.14
4392,0.2174,-0.0345,0.8862,-6.93,7.91,-0.11,31.12
4403,0.2153,-0.0322,0.8842,-6.84,8.02,-0.03,31.13
4413,0.2194,-0.0312,0.8842,-6.81,7.98,0.0,31.13
4423,0.2178,-0.0371,0.8895,-6.79,8.0,-0.02,31.14
4433,0.2189,-0.0383,0.8914,-6.81,8.0,-0.08,31.17
4443,0.2189,-0.04,0.897,-6.78,8.06,-0.06,31.16
4453,0.2188,-0.0419,0.8923,-6.81,7.95,-0.09,31.14
4463,0.2145,-0.0396,0.8916,-6.9,8.0,-0.06,31.16
4473,0.2218,-0.0338,0.8914,-6.82,8.05,0.0,31.15
4483,0.2183,-0.0298,0.8881,-6.79,8.09,-0.12,31.14
4493,0.2178,-0.0325,0.889,-6.82,7.97,-0.02,31.16
4503,0.2228,-0.0288,0.891,-6.78,7.95,-0.03,31.15
4513,0.2183,-0.0293,0.8879,-6.92,8.03,-0.03,31.16
4523,0.2163,-0.033,0.8844,-6.89,8.05,-0.02,31.15
4533,0.2151,-0.0328,0.8851,-6.9,7.95,0.05,31.15
4543,0.2153,-0.0388,0.8849,-6.81,7.88,0.08,31.19
4553,0.2115,-0.0356,0.8859,-6.89,7.92,-0.08,31.17
4563,0.2145,-0.0315,0.885,-6.72,7.95,-0.06,31.14
4573,0.2128,-0.0355,0.8879,-6.78,7.85,0.05,31.14
4583,0.2162,-0.0391,0.8893,-6.92,7.92,-0.06,31.16
4593,0.2192,-0.0417,0.8921,-6.76,7.89,0.02,31.17
4603,0.2222,-0.0406,0.8928,-6.78,7.92,0.02,31.14
4613,0.2222,-0.0375,0.8925,-6.81,7.89,-0.03,31.14
4623,0.2205,-0.0345,0.885,-6.79,7.89,-0.06,31.17
4633,0.2188,-0.0299,0.8851,-6.84,7.92,0.0,31.16
4643,0.2172,-0.0304,0.8871,-6.75,8.02,-0.02,31.14
4653,0.217,-0.0304,0.8894,-6.93,7.92,-0.02,31.15
4663,0.2172,-0.0317,0.8905,-6.85,7.97,-0.06,31.17
4673,0.2183,-0.0376,0.8928,-6.96,8.0,-0.05,31.17
4683,0.22,-0.0382,0.8928,-6.95,8.06,-0.09,31.15
4693,0.2158,-0.0392,0.8862,-6.66,7.95,-0.06,31.13
4703,0.2222,-0.0371,0.8849,-6.76,7.97,-0.08,31.15
4713,0.2196,-0.037,0.89,-6.81,7.98,-0.05,31.16
4723,0.223,-0.0342,0.8856,-6.84,7.95,0.02,31.18
4733,0.2159,-0.0347,0.8873,-6.67,8.08,-0.06,31.18
4743,0.2195,-0.0338,0.8876,-6.84,7.95,-0.11,31.17
4753,0.2189,-0.0337,0.8893,-6.87,8.08,-0.05,31.17
4763,0.2167,-0.0347,0.8846,-6.85,8.0,-0.03,31.17
4773,0.2142,-0.0345,0.8895,-6.79,7.98,0.06,31.16
4783,0.2131,-0.0369,0.8882,-6.85,8.09,-0.05,31.15
4793,0.2112,-0.0321,0.8826,-6.89,7.97,-0.06,31.18
4803,0.2135,-0.0302,0.8887,-6.7,7.92,0.03,31.16
4813,0.2163,-0.0308,0.8855,-6.84,8.0,0.0,31.14
4823,0.2185,-0.032,0.8876,-6.85,8.03,0.02,31.16
4833,0.2188,-0.035,0.8876,-6.85,7.97,-0.05,31.17
4843,0.217,-0.0363,0.8899,-6.93,7.95,-0.06,31.16
4853,0.2197,-0.0413,0.8912,-6.75,7.98,-0.06,31.15
4863,0.218,-0.045,0.8837,-6.76,8.05,-0.03,31.15
4873,0.2166,-0.0437,0.8885,-6.82,7.98,-0.05,31.19
4883,0.2155,-0.0409,0.8904,-6.81,8.06,-0.02,31.19
4893,0.2175,-0.0344,0.8909,-6.99,7.98,0.0,31.15
4903,0.2142,-0.0293,0.8926,-6.85,8.0,-0.05,31.17
4913,0.2167,-0.0287,0.8867,-6.89,8.03,-0.06,31.17
4924,0.2213,-0.0276,0.8877,-6.87,7.98,-0.14,31.18
4934,0.2197,-0.0316,0.8872,-6.85,8.09,-0.14,31.16
4944,0.2216,-0.0364,0.8866,-6.84,8.09,-0.09,31.19
4954,0.2185,-0.0425,0.8911,-6.89,8.03,-0.05,31.19
4964,0.2141,-0.041,0.8925,-6.81,8.06,-0.05,31.17
4974,0.2153,-0.0406,0.8884,-6.79,8.05,-0.08,31.18
4984,0.2172,-0.0365,0.8873,-6.93,7.95,0.0,31.18
4994,0.2168,-0.0316,0.8887,-6.79,8.05,0.02,31.17
5004,0.2147,-0.0332,0.8892,-6.87,8.06,-0.08,31.16
5014,0.2174,-0.0275,0.89,-6.9,7.91,-0.03,31.17
5024,0.2163,-0.0306,0.8844,-6.79,7.97,-0.08,31.19
5034,0.2156,-0.0385,0.8844,-6.92,8.05,-0.09,31.19
5044,0.2137,-0.0363,0.8835,-6.78,8.05,-0.05,31.15
5054,0.2155,-0.0358,0.8892,-6.84,7.98,-0.06,31.16
5064,0.2145,-0.037,0.8899,-6.72,7.95,-0.12,31.19
5074,0.2172,-0.0317,0.8885,-6.89,7.95,-0.03,31.18
5084,0.2192,-0.0367,0.8899,-6.84,7.97,-0.02,31.18
5094,0.2185,-0.0361,0.8901,-6.82,8.06,0.0,31.19
5105,0.217,-0.0323,0.8879,-6.78,8.0,-0.09,31.17
5115,0.2183,-0.0364,0.8876,-6.76,8.02,-0.11,31.18
5125,0.2169,-0.0369,0.8881,-6.9,7.95,0.0,31.21
5135,0.2144,-0.0345,0.8826,-6.95,7.95,0.02,31.19
5145,0.2175,-0.0339,0.8879,-6.82,7.98,-0.06,31.18
5155,0.2179,-0.0342,0.8876,-6.9,7.97,-0.03,31.19
5165,0.22,-0.0317,0.8906,-6.79,8.0,-0.05,31.18
5175,0.2213,-0.0334,0.8894,-6.85,7.94,-0.14,31.17
5185,0.2197,-0.0299,0.8877,-6.92,8.05,-0.12,31.18
5195,0.2203,-0.0358,0.8843,-6.92,8.14,-0.12,31.16
5205,0.2133,-0.0414,0.8862,-6.82,8.2,-0.08,31.18
5215,0.2159,-0.0405,0.8867,-6.75,8.11,-0.02,31.17
5225,0.2104,-0.0388,0.8849,-6.84,8.06,-0.02,31.2
5235,0.2141,-0.0371,0.887,-6.81,8.0,0.08,31.17
5245,0.2133,-0.0322,0.8964,-6.85,7.95,-0.05,31.17
5255,0.2168,-0.0265,0.8933,-6.9,7.91,-0.06,31.19
5265,0.2183,-0.027,0.8915,-6.95,7.91,-0.02,31.17
5275,0.2189,-0.0265,0.8904,-6.87,7.91,0.0,31.19
5285,0.2206,-0.0315,0.8851,-6.87,7.98,-0.06,31.19
5295,0.213,-0.0353,0.8831,-6.84,8.12,-0.06,31.17
5305,0.2113,-0.0392,0.8839,-6.84,8.03,-0.05,31.19
5315,0.2162,-0.0402,0.8883,-6.87,7.97,-0.06,31.17
5325,0.218,-0.0376,0.8898,-6.85,8.03,0.03,31.19
5335,0.223,-0.0405,0.889,-6.98,7.94,-0.09,31.19
5345,0.2217,-0.0365,0.891,-6.79,8.0,0.02,31.19
5355,0.2192,-0.0366,0.8867,-6.76,8.06,-0.11,31.2
5365,0.2139,-0.0358,0.8828,-6.82,7.98,-0.03,31.16
5375,0.2084,-0.0355,0.8821,-6.73,7.97,-0.06,31.17
5385,0.2112,-0.0333,0.8835,-6.73,7.89,0.02,31.18
5395,0.2139,-0.0326,0.889,-6.72,7.83,0.0,31.17
5405,0.217,-0.033,0.8948,-6.75,7.8,-0.03,31.19
5415,0.2184,-0.0306,0.8953,-6.82,7.77,0.06,31.18
5425,0.2233,-0.0308,0.8984,-6.9,7.8,0.06,31.18
5435,0.2206,-0.0339,0.8943,-6.95,7.94,-0.02,31.2
5445,0.2234,-0.0405,0.8856,-6.76,7.95,0.03,31.17
5455,0.2216,-0.0383,0.8752,-6.78,8.02,0.09,31.17
5465,0.2186,-0.0438,0.8785,-6.7,8.05,0.02,31.2
5475,0.2144,-0.0374,0.8794,-6.67,8.06,-0.02,31.18
5485,0.2161,-0.0375,0.884,-6.76,8.02,-0.12,31.19
5495,0.2157,-0.0364,0.8893,-6.76,7.92,0.02,31.18
5505,0.2175,-0.0323,0.8922,-6.87,7.89,0.08,31.19
5515,0.2183,-0.0309,0.8962,-6.87,7.86,-0.11,31.19
5525,0.2201,-0.0237,0.8929,-6.79,7.94,0.05,31.18
5535,0.2216,-0.0243,0.8861,-6.76,7.94,-0.08,31.16
5545,0.2203,-0.0255,0.8835,-6.85,8.05,0.02,31.2
5555,0.2203,-0.0328,0.8842,-6.98,7.98,-0.03,31.19
5565,0.2183,-0.0359,0.8813,-6.92,7.94,-0.05,31.21
5575,0.2175,-0.0458,0.8849,-6.87,8.02,-0.03,31.19
5585,0.2185,-0.0479,0.8854,-6.82,7.95,-0.11,31.19
5595,0.2158,-0.0428,0.8904,-6.82,7.98,-0.05,31.19
5605,0.2156,-0.0378,0.8933,-6.79,8.02,0.0,31.19
5615,0.2129,-0.0359,0.8889,-6.79,8.02,-0.02,31.19
5625,0.217,-0.0309,0.8878,-6.82,7.95,-0.03,31.21
5635,0.2142,-0.0283,0.8895,-6.93,8.0,-0.09,31.19
5645,0.2177,-0.0315,0.8864,-6.78,8.02,-0.02,31.19
5655,0.2184,-0.0344,0.8851,-6.78,7.95,-0.05,31.18
5665,0.2207,-0.0304,0.8868,-6.81,7.91,0.02,31.17
5675,0.2205,-0.0322,0.8881,-6.81,8.02,0.0,31.18
5685,0.2216,-0.0291,0.8934,-6.92,7.94,-0.06,31.16
5695,0.2185,-0.0339,0.8905,-6.75,7.95,-0.02,31.17
5705,0.2205,-0.0392,0.8895,-6.82,8.05,0.05,31.19
5715,0.2158,-0.0433,0.8879,-6.82,8.06,-0.09,31.2
5725,0.2162,-0.0397,0.8878,-6.72,8.02,-0.09,31.21
5735,0.2136,-0.0382,0.8835,-6.78,8.05,-0.08,31.18
5745,0.2123,-0.0363,0.8879,-6.73,7.97,-0.05,31.19
5755,0.213,-0.0361,0.8862,-6.81,8.0,0.03,31.18
5765,0.2142,-0.0314,0.8875,-6.84,7.98,-0.05,31.19
5775,0.2161,-0.0297,0.887,-6.82,7.97,-0.08,31.2
5785,0.2161,-0.0337,0.8844,-6.82,8.0,-0.11,31.2
5795,0.2173,-0.0333,0.8894,-6.75,7.91,-0.05,31.18
5805,0.2202,-0.04,0.8868,-6.75,7.97,0.0,31.2
5815,0.2207,-0.0372,0.8898,-6.84,7.92,-0.05,31.23
5825,0.218,-0.0339,0.8885,-6.76,8.0,0.0,31.21
5835,0.218,-0.0353,0.8893,-6.76,7.95,-0.03,31.2
5845,0.2189,-0.0336,0.8912,-6.81,7.94,-0.03,31.18
5855,0.2192,-0.0347,0.8862,-6.87,8.0,-0.11,31.19
5865,0.2161,-0.0371,0.8903,-6.75,7.89,-0.11,31.17
5875,0.2167,-0.0372,0.8835,-6.85,7.88,-0.09,31.19
5885,0.2164,-0.0363,0.8887,-6.72,8.14,-0.09,31.19
5895,0.2109,-0.0358,0.8882,-6.78,8.11,-0.08,31.22
5905,0.2151,-0.0372,0.882,-6.73,7.83,-0.05,31.18
5915,0.22,-0.0287,0.8871,-6.85,7.83,0.02,31.18
5925,0.2202,-0.0302,0.8851,-6.78,7.97,0.03,31.21
5937,0.2212,-0.027,0.8917,-6.85,7.94,0.06,31.19
5947,0.2202,-0.0312,0.8909,-6.82,8.02,-0.02,31.2
5957,0.2217,-0.0343,0.8914,-6.81,8.05,-0.09,31.2
5967,0.2212,-0.0411,0.8871,-6.87,8.0,-0.02,31.21
5977,0.2155,-0.0416,0.8907,-6.82,7.95,-0.02,31.19
5987,0.2147,-0.0374,0.8834,-6.81,8.06,0.03,31.19
5997,0.2131,-0.0315,0.8839,-6.73,7.92,0.02,31.19
6007,0.2144,-0.0295,0.8871,-6.81,7.89,0.03,31.19
6017,0.213,-0.0322,0.8861,-6.75,7.94,-0.02,31.21
6027,0.213,-0.0316,0.89,-6.81,7.92,-0.05,31.2
6037,0.2151,-0.0326,0.8905,-6.85,7.94,-0.03,31.2
6047,0.2186,-0.0366,0.8876,-6.79,7.92,-0.05,31.21
6057,0.2178,-0.0358,0.887,-6.81,7.91,-0.06,31.2
6067,0.218,-0.0366,0.8873,-6.84,7.92,-0.05,31.18
6077,0.2179,-0.0369,0.8877,-6.84,7.94,-0.02,31.22
6087,0.2184,-0.0343,0.8846,-6.76,7.91,-0.02,31.2
6097,0.2169,-0.0343,0.8898,-6.76,8.03,-0.03,31.21
6107,0.2144,-0.0342,0.8903,-6.82,8.0,-0.02,31.22
6117,0.2118,-0.0327,0.8899,-6.85,7.91,-0.02,31.19
6127,0.2145,-0.0306,0.8871,-6.92,7.92,-0.02,31.2
6137,0.2159,-0.0331,0.889,-6.76,8.0,-0.03,31.24
6147,0.2136,-0.0355,0.8933,-6.79,7.94,0.0,31.21
6157,0.2209,-0.0303,0.8926,-6.84,8.03,-0.05,31.22
6167,0.2211,-0.031,0.8829,-6.85,7.91,-0.02,31.22
6177,0.2177,-0.0365,0.8828,-6.9,7.95,-0.06,31.23
6187,0.2222,-0.0371,0.8933,-6.84,7.95,-0.09,31.22
6197,0.2188,-0.035,0.8949,-6.84,8.05,-0.03,31.22
6207,0.2136,-0.0382,0.884,-6.78,8.0,-0.08,31.24
6217,0.2191,-0.0341,0.8864,-6.73,7.98,-0.03,31.22
6227,0.2157,-0.0337,0.8884,-6.76,8.02,-0.05,31.22
6237,0.2134,-0.0348,0.8871,-6.89,8.03,0.02,31.21
6247,0.2123,-0.0376,0.8885,-6.84,7.97,-0.06,31.22
6257,0.2167,-0.0327,0.8933,-6.84,7.92,-0.03,31.23
6267,0.22,-0.0297,0.8918,-6.82,8.02,0.02,31.21
6277,0.2196,-0.0309,0.8868,-6.81,7.95,-0.05,31.22
6287,0.2196,-0.0311,0.8906,-6.82,7.95,-0.02,31.22
6297,0.2203,-0.0336,0.8901,-6.9,7.97,-0.08,31.22
6307,0.2175,-0.0344,0.8898,-6.76,8.0,-0.02,31.22
6317,0.2153,-0.0396,0.8888,-6.79,7.98,-0.06,31.22
6327,0.2155,-0.0376,0.8887,-6.79,7.92,-0.12,31.21
6337,0.2179,-0.0361,0.8867,-6.87,8.03,-0.08,31.23
6347,0.2095,-0.0328,0.8861,-6.78,8.0,-0.09,31.21
6357,0.2157,-0.0332,0.8925,-6.92,7.89,-0.15,31.23
6367,0.2207,-0.0344,0.8859,-6.82,7.89,-0.02,31.22
6377,0.2202,-0.041,0.8882,-6.85,7.95,0.0,31.23
6387,0.2212,-0.0364,0.8875,-6.75,7.89,-0.15,31.22
6399,0.2203,-0.0364,0.8846,-6.79,7.95,-0.05,31.2
6409,0.2188,-0.0381,0.8864,-6.72,8.02,0.0,31.24
6419,0.2164,-0.0375,0.8857,-6.93,8.03,-0.08,31.22
6429,0.2167,-0.0325,0.8834,-6.81,7.97,-0.03,31.22
6445,0.2147,-0.0314,0.8879,-6.76,8.0,-0.56,31.21
6455,0.219,-0.033,0.8864,-6.75,8.02,-0.15,31.21
6465,0.2203,-0.0293,0.8879,-6.89,7.95,-0.09,31.22
6475,0.2168,-0.0363,0.8905,-6.9,7.88,-0.05,31.22
6485,0.2214,-0.0352,0.8882,-6.87,7.97,-0.02,31.22
6495,0.2161,-0.0367,0.8881,-6.84,8.03,-0.02,31.2
6505,0.2173,-0.0354,0.8884,-6.82,8.0,0.02,31.21
6515,0.2174,-0.037,0.8926,-6.95,7.91,0.02,31.22
6525,0.2153,-0.0375,0.8875,-6.89,8.02,-0.06,31.21
6535,0.215,-0.0371,0.8848,-6.82,7.91,0.0,31.22
6545,0.2168,-0.0375,0.8871,-6.78,7.94,0.0,31.22
6555,0.2163,-0.0312,0.8895,-6.75,7.91,-0.03,31.2
6565,0.2177,-0.0331,0.8918,-6.76,7.94,-0.02,31.2
6575,0.219,-0.0319,0.8884,-6.89,7.97,-0.05,31.21
6585,0.2192,-0.0338,0.8894,-6.89,8.03,-0.03,31.24
6595,0.2201,-0.0333,0.892,-6.89,7.98,-0.08,31.22
6605,0.2174,-0.0378,0.8877,-6.78,7.95,0.0,31.23
6615,0.2189,-0.0366,0.8873,-6.79,8.02,0.05,31.21
6625,0.215,-0.0347,0.8849,-6.9,7.95,-0.03,31.22
6635,0.2148,-0.0361,0.885,-6.82,7.97,-0.06,31.25
6645,0.2179,-0.0352,0.8859,-6.92,7.88,-0.02,31.23
6655,0.2163,-0.0326,0.8861,-6.81,7.95,-0.09,31.22
6665,0.2186,-0.0322,0.8956,-6.75,7.94,-0.12,31.23
6675,0.218,-0.0372,0.8961,-6.79,8.03,-0.05,31.22
6685,0.219,-0.0415,0.8875,-6.78,8.05,-0.08,31.21
6695,0.2178,-0.0369,0.8876,-6.85,7.97,0.03,31.2
6705,0.2174,-0.0378,0.886,-6.82,7.95,0.02,31.21
6715,0.2186,-0.0354,0.8835,-6.85,7.98,-0.05,31.24
6725,0.2167,-0.0359,0.8835,-6.82,8.06,0.03,31.22
6735,0.2181,-0.0306,0.8854,-6.79,7.98,-0.08,31.22
6745,0.215,-0.0304,0.8873,-6.84,7.98,-0.05,31.23
6755,0.2174,-0.0306,0.8844,-6.81,8.03,0.05,31.2
6765,0.2172,-0.0321,0.8895,-6.76,7.97,-0.12,31.23
6775,0.217,-0.0352,0.8877,-6.79,7.95,0.03,31.22
6785,0.2168,-0.0391,0.8909,-6.78,7.95,0.03,31.22
6795,0.2184,-0.0306,0.8849,-6.79,7.97,-0.05,31.24
6805,0.2188,-0.033,0.8909,-6.78,7.92,-0.05,31.23
6815,0.2166,-0.0341,0.8854,-6.81,7.92,-0.02,31.22
6825,0.2181,-0.0382,0.8877,-6.87,7.97,-0.06,31.22
6835,0.2172,-0.0356,0.8876,-6.89,7.92,-0.05,31.24
6845,0.2191,-0.0354,0.8881,-6.92,8.03,0.03,31.22
6855,0.2197,-0.0338,0.8882,-6.82,7.92,-0.08,31.22
6865,0.22,-0.0294,0.8894,-6.95,7.92,0.0,31.23
6875,0.2163,-0.0341,0.8859,-6.82,8.02,-0.05,31.24
6885,0.2163,-0.0332,0.8835,-6.76,7.95,-0.03,31.22
6895,0.2168,-0.0309,0.8859,-6.76,8.03,0.02,31.22
6905,0.2159,-0.0311,0.8889,-6.73,8.03,-0.09,31.21
6915,0.2169,-0.0354,0.8904,-6.84,8.02,-0.11,31.21
6925,0.2174,-0.0364,0.8867,-6.9,7.95,-0.11,31.23
6935,0.2183,-0.0352,0.8932,-6.76,7.94,-0.03,31.22
6945,0.2202,-0.0375,0.8867,-6.84,7.92,-0.02,31.24
6955,0.2191,-0.0338,0.8872,-6.79,8.08,-0.09,31.24
6965,0.2202,-0.0328,0.8877,-6.78,8.09,-0.08,31.24
6975,0.2191,-0.0325,0.8992,-6.87,8.03,-0.03,31.24
6985,0.2137,-0.0369,0.8958,-6.81,8.09,-0.11,31.21
6995,0.2122,-0.0466,0.885,-6.84,8.03,-0.06,31.2
7005,0.2125,-0.0432,0.8848,-6.84,7.98,0.09,31.22
7015,0.2122,-0.0314,0.88,-6.73,8.02,0.0,31.23
7025,0.2152,-0.0288,0.8854,-6.79,7.95,-0.02,31.21
7035,0.2194,-0.0248,0.8888,-6.79,7.98,-0.05,31.21
7045,0.2194,-0.03,0.8912,-6.73,8.03,-0.09,31.21
7055,0.2172,-0.0397,0.8904,-6.96,8.03,-0.05,31.21
7065,0.2155,-0.0438,0.8932,-6.85,7.98,-0.03,31.22
7075,0.2201,-0.0382,0.8898,-6.81,8.03,-0.05,31.23
7085,0.2162,-0.0354,0.8845,-6.81,8.0,0.08,31.22
7095,0.2153,-0.0302,0.8838,-6.81,7.95,-0.08,31.22
7105,0.2161,-0.0269,0.8834,-6.93,8.02,-0.05,31.22
7115,0.2156,-0.0295,0.8855,-6.85,8.06,-0.05,31.22
7125,0.2145,-0.0359,0.8906,-6.89,8.02,0.06,31.23
7135,0.2174,-0.037,0.8873,-6.85,7.92,0.0,31.22
7145,0.2209,-0.0388,0.8896,-6.84,8.05,-0.03,31.23
7155,0.2213,-0.0377,0.8894,-6.84,7.98,-0.06,31.24
7165,0.2167,-0.0328,0.886,-6.7,7.88,-0.03,31.23
7175,0.2192,-0.0312,0.8906,-6.9,8.0,-0.03,31.23
7185,0.2192,-0.0344,0.8901,-6.84,7.98,0.03,31.23
7195,0.215,-0.0367,0.8878,-6.78,8.08,-0.02,31.24
7205,0.217,-0.0372,0.8848,-6.84,7.98,0.02,31.24
7215,0.2173,-0.0336,0.8877,-6.75,8.06,-0.09,31.23
7225,0.2158,-0.0326,0.8857,-6.81,7.94,0.0,31.21
7235,0.2188,-0.0326,0.8923,-6.76,8.02,-0.02,31.24
7245,0.2164,-0.0293,0.8856,-6.82,7.94,-0.02,31.21
7255,0.2169,-0.0323,0.8933,-6.79,7.98,-0.03,31.19
7265,0.2186,-0.0332,0.8893,-6.81,8.05,0.05,31.22
7275,0.2177,-0.0341,0.8906,-6.89,8.0,-0.02,31.21
7285,0.2157,-0.0411,0.8833,-6.76,7.83,-0.05,31.23
7295,0.219,-0.0359,0.8875,-6.87,8.02,-0.08,31.22
7305,0.2184,-0.0338,0.8882,-6.75,7.97,-0.05,31.25
7315,0.2161,-0.0364,0.8851,-6.81,7.98,-0.06,31.22
7325,0.2161,-0.0374,0.8878,-6.78,7.95,-0.09,31.25
7335,0.2118,-0.036,0.8915,-6.84,8.0,-0.03,31.22
7345,0.2166,-0.0364,0.8876,-6.76,7.91,-0.03,31.22
7355,0.2164,-0.0306,0.8873,-6.82,7.86,-0.05,31.22
7365,0.2169,-0.0303,0.8876,-6.79,7.95,0.08,31.22
7375,0.2183,-0.032,0.8899,-6.85,7.94,-0.05,31.22
7385,0.2168,-0.0366,0.8904,-6.78,7.86,-0.12,31.24
7395,0.2194,-0.0365,0.886,-6.84,7.92,-0.08,31.21
7405,0.2177,-0.0361,0.8875,-6.81,7.91,-0.02,31.25
7415,0.2196,-0.0355,0.89,-6.92,7.95,-0.09,31.24
7425,0.2185,-0.0349,0.8866,-6.85,7.95,-0.06,31.21
7435,0.2178,-0.0359,0.8879,-6.9,8.02,-0.03,31.23
7445,0.2151,-0.0322,0.8892,-6.82,7.95,-0.08,31.22
7455,0.2179,-0.0316,0.8879,-6.82,7.92,-0.05,31.21
7465,0.2167,-0.035,0.8904,-6.85,8.03,-0.08,31.22
7475,0.2183,-0.0341,0.8907,-6.85,7.91,-0.06,31.23
7485,0.2169,-0.0366,0.889,-6.84,7.95,-0.03,31.21
7495,0.2184,-0.0369,0.8893,-6.84,7.95,-0.06,31.21
7505,0.2211,-0.0334,0.8864,-6.84,7.98,0.0,31.21
7515,0.2218,-0.0364,0.8842,-6.9,7.97,-0.09,31.21
7525,0.2195,-0.0381,0.886,-6.84,8.03,-0.06,31.24
7535,0.2177,-0.0374,0.8854,-6.85,8.0,-0.02,31.23
7545,0.2183,-0.0382,0.889,-6.85,7.94,-0.06,31.2
7555,0.2158,-0.0334,0.8899,-6.82,8.05,-0.05,31.24
7565,0.2169,-0.0352,0.8894,-6.79,7.97,0.0,31.22
7575,0.2145,-0.0348,0.89,-6.84,8.0,-0.03,31.21
7585,0.2137,-0.0338,0.8914,-6.85,7.97,-0.02,31.21
7595,0.2159,-0.0327,0.8915,-6.76,8.03,-0.03,31.22
7605,0.2152,-0.0342,0.89,-6.84,7.92,0.0,31.2
7615,0.2158,-0.0322,0.8846,-6.73,8.0,0.0,31.22
7625,0.2179,-0.0353,0.8866,-6.78,7.98,0.0,31.22
7635,0.2145,-0.0333,0.8857,-6.89,7.91,-0.02,31.22
7645,0.2174,-0.0352,0.8851,-6.81,8.11,0.0,31.23
7655,0.2137,-0.0339,0.8872,-6.76,8.08,0.05,31.23
7665,0.2177,-0.0338,0.8884,-6.9,8.0,-0.02,31.24
7675,0.2173,-0.0355,0.8881,-6.85,7.94,-0.02,31.2
7685,0.2174,-0.0349,0.8859,-6.87,7.94,-0.08,31.22
7695,0.2173,-0.0331,0.8868,-6.81,8.0,-0.02,31.22
7705,0.2203,-0.0343,0.8875,-6.79,8.02,-0.09,31.22
7715,0.2211,-0.0358,0.8877,-6.89,7.98,0.0,31.22
7725,0.2235,-0.033,0.8929,-6.85,7.97,0.0,31.2
7735,0.2175,-0.0353,0.8893,-6.81,8.02,-0.02,31.24
7745,0.2089,-0.0396,0.8878,-6.75,8.08,0.02,31.24
7755,0.2115,-0.0388,0.8849,-6.84,8.0,0.02,31.25
7766,0.2158,-0.0327,0.8859,-6.81,8.0,0.02,31.24
7776,0.2164,-0.037,0.8815,-6.84,8.02,0.02,31.26
7786,0.2206,-0.0338,0.8868,-6.78,7.98,-0.02,31.23
7796,0.224,-0.0348,0.8925,-6.79,8.06,0.02,31.23
7806,0.2235,-0.0397,0.8928,-6.85,8.03,-0.02,31.22
7817,0.2208,-0.0396,0.8926,-6.75,8.0,-0.02,31.22
7827,0.2159,-0.0349,0.8877,-6.79,8.02,0.03,31.22
7839,0.2137,-0.0364,0.8857,-6.76,7.95,0.03,31.22
7849,0.2161,-0.0319,0.8882,-6.75,7.97,-0.09,31.24
7859,0.2157,-0.0356,0.8895,-6.73,8.0,-0.05,31.22
7869,0.217,-0.0349,0.889,-6.85,8.02,-0.09,31.24
7880,0.219,-0.0378,0.8888,-6.82,8.06,-0.05,31.24
7890,0.2183,-0.0359,0.8878,-6.85,8.0,-0.12,31.21
7900,0.2189,-0.0349,0.8892,-6.84,7.95,0.03,31.23
7910,0.2183,-0.0331,0.8882,-6.89,8.02,0.0,31.25
7920,0.2164,-0.0321,0.8862,-6.78,7.95,-0.08,31.22
7930,0.2158,-0.0321,0.8888,-6.82,8.03,-0.02,31.24
7940,0.2151,-0.0327,0.8877,-6.84,7.98,0.0,31.22
7950,0.2177,-0.037,0.8842,-6.89,7.97,-0.03,31.23
7960,0.215,-0.0366,0.8887,-6.9,7.91,-0.14,31.24
7970,0.2205,-0.0358,0.8887,-6.79,7.95,-0.11,31.27
7980,0.2179,-0.0349,0.8877,-6.84,7.97,-0.09,31.25
7990,0.2162,-0.036,0.885,-6.82,7.97,0.06,31.25
8000,0.2112,-0.0389,0.8822,-6.76,8.09,0.0,31.25
8010,0.2129,-0.0342,0.8811,-6.78,8.02,0.0,31.24
8020,0.2155,-0.0332,0.8857,-6.76,7.97,-0.05,31.25
8030,0.2164,-0.0372,0.8906,-6.84,8.0,0.09,31.25
8040,0.2178,-0.0332,0.8912,-6.79,7.97,0.02,31.25
8050,0.2194,-0.0361,0.8894,-6.84,7.98,-0.06,31.25
8060,0.2191,-0.0336,0.8939,-6.79,8.05,0.0,31.23
8070,0.219,-0.0352,0.8892,-6.82,8.0,-0.03,31.25
8080,0.2184,-0.0349,0.8846,-6.81,7.95,0.0,31.25
8090,0.215,-0.0321,0.8812,-6.79,8.02,-0.05,31.26
8100,0.2142,-0.0343,0.8856,-6.81,7.92,-0.03,31.24
8110,0.2148,-0.0366,0.8867,-6.85,8.02,-0.02,31.25
8120,0.2168,-0.0332,0.8865,-6.82,8.0,0.0,31.24
8130,0.2184,-0.036,0.8915,-6.87,7.92,-0.05,31.24
8140,0.2203,-0.0358,0.8909,-6.78,7.97,-0.09,31.27
8150,0.2167,-0.0352,0.8918,-6.78,8.02,-0.06,31.26
8160,0.2142,-0.0359,0.8877,-6.79,8.0,-0.06,31.24
8170,0.2168,-0.0326,0.8842,-6.81,8.03,-0.02,31.24
8180,0.2173,-0.031,0.8904,-6.93,7.97,-0.09,31.26
8190,0.218,-0.0314,0.8859,-6.85,7.98,0.05,31.26
8200,0.2177,-0.0355,0.8868,-6.87,7.97,-0.06,31.24
8210,0.2203,-0.0311,0.8889,-6.78,7.98,0.05,31.25
8220,0.2196,-0.0339,0.8884,-6.81,7.97,0.06,31.24
8230,0.2163,-0.0364,0.8859,-6.89,8.02,0.0,31.25
8240,0.2198,-0.0367,0.8903,-6.76,8.08,-0.03,31.23
8250,0.2159,-0.0333,0.8876,-6.81,7.95,-0.02,31.24
8260,0.2169,-0.0382,0.8873,-6.89,8.02,-0.06,31.24
8270,0.2162,-0.0347,0.889,-6.76,7.94,-0.06,31.25
8280,0.2168,-0.0376,0.8885,-6.78,8.03,-0.02,31.25
8290,0.2172,-0.0382,0.8889,-6.78,7.97,0.0,31.26
8300,0.2169,-0.0417,0.8898,-6.76,7.97,-0.11,31.26
8310,0.2192,-0.032,0.8894,-6.81,7.94,-0.06,31.26
8320,0.2189,-0.0317,0.8879,-6.76,7.95,-0.05,31.25
8330,0.2163,-0.033,0.8835,-6.84,8.0,-0.09,31.26
8340,0.2162,-0.0316,0.8892,-6.81,8.0,-0.02,31.24
8350,0.2178,-0.035,0.8928,-6.81,8.05,-0.02,31.25
8360,0.2159,-0.0337,0.89,-6.84,7.91,-0.05,31.23
8370,0.2147,-0.0316,0.8895,-6.72,7.94,-0.06,31.25
8380,0.2134,-0.0344,0.8862,-6.84,8.05,0.05,31.21
8390,0.2137,-0.0348,0.8892,-6.87,7.98,-0.09,31.26
8400,0.2124,-0.035,0.8875,-6.81,8.05,-0.06,31.22
8410,0.2164,-0.0353,0.8857,-6.82,7.95,-0.15,31.25
8420,0.2194,-0.0364,0.891,-6.79,7.92,-0.06,31.27
8430,0.2197,-0.0365,0.8912,-6.81,7.97,-0.06,31.26
8440,0.2179,-0.0371,0.8879,-6.85,8.03,-0.09,31.25
8450,0.217,-0.0343,0.8887,-6.9,7.92,-0.02,31.24
8460,0.2245,-0.0319,0.8846,-6.9,7.97,-0.06,31.27
8470,0.2225,-0.0251,0.891,-6.92,8.03,-0.03,31.24
8481,0.2188,-0.0388,0.8873,-6.81,8.06,-0.08,31.24
8491,0.2119,-0.051,0.8831,-6.75,8.05,-0.09,31.24
8501,0.2103,-0.0437,0.8864,-6.61,8.09,-0.14,31.24
8511,0.2073,-0.0341,0.887,-6.78,7.95,0.0,31.24
8521,0.2156,-0.0249,0.8877,-6.9,7.92,0.0,31.23
8531,0.2179,-0.0193,0.8888,-6.89,7.97,0.02,31.26
8541,0.2184,-0.0244,0.8895,-6.9,8.0,-0.05,31.25
8551,0.2178,-0.0376,0.891,-6.9,7.98,-0.02,31.24
8561,0.2198,-0.0408,0.8896,-6.76,7.92,0.0,31.25
8571,0.2203,-0.0415,0.8911,-6.81,7.92,0.0,31.25
8581,0.2205,-0.0389,0.886,-6.81,7.97,0.03,31.26
8591,0.222,-0.0349,0.8868,-6.92,8.05,-0.09,31.26
8601,0.2198,-0.032,0.8921,-6.87,8.02,0.02,31.22
8611,0.2183,-0.0348,0.892,-6.85,8.11,-0.09,31.24
8621,0.215,-0.0406,0.8934,-6.79,8.05,-0.17,31.24
8631,0.2151,-0.0387,0.8879,-6.81,8.06,-0.09,31.25
8641,0.2119,-0.0385,0.8813,-6.78,8.06,-0.02,31.26
8651,0.2153,-0.036,0.8826,-6.75,7.97,-0.06,31.25
8661,0.2161,-0.0347,0.8802,-6.78,8.0,-0.05,31.25
8671,0.212,-0.0314,0.8834,-6.81,7.89,0.02,31.26
8681,0.2172,-0.0283,0.8879,-6.84,7.94,0.0,31.25
8691,0.2148,-0.0283,0.8899,-6.82,7.86,-0.02,31.26
8701,0.2172,-0.0312,0.8889,-6.93,7.94,-0.09,31.22
8711,0.2185,-0.0328,0.8893,-6.76,7.94,-0.06,31.25
8721,0.2178,-0.0311,0.8918,-6.85,7.94,0.02,31.27
8731,0.2181,-0.0352,0.8905,-6.76,7.89,0.0,31.24
8741,0.22,-0.0355,0.8895,-6.87,8.02,0.06,31.25
8751,0.229,-0.0356,0.8939,-6.85,8.06,-0.05,31.25
8761,0.2125,-0.0354,0.8845,-6.9,8.05,-0.03,31.24
8771,0.2206,-0.0388,0.8809,-6.79,7.94,0.0,31.28
8781,0.2192,-0.0394,0.8848,-6.76,7.79,-0.09,31.24
8791,0.2118,-0.0256,0.8977,-6.73,7.95,-0.08,31.24
8801,0.2111,-0.0386,0.8904,-6.79,7.97,-0.12,31.25
8811,0.2211,-0.0361,0.8931,-6.64,7.89,0.0,31.25
8821,0.2144,-0.0385,0.8978,-6.81,8.08,-0.03,31.24
8831,0.2136,-0.0386,0.889,-6.84,8.06,0.05,31.26
8841,0.2128,-0.0378,0.887,-6.76,8.08,0.02,31.23
8851,0.2126,-0.0289,0.8845,-6.73,8.08,-0.03,31.26
8861,0.215,-0.0286,0.8878,-6.82,7.92,-0.09,31.24
8871,0.2169,-0.0316,0.8876,-6.95,8.03,-0.09,31.26
8881,0.2178,-0.0305,0.8925,-6.79,8.11,-0.09,31.24
8891,0.2151,-0.037,0.8915,-6.84,8.02,-0.03,31.25
8901,0.2181,-0.0425,0.8934,-6.84,8.09,-0.02,31.26
8911,0.217,-0.0388,0.8926,-6.92,7.97,-0.03,31.25
8921,0.2147,-0.0369,0.8876,-6.98,7.97,0.0,31.27
8931,0.2156,-0.0341,0.8842,-6.82,7.91,-0.03,31.24
8941,0.2173,-0.0304,0.8839,-6.79,7.95,-0.03,31.26
8951,0.2155,-0.0336,0.8849,-6.84,8.02,0.0,31.25
8961,0.2207,-0.036,0.89,-6.78,8.02,-0.03,31.25
8971,0.2186,-0.0366,0.8867,-6.82,7.97,-0.02,31.23
8981,0.2208,-0.035,0.8884,-6.73,7.95,-0.06,31.26
8991,0.2201,-0.0341,0.8876,-6.78,7.97,-0.06,31.27
9001,0.218,-0.03,0.8877,-6.87,7.95,-0.08,31.27
9011,0.2195,-0.0306,0.8883,-6.79,7.98,-0.05,31.26
9021,0.2191,-0.0288,0.8906,-6.82,7.98,-0.02,31.25
9031,0.2156,-0.0339,0.8911,-6.76,8.0,0.02,31.27
9041,0.2145,-0.0343,0.8898,-6.92,7.98,-0.08,31.27
9051,0.2175,-0.0394,0.8905,-6.79,7.98,0.02,31.27
9061,0.2152,-0.0392,0.8875,-6.69,8.02,-0.02,31.25
9071,0.2201,-0.0337,0.8817,-6.89,7.92,-0.12,31.27
9081,0.2185,-0.0331,0.8888,-6.84,8.03,-0.06,31.24
9091,0.2196,-0.0339,0.8915,-6.75,7.94,-0.02,31.24
9101,0.2186,-0.0317,0.8879,-6.78,8.06,-0.08,31.27
9111,0.2168,-0.0354,0.8899,-6.89,8.05,-0.02,31.24
9121,0.2146,-0.0372,0.891,-6.81,8.05,-0.05,31.26
9131,0.2155,-0.0321,0.8877,-6.79,8.02,-0.03,31.23
9141,0.2161,-0.033,0.8887,-6.84,8.05,-0.09,31.25
9151,0.2183,-0.0331,0.8901,-6.79,8.0,-0.06,31.25
9161,0.2164,-0.0375,0.885,-6.81,8.03,-0.03,31.25
9171,0.2146,-0.0394,0.8882,-6.84,8.06,-0.08,31.24
9181,0.2167,-0.0406,0.8893,-6.82,7.98,-0.02,31.25
9191,0.2181,-0.036,0.8871,-6.81,7.97,0.03,31.25
9201,0.2172,-0.0342,0.8866,-6.73,7.97,-0.06,31.24
9211,0.2207,-0.0328,0.8916,-6.84,8.03,-0.03,31.25
9221,0.2189,-0.0331,0.8904,-6.78,8.0,-0.03,31.24
9231,0.2178,-0.0361,0.894,-6.81,7.91,0.03,31.25
9241,0.2217,-0.0378,0.8931,-6.72,8.05,-0.03,31.28
9251,0.2194,-0.0367,0.8907,-6.87,7.98,0.02,31.25
9261,0.2194,-0.0325,0.8911,-6.79,7.94,-0.06,31.24
9271,0.219,-0.0358,0.8857,-6.78,8.0,-0.05,31.25
9282,0.2159,-0.0333,0.8885,-6.79,7.97,-0.06,31.26
9292,0.2179,-0.033,0.8877,-6.78,8.03,-0.08,31.27
9302,0.2163,-0.0321,0.887,-6.84,7.94,0.0,31.29
9312,0.2194,-0.0306,0.8867,-6.85,7.94,-0.06,31.27
9322,0.2168,-0.032,0.8881,-6.82,8.03,-0.12,31.28
9332,0.2181,-0.036,0.8918,-6.87,7.98,-0.03,31.28
9342,0.2168,-0.0381,0.8865,-6.92,7.94,-0.02,31.27
9353,0.2177,-0.0358,0.8885,-6.85,8.0,-0.02,31.28
9363,0.2202,-0.0361,0.8962,-6.85,7.97,-0.05,31.27
9373,0.2161,-0.0374,0.8934,-6.76,8.0,0.03,31.25
9383,0.2177,-0.0366,0.8893,-6.79,8.02,0.0,31.27
9393,0.2152,-0.0372,0.8882,-6.79,7.89,-0.05,31.26
9403,0.219,-0.0356,0.8903,-6.85,8.02,-0.11,31.24
9413,0.2175,-0.0352,0.8904,-6.85,7.97,-0.08,31.25
9423,0.2175,-0.0334,0.8866,-6.84,8.02,-0.11,31.23
9433,0.2159,-0.0337,0.8854,-6.76,8.03,0.02,31.26
9443,0.2172,-0.0352,0.8894,-6.85,7.97,-0.02,31.25
9453,0.2136,-0.0305,0.8923,-6.87,8.02,0.0,31.27
9463,0.2151,-0.0353,0.889,-6.79,8.03,-0.02,31.29
9473,0.217,-0.036,0.8854,-6.78,7.91,-0.03,31.26
9483,0.2181,-0.0375,0.8906,-6.87,7.94,0.03,31.24
9493,0.2213,-0.037,0.8887,-6.78,7.98,-0.05,31.26
9503,0.2197,-0.0366,0.8843,-6.89,8.05,0.0,31.27
9513,0.218,-0.0406,0.8882,-6.78,8.03,-0.05,31.26
9523,0.2158,-0.0344,0.8877,-6.82,8.02,-0.09,31.26
9533,0.2181,-0.0317,0.8864,-6.79,7.94,-0.05,31.24
9543,0.2129,-0.0312,0.886,-6.75,7.95,-0.02,31.26
9553,0.2164,-0.0356,0.8885,-6.73,7.95,-0.11,31.27
9563,0.2148,-0.0325,0.8881,-6.85,7.94,-0.11,31.25
9573,0.217,-0.0305,0.89,-6.84,7.91,0.0,31.26
9583,0.2141,-0.0347,0.89,-6.81,7.94,-0.06,31.27
9593,0.2188,-0.0327,0.8865,-6.81,7.91,0.05,31.27
9603,0.2198,-0.0347,0.8868,-6.82,7.98,-0.02,31.27
9613,0.2202,-0.0356,0.8887,-6.84,7.94,-0.08,31.26
9623,0.2191,-0.0344,0.8872,-6.9,7.92,-0.06,31.24
9633,0.217,-0.0375,0.8834,-6.79,7.98,0.03,31.26
9643,0.22,-0.04,0.8879,-6.78,7.98,-0.08,31.26
9653,0.2198,-0.0359,0.8906,-6.85,8.02,-0.06,31.29
9663,0.2175,-0.0398,0.8905,-6.73,8.02,-0.03,31.28
9673,0.2152,-0.0367,0.8846,-6.85,8.02,-0.11,31.27
9683,0.2151,-0.032,0.8861,-6.82,8.03,-0.02,31.27
9693,0.2157,-0.0327,0.8883,-6.85,7.92,0.0,31.25
9704,0.217,-0.0291,0.8857,-6.84,8.02,-0.03,31.28
9714,0.2185,-0.032,0.8817,-6.89,8.03,-0.03,31.27
9724,0.2177,-0.0341,0.8859,-6.76,8.02,-0.02,31.28
9734,0.2192,-0.0338,0.8896,-6.81,7.91,-0.03,31.29
9744,0.2158,-0.0364,0.8906,-6.76,7.94,0.05,31.27
9754,0.2158,-0.0348,0.8867,-6.76,8.02,-0.05,31.27
9764,0.2156,-0.0299,0.8887,-6.84,7.98,-0.06,31.29
9774,0.2163,-0.0344,0.8892,-6.75,7.94,-0.11,31.29
9784,0.2186,-0.0369,0.8872,-6.9,7.95,-0.03,31.27
9794,0.2147,-0.0349,0.8881,-6.89,7.89,0.03,31.3
9805,0.2181,-0.033,0.8873,-6.81,7.94,0.02,31.27
9815,0.2195,-0.0327,0.8887,-6.84,7.82,-0.08,31.27
9825,0.2191,-0.0337,0.8838,-6.84,7.95,-0.08,31.27
9835,0.2178,-0.0306,0.884,-6.78,7.91,-0.03,31.29
9845,0.2158,-0.0353,0.8903,-6.87,7.98,0.0,31.28
9855,0.2189,-0.037,0.8872,-6.81,8.03,-0.05,31.26
9865,0.2167,-0.0356,0.8831,-6.89,7.94,-0.06,31.27
9875,0.2229,-0.0328,0.8871,-6.78,7.91,-0.02,31.26
9885,0.2198,-0.0397,0.8931,-6.87,8.03,-0.05,31.26
9895,0.2152,-0.0347,0.8878,-6.93,8.03,-0.08,31.25
9905,0.2175,-0.0325,0.8883,-6.79,7.97,-0.05,31.26
9915,0.2161,-0.0264,0.887,-6.75,7.91,-0.05,31.27
9925,0.217,-0.0304,0.8896,-6.89,8.06,-0.05,31.29
9935,0.2183,-0.0341,0.8922,-6.9,8.05,-0.11,31.25
9945,0.2152,-0.0372,0.8871,-6.79,7.86,-0.02,31.26
9955,0.2158,-0.0344,0.8901,-6.81,7.95,-0.05,31.27
9965,0.2144,-0.0366,0.8877,-6.87,8.03,-0.05,31.26
9975,0.2163,-0.0349,0.8838,-6.79,7.94,-0.02,31.25
9985,0.2185,-0.0381,0.8854,-6.87,7.92,0.03,31.26
9995,0.2159,-0.0354,0.8906,-6.84,8.06,-0.08,31.26
10005,0.2173,-0.0398,0.8873,-6.82,8.03,-0.03,31.26
10015,0.2173,-0.0378,0.8872,-6.76,7.98,-0.06,31.25
10025,0.2196,-0.0386,0.8843,-6.66,7.95,0.05,31.26
10035,0.2186,-0.0344,0.8899,-6.78,7.91,-0.02,31.29
10045,0.2201,-0.0331,0.8896,-6.92,8.02,-0.02,31.29
10055,0.2174,-0.0345,0.8846,-6.81,8.05,-0.02,31.27
10065,0.2172,-0.0328,0.8884,-6.81,7.97,-0.09,31.25
10075,0.218,-0.0349,0.8964,-6.93,8.06,-0.02,31.27
10085,0.217,-0.0374,0.887,-6.92,8.14,-0.11,31.26
10095,0.2144,-0.0353,0.8855,-6.73,8.02,-0.08,31.27
10105,0.2177,-0.0332,0.8911,-6.84,7.92,-0.02,31.25
10115,0.2198,-0.0322,0.8918,-6.85,8.03,0.03,31.27
10125,0.2157,-0.03,0.8892,-6.84,7.98,0.0,31.26
10135,0.2191,-0.0305,0.8882,-6.89,7.91,-0.03,31.24
10145,0.2184,-0.0309,0.8903,-6.82,7.86,-0.03,31.28
10155,0.2158,-0.0316,0.8846,-6.87,8.0,-0.08,31.26
10165,0.2196,-0.035,0.8854,-6.85,7.89,0.0,31.28
10175,0.2219,-0.0364,0.8899,-6.85,7.91,-0.05,31.26
10185,0.2219,-0.0385,0.8888,-6.82,7.98,-0.03,31.26
10195,0.2234,-0.0398,0.8907,-6.85,7.91,-0.11,31.29
10205,0.2218,-0.0391,0.8917,-6.84,7.92,0.0,31.25
10215,0.2235,-0.0344,0.8916,-6.81,7.97,-0.08,31.27
10225,0.2162,-0.0361,0.8872,-6.78,8.03,-0.08,31.29
10235,0.2179,-0.0326,0.8864,-6.84,8.02,-0.02,31.28
10245,0.2167,-0.026,0.8864,-6.79,8.02,-0.03,31.29
10255,0.2104,-0.0283,0.8809,-6.9,7.91,-0.02,31.29
10265,0.2114,-0.0325,0.8884,-6.98,7.92,-0.06,31.27
10275,0.2159,-0.0338,0.8892,-6.81,7.98,-0.18,31.25
10288,0.2157,-0.0366,0.8862,-6.73,7.89,-0.02,31.28
10300,0.2152,-0.0382,0.89,-6.75,8.0,-0.08,31.28
10310,0.2152,-0.0326,0.8925,-6.89,7.97,-0.09,31.29
10320,0.2152,-0.032,0.887,-6.79,7.98,-0.06,31.27
10330,0.2168,-0.031,0.8896,-6.84,7.94,0.02,31.29
10340,0.2188,-0.0311,0.8949,-6.79,7.95,-0.06,31.27
10350,0.2192,-0.0358,0.8878,-6.76,7.89,-0.06,31.28
10361,0.2188,-0.0371,0.89,-6.81,7.94,0.0,31.28
10371,0.2217,-0.0383,0.8844,-6.93,8.05,-0.06,31.25
10381,0.2155,-0.038,0.8855,-6.79,8.0,0.03,31.26
10391,0.2159,-0.0345,0.8861,-6.75,7.95,0.05,31.29
10401,0.2172,-0.032,0.8904,-6.9,7.95,-0.03,31.29
10411,0.2124,-0.0316,0.8876,-6.9,7.94,-0.02,31.28
10421,0.2151,-0.0352,0.8881,-6.87,7.97,-0.06,31.29
10431,0.2189,-0.0331,0.89,-6.84,7.92,-0.08,31.27
10441,0.2172,-0.0347,0.8907,-6.85,7.98,-0.09,31.3
10451,0.2172,-0.0343,0.8888,-6.81,7.91,-0.09,31.27
10461,0.218,-0.0339,0.8851,-6.81,7.98,0.02,31.27
10471,0.2174,-0.0321,0.885,-6.87,8.0,-0.02,31.28
10481,0.2185,-0.0321,0.8877,-6.82,7.97,0.03,31.27
10491,0.2155,-0.0326,0.8885,-6.82,7.94,0.02,31.29
10501,0.2181,-0.0315,0.8906,-6.79,8.03,0.06,31.28
10511,0.2195,-0.0347,0.8872,-6.92,8.0,0.02,31.29
10521,0.2169,-0.0378,0.8888,-6.85,7.98,-0.03,31.27
10531,0.2153,-0.038,0.8904,-6.84,8.0,-0.03,31.27
10541,0.2177,-0.0382,0.8898,-6.87,8.08,-0.05,31.28
10551,0.2175,-0.0374,0.8882,-6.76,8.05,-0.02,31.27
10561,0.2133,-0.0353,0.8871,-6.79,8.09,-0.02,31.29
10571,0.2156,-0.0348,0.8856,-6.82,7.95,-0.06,31.29
10581,0.2177,-0.0315,0.8881,-6.82,7.97,-0.06,31.29
10591,0.2186,-0.0322,0.8887,-6.89,7.97,0.0,31.3
10601,0.218,-0.0347,0.8876,-6.73,7.88,-0.12,31.28
10611,0.217,-0.0348,0.891,-6.79,8.06,-0.11,31.27
10621,0.2209,-0.0341,0.8883,-6.87,7.95,-0.08,31.28
10631,0.2168,-0.0356,0.8931,-6.87,7.97,-0.03,31.27
10641,0.2179,-0.036,0.8831,-6.9,7.97,0.0,31.28
10651,0.2205,-0.0321,0.8911,-6.84,8.08,-0.08,31.3
10661,0.2164,-0.0337,0.8877,-6.75,8.06,-0.05,31.28
10671,0.2174,-0.0334,0.8872,-6.84,7.92,-0.05,31.28
10681,0.2201,-0.036,0.8848,-6.81,7.98,-0.06,31.27
10691,0.2177,-0.0381,0.8893,-6.82,8.03,-0.05,31.3
10701,0.2155,-0.0349,0.8845,-6.82,8.09,-0.11,31.27
10711,0.2191,-0.0365,0.8871,-6.79,8.02,-0.05,31.29
10721,0.2147,-0.0343,0.885,-6.9,8.0,-0.09,31.29
10731,0.2175,-0.0334,0.889,-6.84,8.06,-0.08,31.27
10741,0.2189,-0.0303,0.8888,-6.81,7.98,-0.06,31.3
10751,0.2185,-0.0283,0.8916,-6.78,8.06,0.02,31.26
10761,0.2194,-0.0339,0.8948,-6.79,7.94,-0.11,31.27
10771,0.2173,-0.0342,0.8901,-6.87,7.94,-0.03,31.28
10781,0.2167,-0.0345,0.8878,-6.84,8.0,-0.02,31.28
10791,0.2156,-0.0354,0.89,-6.89,8.05,-0.03,31.28
10801,0.2146,-0.037,0.8853,-6.9,7.95,0.03,31.29
10811,0.2155,-0.0354,0.8901,-6.87,8.03,0.03,31.29
10821,0.2156,-0.0353,0.8865,-6.82,7.97,-0.06,31.29
10831,0.2173,-0.0355,0.8878,-6.82,7.98,-0.11,31.27
10841,0.2178,-0.0361,0.8876,-6.79,7.92,-0.05,31.26
10851,0.2195,-0.0344,0.8848,-6.85,8.0,-0.06,31.3
10861,0.2213,-0.0311,0.8914,-6.84,7.98,0.02,31.31
10871,0.2152,-0.0286,0.8888,-6.79,7.92,-0.12,31.3
10881,0.2191,-0.0345,0.8875,-6.84,7.95,0.02,31.29
10891,0.2184,-0.0328,0.8918,-6.89,7.95,-0.05,31.28
10901,0.2231,-0.0328,0.8895,-6.9,7.98,-0.08,31.3
10911,0.2167,-0.0337,0.8898,-6.9,7.98,-0.03,31.3
10921,0.2164,-0.0344,0.894,-6.9,8.0,-0.11,31.29
10931,0.2134,-0.0349,0.8876,-6.82,7.91,-0.08,31.27
10941,0.2167,-0.0347,0.8884,-6.81,7.98,-0.05,31.29
10951,0.2163,-0.0334,0.8906,-6.87,8.02,-0.05,31.29
10961,0.2186,-0.0344,0.8832,-6.82,7.95,-0.05,31.3
10971,0.2168,-0.0355,0.8867,-6.82,7.88,0.02,31.33
10981,0.2209,-0.0344,0.8844,-6.84,7.95,-0.03,31.31
10991,0.2217,-0.0342,0.8857,-6.73,7.86,-0.08,31.3
11001,0.223,-0.0349,0.8904,-6.82,7.98,-0.08,31.29
11011,0.217,-0.0347,0.8861,-6.93,8.05,-0.05,31.29
11021,0.2148,-0.0366,0.8889,-6.81,8.0,-0.05,31.3
11031,0.2153,-0.0354,0.8848,-6.79,7.91,-0.02,31.3
11041,0.2142,-0.0342,0.8853,-6.9,7.95,0.05,31.29
11051,0.2139,-0.0345,0.887,-6.82,7.97,-0.05,31.29
11061,0.2158,-0.0322,0.891,-6.9,7.92,-0.05,31.3
11071,0.2172,-0.0345,0.8878,-6.84,7.89,0.02,31.31
11081,0.2211,-0.0333,0.8883,-6.79,7.97,0.08,31.31
11091,0.2227,-0.0326,0.892,-6.89,8.0,0.02,31.32
11101,0.2253,-0.0364,0.887,-6.76,8.03,-0.08,31.28
11111,0.2203,-0.0374,0.8867,-6.79,7.95,0.03,31.27
11121,0.2178,-0.0375,0.8816,-6.78,8.06,-0.15,31.29
11132,0.2175,-0.0364,0.8839,-6.76,8.0,-0.02,31.31
11142,0.2158,-0.0363,0.8843,-6.78,8.0,-0.09,31.3
11152,0.2153,-0.0349,0.885,-6.78,8.0,0.02,31.28
11162,0.2128,-0.033,0.8872,-6.81,8.03,-0.11,31.29
11172,0.2172,-0.0315,0.8894,-6.82,8.02,-0.05,31.31
11182,0.2172,-0.0308,0.8883,-6.79,7.94,-0.12,31.29
11192,0.217,-0.0334,0.8881,-6.92,8.0,0.02,31.3
11202,0.2163,-0.0333,0.8888,-6.9,8.03,-0.03,31.31
11212,0.2175,-0.0354,0.8883,-6.82,7.94,0.02,31.3
11222,0.2166,-0.0339,0.8892,-6.89,7.97,-0.08,31.29
11233,0.2164,-0.0369,0.8892,-6.85,8.0,-0.03,31.28
11243,0.2123,-0.0331,0.8892,-6.87,7.89,0.0,31.29
11253,0.218,-0.0365,0.8877,-6.73,7.89,0.0,31.31
11263,0.2184,-0.0398,0.8876,-6.84,7.97,0.03,31.32
11273,0.218,-0.0342,0.8857,-6.76,7.92,-0.08,31.3
11283,0.2191,-0.0348,0.8888,-6.72,7.92,-0.03,31.29
11293,0.2169,-0.0354,0.8876,-6.93,7.98,-0.05,31.3
11303,0.214,-0.0369,0.8885,-6.79,8.12,-0.02,31.3
11313,0.2177,-0.033,0.8921,-6.82,7.97,-0.02,31.31
11323,0.2163,-0.0364,0.8875,-6.78,7.95,-0.03,31.33
11333,0.2157,-0.0347,0.8899,-6.9,7.94,-0.03,31.3
11343,0.2174,-0.0378,0.8892,-6.79,7.94,0.02,31.3
11353,0.217,-0.0328,0.8889,-6.82,8.02,-0.02,31.3
11363,0.2179,-0.0361,0.8917,-6.85,7.97,-0.11,31.3
11373,0.2177,-0.037,0.889,-6.79,7.94,-0.05,31.28
11383,0.2194,-0.0355,0.8868,-6.84,7.92,-0.11,31.28
11393,0.2159,-0.0348,0.8846,-6.89,7.95,-0.08,31.3
11403,0.2152,-0.0345,0.8873,-6.82,7.97,-0.05,31.3
11413,0.2158,-0.0356,0.8872,-6.84,8.03,-0.06,31.29
11423,0.2166,-0.0359,0.8909,-6.81,8.0,-0.08,31.32
11433,0.2172,-0.0375,0.8879,-6.9,8.0,-0.03,31.3
11443,0.2145,-0.0347,0.89,-6.78,7.92,-0.06,31.31
11453,0.2188,-0.0339,0.8867,-6.85,7.95,-0.02,31.29
11463,0.2183,-0.0339,0.8879,-6.89,7.97,-0.09,31.31
11473,0.217,-0.0342,0.8883,-6.78,7.94,0.0,31.29
11483,0.2169,-0.0315,0.8903,-6.81,8.05,-0.05,31.32
11493,0.2194,-0.0338,0.8876,-6.89,8.0,-0.12,31.3
11503,0.2197,-0.0365,0.89,-6.87,7.91,-0.11,31.31
11513,0.2196,-0.0331,0.892,-6.85,7.94,-0.11,31.3
11523,0.2196,-0.0339,0.8914,-6.79,8.03,0.0,31.29
11533,0.2151,-0.035,0.8887,-6.81,7.98,0.0,31.31
11543,0.2173,-0.0338,0.8892,-6.82,7.97,0.0,31.29
11553,0.2166,-0.0344,0.89,-6.87,7.92,0.02,31.29
11563,0.2175,-0.0359,0.885,-6.82,7.95,-0.08,31.3
11573,0.2181,-0.0369,0.8853,-6.84,7.91,-0.05,31.28
11583,0.2178,-0.0319,0.8853,-6.81,7.95,-0.08,31.32
11593,0.218,-0.0334,0.887,-6.87,7.98,0.05,31.29
11603,0.2186,-0.0375,0.8896,-6.87,7.94,-0.02,31.3
11613,0.2195,-0.0375,0.8898,-6.85,8.02,-0.02,31.3
11623,0.215,-0.0377,0.8851,-6.84,8.03,-0.05,31.29
11633,0.2162,-0.0348,0.8916,-6.79,7.92,0.0,31.29
11643,0.215,-0.0339,0.8909,-6.85,7.95,0.02,31.29
11653,0.215,-0.0359,0.8903,-6.79,7.82,-0.08,31.31
11663,0.2159,-0.0363,0.8867,-6.85,7.95,-0.12,31.25
11673,0.2177,-0.0345,0.8921,-6.76,7.94,-0.06,31.3
11683,0.2205,-0.0339,0.8917,-6.81,8.02,-0.12,31.32
11693,0.2167,-0.0345,0.8895,-6.89,8.0,-0.08,31.32
11703,0.2177,-0.0347,0.8899,-6.78,7.95,-0.09,31.29
11713,0.2157,-0.0343,0.8898,-6.81,8.02,-0.08,31.3
11723,0.2157,-0.0341,0.8872,-6.81,8.02,0.0,31.31
11733,0.2153,-0.0326,0.8911,-6.92,7.94,0.02,31.28
11743,0.2142,-0.0322,0.891,-6.85,7.95,-0.02,31.29
11753,0.2207,-0.0325,0.8938,-6.87,7.95,-0.09,31.27
11763,0.2178,-0.0331,0.8909,-6.85,7.97,-0.05,31.27
11773,0.219,-0.0387,0.8904,-6.85,7.98,-0.09,31.3
11783,0.2183,-0.0367,0.8928,-6.75,7.89,-0.03,31.3
11793,0.2201,-0.0386,0.8903,-6.81,8.03,0.05,31.29
11803,0.2195,-0.0358,0.8885,-6.76,8.0,-0.11,31.3
11813,0.2184,-0.0317,0.8892,-6.84,7.97,-0.06,31.29
11823,0.2163,-0.0333,0.8868,-6.82,8.06,-0.02,31.27
11833,0.2172,-0.037,0.886,-6.73,8.03,-0.03,31.28
11843,0.2172,-0.0361,0.8834,-6.81,7.92,-0.08,31.3
11853,0.2185,-0.0355,0.8883,-6.82,8.0,-0.06,31.29
11863,0.217,-0.0364,0.8889,-6.85,8.06,0.0,31.28
11873,0.2137,-0.0338,0.8904,-6.9,8.06,-0.11,31.31
11883,0.2145,-0.0326,0.891,-6.81,8.05,-0.09,31.3
11893,0.2144,-0.0325,0.8889,-6.95,7.97,0.06,31.31
11903,0.2136,-0.0315,0.8861,-6.82,7.98,-0.03,31.29
11913,0.2156,-0.0289,0.8898,-6.78,7.97,-0.06,31.29
11923,0.2184,-0.0334,0.8905,-6.92,7.92,0.03,31.31
11933,0.2183,-0.031,0.8866,-6.84,7.98,0.02,31.29
11943,0.2203,-0.0342,0.8887,-6.84,7.95,0.0,31.3
11953,0.2219,-0.0372,0.8888,-6.85,7.98,-0.05,31.31
11963,0.219,-0.0386,0.8884,-6.76,8.05,-0.02,31.31
11973,0.2167,-0.0398,0.8846,-6.82,8.02,-0.06,31.31
11983,0.2156,-0.0402,0.8861,-6.7,8.02,-0.02,31.29
11993,0.214,-0.0376,0.8892,-6.85,7.95,-0.08,31.32
12003,0.2164,-0.0343,0.8872,-6.85,7.98,-0.05,31.32
12013,0.2151,-0.0369,0.886,-6.81,7.91,-0.02,31.31
12023,0.2173,-0.0325,0.8856,-6.9,7.91,-0.15,31.31
12033,0.2167,-0.0344,0.8921,-6.95,7.98,-0.09,31.27
12043,0.2179,-0.0372,0.8885,-6.87,8.02,0.03,31.32
12053,0.2196,-0.0336,0.8861,-6.81,8.03,0.03,31.29
12063,0.2185,-0.0339,0.8871,-6.96,7.97,0.02,31.29
12073,0.2166,-0.0343,0.8906,-6.9,8.02,-0.06,31.32
12083,0.2175,-0.0341,0.8893,-6.93,8.0,0.0,31.29
12093,0.2161,-0.0353,0.8896,-6.87,8.0,-0.09,31.3
12103,0.2166,-0.0356,0.8914,-6.85,7.92,-0.05,31.31
12113,0.2161,-0.0374,0.8864,-6.84,7.98,-0.08,31.31
12123,0.2162,-0.0333,0.8881,-6.84,7.95,-0.03,31.32
12133,0.217,-0.0339,0.8837,-6.9,8.0,-0.02,31.29
12143,0.2178,-0.0343,0.8903,-6.75,7.94,-0.05,31.31
12153,0.219,-0.0349,0.8876,-6.87,7.97,0.0,31.31
12163,0.2148,-0.0341,0.8916,-6.82,7.89,-0.02,31.31
12173,0.2183,-0.0339,0.892,-6.81,8.03,-0.08,31.3
12183,0.2169,-0.0321,0.8905,-6.81,7.95,0.05,31.29
12193,0.2158,-0.0344,0.8894,-6.87,7.97,-0.09,31.27
12203,0.2177,-0.0328,0.8894,-6.9,7.98,-0.05,31.33
12213,0.2175,-0.0332,0.8895,-6.79,8.02,-0.14,31.32
12223,0.2166,-0.0352,0.8887,-6.73,7.91,0.0,31.3
12233,0.2205,-0.0349,0.8876,-6.84,7.95,-0.11,31.3
12243,0.2169,-0.0348,0.8876,-6.85,8.02,-0.06,31.31
12253,0.2168,-0.0345,0.8889,-6.82,8.03,-0.02,31.29
12263,0.2152,-0.0348,0.8895,-6.89,7.98,-0.02,31.28
12273,0.2174,-0.0339,0.8879,-6.87,7.94,-0.05,31.32
12283,0.2185,-0.036,0.8884,-6.89,7.94,0.0,31.3
12293,0.219,-0.0365,0.8893,-6.87,8.02,-0.09,31.32
12307,0.2168,-0.0372,0.8872,-6.82,8.02,-0.05,31.32
12317,0.2186,-0.0348,0.8884,-6.9,7.92,-0.06,31.32
12327,0.2194,-0.0337,0.8895,-6.84,8.08,-0.02,31.31
12337,0.2174,-0.033,0.8818,-6.96,8.02,-0.09,31.31
12347,0.2169,-0.0315,0.8876,-6.92,8.02,-0.06,31.32
12359,0.2151,-0.0343,0.8861,-6.85,7.94,0.0,31.29
12369,0.2174,-0.035,0.8857,-6.82,8.02,-0.05,31.31
12379,0.2139,-0.0369,0.8885,-6.84,7.97,0.0,31.32
12389,0.2163,-0.0363,0.8893,-6.79,8.0,-0.09,31.3
12399,0.2159,-0.0352,0.8876,-6.76,8.05,-0.08,31.29
12409,0.2157,-0.0356,0.885,-6.85,7.95,-0.03,31.32
12419,0.2174,-0.0354,0.8873,-6.84,7.91,-0.06,31.3
12429,0.2167,-0.0349,0.8896,-6.82,7.97,0.03,31.31
12441,0.2146,-0.0343,0.8901,-6.87,8.0,0.09,31.29
12451,0.2162,-0.0359,0.8875,-6.93,7.98,-0.03,31.31
12461,0.2169,-0.0352,0.8888,-6.85,8.03,-0.05,31.31
12471,0.2167,-0.0333,0.8903,-6.69,7.98,-0.11,31.29
12481,0.2172,-0.0359,0.8887,-6.85,8.05,-0.08,31.3
12491,0.22,-0.0333,0.8851,-6.84,8.02,0.02,31.32
12501,0.217,-0.0348,0.8865,-6.81,7.89,-0.06,31.29
12511,0.2183,-0.0353,0.8915,-6.85,7.98,0.02,31.31
12521,0.2158,-0.0348,0.889,-6.84,7.94,-0.05,31.31
12531,0.219,-0.0327,0.8855,-6.89,7.95,0.03,31.31
12541,0.2202,-0.0375,0.886,-6.78,8.08,0.02,31.32
12551,0.218,-0.0355,0.8888,-6.76,8.08,-0.08,31.29
12561,0.2186,-0.0363,0.8888,-6.67,8.08,0.0,31.3
12571,0.2195,-0.0355,0.8904,-6.87,8.03,-0.08,31.3
12581,0.2161,-0.0336,0.8888,-6.95,7.95,-0.09,31.3
12591,0.2167,-0.033,0.8892,-6.78,7.98,-0.03,31.31
12601,0.2156,-0.0326,0.8845,-6.89,7.91,0.02,31.31
12611,0.2157,-0.0314,0.886,-6.96,8.0,-0.06,31.32
12621,0.2144,-0.0308,0.8923,-6.9,7.86,-0.14,31.32
12631,0.2168,-0.0332,0.89,-6.85,7.97,-0.09,31.29
12641,0.2166,-0.0365,0.8862,-6.78,7.92,0.06,31.31
12651,0.2206,-0.0355,0.892,-6.85,7.95,-0.02,31.29
12661,0.2169,-0.0389,0.8905,-6.96,8.02,0.0,31.3
12671,0.2207,-0.0374,0.8861,-6.82,8.02,-0.02,31.33
12681,0.2159,-0.0367,0.8883,-6.79,8.0,-0.06,31.31
12691,0.2174,-0.0316,0.8877,-6.92,8.0,0.02,31.29
12701,0.2218,-0.0361,0.8904,-6.81,7.95,-0.08,31.31
12711,0.2188,-0.0353,0.891,-6.93,8.03,-0.02,31.32
12721,0.2183,-0.036,0.8888,-6.82,8.03,-0.06,31.32
12731,0.2173,-0.0365,0.8877,-6.72,8.05,-0.15,31.29
12741,0.2159,-0.0353,0.8893,-6.76,8.05,-0.12,31.32
12751,0.2146,-0.0334,0.8879,-6.84,7.92,-0.02,31.27
12761,0.2137,-0.0306,0.8862,-6.82,7.95,-0.03,31.29
12771,0.2174,-0.0348,0.8883,-6.81,7.89,-0.05,31.3
12781,0.218,-0.0344,0.8906,-6.79,7.86,-0.12,31.29
12791,0.2166,-0.0332,0.8899,-6.87,7.95,0.06,31.32
12801,0.2216,-0.0361,0.8896,-6.82,7.92,0.03,31.32
12811,0.2192,-0.0378,0.8909,-6.85,7.94,0.0,31.33
12821,0.2185,-0.0358,0.8875,-6.78,8.02,-0.03,31.31
12831,0.2185,-0.0359,0.8907,-6.82,8.03,-0.08,31.32
12841,0.2147,-0.0325,0.8896,-6.78,8.02,-0.02,31.3
12851,0.2161,-0.0372,0.8839,-6.95,7.98,-0.02,31.33
12861,0.2173,-0.0305,0.8917,-6.85,7.94,-0.06,31.29
12871,0.2153,-0.0319,0.8909,-6.87,8.05,-0.11,31.32
12881,0.2195,-0.0352,0.8932,-6.89,7.89,-0.09,31.29
12891,0.2192,-0.0354,0.8879,-6.76,8.03,0.02,31.31
12901,0.2179,-0.037,0.8887,-6.96,8.02,0.03,31.31
12911,0.2203,-0.0345,0.887,-6.84,8.05,-0.03,31.31
12921,0.2162,-0.04,0.8878,-6.79,8.03,0.05,31.29
12931,0.2174,-0.0375,0.8885,-6.87,8.05,-0.06,31.3
12941,0.2184,-0.0363,0.8887,-6.82,7.98,-0.02,31.29
12951,0.2189,-0.0341,0.885,-6.87,8.02,-0.09,31.33
12961,0.2142,-0.0345,0.8859,-6.9,8.06,-0.09,31.3
12971,0.2173,-0.0361,0.8875,-6.87,8.05,-0.05,31.29
12981,0.2179,-0.0353,0.8881,-6.9,7.98,-0.02,31.32
12991,0.2156,-0.0354,0.8832,-6.75,7.95,-0.05,31.32
13001,0.2147,-0.0306,0.8895,-6.84,7.98,-0.06,31.31
13011,0.2141,-0.0289,0.894,-6.84,8.0,-0.02,31.28
13021,0.2162,-0.0312,0.8925,-6.85,7.97,-0.08,31.33
13031,0.2152,-0.0319,0.8889,-6.87,7.83,0.02,31.31
13041,0.2186,-0.032,0.886,-6.82,7.95,-0.02,31.31
13051,0.2164,-0.037,0.8939,-6.84,7.92,-0.03,31.34
13061,0.2184,-0.0377,0.8845,-6.87,7.97,-0.02,31.3
13071,0.2189,-0.0375,0.89,-6.82,7.97,-0.02,31.3
13081,0.2196,-0.0372,0.894,-6.92,8.02,-0.08,31.3
13091,0.2177,-0.0345,0.8906,-6.81,7.95,-0.06,31.31
13101,0.2186,-0.0361,0.8864,-6.79,7.89,-0.03,31.28
13111,0.2173,-0.032,0.885,-6.92,7.92,0.05,31.31
13121,0.2208,-0.0323,0.8846,-6.79,7.98,-0.08,31.33
13131,0.2186,-0.0321,0.8873,-6.89,8.0,0.03,31.31
13141,0.2145,-0.035,0.8867,-6.92,8.05,-0.05,31.31
13151,0.2159,-0.033,0.8892,-6.85,7.94,-0.06,31.31
13161,0.2159,-0.0364,0.8904,-6.84,7.95,-0.05,31.29
13171,0.2168,-0.0336,0.889,-6.78,8.03,-0.05,31.29
13181,0.2175,-0.0338,0.8899,-6.73,8.0,-0.03,31.29
13191,0.2189,-0.0341,0.8868,-6.81,7.91,0.0,31.31
13201,0.2168,-0.0331,0.8857,-6.84,7.97,-0.05,31.29
13211,0.2178,-0.033,0.8903,-6.82,7.95,-0.02,31.32
13221,0.2191,-0.0322,0.8865,-6.96,7.92,-0.02,31.3
13231,0.2142,-0.0236,0.8868,-6.87,8.26,-0.06,31.29
13241,0.2253,-0.0273,0.856,-6.9,7.51,-0.02,31.31
13251,0.2224,-0.0377,0.8884,-6.64,7.8,-0.06,31.31
13261,0.2327,-0.0438,0.8992,-6.95,7.74,0.02,31.29
13271,0.2242,-0.0361,0.9056,-6.79,8.21,-0.06,31.33
13281,0.2224,-0.0304,0.8956,-6.84,8.18,0.02,31.32
13291,0.2228,-0.0361,0.8868,-6.78,8.09,-0.03,31.3
13301,0.213,-0.0331,0.8821,-6.84,8.12,-0.06,31.32
13311,0.2103,-0.0363,0.8717,-6.85,8.02,-0.03,31.3
13321,0.212,-0.0377,0.8844,-6.73,7.85,-0.11,31.31
13331,0.2173,-0.0325,0.8958,-6.95,7.98,-0.08,31.34
13341,0.2162,-0.0393,0.8916,-6.85,8.05,0.02,31.27
13351,0.2148,-0.0312,0.886,-6.9,8.02,0.02,31.3
13361,0.2217,-0.0261,0.8898,-6.79,7.95,-0.06,31.32
13371,0.22,-0.0251,0.8954,-6.98,8.11,-0.08,31.34
13381,0.2184,-0.0339,0.8855,-6.98,8.11,-0.03,31.33
13391,0.2183,-0.0389,0.8844,-6.89,7.98,-0.05,31.31
13401,0.2147,-0.0417,0.8903,-6.87,7.95,0.03,31.31
13411,0.2195,-0.0417,0.8898,-6.87,7.98,-0.12,31.33
13421,0.2128,-0.0378,0.8871,-6.79,8.06,0.0,31.3
13431,0.2175,-0.033,0.8898,-6.78,7.86,0.05,31.32
13441,0.2205,-0.0315,0.8906,-6.76,7.94,-0.09,31.33
13451,0.2173,-0.0295,0.8877,-6.81,7.97,-0.03,31.32
13461,0.2185,-0.0332,0.8889,-6.75,7.94,-0.02,31.32
13471,0.2157,-0.0365,0.8949,-6.85,7.89,-0.08,31.3
13481,0.2159,-0.0382,0.8906,-6.87,8.0,-0.05,31.32
13491,0.2209,-0.038,0.8882,-6.73,8.05,0.02,31.32
13501,0.2181,-0.0345,0.8846,-6.9,7.97,-0.02,31.3
13511,0.2195,-0.0325,0.8912,-6.82,8.0,-0.08,31.32
13521,0.2196,-0.033,0.8895,-6.81,7.91,-0.05,31.33
13531,0.2179,-0.0348,0.8877,-6.82,7.98,-0.09,31.32
13541,0.2184,-0.0365,0.8856,-6.92,7.95,-0.09,31.29
13551,0.2177,-0.035,0.8862,-6.9,8.0,-0.03,31.3
13561,0.2151,-0.036,0.8901,-6.84,8.06,-0.08,31.31
13571,0.2172,-0.0352,0.8832,-6.82,7.88,-0.06,31.31
13582,0.2184,-0.0345,0.8815,-6.76,7.94,0.03,31.29
13592,0.2179,-0.0347,0.8896,-6.92,8.02,0.0,31.3
13602,0.2159,-0.0331,0.8931,-6.89,7.97,-0.02,31.29
13612,0.2166,-0.0356,0.8881,-6.79,7.97,-0.05,31.29
13622,0.2178,-0.0361,0.8881,-6.81,8.03,-0.11,31.33
13632,0.2174,-0.0355,0.8877,-6.84,8.05,-0.11,31.32
13642,0.2174,-0.0369,0.8851,-6.79,8.02,-0.02,31.32
13652,0.2183,-0.0347,0.8896,-6.82,8.0,-0.11,31.3
13662,0.2161,-0.0327,0.8889,-6.82,7.98,0.02,31.3
13672,0.2162,-0.0305,0.8892,-6.78,8.05,-0.09,31.28
13682,0.2163,-0.0321,0.8889,-6.84,7.98,-0.03,31.3
13692,0.2164,-0.0312,0.8879,-6.9,8.02,-0.08,31.3
13702,0.2163,-0.0327,0.889,-6.89,7.98,0.02,31.32
13712,0.2164,-0.0332,0.8912,-6.81,7.97,-0.06,31.33
13722,0.2219,-0.0338,0.8892,-6.87,7.98,0.0,31.32
13733,0.2159,-0.033,0.8896,-6.87,7.95,-0.03,31.33
13743,0.217,-0.0347,0.8877,-6.9,7.95,-0.05,31.33
13753,0.2211,-0.0326,0.8939,-6.87,8.0,-0.09,31.31
13763,0.218,-0.0369,0.8864,-6.79,8.02,-0.05,31.34
13773,0.2168,-0.0388,0.8943,-6.87,7.98,-0.03,31.31
13783,0.2169,-0.0331,0.8864,-6.81,8.0,-0.02,31.32
13793,0.2191,-0.0345,0.8853,-6.84,8.02,-0.06,31.32
13803,0.2185,-0.0347,0.8889,-6.73,7.86,-0.12,31.3
13813,0.2168,-0.0334,0.8876,-6.79,7.95,0.03,31.31
13823,0.2164,-0.0349,0.8906,-6.9,7.94,0.0,31.32
13833,0.2167,-0.0343,0.887,-6.9,7.97,-0.02,31.32
13843,0.2169,-0.0334,0.8884,-6.85,8.02,0.02,31.33
13853,0.2156,-0.033,0.8864,-6.79,7.92,-0.03,31.32
13863,0.2181,-0.0342,0.8866,-6.82,7.98,0.03,31.32
13873,0.2186,-0.0343,0.8904,-6.76,8.05,0.0,31.32
13883,0.2206,-0.036,0.8868,-6.81,7.92,0.02,31.33
13893,0.2205,-0.0369,0.8898,-6.75,7.95,0.03,31.33
13903,0.1993,-0.0264,0.9038,-6.87,8.49,-0.08,31.32
13913,0.2035,-0.0341,0.8884,-6.76,8.53,-0.05,31.32
13923,0.2183,-0.0387,0.8867,-6.73,7.69,0.03,31.33
13933,0.2311,-0.0358,0.8817,-6.76,7.88,0.0,31.3
13943,0.2267,-0.0397,0.8839,-6.89,7.89,-0.02,31.3
13953,0.2122,-0.0376,0.8839,-6.98,8.06,-0.05,31.32
13963,0.2113,-0.0291,0.8947,-6.75,7.94,-0.11,31.3
13973,0.2208,-0.0291,0.8981,-6.78,7.98,-0.02,31.35
13983,0.2172,-0.0382,0.89,-6.87,8.15,-0.03,31.32
13993,0.2197,-0.0349,0.879,-6.82,7.91,0.02,31.32
14003,0.2202,-0.0302,0.8843,-6.75,7.91,-0.05,31.31
14013,0.2185,-0.0331,0.8965,-6.79,8.08,-0.03,31.33
14023,0.2142,-0.0375,0.8842,-6.87,8.08,-0.02,31.34
14033,0.2168,-0.0356,0.8846,-6.78,7.91,-0.08,31.31
14043,0.2197,-0.032,0.8887,-6.76,7.97,-0.03,31.33
14053,0.2184,-0.0322,0.8894,-6.9,8.02,-0.02,31.31
14063,0.2139,-0.032,0.8793,-6.81,7.97,-0.11,31.33
14073,0.2158,-0.0345,0.8837,-6.87,7.92,-0.06,31.31
14083,0.2197,-0.0355,0.8912,-6.84,8.05,0.02,31.29
14093,0.2197,-0.0367,0.8856,-6.76,7.97,0.0,31.34
14103,0.2192,-0.038,0.8879,-6.76,7.88,-0.09,31.33
14113,0.2201,-0.0371,0.8892,-6.84,7.86,0.02,31.32
14123,0.2184,-0.0356,0.892,-6.81,8.06,0.02,31.35
14133,0.2174,-0.0341,0.8906,-6.9,8.05,-0.09,31.34
14143,0.2146,-0.0348,0.882,-6.84,7.88,-0.05,31.34
14153,0.2159,-0.0341,0.8893,-6.75,7.98,-0.14,31.31
14163,0.2191,-0.0326,0.8895,-6.84,8.0,-0.05,31.32
14173,0.226,-0.0272,0.8923,-6.84,8.03,-0.06,31.33
14183,0.2264,-0.025,0.8921,-6.9,8.03,-0.11,31.3
14193,0.2188,-0.0387,0.8868,-6.81,8.12,-0.06,31.33
14203,0.2053,-0.0533,0.881,-6.85,8.06,-0.05,31.31
14213,0.204,-0.0472,0.8844,-6.69,7.98,0.03,31.3
14223,0.2063,-0.0334,0.8835,-6.78,7.86,0.06,31.3
14233,0.2103,-0.0288,0.8885,-6.78,7.76,0.05,31.33
14243,0.2173,-0.0236,0.89,-6.96,7.73,-0.05,31.33
14253,0.2218,-0.0272,0.895,-6.84,7.83,-0.03,31.3
14263,0.2191,-0.0411,0.8903,-6.87,7.91,-0.2,31.31
14273,0.2216,-0.0397,0.8915,-6.84,7.86,-0.08,31.32
14285,0.2233,-0.0416,0.8857,-6.89,7.91,0.03,31.31
14295,0.2208,-0.0365,0.8882,-6.78,7.91,0.05,31.34
14305,0.2186,-0.0327,0.8838,-6.79,7.92,-0.05,31.31
14315,0.2186,-0.0284,0.8802,-6.93,7.82,-0.05,31.32
14325,0.2135,-0.0293,0.9016,-6.73,8.52,-0.05,31.33
14335,0.207,-0.037,0.9052,-6.92,8.11,-0.09,31.31
14345,0.2146,-0.0349,0.8989,-6.79,8.2,-0.09,31.34
14355,0.2219,-0.0356,0.8964,-6.87,7.94,-0.08,31.33
14365,0.226,-0.0363,0.8877,-6.85,7.86,-0.03,31.34
14375,0.2163,-0.0321,0.8915,-6.87,7.98,-0.12,31.33
14385,0.2159,-0.0328,0.8799,-6.89,7.91,-0.12,31.34
14395,0.212,-0.0371,0.8856,-6.84,7.94,-0.08,31.32
14405,0.2153,-0.032,0.891,-6.84,7.97,-0.02,31.34
14415,0.2155,-0.0345,0.8907,-6.89,8.05,0.0,31.34
14425,0.2177,-0.0364,0.8882,-6.81,7.94,-0.12,31.31
14435,0.2205,-0.0323,0.8903,-6.82,7.95,-0.02,31.32
14445,0.2184,-0.0308,0.8932,-6.85,8.06,-0.03,31.33
14455,0.2159,-0.0366,0.8822,-6.76,8.03,-0.06,31.32
14465,0.2172,-0.0342,0.8879,-6.76,7.94,-0.08,31.32
14475,0.2211,-0.0315,0.8903,-6.87,7.97,-0.09,31.32
14485,0.2158,-0.0358,0.8873,-6.96,7.91,-0.11,31.32
14495,0.2123,-0.0414,0.8818,-6.93,8.02,-0.05,31.33
14505,0.2115,-0.0381,0.8895,-6.79,7.82,-0.05,31.32
14515,0.2188,-0.0314,0.9004,-6.89,7.97,-0.12,31.32
14525,0.2148,-0.0304,0.8878,-6.9,8.02,-0.11,31.33
14535,0.2153,-0.035,0.8802,-6.82,7.98,-0.12,31.32
14545,0.2163,-0.0338,0.8821,-6.82,7.88,-0.09,31.31
14555,0.2197,-0.0337,0.8945,-6.78,7.98,-0.05,31.35
14565,0.2166,-0.0385,0.8878,-6.84,8.06,-0.11,31.33
14575,0.2174,-0.0369,0.8885,-6.81,7.92,0.0,31.31
14585,0.2183,-0.0336,0.8939,-6.75,8.02,-0.05,31.32
14595,0.2172,-0.0308,0.8865,-6.79,8.11,0.0,31.3
14605,0.2124,-0.0343,0.88,-6.89,8.05,-0.05,31.31
14615,0.2169,-0.0348,0.881,-6.85,7.94,-0.08,31.32
14625,0.214,-0.0327,0.8826,-6.79,7.92,-0.02,31.34
14635,0.2161,-0.0386,0.8883,-6.82,7.89,-0.14,31.34
14645,0.2152,-0.0381,0.8887,-6.9,7.98,-0.03,31.32
14655,0.218,-0.0342,0.8926,-6.84,7.98,-0.02,31.34
14665,0.2157,-0.0343,0.891,-6.84,7.94,-0.08,31.34
14675,0.2159,-0.0377,0.8878,-6.92,8.06,-0.06,31.34
14685,0.2164,-0.0358,0.8834,-6.93,7.97,-0.08,31.34
14695,0.2211,-0.0336,0.8961,-6.78,7.97,-0.06,31.32
14705,0.2275,-0.0305,0.8918,-6.76,7.86,-0.03,31.34
14715,0.2173,-0.0365,0.892,-6.89,8.03,-0.03,31.33
14725,0.22,-0.0332,0.8895,-6.82,8.03,0.02,31.34
14735,0.2218,-0.0374,0.8853,-6.87,7.82,-0.06,31.34
14745,0.2174,-0.0377,0.8881,-6.78,8.09,-0.09,31.33
14755,0.2175,-0.0349,0.8885,-6.82,7.95,0.02,31.32
14765,0.2168,-0.0306,0.8881,-6.89,8.02,-0.06,31.33
14775,0.2225,-0.0352,0.8916,-6.87,7.98,-0.12,31.32
14785,0.2172,-0.0353,0.8979,-6.9,8.14,-0.03,31.35
14795,0.2329,-0.0142,0.9076,-7.1,8.09,-0.06,31.33
14806,0.208,-0.0491,0.8699,-6.92,8.34,0.09,31.35
14816,0.2028,-0.0659,0.8727,-6.66,7.89,-0.08,31.33
14826,0.214,-0.0159,0.8882,-6.64,7.92,-0.14,31.33
14836,0.208,-0.0264,0.8999,-6.95,8.03,0.08,31.33
14846,0.2103,-0.0471,0.9009,-6.99,7.85,0.11,31.33
14856,0.2241,-0.0314,0.9071,-7.01,7.86,0.0,31.34
14866,0.2234,-0.0288,0.8851,-7.05,8.14,0.05,31.34
14876,0.2178,-0.0491,0.8754,-6.73,8.03,-0.12,31.32
14886,0.2247,-0.032,0.8826,-6.7,8.02,-0.12,31.32
14897,0.2229,-0.0348,0.881,-6.82,8.26,-0.11,31.32
14908,0.215,-0.049,0.8801,-6.89,8.15,-0.08,31.33
14920,0.2109,-0.0388,0.8864,-6.87,7.92,-0.06,31.34
14930,0.213,-0.0356,0.8915,-6.84,7.91,-0.09,31.34
14940,0.2115,-0.0369,0.896,-6.81,8.03,-0.03,31.32
14950,0.2126,-0.0292,0.8911,-6.78,8.02,-0.05,31.32
14960,0.2098,-0.0244,0.8864,-6.78,7.89,-0.11,31.31
14970,0.2174,-0.026,0.8871,-6.85,7.92,-0.05,31.31
14980,0.2164,-0.0322,0.8846,-6.93,8.0,-0.09,31.34
14990,0.2216,-0.0354,0.8829,-6.93,7.91,0.0,31.33
15000,0.2197,-0.0371,0.8831,-6.81,7.83,-0.02,31.35
15010,0.2229,-0.0292,0.8873,-6.82,8.05,-0.11,31.32
15020,0.2263,-0.0298,0.8838,-6.9,8.02,-0.03,31.34
15030,0.2201,-0.0389,0.8844,-6.9,7.94,-0.03,31.32
15040,0.2135,-0.0399,0.8829,-6.85,8.0,0.05,31.33
15050,0.2115,-0.0371,0.8896,-6.81,8.05,-0.02,31.33
15060,0.2125,-0.0369,0.8873,-6.75,8.03,-0.05,31.33
15070,0.2087,-0.036,0.8893,-6.69,7.89,-0.03,31.33
15080,0.2095,-0.0293,0.8929,-6.78,7.94,-0.02,31.34
15090,0.2126,-0.03,0.8795,-6.9,7.79,-0.03,31.33
15100,0.2107,-0.0343,0.8763,-6.85,7.8,-0.06,31.34
15110,0.215,-0.0381,0.8774,-6.87,7.77,-0.05,31.33
15120,0.2212,-0.0405,0.8868,-6.85,7.85,-0.09,31.34
15130,0.2288,-0.0415,0.8995,-6.81,8.02,-0.06,31.34
15140,0.2242,-0.0339,0.9111,-6.78,8.11,-0.05,31.33
15150,0.2311,-0.0333,0.9006,-6.79,8.12,0.02,31.33
15160,0.2264,-0.0322,0.8904,-6.89,8.08,0.02,31.32
15170,0.2225,-0.0314,0.8876,-6.81,8.14,-0.05,31.28
15180,0.2174,-0.0303,0.8881,-6.81,8.03,-0.02,31.32
15190,0.2108,-0.0308,0.8853,-6.75,8.12,0.0,31.31
15200,0.2075,-0.0316,0.8843,-6.84,7.98,-0.03,31.33
15210,0.2041,-0.0363,0.8885,-6.85,7.91,-0.02,31.33
15220,0.2133,-0.0385,0.8948,-6.84,7.88,0.0,31.32
15230,0.2118,-0.0321,0.8901,-6.85,7.85,0.12,31.34
15240,0.2168,-0.0355,0.8865,-6.92,7.94,-0.05,31.33
15250,0.2212,-0.0391,0.8807,-6.79,7.94,0.02,31.32
15260,0.2197,-0.0426,0.885,-6.84,8.02,-0.03,31.31
15270,0.2245,-0.0428,0.8857,-6.87,8.03,-0.12,31.33
15280,0.2239,-0.0436,0.8845,-6.85,8.0,-0.03,31.33
15290,0.2203,-0.0391,0.8862,-6.79,8.0,0.0,31.33
15300,0.2181,-0.0364,0.8871,-6.82,8.02,-0.03,31.34
15310,0.2129,-0.0326,0.8883,-6.75,8.06,-0.06,31.3
15320,0.2139,-0.0283,0.8844,-6.69,7.86,-0.03,31.32
15330,0.2078,-0.0255,0.8917,-6.63,7.98,-0.11,31.31
15340,0.2152,-0.0315,0.889,-6.73,7.82,-0.09,31.33
15350,0.2118,-0.0366,0.8928,-6.89,7.94,-0.14,31.31
15360,0.2198,-0.0312,0.8892,-6.95,7.92,0.12,31.31
15370,0.2194,-0.0342,0.8903,-6.85,7.76,0.08,31.31
15380,0.2224,-0.0339,0.8956,-6.89,8.0,0.03,31.33
15390,0.2255,-0.0339,0.8885,-6.84,7.86,-0.06,31.34
15400,0.2242,-0.0354,0.8859,-6.9,7.85,-0.03,31.32
15410,0.2163,-0.0437,0.8915,-6.93,8.15,0.06,31.32
15420,0.2256,-0.0431,0.8837,-6.89,7.95,-0.02,31.32
15430,0.219,-0.0391,0.8806,-6.81,7.94,-0.06,31.34
15440,0.2212,-0.0381,0.8798,-6.69,7.91,-0.06,31.34
15450,0.2153,-0.0331,0.8904,-6.73,8.14,-0.08,31.35
15460,0.2109,-0.0303,0.8982,-6.92,8.12,0.02,31.33
15470,0.218,-0.033,0.8892,-6.87,7.97,-0.03,31.32
15480,0.2212,-0.0308,0.8848,-6.9,7.82,-0.06,31.33
15490,0.2086,-0.0273,0.8887,-6.92,8.03,-0.02,31.32
15500,0.2126,-0.0331,0.8845,-6.9,8.37,-0.02,31.31
15510,0.2225,-0.0366,0.8793,-6.9,7.8,-0.03,31.32
15520,0.2162,-0.0332,0.8887,-6.85,7.92,-0.03,31.33
15530,0.2198,-0.0331,0.8966,-6.84,8.0,0.05,31.31
15540,0.2197,-0.04,0.8888,-6.9,7.92,0.03,31.32
15550,0.2269,-0.0337,0.8979,-6.95,8.02,-0.05,31.34
15560,0.2245,-0.0342,0.884,-6.98,8.11,0.02,31.31
15570,0.2068,-0.0504,0.8739,-6.7,8.21,-0.03,31.33
15580,0.2061,-0.0494,0.8755,-6.58,8.05,-0.12,31.34
15590,0.2125,-0.027,0.8884,-6.64,8.06,-0.05,31.32
15600,0.2108,-0.0238,0.8939,-6.93,7.97,0.05,31.32
15610,0.2168,-0.036,0.8984,-6.96,7.83,0.0,31.3
15620,0.2277,-0.0334,0.8896,-6.98,7.82,-0.03,31.3
15630,0.2245,-0.0281,0.8875,-6.72,8.02,-0.03,31.33
15640,0.2233,-0.0366,0.8877,-6.7,8.06,-0.03,31.35
15650,0.2251,-0.0295,0.8872,-6.81,7.94,-0.06,31.35
15660,0.2224,-0.0288,0.8849,-6.84,8.03,0.0,31.35
15670,0.217,-0.0367,0.8888,-6.95,8.06,-0.09,31.33
15680,0.2145,-0.0387,0.8898,-6.93,7.95,0.0,31.31
15690,0.2173,-0.0394,0.892,-6.89,7.91,-0.06,31.31
15700,0.2158,-0.0406,0.8885,-6.84,7.97,-0.06,31.34
15710,0.2161,-0.0338,0.8879,-6.7,8.0,0.05,31.31
15720,0.2135,-0.0288,0.8906,-6.67,8.09,-0.09,31.32
15730,0.2152,-0.0347,0.8859,-6.9,8.08,-0.12,31.34
15741,0.2162,-0.0386,0.8853,-6.89,7.97,-0.02,31.32
15751,0.2173,-0.0416,0.8802,-6.85,7.98,-0.03,31.32
15761,0.215,-0.0385,0.8799,-6.76,7.98,-0.02,31.31
15771,0.2174,-0.0363,0.8938,-6.79,7.92,-0.08,31.33
15781,0.2156,-0.0327,0.8947,-6.76,7.94,-0.03,31.32
15791,0.2209,-0.0298,0.8959,-6.82,7.94,-0.02,31.32
15801,0.2194,-0.0332,0.8907,-6.95,7.94,-0.08,31.33
15811,0.2163,-0.036,0.8846,-6.73,8.0,0.02,31.32
15821,0.217,-0.0389,0.8848,-6.76,7.97,-0.05,31.34
15831,0.2214,-0.0325,0.8895,-6.81,8.0,-0.08,31.33
15841,0.2178,-0.0321,0.8844,-6.78,7.98,-0.02,31.34
15851,0.2191,-0.0348,0.8861,-6.93,8.02,-0.03,31.33
15861,0.2186,-0.0334,0.8895,-6.96,8.02,-0.06,31.34
15871,0.2184,-0.0366,0.8893,-6.96,8.06,-0.06,31.32
15881,0.2122,-0.0422,0.8865,-6.73,8.03,-0.05,31.31
15891,0.2074,-0.0323,0.8903,-6.85,7.94,-0.08,31.32
15901,0.2083,-0.0303,0.8871,-6.63,8.08,-0.06,31.32
15911,0.2074,-0.0282,0.8912,-6.84,7.82,-0.08,31.33
15921,0.2104,-0.0347,0.8917,-6.79,8.09,-0.06,31.34
15931,0.224,-0.0349,0.895,-7.02,7.76,0.02,31.31
15941,0.2301,-0.0334,0.8956,-6.98,7.88,-0.02,31.3
15951,0.2216,-0.0358,0.8875,-6.9,7.95,-0.08,31.33
15961,0.2241,-0.033,0.8838,-6.96,7.85,-0.12,31.34
15971,0.2245,-0.0358,0.8923,-6.76,8.14,-0.12,31.37
15981,0.2209,-0.0431,0.8923,-6.89,8.12,-0.06,31.33
15991,0.2122,-0.0459,0.8784,-6.82,8.0,-0.09,31.31
16001,0.215,-0.0309,0.891,-6.87,7.91,-0.05,31.33
16011,0.2118,-0.031,0.8905,-6.9,8.08,0.03,31.33
16021,0.215,-0.0315,0.8855,-6.76,7.95,0.02,31.34
16031,0.2166,-0.0312,0.889,-6.79,7.86,-0.08,31.32
16041,0.2198,-0.0344,0.8925,-6.89,7.92,-0.05,31.32
16051,0.2174,-0.0386,0.8867,-6.85,7.91,0.0,31.34
16061,0.217,-0.0375,0.8804,-6.85,7.92,-0.06,31.32
16071,0.2203,-0.0354,0.8835,-6.84,8.02,-0.09,31.31
16081,0.2234,-0.0332,0.8853,-6.98,8.02,-0.02,31.32
16091,0.2208,-0.0359,0.8838,-6.87,8.0,-0.02,31.34
16101,0.2201,-0.0365,0.8914,-6.89,7.92,-0.06,31.34
16111,0.2156,-0.036,0.8964,-6.78,7.98,-0.02,31.35
16121,0.2189,-0.0317,0.8892,-6.89,8.05,0.0,31.33
16131,0.2145,-0.0345,0.8828,-6.78,7.89,-0.03,31.32
16141,0.2136,-0.0343,0.8905,-6.84,7.97,0.03,31.34
16151,0.2146,-0.033,0.8838,-6.84,7.88,0.02,31.34
16161,0.2141,-0.037,0.8882,-6.81,7.88,-0.09,31.34
16171,0.2173,-0.0374,0.8855,-6.85,7.91,-0.02,31.32
16181,0.2211,-0.0404,0.8851,-6.75,8.02,0.02,31.34
16191,0.2255,-0.0389,0.8892,-6.76,8.02,-0.14,31.34
16201,0.2245,-0.0376,0.8882,-6.66,7.95,-0.05,31.33
16211,0.2242,-0.0417,0.884,-6.69,8.05,-0.08,31.35
16221,0.225,-0.0398,0.8885,-6.76,7.97,-0.12,31.34
16231,0.2057,-0.0271,0.8945,-6.81,8.2,0.03,31.32
16241,0.1954,-0.0411,0.8824,-6.76,8.02,0.02,31.34
16251,0.1981,-0.0293,0.8829,-6.79,7.74,0.0,31.34
16261,0.1982,-0.0187,0.8966,-6.85,7.95,0.08,31.33
16271,0.2196,-0.0223,0.8934,-6.96,7.92,0.0,31.34
16281,0.2174,-0.0261,0.8927,-6.92,7.83,-0.05,31.35
16291,0.224,-0.0375,0.8993,-6.89,7.69,0.03,31.32
16301,0.2283,-0.0426,0.8934,-6.99,7.89,0.0,31.35
16311,0.2269,-0.042,0.8853,-6.78,8.03,-0.06,31.34
16321,0.2228,-0.0402,0.8793,-6.76,7.79,-0.02,31.34
16331,0.2263,-0.0344,0.8833,-6.81,7.97,-0.09,31.35
16341,0.2205,-0.0332,0.8838,-6.87,8.03,0.02,31.35
16351,0.2228,-0.0359,0.8826,-6.87,7.94,-0.06,31.32
16361,0.2181,-0.033,0.8918,-6.87,7.86,-0.2,31.33
16371,0.2209,-0.0339,0.896,-6.87,8.03,-0.03,31.35
16381,0.2146,-0.0398,0.8932,-6.72,7.98,0.02,31.32
16391,0.2122,-0.0386,0.8922,-6.79,8.03,0.0,31.33
16401,0.2125,-0.0341,0.8951,-6.81,7.95,0.06,31.32
16411,0.21,-0.0312,0.8898,-6.92,7.92,-0.05,31.35
16421,0.2108,-0.0281,0.8789,-6.89,7.95,0.02,31.36
16431,0.2173,-0.0337,0.8881,-6.93,7.83,0.05,31.36
16441,0.2208,-0.0352,0.8943,-6.81,7.98,-0.06,31.34
16451,0.2207,-0.0343,0.8883,-6.84,8.0,-0.05,31.36
16461,0.2288,-0.0393,0.8855,-6.85,7.94,-0.08,31.34
16471,0.2288,-0.0403,0.892,-6.84,8.06,0.0,31.35
16481,0.2164,-0.0381,0.8788,-6.9,8.12,-0.09,31.33
16491,0.2126,-0.0405,0.8824,-6.82,8.18,0.05,31.35
16501,0.2137,-0.0371,0.8862,-6.84,8.02,-0.08,31.33
16511,0.2122,-0.028,0.886,-6.75,7.97,-0.02,31.32
16521,0.2115,-0.0297,0.8926,-6.84,7.98,-0.05,31.35
16531,0.2183,-0.0293,0.8896,-6.81,7.92,-0.06,31.34
16541,0.2196,-0.0292,0.8945,-6.73,7.89,-0.05,31.34
16551,0.2256,-0.037,0.8915,-6.84,8.03,0.0,31.32
16561,0.2369,-0.0354,0.891,-6.84,8.11,-0.06,31.32
16571,0.2352,-0.0326,0.8901,-6.82,8.18,-0.06,31.35
16581,0.2202,-0.0388,0.8799,-6.84,8.11,-0.03,31.33
16591,0.2052,-0.0383,0.882,-6.79,8.05,0.02,31.32
16601,0.1932,-0.0393,0.8765,-6.92,8.08,0.08,31.36
16611,0.1892,-0.0461,0.8781,-6.84,7.88,-0.08,31.34
16621,0.1989,-0.0405,0.8861,-6.81,7.76,-0.05,31.33
16631,0.2091,-0.0366,0.8914,-6.89,7.83,-0.09,31.32
16642,0.2212,-0.0334,0.9012,-6.72,7.82,-0.09,31.34
16652,0.2284,-0.0343,0.9017,-6.79,7.8,-0.11,31.32
16662,0.2283,-0.0309,0.8944,-6.78,7.95,0.0,31.37
16672,0.229,-0.0311,0.8871,-6.84,8.06,-0.06,31.32
16682,0.2261,-0.0319,0.8781,-6.89,8.02,-0.06,31.33
16692,0.2211,-0.0317,0.8779,-6.87,8.05,-0.03,31.35
16702,0.2217,-0.0311,0.88,-6.85,7.95,-0.06,31.36
16712,0.2203,-0.0343,0.8893,-6.85,8.02,-0.03,31.33
16722,0.2155,-0.0388,0.8915,-6.9,8.03,0.05,31.33
16732,0.2123,-0.043,0.8942,-6.82,8.06,0.11,31.32
16742,0.2147,-0.037,0.8934,-6.99,8.0,-0.02,31.34
16752,0.2102,-0.0369,0.8901,-6.87,7.95,-0.02,31.32
16762,0.2109,-0.0327,0.8882,-6.85,8.0,0.0,31.33
16772,0.2113,-0.0345,0.8888,-6.92,7.95,-0.05,31.35
16782,0.2145,-0.0339,0.8848,-6.84,7.98,-0.08,31.34
16792,0.2192,-0.0361,0.8864,-6.87,7.94,-0.03,31.33
16802,0.2196,-0.0404,0.8895,-6.9,7.98,-0.11,31.35
16812,0.2197,-0.0422,0.8937,-6.96,7.95,-0.02,31.33
16822,0.2211,-0.0367,0.8911,-6.75,7.98,0.02,31.32
16832,0.22,-0.0303,0.8903,-6.87,8.06,0.03,31.34
16842,0.2211,-0.0254,0.8894,-6.82,8.0,-0.09,31.34
16852,0.2168,-0.0258,0.884,-6.79,7.97,0.0,31.34
16862,0.217,-0.0319,0.8872,-6.78,8.0,-0.02,31.33
16872,0.2153,-0.0361,0.8864,-6.82,8.06,-0.02,31.32
16882,0.2112,-0.0361,0.887,-6.9,8.06,-0.14,31.33
16892,0.2122,-0.0428,0.8855,-6.82,7.94,-0.06,31.33
16902,0.2152,-0.0404,0.8934,-6.81,7.97,-0.12,31.35
16912,0.2131,-0.0375,0.8921,-6.92,7.98,-0.05,31.33
16922,0.212,-0.0349,0.8848,-6.81,7.89,-0.02,31.34
16932,0.2163,-0.0305,0.8881,-6.89,7.92,-0.05,31.34
16944,0.2189,-0.0328,0.889,-6.81,7.95,-0.11,31.34
16954,0.2189,-0.0344,0.8899,-6.75,7.92,-0.06,31.34
16964,0.2214,-0.0392,0.8878,-6.79,7.92,-0.06,31.32
16974,0.2189,-0.0397,0.8909,-6.87,7.94,-0.12,31.36
16984,0.2188,-0.0385,0.8887,-6.81,7.97,-0.02,31.34
16994,0.2162,-0.0375,0.885,-6.79,7.94,-0.05,31.34
17004,0.2173,-0.0344,0.886,-6.89,7.88,-0.06,31.33
17014,0.2185,-0.0299,0.8917,-6.87,7.97,-0.08,31.35
17024,0.2191,-0.0305,0.8939,-6.87,8.08,-0.06,31.34
17034,0.2196,-0.0319,0.8932,-6.79,8.06,-0.09,31.36
17044,0.2169,-0.0354,0.8916,-6.79,8.0,0.0,31.36
17054,0.2225,-0.036,0.8892,-6.85,8.08,0.0,31.35
17064,0.2203,-0.0344,0.8903,-6.76,7.95,-0.02,31.36
17074,0.215,-0.0378,0.8829,-6.78,8.11,-0.05,31.34
17084,0.2135,-0.0353,0.8811,-6.85,8.02,-0.02,31.33
17094,0.2126,-0.0334,0.889,-6.76,8.05,0.06,31.34
17105,0.214,-0.0334,0.8867,-6.73,8.02,-0.06,31.33
17115,0.2163,-0.0387,0.8851,-6.78,7.91,-0.03,31.33
17125,0.218,-0.0718,0.8756,-6.85,7.92,0.02,31.33
17135,0.2207,-0.0299,0.8939,-6.79,7.83,0.06,31.34
17145,0.2252,-0.0105,0.9081,-6.73,7.92,-0.17,31.34
17155,0.2202,-0.0117,0.8995,-6.76,8.02,-0.06,31.35
17165,0.2175,-0.0355,0.8781,-6.85,7.89,-0.14,31.34
17175,0.2126,-0.0409,0.8846,-6.9,7.92,-0.12,31.36
17185,0.2146,-0.0391,0.8843,-6.85,8.23,-0.03,31.33
17195,0.2139,-0.0414,0.8785,-6.92,8.0,0.03,31.37
17205,0.2125,-0.0334,0.8823,-6.69,7.82,-0.02,31.34
17215,0.2181,-0.027,0.8884,-6.85,7.89,-0.02,31.35
17225,0.213,-0.0276,0.891,-6.89,7.89,-0.09,31.35
17235,0.2156,-0.0386,0.8926,-6.85,7.97,-0.09,31.35
17245,0.2181,-0.0343,0.8909,-6.9,8.0,-0.09,31.35
17255,0.2229,-0.0392,0.8907,-6.84,7.92,-0.03,31.35
17265,0.2222,-0.0381,0.8936,-6.85,7.98,-0.09,31.34
17275,0.2185,-0.0364,0.884,-6.82,7.92,-0.03,31.34
17285,0.219,-0.0328,0.8822,-6.76,7.98,0.05,31.33
17295,0.2191,-0.0348,0.8918,-6.82,7.97,0.08,31.35
17305,0.2158,-0.0319,0.8882,-6.9,8.02,-0.02,31.34
17315,0.2158,-0.0336,0.8893,-6.95,7.92,-0.02,31.38
17325,0.2141,-0.0364,0.8955,-6.72,8.0,-0.09,31.36
17335,0.2162,-0.0325,0.8848,-6.75,7.98,-0.03,31.37
17345,0.2186,-0.0358,0.8834,-6.75,7.97,-0.02,31.36
17355,0.2169,-0.0345,0.8872,-6.89,7.92,0.05,31.34
17365,0.2166,-0.0304,0.8882,-6.84,7.98,-0.02,31.35
17375,0.2189,-0.0333,0.8895,-6.93,7.91,-0.03,31.34
17385,0.2174,-0.037,0.8862,-6.89,7.92,0.0,31.34
17395,0.2186,-0.0366,0.8918,-6.87,7.92,-0.03,31.35
17405,0.2167,-0.0323,0.8884,-6.87,8.02,-0.06,31.36
17415,0.2188,-0.0367,0.8912,-6.73,7.98,-0.14,31.34
17425,0.2188,-0.0374,0.8876,-6.81,8.02,-0.05,31.37
17435,0.2179,-0.0377,0.8855,-6.81,8.02,-0.08,31.34
17445,0.2164,-0.0331,0.8877,-6.92,8.0,0.02,31.35
17455,0.2185,-0.0334,0.8892,-6.85,7.98,-0.11,31.35
17465,0.2202,-0.0309,0.8842,-6.9,8.05,-0.06,31.33
17475,0.2175,-0.0366,0.8838,-6.87,7.92,-0.05,31.35
17485,0.218,-0.0342,0.8837,-6.87,8.05,-0.08,31.33
17495,0.2191,-0.0365,0.885,-6.84,7.95,-0.09,31.35
17505,0.2181,-0.0367,0.8855,-6.87,8.0,-0.06,31.33
17515,0.2189,-0.0363,0.8905,-6.87,7.97,-0.09,31.33
17525,0.2212,-0.0336,0.8931,-6.9,7.94,-0.03,31.36
17535,0.2185,-0.0352,0.8906,-6.81,7.94,-0.08,31.36
17545,0.2188,-0.0321,0.8906,-6.87,8.02,0.03,31.36
17555,0.2178,-0.0332,0.8917,-6.87,8.06,-0.03,31.35
17565,0.2155,-0.0344,0.8872,-6.84,7.97,-0.11,31.38
17575,0.2146,-0.0348,0.887,-6.69,7.97,-0.03,31.34
17585,0.2144,-0.036,0.8903,-6.84,7.92,-0.05,31.35
17595,0.2172,-0.0283,0.8826,-6.79,7.95,-0.05,31.36
17605,0.2223,-0.021,0.8831,-7.05,7.98,-0.02,31.33
17615,0.2203,-0.0448,0.8871,-6.99,8.11,0.03,31.35
17625,0.2135,-0.0459,0.8818,-6.81,8.0,0.02,31.35
17635,0.2141,-0.0282,0.8909,-6.7,7.94,-0.14,31.36
17645,0.2145,-0.0314,0.8923,-6.84,7.91,0.06,31.35
17655,0.2167,-0.052,0.8951,-6.99,8.03,0.03,31.35
17665,0.2152,-0.0479,0.886,-6.9,7.94,0.02,31.35
17675,0.2189,-0.0366,0.8871,-6.75,7.86,-0.02,31.36
17685,0.2172,-0.0376,0.8766,-6.64,7.97,-0.06,31.36
17695,0.2172,-0.0311,0.8799,-6.72,7.88,-0.08,31.34
17705,0.2217,-0.0244,0.8927,-6.85,7.86,-0.12,31.33
17715,0.2238,-0.0316,0.897,-6.75,8.05,-0.02,31.33
17725,0.2234,-0.0338,0.8959,-6.92,7.88,-0.06,31.34
17735,0.2205,-0.0312,0.8915,-6.85,8.15,-0.09,31.37
17745,0.2119,-0.0371,0.8885,-6.79,8.08,-0.08,31.36
17755,0.2148,-0.0347,0.8777,-6.72,8.0,-0.05,31.38
17765,0.2124,-0.0358,0.887,-6.75,7.89,-0.08,31.36
17775,0.2197,-0.0326,0.8817,-6.92,7.89,0.05,31.35
17785,0.2217,-0.0356,0.8882,-6.93,7.89,-0.02,31.35
17795,0.2207,-0.0369,0.8881,-6.92,8.0,-0.06,31.36
17805,0.22,-0.0348,0.8832,-6.82,8.05,-0.05,31.34
17815,0.2189,-0.0364,0.8878,-6.75,8.02,-0.09,31.37
17825,0.2175,-0.0371,0.8938,-6.79,8.02,-0.06,31.35
17835,0.2167,-0.0378,0.8906,-6.82,8.03,0.02,31.37
17845,0.2075,-0.0378,0.8893,-6.92,7.95,-0.02,31.36
17855,0.2081,-0.0356,0.8907,-6.76,8.0,-0.12,31.35
17865,0.2102,-0.0326,0.8887,-6.79,7.94,0.0,31.34
17875,0.2147,-0.0322,0.8872,-6.75,7.94,-0.02,31.36
17885,0.2175,-0.0316,0.8884,-6.81,7.95,-0.03,31.36
17895,0.2181,-0.0317,0.8905,-6.84,7.97,-0.12,31.35
17905,0.2192,-0.0327,0.8864,-6.81,7.92,-0.09,31.37
17915,0.2223,-0.0386,0.8833,-6.87,7.89,-0.06,31.37
17925,0.2209,-0.0396,0.8838,-6.84,7.98,-0.02,31.35
17935,0.2207,-0.0386,0.8921,-6.79,8.09,-0.08,31.38
17945,0.2218,-0.0365,0.892,-6.84,8.03,-0.14,31.34
17955,0.2183,-0.0371,0.8895,-6.82,7.89,-0.03,31.34
17965,0.2196,-0.0345,0.891,-6.92,7.98,0.05,31.35
17975,0.2153,-0.0345,0.8904,-6.81,7.97,0.08,31.35
17985,0.218,-0.0325,0.8915,-6.72,8.0,-0.02,31.37
17995,0.2024,-0.0382,0.8969,-6.67,7.85,-0.11,31.37
18005,0.2131,-0.0337,0.8993,-6.85,7.54,-0.03,31.34
18015,0.2249,-0.0215,0.8917,-6.92,7.94,0.0,31.35
18025,0.2166,-0.0326,0.8783,-6.84,7.98,0.0,31.35
18035,0.2142,-0.0437,0.8677,-6.79,7.74,-0.11,31.36
18045,0.2177,-0.0247,0.8882,-6.81,7.88,-0.08,31.38
18055,0.2169,-0.035,0.8884,-6.9,8.14,-0.09,31.37
18065,0.2168,-0.0369,0.8757,-6.75,7.91,-0.02,31.34
18075,0.2227,-0.0297,0.8901,-6.81,7.79,0.05,31.33
18085,0.2255,-0.0367,0.9025,-6.82,7.92,0.02,31.35
18095,0.2209,-0.0343,0.8912,-6.92,8.02,-0.14,31.37
18105,0.2133,-0.0348,0.8776,-6.82,7.97,-0.11,31.33
18115,0.2123,-0.0393,0.8861,-6.84,7.91,-0.03,31.35
18125,0.2141,-0.0437,0.8877,-6.73,8.09,-0.02,31.37
18135,0.2129,-0.0417,0.8793,-6.9,7.94,0.0,31.36
18145,0.2161,-0.0369,0.8843,-6.81,7.85,0.0,31.33
18155,0.2174,-0.0312,0.8857,-6.89,7.91,-0.05,31.35
18165,0.218,-0.0232,0.8892,-6.81,7.98,-0.02,31.37
18175,0.2195,-0.0242,0.8833,-6.76,7.91,-0.14,31.35
18185,0.2253,-0.0323,0.9026,-6.81,7.88,-0.11,31.35
18195,0.2263,-0.0399,0.9061,-6.93,8.12,-0.12,31.38
18205,0.2202,-0.0417,0.8986,-6.87,8.08,-0.05,31.38
18215,0.2202,-0.0442,0.8881,-6.78,8.02,-0.03,31.35
18225,0.2181,-0.0411,0.8848,-6.78,8.02,0.05,31.35
18235,0.2186,-0.0361,0.8804,-6.79,8.08,0.0,31.34
18245,0.2146,-0.0325,0.8824,-6.7,7.98,0.03,31.34
18255,0.2147,-0.0306,0.8885,-6.78,8.05,-0.06,31.38
18265,0.2169,-0.0281,0.8954,-6.87,8.03,0.02,31.37
18275,0.2102,-0.0261,0.8859,-6.75,7.94,0.02,31.34
18285,0.22,-0.0322,0.8828,-6.81,7.86,-0.11,31.36
18295,0.2133,-0.0349,0.8867,-6.9,8.06,0.0,31.37
18305,0.2213,-0.0389,0.8884,-6.85,8.0,-0.05,31.35
18315,0.2218,-0.0378,0.8975,-6.95,8.11,-0.03,31.35
18325,0.2186,-0.0405,0.8901,-6.82,8.02,-0.12,31.35
18335,0.2249,-0.0375,0.8895,-6.93,8.0,-0.05,31.32
18345,0.2205,-0.0363,0.8839,-6.76,8.12,-0.06,31.35
18355,0.2211,-0.0354,0.8757,-6.85,7.88,-0.03,31.35
18365,0.2218,-0.0365,0.8923,-6.87,7.86,-0.09,31.36
18375,0.2207,-0.0382,0.8951,-6.84,8.11,-0.14,31.34
18385,0.2155,-0.0415,0.886,-6.78,8.14,-0.03,31.35
18395,0.2175,-0.0389,0.8922,-6.7,7.91,0.05,31.34
18405,0.2216,-0.024,0.885,-6.9,8.03,0.02,31.36
18415,0.2174,-0.0225,0.8821,-6.9,8.02,0.02,31.35
18425,0.2162,-0.0276,0.8861,-6.89,7.97,0.0,31.39
18435,0.2136,-0.0365,0.8877,-6.75,8.03,-0.14,31.37
18445,0.217,-0.0415,0.8894,-6.79,8.03,-0.09,31.35
18455,0.2148,-0.0369,0.8854,-6.85,8.0,-0.03,31.36
18465,0.2169,-0.0381,0.8799,-6.85,8.08,-0.06,31.37
18475,0.2177,-0.0363,0.8861,-6.92,7.89,0.03,31.35
18485,0.2189,-0.0386,0.89,-6.9,7.95,-0.02,31.35
18495,0.2231,-0.0446,0.8912,-6.72,7.85,-0.08,31.35
18505,0.2186,-0.0385,0.894,-6.79,8.03,0.0,31.4
18515,0.2207,-0.0302,0.8977,-6.7,7.95,-0.05,31.37
18525,0.2216,-0.021,0.8879,-6.87,7.95,-0.05,31.36
18535,0.2146,-0.0269,0.8839,-6.89,7.94,-0.08,31.36
18545,0.2217,-0.0287,0.8895,-6.82,8.02,-0.09,31.36
18555,0.2163,-0.037,0.8862,-6.92,8.06,-0.11,31.36
18565,0.2153,-0.0405,0.8856,-6.81,8.12,0.02,31.37
18575,0.2139,-0.0399,0.8783,-6.92,8.12,-0.03,31.37
18585,0.2167,-0.0331,0.889,-6.92,8.02,-0.05,31.38
18595,0.219,-0.0314,0.8893,-6.93,7.83,-0.08,31.36
18605,0.2206,-0.0389,0.8906,-6.81,7.92,0.0,31.36
18615,0.2183,-0.0394,0.8928,-6.82,7.97,-0.03,31.35
18625,0.2118,-0.0366,0.8967,-6.84,8.03,-0.12,31.36
18635,0.2173,-0.0342,0.892,-6.78,8.02,-0.08,31.34
18645,0.2166,-0.0349,0.8894,-6.82,8.06,-0.12,31.38
18655,0.2125,-0.0417,0.8843,-6.76,8.06,-0.02,31.35
18665,0.2167,-0.0453,0.8884,-6.92,7.94,0.09,31.37
18675,0.2224,-0.0349,0.8904,-6.87,7.77,0.08,31.36
18685,0.2225,-0.0223,0.8867,-6.73,7.95,-0.06,31.38
18695,0.2155,-0.0195,0.8871,-6.85,8.02,-0.11,31.37
18705,0.2162,-0.0254,0.8799,-6.79,8.11,-0.06,31.36
18715,0.2142,-0.0371,0.8895,-6.84,8.03,-0.09,31.35
18725,0.2152,-0.0446,0.8872,-6.87,8.09,-0.15,31.38
18735,0.2213,-0.0446,0.8878,-6.89,7.97,0.02,31.36
18745,0.2188,-0.0354,0.8887,-6.79,7.98,0.06,31.36
18755,0.2216,-0.0283,0.8921,-6.75,7.95,0.05,31.34
18765,0.2186,-0.0292,0.8906,-6.84,8.03,0.06,31.34
18775,0.2209,-0.0319,0.8881,-6.81,7.95,-0.06,31.37
18785,0.2209,-0.036,0.889,-6.96,8.0,-0.12,31.37
18795,0.2181,-0.0396,0.8871,-6.82,8.08,-0.12,31.36
18805,0.218,-0.0442,0.8842,-6.73,8.05,-0.03,31.36
18815,0.2178,-0.0344,0.8844,-6.85,7.97,-0.11,31.36
18825,0.2139,-0.0331,0.8884,-6.76,8.08,-0.03,31.34
18835,0.2125,-0.0325,0.8882,-6.79,7.89,0.02,31.38
18845,0.2147,-0.0323,0.8889,-6.84,7.88,-0.05,31.39
18855,0.2157,-0.0298,0.8901,-6.79,8.06,-0.03,31.35
18865,0.2168,-0.0383,0.8896,-6.93,8.03,-0.08,31.37
18875,0.2168,-0.0402,0.8911,-6.82,8.05,-0.03,31.36
18885,0.2153,-0.0402,0.889,-6.79,7.97,0.02,31.36
18895,0.2172,-0.0414,0.8861,-6.76,7.89,-0.05,31.35
18905,0.2177,-0.04,0.8868,-6.82,7.88,0.0,31.36
18915,0.2188,-0.0283,0.8832,-6.78,7.95,0.05,31.35
18925,0.2168,-0.0328,0.8921,-6.81,7.89,-0.05,31.39
18935,0.2177,-0.0299,0.8958,-6.84,8.05,-0.02,31.37
18945,0.2181,-0.0341,0.8918,-6.85,8.03,-0.05,31.37
18955,0.22,-0.035,0.887,-6.93,7.98,-0.03,31.35
18965,0.219,-0.037,0.8846,-6.84,7.95,0.03,31.35
18975,0.2162,-0.0345,0.885,-6.87,7.94,-0.06,31.37
18985,0.2161,-0.0337,0.8884,-6.75,7.98,-0.06,31.38
18995,0.2233,-0.0333,0.8895,-6.76,7.89,-0.08,31.36
19005,0.2198,-0.0325,0.884,-6.89,7.97,-0.08,31.37
19015,0.2156,-0.0366,0.8867,-6.82,7.98,-0.03,31.4
19025,0.2157,-0.0394,0.8883,-6.75,8.0,0.0,31.37
19035,0.2188,-0.0337,0.8856,-6.79,7.94,0.08,31.38
19045,0.2152,-0.0353,0.8928,-6.75,7.95,-0.05,31.36
19055,0.2173,-0.0337,0.89,-6.9,7.97,-0.06,31.35
19065,0.2186,-0.0343,0.8929,-6.85,7.98,-0.06,31.37
19075,0.2183,-0.0345,0.89,-6.85,7.85,-0.05,31.36
19085,0.2161,-0.0344,0.8883,-6.9,8.0,-0.03,31.35
19095,0.2159,-0.032,0.8916,-6.75,8.08,-0.14,31.35
19105,0.2189,-0.0356,0.8907,-6.92,7.92,-0.09,31.34
19115,0.2175,-0.0391,0.8856,-6.84,7.94,0.02,31.38
19125,0.2208,-0.0345,0.8853,-6.85,7.92,-0.05,31.36
19135,0.2213,-0.0405,0.8882,-6.84,7.97,-0.06,31.37
19145,0.2191,-0.0297,0.8966,-6.93,8.02,-0.02,31.34
19155,0.2245,-0.0311,0.8905,-6.9,8.12,-0.08,31.34
19165,0.2244,-0.0319,0.8907,-6.85,7.94,-0.05,31.37
19175,0.2211,-0.0363,0.8876,-6.9,8.0,-0.08,31.38
19186,0.2142,-0.0425,0.8888,-6.93,7.98,-0.03,31.37
19196,0.2126,-0.0388,0.8829,-6.76,7.95,0.03,31.37
19206,0.2114,-0.0398,0.8817,-6.87,8.05,-0.12,31.4
19217,0.214,-0.0386,0.8839,-6.76,7.95,-0.09,31.37
19227,0.2174,-0.027,0.887,-6.84,8.08,0.05,31.37
19239,0.2195,-0.0283,0.887,-6.79,7.98,0.0,31.36
19249,0.2216,-0.0302,0.8892,-6.84,8.05,0.03,31.37
19259,0.2195,-0.0356,0.8962,-6.85,7.98,-0.05,31.36
19269,0.2223,-0.0348,0.8929,-6.89,7.98,-0.09,31.37
19279,0.2201,-0.0358,0.8927,-6.79,8.05,-0.15,31.36
19289,0.2214,-0.0364,0.8893,-6.81,8.08,-0.05,31.37
19299,0.2228,-0.0369,0.8883,-6.87,8.06,-0.03,31.35
19309,0.2172,-0.0363,0.8896,-6.85,8.05,-0.08,31.37
19319,0.218,-0.0337,0.886,-6.76,8.12,-0.06,31.37
19329,0.2158,-0.0367,0.8939,-6.87,8.09,-0.08,31.36
19340,0.2203,-0.0371,0.8925,-6.85,8.09,-0.05,31.35
19350,0.22,-0.0421,0.8889,-6.78,8.14,0.0,31.36
19360,0.2163,-0.0361,0.8894,-6.76,8.2,-0.15,31.35
19370,0.2122,-0.0369,0.8792,-6.87,8.12,0.0,31.39
19380,0.2072,-0.021,0.8749,-6.82,8.26,0.09,31.36
19390,0.2031,-0.0242,0.8765,-6.95,8.09,-0.06,31.36
19400,0.2102,-0.0332,0.8768,-6.96,7.79,-0.05,31.37
19410,0.22,-0.0316,0.8893,-6.92,7.92,-0.03,31.35
19420,0.2205,-0.041,0.89,-6.84,7.92,0.03,31.37
19430,0.22,-0.0413,0.8896,-6.84,7.95,-0.03,31.37
19440,0.2188,-0.038,0.8915,-6.72,7.98,0.0,31.37
19450,0.218,-0.0354,0.8881,-6.79,7.98,0.0,31.38
19460,0.2156,-0.0356,0.8895,-6.87,7.97,-0.05,31.36
19470,0.2186,-0.0338,0.8914,-6.85,7.94,-0.05,31.37
19480,0.22,-0.0349,0.8906,-6.79,7.97,-0.17,31.36
19490,0.2201,-0.0371,0.8873,-6.81,7.86,-0.03,31.34
19500,0.2196,-0.0359,0.889,-6.85,7.91,-0.05,31.37
19510,0.2222,-0.0354,0.8904,-6.87,8.0,-0.05,31.36
19521,0.2177,-0.0304,0.8882,-6.85,8.08,-0.03,31.36
19531,0.2184,-0.0348,0.8855,-6.87,7.98,0.05,31.37
19541,0.2157,-0.035,0.8881,-6.79,8.0,0.02,31.37
19551,0.2147,-0.036,0.8879,-6.82,7.98,-0.14,31.39
19561,0.2163,-0.0369,0.8848,-6.87,7.97,-0.02,31.39
19571,0.2178,-0.0347,0.8899,-6.87,8.05,-0.06,31.39
19581,0.2161,-0.0377,0.8887,-6.76,7.94,-0.02,31.37
19591,0.2163,-0.0338,0.887,-6.79,7.97,-0.05,31.39
19601,0.2195,-0.031,0.882,-6.75,7.89,-0.09,31.36
19611,0.2172,-0.036,0.8861,-6.84,7.89,-0.05,31.38
19621,0.2191,-0.0391,0.8868,-6.98,7.88,0.03,31.36
19631,0.2179,-0.0321,0.8845,-6.87,7.95,-0.05,31.36
19641,0.2164,-0.0293,0.8829,-6.85,7.94,-0.02,31.36
19651,0.2131,-0.0352,0.8885,-6.89,7.91,-0.08,31.39
19661,0.2169,-0.0294,0.8884,-6.87,8.05,0.06,31.37
19671,0.2145,-0.0333,0.8921,-6.84,8.03,0.02,31.34
19681,0.2161,-0.0317,0.8916,-6.92,7.97,-0.14,31.35
19691,0.2168,-0.0349,0.8906,-6.82,8.0,0.02,31.37
19702,0.2179,-0.0349,0.8931,-6.85,7.95,-0.03,31.37
19712,0.2178,-0.042,0.8887,-6.9,7.97,0.0,31.39
19722,0.2144,-0.038,0.8842,-6.85,7.94,-0.02,31.37
19732,0.2157,-0.0361,0.8857,-6.76,7.89,-0.03,31.37
19742,0.2115,-0.0338,0.8862,-6.93,8.02,-0.05,31.39
19752,0.2151,-0.0333,0.889,-6.81,7.97,-0.08,31.39
19762,0.2178,-0.0297,0.8905,-6.73,7.98,-0.05,31.39
19772,0.2196,-0.0278,0.8885,-6.78,8.0,-0.08,31.37
19782,0.2201,-0.0322,0.8888,-6.82,7.97,-0.14,31.37
19792,0.2196,-0.0345,0.891,-6.89,7.92,-0.11,31.37
19802,0.219,-0.0363,0.8868,-6.82,8.02,-0.09,31.38
19812,0.2216,-0.0344,0.885,-6.87,7.98,-0.03,31.37
19822,0.2218,-0.0369,0.8887,-6.73,7.97,-0.05,31.36
19832,0.225,-0.0365,0.89,-6.81,7.97,0.0,31.36
19842,0.2229,-0.0356,0.8879,-6.81,7.92,0.03,31.37
19852,0.2207,-0.0336,0.8906,-6.78,7.92,0.05,31.35
19862,0.2209,-0.0305,0.8868,-6.82,7.89,0.06,31.38
19872,0.2184,-0.0328,0.8906,-6.84,7.98,0.05,31.36
19882,0.2159,-0.0367,0.8878,-6.82,8.0,0.02,31.4
19892,0.2135,-0.0381,0.8848,-6.78,7.94,-0.02,31.39
19902,0.2159,-0.0396,0.8873,-6.9,8.02,-0.09,31.39
19912,0.2163,-0.0413,0.8906,-6.82,7.97,0.05,31.37
19922,0.2174,-0.037,0.8905,-6.92,7.92,-0.08,31.37
19932,0.2158,-0.0367,0.8911,-6.89,7.92,0.0,31.38
19942,0.2174,-0.0386,0.8887,-6.89,7.91,-0.03,31.37
19952,0.2164,-0.0367,0.8899,-6.82,7.95,-0.11,31.35
19962,0.2175,-0.0345,0.8923,-6.87,8.11,-0.06,31.36
19972,0.2156,-0.0341,0.8895,-6.84,7.98,0.03,31.37
19982,0.2123,-0.0323,0.8872,-6.72,7.95,-0.05,31.4
19992,0.2137,-0.0319,0.8898,-6.87,7.91,-0.02,31.37
20002,0.2166,-0.0332,0.8854,-6.82,7.92,-0.09,31.36
20012,0.2169,-0.0338,0.8888,-6.76,7.95,-0.05,31.38
20022,0.2177,-0.04,0.891,-6.85,7.91,0.0,31.35
20032,0.2164,-0.037,0.8883,-6.79,7.94,-0.08,31.37
20042,0.2188,-0.0328,0.8864,-6.84,7.97,-0.08,31.36
20052,0.2172,-0.0332,0.8855,-6.9,7.89,-0.02,31.37
20062,0.2144,-0.0328,0.8835,-6.84,8.02,0.0,31.37
20072,0.2163,-0.0304,0.8864,-6.76,8.05,0.05,31.36
20082,0.2178,-0.0326,0.8889,-6.79,7.98,-0.02,31.36
20093,0.2142,-0.0345,0.8906,-6.9,8.03,-0.15,31.34
20103,0.2146,-0.0358,0.8925,-6.81,7.98,-0.05,31.36
20113,0.2161,-0.0397,0.8904,-6.81,7.85,0.0,31.38
20123,0.2162,-0.0427,0.8953,-6.82,7.95,-0.02,31.39
20133,0.2185,-0.0378,0.8898,-6.73,7.95,-0.08,31.38
20143,0.2145,-0.0355,0.8905,-6.75,7.98,-0.06,31.38
20153,0.2185,-0.0297,0.8873,-6.75,8.03,-0.09,31.39
20163,0.2167,-0.0282,0.8873,-6.81,8.0,-0.05,31.38
20173,0.2195,-0.0305,0.8928,-6.85,8.0,0.02,31.39
20183,0.2164,-0.0305,0.8899,-6.85,7.94,-0.06,31.38
20193,0.2203,-0.0348,0.8914,-6.81,7.98,-0.11,31.38
20203,0.2196,-0.0377,0.8909,-6.81,7.97,-0.09,31.36
20213,0.2206,-0.0359,0.8938,-6.84,7.97,0.06,31.37
20223,0.2173,-0.0325,0.8885,-6.87,7.89,0.0,31.37
20233,0.2173,-0.0343,0.8884,-6.98,8.02,0.02,31.35
20243,0.2122,-0.0354,0.8873,-6.85,7.98,-0.02,31.36
20253,0.2153,-0.0342,0.882,-6.89,8.02,-0.12,31.36
20263,0.2139,-0.0376,0.8848,-6.82,8.03,-0.14,31.35
20273,0.2166,-0.0364,0.886,-6.78,7.89,-0.02,31.37
20283,0.2156,-0.0359,0.8862,-6.81,7.98,-0.06,31.38
20293,0.2161,-0.0309,0.8918,-6.72,7.98,-0.02,31.35
20303,0.2197,-0.0327,0.8854,-6.92,7.95,-0.03,31.38
20313,0.2177,-0.0317,0.8884,-6.87,7.95,0.02,31.35
20323,0.2166,-0.0311,0.8881,-6.79,7.95,-0.02,31.36
20333,0.2156,-0.0356,0.8893,-6.85,7.92,-0.09,31.36
20343,0.2142,-0.0381,0.8887,-6.78,7.97,-0.15,31.37
20353,0.2203,-0.0378,0.8872,-6.81,8.02,-0.09,31.36
20363,0.2181,-0.0364,0.8872,-6.81,8.05,-0.03,31.37
20373,0.2186,-0.0348,0.8876,-6.84,8.02,-0.03,31.37
20383,0.2167,-0.0374,0.8851,-6.76,8.08,-0.05,31.34
20393,0.2192,-0.0344,0.8884,-6.79,7.95,-0.03,31.39
20403,0.2059,-0.0248,0.9153,-7.07,8.14,-0.14,31.35
20413,0.2205,-0.0325,0.8943,-6.92,7.98,-0.08,31.38
20423,0.2123,-0.0342,0.8888,-6.82,7.83,-0.05,31.37
20433,0.2177,-0.0363,0.8844,-6.73,7.85,-0.11,31.37
20443,0.222,-0.031,0.8837,-6.78,8.0,-0.02,31.35
20453,0.2173,-0.0347,0.8871,-6.85,7.92,0.03,31.35
20463,0.2131,-0.0355,0.8801,-6.78,7.79,-0.06,31.37
20473,0.2146,-0.0309,0.891,-6.84,7.76,-0.03,31.37
20483,0.223,-0.0338,0.8972,-6.92,7.86,-0.09,31.35
20493,0.218,-0.0371,0.8828,-6.95,8.18,-0.08,31.36
20503,0.2174,-0.0398,0.8813,-6.78,7.91,-0.05,31.35
20513,0.2184,-0.0366,0.8853,-6.79,7.92,-0.05,31.35
20523,0.2185,-0.0353,0.8901,-6.85,8.12,-0.11,31.37
20533,0.2147,-0.0338,0.8762,-6.79,8.09,-0.08,31.39
20543,0.2162,-0.0312,0.8855,-6.81,7.98,-0.08,31.39
20553,0.2217,-0.0308,0.8903,-6.85,8.08,-0.05,31.38
20563,0.2195,-0.0322,0.8914,-6.82,8.11,-0.09,31.34
20573,0.2131,-0.0344,0.8845,-6.9,7.97,-0.05,31.38
20583,0.2228,-0.0339,0.8951,-6.87,7.94,0.02,31.37
20593,0.2214,-0.0323,0.8953,-6.75,8.14,0.03,31.38
20603,0.2153,-0.0376,0.8864,-6.73,8.15,-0.08,31.39
20613,0.2137,-0.0339,0.8839,-6.82,8.03,-0.05,31.37
20623,0.2189,-0.0339,0.8843,-6.85,7.95,0.0,31.37
20633,0.218,-0.0411,0.8882,-6.96,7.97,0.0,31.37
20643,0.2144,-0.0338,0.8866,-6.81,7.97,-0.11,31.35
20653,0.218,-0.0288,0.8849,-6.87,7.98,-0.09,31.38
20663,0.2158,-0.032,0.8896,-6.84,8.02,-0.17,31.37
20673,0.217,-0.041,0.8872,-6.92,8.03,-0.08,31.37
20683,0.2126,-0.0339,0.8875,-6.87,7.94,-0.05,31.37
20693,0.2178,-0.0355,0.8884,-6.85,7.91,-0.02,31.36
20703,0.217,-0.0343,0.8872,-6.84,8.12,-0.06,31.35
20713,0.217,-0.0322,0.8864,-6.78,8.08,-0.03,31.37
20723,0.2159,-0.0348,0.8893,-6.85,7.89,-0.09,31.35
20733,0.2183,-0.0377,0.8885,-6.81,7.98,-0.05,31.33
20743,0.2189,-0.0393,0.8862,-6.93,7.98,-0.09,31.35
20753,0.2163,-0.0397,0.8889,-6.89,8.06,-0.05,31.36
20763,0.2189,-0.0406,0.8901,-6.85,7.94,0.0,31.37
20773,0.2178,-0.0375,0.8859,-6.87,7.89,0.0,31.36
20783,0.2163,-0.0322,0.8846,-6.73,7.97,0.03,31.37
20793,0.2157,-0.0312,0.8822,-6.92,8.05,0.02,31.37
20803,0.2183,-0.0325,0.8855,-6.82,7.91,-0.03,31.37
20813,0.2174,-0.033,0.8909,-6.72,8.06,0.03,31.38
20823,0.2258,-0.0326,0.8894,-6.99,8.05,-0.02,31.35
20833,0.2186,-0.0371,0.8975,-6.73,8.14,-0.11,31.39
20843,0.2197,-0.0385,0.8828,-6.85,7.65,-0.09,31.38
20853,0.2156,-0.036,0.8911,-6.67,7.79,-0.05,31.36
20863,0.2183,-0.0339,0.8916,-6.89,7.98,-0.06,31.39
20873,0.2153,-0.0361,0.885,-6.96,7.95,-0.09,31.39
20883,0.2123,-0.0361,0.8839,-6.89,7.94,-0.11,31.38
20893,0.2157,-0.0388,0.8931,-6.82,7.85,-0.06,31.38
20903,0.2172,-0.0392,0.8879,-6.85,8.03,-0.02,31.37
20913,0.2162,-0.035,0.8831,-6.76,7.95,-0.02,31.39
20924,0.219,-0.0354,0.8871,-6.78,7.82,-0.05,31.38
20934,0.2212,-0.0297,0.8958,-6.79,7.85,0.0,31.37
20944,0.2209,-0.0306,0.8939,-6.89,8.11,-0.03,31.37
20954,0.2175,-0.0317,0.8888,-6.89,8.08,0.02,31.36
20964,0.2201,-0.0347,0.8861,-6.87,7.94,-0.03,31.38
20974,0.2126,-0.0342,0.8785,-7.11,8.47,-0.03,31.39
20984,0.2164,-0.0393,0.8583,-6.67,7.97,0.0,31.38
20994,0.2185,-0.0331,0.89,-6.92,7.85,-0.05,31.38
21004,0.2186,-0.0372,0.9012,-6.89,8.11,-0.08,31.38
21014,0.2137,-0.0376,0.8876,-6.89,8.15,-0.03,31.38
21024,0.2158,-0.0392,0.8871,-6.7,7.76,-0.05,31.39
21034,0.2222,-0.0378,0.9014,-6.85,7.94,-0.12,31.39
21044,0.2178,-0.0333,0.8938,-6.95,8.03,-0.05,31.39
21054,0.2137,-0.033,0.8818,-6.76,7.95,0.03,31.38
21064,0.2161,-0.0353,0.8868,-6.81,7.88,-0.06,31.39
21074,0.2174,-0.0311,0.89,-6.87,7.98,-0.09,31.37
21084,0.2156,-0.0315,0.8845,-6.67,8.02,0.0,31.37
21094,0.2178,-0.0374,0.8837,-6.81,7.97,-0.03,31.37
21104,0.2209,-0.0354,0.8915,-6.89,7.98,-0.02,31.37
21114,0.2179,-0.0369,0.8911,-6.82,7.95,-0.12,31.36
21124,0.2162,-0.0345,0.8898,-6.85,7.97,-0.06,31.39
21134,0.2172,-0.037,0.8898,-6.84,8.02,-0.05,31.37
21144,0.2169,-0.0347,0.8881,-6.85,8.0,-0.02,31.38
21154,0.2159,-0.0342,0.8842,-6.79,8.03,-0.02,31.35
21164,0.215,-0.0375,0.8899,-6.75,8.09,-0.02,31.38
21174,0.215,-0.0328,0.8876,-6.82,8.0,-0.02,31.37
21184,0.2152,-0.0352,0.8885,-6.79,8.06,-0.08,31.4
21194,0.2148,-0.0365,0.8862,-6.87,7.94,0.02,31.37
21204,0.2181,-0.0332,0.8834,-6.79,7.89,-0.03,31.36
21214,0.2155,-0.0323,0.886,-6.82,8.06,0.0,31.38
21224,0.2155,-0.0345,0.8818,-6.78,8.06,-0.06,31.39
21234,0.2183,-0.0338,0.8868,-6.81,7.88,-0.12,31.37
21244,0.2162,-0.0308,0.8933,-6.79,8.02,-0.05,31.36
21254,0.2173,-0.0311,0.8906,-6.87,8.02,0.05,31.4
21264,0.2162,-0.033,0.887,-6.85,7.92,-0.02,31.35
21274,0.218,-0.0331,0.8878,-6.95,7.91,-0.03,31.37
21285,0.2178,-0.0367,0.8866,-6.84,7.92,-0.12,31.37
21295,0.2126,-0.0345,0.8865,-6.81,7.94,-0.09,31.4
21305,0.2206,-0.0377,0.887,-6.75,7.94,-0.06,31.36
21315,0.22,-0.035,0.8873,-6.82,7.98,0.06,31.38
21325,0.2211,-0.0398,0.887,-6.85,7.97,-0.03,31.39
21335,0.2178,-0.0387,0.8859,-6.82,7.97,-0.09,31.39
21345,0.2168,-0.04,0.8889,-6.81,7.95,-0.05,31.41
21355,0.2179,-0.0361,0.8901,-6.81,8.05,-0.08,31.38
21365,0.2146,-0.0321,0.8873,-6.85,8.0,0.02,31.37
21375,0.218,-0.032,0.8875,-6.87,8.02,0.05,31.37
21385,0.2173,-0.0299,0.8945,-6.79,7.97,-0.11,31.36
21395,0.2177,-0.0309,0.8883,-6.79,7.91,-0.09,31.37
21405,0.2188,-0.0339,0.8899,-6.84,7.95,-0.05,31.37
21415,0.2155,-0.0328,0.8939,-6.84,7.95,-0.06,31.36
21425,0.2179,-0.0353,0.8881,-6.87,7.95,0.02,31.36
21435,0.2153,-0.0356,0.8837,-6.9,7.88,0.02,31.39
21445,0.2164,-0.0366,0.8914,-6.9,7.95,-0.06,31.39
21455,0.2142,-0.0387,0.8884,-6.76,8.03,-0.06,31.38
21465,0.2181,-0.0375,0.8906,-6.75,7.98,-0.02,31.41
21475,0.2178,-0.0331,0.8911,-6.79,7.95,-0.14,31.39
21485,0.2214,-0.0303,0.8912,-6.76,7.94,-0.03,31.41
21495,0.2155,-0.0369,0.8917,-6.76,7.91,-0.03,31.38
21505,0.2173,-0.0348,0.8914,-6.92,7.91,-0.06,31.39
21515,0.2153,-0.0331,0.8929,-6.89,8.06,0.02,31.39
21525,0.2158,-0.0321,0.8843,-6.92,7.97,-0.08,31.37
21535,0.2179,-0.0288,0.8865,-6.84,7.95,0.02,31.39
21545,0.2197,-0.0336,0.8854,-6.9,8.03,-0.06,31.37
21555,0.2147,-0.0327,0.8898,-6.76,8.05,0.0,31.37
21565,0.2202,-0.0347,0.8862,-6.79,7.97,-0.08,31.4
21575,0.2155,-0.0356,0.8853,-6.89,7.94,-0.06,31.37
21585,0.2205,-0.0364,0.885,-6.96,7.92,-0.03,31.38
21595,0.219,-0.0375,0.8857,-6.85,7.97,0.0,31.39
21605,0.2195,-0.036,0.8899,-6.81,8.03,0.02,31.38
21615,0.2201,-0.0337,0.8893,-6.82,7.97,0.03,31.4
21625,0.2163,-0.038,0.8866,-6.85,8.03,0.0,31.39
21635,0.2183,-0.0413,0.884,-6.82,8.08,-0.02,31.41
21645,0.2168,-0.0377,0.8885,-6.85,7.92,0.05,31.4
21655,0.2173,-0.0374,0.884,-6.81,8.03,0.05,31.38
21665,0.2142,-0.0345,0.8909,-6.9,8.09,0.08,31.37
21675,0.2152,-0.0325,0.8882,-6.76,8.05,-0.03,31.35
21685,0.218,-0.0302,0.8951,-6.84,8.02,0.08,31.36
21695,0.2144,-0.0283,0.8915,-6.84,8.03,-0.02,31.4
21705,0.2144,-0.0273,0.8912,-6.79,8.09,0.0,31.39
21715,0.2189,-0.0292,0.8879,-6.89,7.94,-0.05,31.39
21725,0.2142,-0.033,0.8892,-6.85,8.06,0.02,31.37
21735,0.2173,-0.0359,0.8872,-6.92,7.97,-0.11,31.37
21745,0.2128,-0.04,0.8894,-6.78,7.94,-0.03,31.38
21755,0.2158,-0.0388,0.8844,-6.76,7.97,-0.11,31.37
21765,0.214,-0.0402,0.8843,-6.82,8.06,0.03,31.37
21775,0.2185,-0.0411,0.8824,-6.76,8.0,-0.05,31.37
21785,0.2184,-0.0381,0.8812,-6.87,7.71,-0.06,31.4
21795,0.218,-0.0374,0.8824,-6.89,8.14,-0.08,31.38
21805,0.2189,-0.0375,0.8876,-6.81,7.83,-0.03,31.39
21815,0.2178,-0.0391,0.8859,-6.76,8.03,-0.05,31.37
21825,0.2173,-0.0354,0.8876,-6.81,7.98,-0.02,31.38
21835,0.2137,-0.0366,0.8865,-6.79,8.06,-0.06,31.36
21845,0.2137,-0.0308,0.8885,-6.89,7.91,-0.05,31.39
21855,0.2164,-0.0303,0.8878,-6.85,7.94,-0.08,31.39
21865,0.2156,-0.031,0.8856,-6.75,8.03,0.0,31.41
21875,0.2162,-0.0322,0.8896,-6.78,7.88,0.0,31.39
21885,0.2213,-0.0333,0.8893,-6.75,7.88,0.02,31.39
21895,0.2214,-0.0352,0.892,-6.75,7.92,-0.06,31.39
21905,0.2191,-0.035,0.8885,-6.75,8.0,0.0,31.38
21915,0.2128,-0.0367,0.8915,-6.76,7.92,0.02,31.39
21925,0.2185,-0.0343,0.8888,-6.85,7.91,-0.06,31.39
21935,0.2169,-0.0356,0.8872,-6.69,8.0,-0.03,31.38
21945,0.2175,-0.0339,0.8845,-6.76,7.98,-0.06,31.38
21955,0.2186,-0.0372,0.8849,-6.82,7.97,-0.06,31.37
21965,0.2153,-0.0332,0.89,-6.78,8.05,-0.03,31.36
21975,0.214,-0.0354,0.8934,-6.87,7.95,-0.02,31.36
21985,0.22,-0.0354,0.8829,-6.85,7.98,0.02,31.37
21995,0.2175,-0.0331,0.8853,-6.85,8.0,-0.06,31.39
22005,0.2188,-0.0337,0.8867,-6.84,8.0,-0.06,31.38
22015,0.2177,-0.0321,0.8892,-6.81,7.95,-0.09,31.37
22025,0.2144,-0.0339,0.8844,-6.78,8.0,-0.03,31.38
22035,0.2145,-0.0321,0.8889,-6.92,7.95,-0.08,31.39
22045,0.2141,-0.0371,0.8892,-6.85,7.86,-0.03,31.39
22055,0.218,-0.0367,0.8879,-6.76,7.97,-0.02,31.38
22065,0.2205,-0.0364,0.8911,-6.78,7.88,-0.08,31.38
22075,0.2181,-0.0317,0.8893,-6.78,7.94,-0.05,31.41
22085,0.2207,-0.0336,0.8839,-6.73,7.97,-0.05,31.38
22095,0.2155,-0.0354,0.8821,-6.93,8.03,-0.08,31.39
22105,0.2174,-0.0381,0.8871,-6.82,8.0,-0.09,31.39
22115,0.2183,-0.0363,0.8864,-6.84,7.95,-0.05,31.37
22125,0.2166,-0.0352,0.8889,-6.85,7.86,-0.06,31.38
22135,0.218,-0.0345,0.887,-6.82,7.95,-0.08,31.37
22145,0.2172,-0.0319,0.8905,-6.87,7.94,-0.11,31.39
22155,0.2157,-0.0344,0.8926,-6.76,7.91,-0.15,31.42
22165,0.2191,-0.0341,0.8885,-6.76,8.06,-0.03,31.38
22175,0.2173,-0.0367,0.8882,-6.78,8.08,-0.06,31.39
22185,0.2152,-0.0363,0.8843,-6.79,7.98,-0.11,31.37
22195,0.2177,-0.0381,0.8826,-6.81,7.94,0.0,31.38
22205,0.2172,-0.0371,0.8884,-6.79,7.94,-0.06,31.41
22215,0.2184,-0.0328,0.8888,-6.81,8.0,-0.09,31.41
22225,0.2164,-0.0316,0.887,-6.85,8.0,0.03,31.39
22235,0.2166,-0.0363,0.8872,-6.76,7.94,-0.08,31.37
22245,0.2191,-0.0283,0.8923,-6.87,7.89,-0.03,31.4
22255,0.2224,-0.0299,0.8884,-6.79,7.91,-0.02,31.4
22265,0.2198,-0.0328,0.8928,-6.81,8.08,-0.03,31.39
22275,0.2205,-0.0361,0.8873,-6.78,8.09,-0.03,31.39
22285,0.218,-0.0345,0.8883,-6.92,8.0,-0.02,31.39
22295,0.2213,-0.0383,0.8882,-6.73,8.0,0.0,31.4
22305,0.2175,-0.0378,0.8885,-6.79,8.06,-0.05,31.39
22315,0.2147,-0.0336,0.8875,-6.82,8.0,0.06,31.39
22325,0.2155,-0.0339,0.8853,-6.82,7.97,0.0,31.41
22335,0.2175,-0.0364,0.8878,-6.84,8.0,0.05,31.41
22345,0.2205,-0.0366,0.8868,-6.75,7.98,0.11,31.38
22355,0.2158,-0.0321,0.8906,-6.76,7.94,0.0,31.4
22365,0.2179,-0.033,0.8877,-6.84,7.97,-0.03,31.4
22375,0.2156,-0.036,0.8914,-6.95,7.98,-0.02,31.41
22385,0.2169,-0.0352,0.8857,-6.89,8.05,0.05,31.4
22395,0.217,-0.0385,0.8866,-6.85,8.0,-0.06,31.4
22405,0.215,-0.038,0.8853,-6.84,7.95,0.05,31.38
22415,0.2163,-0.0331,0.8878,-6.85,7.86,0.05,31.37
22425,0.2195,-0.0326,0.8873,-6.84,7.92,0.05,31.37
22435,0.2196,-0.0348,0.8877,-6.84,7.95,-0.05,31.41
22445,0.222,-0.0372,0.8896,-6.89,7.95,0.02,31.4
22455,0.218,-0.0367,0.8911,-6.81,7.94,-0.02,31.39
22465,0.2157,-0.0366,0.8857,-6.82,8.0,0.05,31.38
22475,0.2188,-0.0369,0.8833,-6.79,7.92,0.08,31.39
22485,0.2262,-0.0294,0.8898,-6.87,8.03,-0.03,31.4
22495,0.2159,-0.0345,0.8835,-6.9,7.94,-0.11,31.38
22505,0.2152,-0.033,0.8834,-6.78,7.76,-0.09,31.39
22515,0.2162,-0.0304,0.8899,-6.85,7.95,0.06,31.39
22525,0.2255,-0.0333,0.8862,-6.82,7.98,0.0,31.42
22535,0.215,-0.032,0.8846,-6.92,8.02,0.05,31.41
22545,0.2164,-0.0341,0.8922,-6.76,7.86,0.0,31.41
22555,0.2186,-0.0327,0.8932,-6.76,7.98,-0.05,31.4
22565,0.2189,-0.0365,0.8871,-6.82,8.03,-0.03,31.37
22575,0.2151,-0.0344,0.8834,-6.85,8.02,-0.06,31.37
22585,0.2181,-0.0385,0.8911,-6.72,7.89,-0.09,31.38
22595,0.2168,-0.0371,0.89,-6.73,7.95,-0.02,31.41
22605,0.218,-0.0355,0.8885,-6.84,7.98,-0.06,31.38
22615,0.2191,-0.0367,0.89,-6.75,7.92,-0.17,31.37
22625,0.2209,-0.0342,0.8922,-6.82,7.95,-0.11,31.4
22635,0.2192,-0.0328,0.8898,-6.73,8.02,-0.11,31.41
22645,0.219,-0.0312,0.8896,-6.85,7.98,-0.11,31.37
22656,0.2186,-0.0326,0.8923,-6.79,7.91,-0.03,31.39
22666,0.2184,-0.0298,0.8883,-6.85,8.02,-0.05,31.39
22676,0.2147,-0.0364,0.8878,-6.84,8.03,0.03,31.37
22686,0.2153,-0.0366,0.8835,-6.78,8.03,0.03,31.42
22696,0.2184,-0.0338,0.8848,-6.81,7.94,0.03,31.42
22706,0.2147,-0.0331,0.885,-6.85,8.02,-0.05,31.38
22716,0.2151,-0.0337,0.8884,-6.85,7.95,-0.09,31.39
22726,0.2186,-0.0352,0.8894,-6.79,7.95,0.02,31.38
22736,0.2184,-0.0325,0.8915,-6.81,7.98,-0.02,31.38
22746,0.219,-0.0305,0.8921,-6.79,7.91,-0.08,31.39
22756,0.2169,-0.0312,0.8885,-6.73,8.03,-0.12,31.42
22766,0.2164,-0.0337,0.8894,-6.89,8.03,-0.06,31.42
22776,0.2117,-0.0382,0.8873,-6.84,7.91,-0.05,31.39
22786,0.2152,-0.0377,0.8843,-6.9,7.92,0.0,31.39
22796,0.2155,-0.0339,0.8862,-6.72,7.98,0.02,31.41
22806,0.2175,-0.0311,0.8895,-6.79,7.94,0.05,31.4
22816,0.2208,-0.0311,0.8906,-6.78,7.92,-0.02,31.4
22826,0.2196,-0.0338,0.8896,-6.93,7.97,0.02,31.39
22836,0.2213,-0.0367,0.8894,-6.79,8.05,0.02,31.38
22846,0.219,-0.0424,0.8838,-6.87,7.98,-0.06,31.39
22856,0.215,-0.0431,0.8815,-6.85,7.95,-0.06,31.39
22866,0.2152,-0.0402,0.8834,-6.82,7.95,-0.06,31.38
22877,0.2173,-0.0363,0.8848,-6.79,8.0,0.0,31.39
22887,0.2188,-0.0393,0.8912,-6.75,8.0,0.06,31.41
22897,0.2217,-0.0312,0.9015,-6.84,7.97,-0.03,31.37
22907,0.2208,-0.0338,0.8831,-6.78,7.88,-0.06,31.39
22917,0.2181,-0.0387,0.8882,-6.7,7.82,0.03,31.39
22927,0.2142,-0.0338,0.8928,-6.79,8.0,0.06,31.42
22937,0.2166,-0.0291,0.8896,-6.85,8.09,-0.05,31.37
22947,0.215,-0.0332,0.8845,-6.78,8.0,-0.05,31.39
22960,0.214,-0.0332,0.8867,-6.78,7.98,-0.09,31.37
22970,0.2184,-0.0303,0.891,-6.84,7.94,0.05,31.4
22980,0.2173,-0.0381,0.8956,-6.79,8.09,-0.02,31.4
22990,0.2186,-0.0402,0.8873,-6.9,8.08,0.02,31.42
23000,0.2188,-0.0438,0.8901,-6.81,7.89,-0.06,31.38
23010,0.2202,-0.0398,0.8889,-6.78,7.91,-0.03,31.4
23020,0.2223,-0.0348,0.8861,-6.78,8.03,-0.02,31.38
23030,0.2212,-0.0294,0.8816,-6.82,8.02,0.02,31.39
23040,0.2195,-0.0272,0.8916,-6.87,7.92,-0.03,31.39
23050,0.2177,-0.0282,0.8928,-6.93,8.03,-0.05,31.39
23060,0.2029,-0.0303,0.9027,-6.89,8.58,-0.12,31.41
23070,0.2092,-0.0508,0.8611,-6.49,8.6,-0.06,31.37
23081,0.2109,-0.0358,0.892,-6.55,7.42,0.0,31.39
23091,0.2197,-0.0292,0.9294,-6.73,8.35,-0.08,31.41
23101,0.2319,-0.0381,0.8816,-6.82,8.23,-0.09,31.39
23111,0.229,-0.0447,0.8705,-6.87,7.76,0.02,31.38
23121,0.2261,-0.0232,0.8757,-6.73,7.54,-0.02,31.39
23131,0.2234,-0.0244,0.8992,-6.89,8.08,-0.08,31.43
23141,0.2209,-0.0298,0.8722,-6.89,8.2,0.03,31.41
23151,0.2097,-0.0283,0.8668,-6.81,7.74,0.05,31.4
23161,0.2188,-0.0294,0.8837,-6.73,7.66,-0.06,31.41
23171,0.2257,-0.0375,0.8999,-6.87,8.0,-0.06,31.39
23181,0.2205,-0.0419,0.8842,-6.9,8.05,0.0,31.38
23191,0.2133,-0.0389,0.8844,-6.93,7.82,0.05,31.4
23201,0.2168,-0.0334,0.8994,-6.95,7.85,0.02,31.42
23211,0.218,-0.0293,0.8958,-6.85,8.24,-0.02,31.39
23221,0.215,-0.0315,0.877,-6.89,8.11,0.09,31.43
23231,0.215,-0.0319,0.8915,-6.84,7.83,0.03,31.4
23241,0.2233,-0.0337,0.9038,-6.84,8.02,-0.14,31.4
23251,0.2216,-0.0413,0.8951,-6.93,8.09,-0.11,31.41
23261,0.2156,-0.0436,0.8801,-6.87,7.95,-0.09,31.4
23271,0.2144,-0.0369,0.8864,-6.76,7.89,-0.05,31.38
23281,0.2158,-0.037,0.8916,-6.73,8.09,-0.09,31.4
23291,0.2124,-0.0361,0.8816,-6.73,8.03,0.0,31.41
23301,0.2146,-0.032,0.8821,-6.69,7.85,-0.08,31.42
23311,0.2148,-0.0348,0.8903,-6.87,7.83,-0.06,31.39
23321,0.2214,-0.0326,0.8892,-6.84,8.08,-0.08,31.39
23331,0.2222,-0.0328,0.8903,-6.82,8.02,-0.03,31.37
23341,0.2241,-0.0326,0.8951,-6.73,8.09,-0.09,31.4
23351,0.2261,-0.0348,0.9,-6.9,8.06,-0.06,31.39
23361,0.2222,-0.0354,0.8915,-6.79,8.14,-0.09,31.4
23371,0.2148,-0.0385,0.885,-6.81,8.02,0.0,31.39
23381,0.2161,-0.0359,0.8799,-6.75,7.92,-0.08,31.4
23391,0.212,-0.0382,0.8815,-6.87,7.97,0.05,31.4
23401,0.2139,-0.0397,0.8844,-6.84,7.95,0.02,31.38
23411,0.2189,-0.032,0.8846,-6.79,7.83,0.02,31.4
23421,0.2175,-0.0333,0.8925,-6.79,7.95,-0.02,31.42
23431,0.2167,-0.0291,0.892,-6.85,8.06,-0.09,31.41
23441,0.2124,-0.0312,0.8882,-6.87,8.17,-0.08,31.4
23451,0.212,-0.0332,0.8865,-6.84,8.0,-0.03,31.39
23461,0.2152,-0.0356,0.8881,-6.89,7.91,-0.02,31.38
23471,0.2166,-0.0349,0.8866,-6.89,8.08,-0.15,31.42
23481,0.2136,-0.0391,0.8865,-6.79,8.03,-0.09,31.39
23491,0.212,-0.0325,0.8936,-6.89,8.09,-0.05,31.4
23501,0.223,-0.033,0.8766,-6.93,7.57,-0.05,31.42
23511,0.2194,-0.0366,0.8923,-6.81,8.11,-0.08,31.39
23521,0.2161,-0.0333,0.8879,-6.81,7.89,0.02,31.43
23531,0.2219,-0.0304,0.8793,-6.7,7.97,0.05,31.4
23541,0.2157,-0.036,0.8915,-6.79,7.94,-0.11,31.41
23551,0.2201,-0.0377,0.89,-6.75,7.97,-0.03,31.36
23561,0.2167,-0.0388,0.8915,-6.89,7.95,0.03,31.41
23571,0.2173,-0.0374,0.8854,-6.78,7.98,0.03,31.4
23581,0.2167,-0.0364,0.8898,-6.75,7.95,-0.05,31.41
23591,0.2174,-0.0336,0.8901,-6.85,8.0,0.06,31.42
23601,0.2183,-0.0341,0.8872,-6.78,7.98,0.09,31.41
23611,0.2177,-0.0348,0.8844,-6.87,7.91,-0.02,31.39
23621,0.2175,-0.0326,0.8921,-6.82,7.97,-0.03,31.42
23631,0.2159,-0.0325,0.8884,-6.87,8.06,-0.12,31.41
23641,0.2173,-0.0361,0.887,-6.76,7.97,-0.05,31.39
23651,0.218,-0.0331,0.8859,-6.81,7.94,0.03,31.4
23661,0.2157,-0.0372,0.8873,-6.85,8.05,0.0,31.42
23671,0.2159,-0.0396,0.89,-6.73,7.97,0.03,31.39
23681,0.2175,-0.0372,0.8894,-6.82,8.0,-0.06,31.41
23691,0.2166,-0.0342,0.8909,-6.85,7.91,-0.05,31.39
23701,0.215,-0.0365,0.8859,-6.85,7.98,-0.09,31.41
23711,0.2146,-0.0363,0.8882,-6.76,7.98,-0.02,31.39
23721,0.2183,-0.0365,0.8868,-6.81,7.95,-0.02,31.41
23731,0.2135,-0.0305,0.8904,-6.84,7.98,-0.05,31.42
23741,0.2202,-0.0375,0.8783,-6.95,7.89,-0.02,31.4
23751,0.2156,-0.0341,0.8923,-6.84,7.89,-0.02,31.37
23761,0.2188,-0.027,0.8969,-6.79,7.83,-0.03,31.39
23771,0.2198,-0.0355,0.9027,-7.02,8.85,-0.11,31.39
23781,0.21,-0.0404,0.8646,-6.96,7.98,-0.12,31.42
23791,0.2046,-0.0387,0.8931,-6.58,7.59,-0.03,31.38
23801,0.2163,-0.0339,0.9089,-6.92,8.0,-0.09,31.4
23811,0.2148,-0.0342,0.881,-6.93,8.27,-0.06,31.41
23821,0.2141,-0.0331,0.8773,-6.84,7.73,-0.03,31.42
23831,0.2214,-0.0264,0.8907,-6.79,7.76,0.0,31.4
23841,0.2212,-0.0271,0.8917,-6.93,8.12,0.02,31.4
23851,0.2214,-0.031,0.8829,-6.9,7.88,-0.08,31.39
23861,0.2141,-0.0332,0.8839,-6.76,7.89,-0.06,31.39
23871,0.2192,-0.0375,0.8898,-6.99,8.02,-0.05,31.41
23881,0.2234,-0.0396,0.8965,-6.84,8.09,-0.06,31.41
23891,0.2201,-0.0383,0.8992,-6.89,7.98,0.02,31.39
23901,0.2268,-0.0327,0.8909,-6.87,7.88,0.03,31.41
23911,0.2235,-0.0317,0.8899,-6.87,7.97,0.03,31.4
23921,0.218,-0.0291,0.8829,-6.9,8.05,-0.03,31.38
23931,0.2158,-0.0293,0.877,-6.93,7.91,0.0,31.4
23941,0.2145,-0.0388,0.8811,-6.93,8.08,-0.09,31.42
23951,0.2097,-0.0461,0.882,-6.82,7.91,-0.06,31.41
23961,0.2107,-0.0435,0.8872,-6.75,7.97,-0.08,31.39
23971,0.2201,-0.0377,0.8907,-6.84,7.71,0.03,31.41
23981,0.2142,-0.0332,0.9053,-6.78,7.97,-0.05,31.38
23991,0.218,-0.0325,0.8896,-6.87,8.09,0.06,31.42
24001,0.2085,-0.0343,0.892,-6.75,8.03,-0.06,31.37
24011,0.2124,-0.0312,0.8866,-6.82,8.0,0.0,31.39
24021,0.2129,-0.0291,0.8856,-6.79,7.92,-0.03,31.38
24031,0.2117,-0.0275,0.8826,-6.79,7.8,-0.03,31.41
24041,0.2148,-0.0259,0.8877,-6.96,7.8,0.08,31.4
24051,0.2195,-0.0315,0.8918,-6.9,7.89,0.0,31.4
24061,0.2198,-0.0366,0.8856,-6.98,8.06,0.02,31.38
24071,0.2151,-0.0471,0.8781,-6.82,8.06,0.05,31.41
24081,0.2141,-0.0432,0.881,-6.79,7.97,-0.03,31.38
24091,0.2239,-0.036,0.8733,-6.87,7.88,0.0,31.39
24101,0.2074,-0.0388,0.8994,-6.87,8.09,-0.06,31.41
24111,0.213,-0.0414,0.884,-6.99,8.08,-0.02,31.41
24121,0.2122,-0.0354,0.8943,-6.95,7.98,-0.02,31.4
24131,0.2148,-0.03,0.8867,-6.89,7.97,-0.14,31.39
24141,0.2205,-0.0299,0.8943,-6.72,7.94,-0.09,31.37
24151,0.2264,-0.0275,0.8998,-6.78,7.88,-0.2,31.39
24161,0.2295,-0.0287,0.8944,-6.85,7.86,-0.14,31.39
24171,0.2244,-0.0428,0.8889,-6.9,8.11,-0.06,31.4
24181,0.2153,-0.0452,0.8892,-6.93,8.05,0.0,31.39
24191,0.2083,-0.0405,0.8857,-6.82,8.09,0.06,31.39
24201,0.2079,-0.0387,0.8811,-6.92,8.03,0.08,31.39
24211,0.2118,-0.0354,0.8799,-6.79,8.0,0.11,31.4
24221,0.2068,-0.0297,0.8839,-6.81,7.89,0.03,31.39
24231,0.2163,-0.0242,0.8948,-6.9,7.89,0.02,31.4
24241,0.2195,-0.0243,0.8898,-6.85,7.95,-0.03,31.4
24251,0.2156,-0.0331,0.884,-6.81,7.94,-0.05,31.41
24261,0.2174,-0.0358,0.8885,-6.76,8.03,-0.14,31.4
24271,0.215,-0.04,0.8966,-6.85,8.2,-0.12,31.39
24281,0.2146,-0.0432,0.879,-6.92,8.05,-0.02,31.4
24291,0.212,-0.0514,0.8788,-6.75,7.88,-0.03,31.4
24301,0.2078,-0.0408,0.8899,-6.96,7.86,-0.03,31.4
24311,0.2025,-0.0269,0.8906,-6.79,8.26,0.03,31.42
24321,0.2183,-0.0275,0.8868,-6.87,7.68,0.02,31.38
24331,0.2261,-0.0269,0.9015,-6.85,7.85,0.0,31.39
24341,0.2275,-0.0319,0.8973,-6.93,7.97,-0.11,31.42
24351,0.2223,-0.0392,0.8792,-6.82,8.0,-0.03,31.4
24361,0.2192,-0.0422,0.88,-6.84,8.11,-0.03,31.4
24371,0.2216,-0.0438,0.8896,-6.87,8.11,-0.06,31.41
24381,0.2212,-0.0435,0.8855,-6.89,8.08,-0.06,31.41
24391,0.2222,-0.0408,0.8864,-6.85,7.97,0.05,31.42
24401,0.2263,-0.0417,0.8898,-6.85,7.95,0.06,31.42
24411,0.2264,-0.0333,0.8895,-6.93,7.97,-0.08,31.39
24421,0.2281,-0.0287,0.8928,-6.87,8.09,-0.09,31.41
24431,0.2267,-0.0317,0.8875,-6.76,8.09,-0.03,31.4
24441,0.218,-0.0302,0.8898,-6.79,8.11,-0.14,31.41
24451,0.2133,-0.0286,0.8781,-6.85,8.18,0.02,31.44
24461,0.2125,-0.0326,0.8828,-6.87,8.02,-0.05,31.43
24471,0.2123,-0.0411,0.8844,-6.85,8.08,-0.08,31.44
24481,0.2131,-0.04,0.8842,-6.85,8.08,0.0,31.4
24492,0.2192,-0.0333,0.8964,-6.81,7.92,0.05,31.42
24502,0.2175,-0.0342,0.8917,-6.79,8.0,-0.03,31.43
24512,0.2126,-0.0374,0.89,-6.79,7.97,0.0,31.41
24522,0.2064,-0.0421,0.8868,-6.87,8.12,0.03,31.41
24533,0.2107,-0.0397,0.8925,-6.79,7.95,-0.02,31.43
24543,0.2155,-0.04,0.8867,-6.9,8.06,0.09,31.41
24553,0.2161,-0.0276,0.8873,-6.92,7.98,-0.02,31.4
24563,0.2126,-0.0236,0.891,-6.72,7.95,-0.12,31.41
24573,0.2208,-0.0297,0.8911,-6.79,8.08,-0.14,31.4
24583,0.2185,-0.0291,0.8829,-6.84,7.83,-0.08,31.4
24593,0.2179,-0.0323,0.8918,-6.72,8.03,-0.06,31.42
24603,0.2198,-0.0386,0.8934,-6.92,8.06,-0.05,31.39
24613,0.2148,-0.0443,0.8906,-6.85,8.03,-0.05,31.39
24623,0.2162,-0.0333,0.8809,-6.87,7.98,-0.11,31.42
24633,0.2163,-0.0352,0.8768,-6.78,7.89,-0.03,31.4
24643,0.218,-0.0323,0.8878,-6.85,7.91,-0.02,31.39
24653,0.2188,-0.0322,0.8951,-6.96,8.02,-0.03,31.4
24663,0.2163,-0.0355,0.8855,-6.84,7.86,-0.05,31.42
24673,0.2181,-0.0316,0.8923,-6.9,7.82,-0.08,31.42
24683,0.2217,-0.0331,0.8953,-6.81,8.06,-0.05,31.42
24693,0.2164,-0.0326,0.8956,-6.79,8.06,-0.15,31.4
24703,0.2109,-0.0383,0.8845,-6.79,7.88,-0.2,31.41
24713,0.2133,-0.0337,0.8922,-6.72,7.89,-0.06,31.42
24723,0.2124,-0.0336,0.895,-6.79,7.92,-0.11,31.44
24733,0.2177,-0.0328,0.8885,-6.9,7.91,-0.11,31.41
24743,0.2209,-0.0331,0.8911,-6.96,7.85,-0.06,31.4
24753,0.2236,-0.035,0.8925,-6.9,8.05,-0.06,31.41
24763,0.2209,-0.0354,0.8857,-6.81,7.94,-0.12,31.41
24773,0.2189,-0.0353,0.8855,-6.76,7.95,0.03,31.43
24783,0.2184,-0.0399,0.884,-6.9,7.92,0.05,31.42
24793,0.2123,-0.0408,0.8835,-6.92,7.92,-0.03,31.41
24803,0.2114,-0.0415,0.8827,-6.85,7.89,0.08,31.41
24813,0.2148,-0.0399,0.8872,-6.81,7.98,-0.03,31.39
24823,0.2146,-0.0322,0.8889,-6.85,7.89,-0.08,31.42
24833,0.2145,-0.0248,0.8925,-6.79,7.89,-0.02,31.43
24843,0.2128,-0.0273,0.8805,-6.92,7.82,-0.08,31.42
24853,0.2134,-0.0339,0.8849,-6.96,7.92,-0.15,31.42
24863,0.2123,-0.0414,0.8843,-6.84,7.94,-0.09,31.41
24873,0.2114,-0.0386,0.8833,-6.84,7.88,-0.09,31.44
24883,0.2131,-0.0396,0.8867,-6.85,7.95,-0.03,31.4
24893,0.2161,-0.0449,0.8923,-6.85,7.91,-0.08,31.42
24903,0.2178,-0.0388,0.889,-6.84,7.82,-0.06,31.41
24913,0.2233,-0.0331,0.8915,-6.79,7.89,-0.03,31.39
24923,0.2256,-0.0311,0.8993,-6.64,7.98,-0.05,31.39
24933,0.2277,-0.0317,0.8993,-6.82,7.98,-0.02,31.42
24943,0.2234,-0.0288,0.896,-6.76,8.0,0.05,31.42
24953,0.2177,-0.0283,0.8909,-6.98,7.94,0.03,31.4
24963,0.214,-0.0302,0.8953,-6.79,8.12,0.0,31.41
24973,0.2142,-0.0315,0.8857,-6.76,8.23,-0.05,31.42
24983,0.2155,-0.0314,0.8905,-6.84,8.12,-0.02,31.41
24993,0.2103,-0.0332,0.8834,-7.02,8.15,-0.05,31.4
25003,0.2205,-0.0419,0.8818,-6.9,7.88,0.0,31.41
25013,0.2217,-0.0353,0.8984,-6.95,7.95,0.05,31.41
25023,0.226,-0.0371,0.8879,-6.95,7.94,0.11,31.43
25033,0.2245,-0.0378,0.8748,-6.93,8.0,0.0,31.43
25043,0.2201,-0.0341,0.8823,-6.89,7.98,0.02,31.42
25053,0.2184,-0.035,0.8804,-6.95,8.03,-0.02,31.44
25063,0.2156,-0.0374,0.8733,-6.84,8.09,0.0,31.41
25073,0.2208,-0.0382,0.8717,-6.85,7.92,-0.05,31.42
25083,0.226,-0.0334,0.8928,-6.87,7.86,-0.14,31.44
25093,0.219,-0.0435,0.9056,-6.92,8.06,-0.03,31.43
25103,0.2179,-0.0504,0.9028,-6.79,8.12,-0.02,31.41
25113,0.2183,-0.035,0.8932,-6.87,8.05,-0.05,31.44
25123,0.2163,-0.0287,0.8929,-6.84,8.0,0.0,31.38
25133,0.2117,-0.0317,0.889,-6.89,7.94,-0.05,31.43
25143,0.2113,-0.0303,0.8798,-6.87,7.97,0.05,31.42
25153,0.2137,-0.028,0.8904,-6.81,7.95,-0.08,31.42
25163,0.218,-0.0305,0.8878,-6.72,7.94,-0.02,31.42
25173,0.217,-0.0341,0.8853,-6.82,8.06,-0.09,31.43
25183,0.2191,-0.0352,0.8864,-6.78,7.95,-0.02,31.41
25193,0.2179,-0.036,0.8802,-6.87,7.98,-0.05,31.44
25203,0.215,-0.0421,0.8722,-6.96,8.09,-0.03,31.44
25213,0.2136,-0.0328,0.8756,-6.95,8.03,0.0,31.44
25223,0.2186,-0.0264,0.9061,-6.84,8.08,0.03,31.42
25233,0.2107,-0.0282,0.9008,-6.89,8.02,-0.08,31.41
25243,0.2174,-0.0298,0.8915,-6.87,8.03,-0.17,31.41
25253,0.2195,-0.0277,0.886,-6.75,7.94,-0.17,31.42
25263,0.2238,-0.032,0.8903,-6.84,8.03,-0.11,31.42
25273,0.2245,-0.0406,0.8845,-6.78,7.94,0.0,31.42
25283,0.2246,-0.0394,0.886,-6.73,7.79,0.03,31.42
25293,0.2197,-0.0414,0.8931,-6.87,8.0,0.0,31.4
25303,0.2129,-0.0424,0.8866,-6.92,7.98,0.02,31.41
25313,0.212,-0.0365,0.8928,-6.79,7.98,0.06,31.41
25323,0.2136,-0.0271,0.8881,-6.85,7.94,0.03,31.39
25333,0.2148,-0.0229,0.8906,-6.96,8.02,0.0,31.41
25343,0.2168,-0.0291,0.8876,-6.87,8.02,-0.09,31.43
25353,0.2146,-0.0353,0.8846,-6.87,7.91,-0.15,31.43
25363,0.2168,-0.0439,0.8905,-6.87,7.91,-0.12,31.41
25373,0.2212,-0.0441,0.8879,-6.99,7.91,-0.03,31.44
25383,0.2217,-0.041,0.8849,-6.81,7.83,-0.03,31.42
25393,0.219,-0.0343,0.8867,-6.81,7.85,-0.02,31.42
25403,0.2216,-0.028,0.8832,-6.73,7.92,-0.02,31.4
25413,0.2129,-0.0311,0.8857,-6.84,7.89,0.05,31.43
25423,0.2178,-0.032,0.8861,-6.84,7.92,-0.08,31.44
25433,0.2189,-0.0349,0.8959,-6.87,8.0,-0.12,31.43
25443,0.2167,-0.0387,0.8885,-6.89,8.06,-0.06,31.43
25453,0.2195,-0.0376,0.8905,-6.82,7.98,-0.05,31.42
25463,0.2148,-0.0339,0.8906,-6.87,7.98,0.05,31.44
25473,0.2153,-0.0349,0.8875,-6.81,8.0,-0.06,31.42
25483,0.2131,-0.0366,0.8862,-6.85,7.98,0.03,31.43
25493,0.2147,-0.0381,0.8854,-6.79,7.86,-0.06,31.42
25503,0.2177,-0.0354,0.8878,-6.78,7.95,-0.02,31.45
25513,0.219,-0.038,0.8871,-6.82,7.92,-0.09,31.45
25523,0.2197,-0.0355,0.8934,-6.78,7.92,-0.02,31.43
25533,0.2224,-0.0309,0.8885,-6.89,7.98,-0.14,31.43
25543,0.22,-0.0308,0.8909,-6.79,8.02,0.0,31.42
25553,0.2174,-0.0339,0.8832,-6.78,7.92,-0.11,31.42
25563,0.2139,-0.0359,0.887,-6.73,7.94,-0.02,31.42
25573,0.2129,-0.0405,0.8873,-6.81,7.97,-0.05,31.42
25583,0.2137,-0.0386,0.8866,-6.82,7.97,-0.05,31.43
25593,0.2141,-0.0356,0.8843,-6.85,7.91,-0.06,31.42
25603,0.2167,-0.0319,0.8879,-6.85,7.95,-0.09,31.42
25613,0.2172,-0.0312,0.8914,-6.79,7.92,-0.02,31.44
25623,0.2195,-0.0316,0.889,-6.96,8.11,-0.02,31.44
25633,0.2179,-0.0323,0.8848,-6.75,8.23,-0.09,31.4
25643,0.2222,-0.0366,0.8893,-6.85,7.92,-0.11,31.44
25653,0.222,-0.0369,0.8854,-6.87,7.98,-0.02,31.43
25663,0.2169,-0.038,0.8862,-6.87,8.03,0.05,31.45
25673,0.2185,-0.0348,0.8892,-6.84,8.0,-0.02,31.43
25683,0.2179,-0.0332,0.8887,-6.89,7.95,0.03,31.45
25693,0.2157,-0.0349,0.89,-6.84,8.05,-0.05,31.43
25703,0.2186,-0.0328,0.8905,-6.84,8.02,-0.05,31.41
25713,0.217,-0.036,0.8906,-6.84,8.03,-0.02,31.41
25723,0.2128,-0.0299,0.8999,-6.85,8.09,-0.03,31.41
25733,0.2148,-0.0308,0.8901,-7.01,8.05,-0.12,31.42
25743,0.2159,-0.0382,0.8922,-6.81,7.98,0.06,31.42
25753,0.217,-0.038,0.8916,-6.87,8.02,0.05,31.41
25763,0.2172,-0.036,0.8859,-6.81,8.03,-0.08,31.42
25773,0.2162,-0.0317,0.886,-6.87,7.95,-0.06,31.43
25783,0.2181,-0.0312,0.8901,-6.89,7.94,-0.05,31.42
25793,0.2177,-0.0343,0.8928,-6.84,8.06,0.0,31.41
25803,0.2167,-0.0356,0.8912,-6.78,8.09,-0.14,31.42
25813,0.2167,-0.0349,0.889,-6.84,8.0,-0.02,31.45
25823,0.2158,-0.0338,0.8839,-6.79,8.02,-0.09,31.42
25833,0.2159,-0.0337,0.8885,-6.82,8.0,-0.03,31.44
25843,0.2166,-0.0348,0.8866,-6.84,8.02,0.0,31.42
25853,0.2175,-0.0341,0.8865,-6.79,8.0,0.05,31.41
25863,0.2161,-0.0334,0.8901,-6.9,7.97,-0.02,31.41
25873,0.2166,-0.035,0.8851,-6.85,7.98,-0.03,31.41
25883,0.2164,-0.0356,0.8827,-6.79,7.98,-0.06,31.42
25893,0.2188,-0.0369,0.8937,-6.82,8.06,-0.05,31.4
25903,0.2181,-0.0332,0.8884,-6.85,7.97,-0.06,31.41
25913,0.218,-0.0363,0.8871,-6.84,7.95,-0.05,31.42
25923,0.2134,-0.0348,0.8945,-6.99,8.0,-0.02,31.43
25933,0.2117,-0.0315,0.8788,-6.92,7.94,-0.02,31.44
25943,0.22,-0.0289,0.8907,-6.82,7.69,0.02,31.43
25953,0.2234,-0.0288,0.8931,-6.99,8.11,-0.06,31.4
25963,0.2184,-0.04,0.8921,-6.82,8.02,0.02,31.41
25973,0.2178,-0.0527,0.8794,-6.76,7.89,0.03,31.42
25983,0.2194,-0.0348,0.8916,-6.72,8.06,-0.03,31.44
25993,0.2179,-0.0352,0.8881,-6.87,8.05,-0.02,31.43
26003,0.2147,-0.0387,0.8789,-6.76,8.0,-0.06,31.42
26013,0.2167,-0.0327,0.8857,-6.85,7.82,-0.08,31.42
26023,0.2231,-0.0369,0.89,-6.81,7.89,0.03,31.43
26034,0.2198,-0.0409,0.8834,-6.82,8.06,-0.09,31.42
26045,0.2142,-0.0422,0.8912,-6.81,8.11,-0.09,31.44
26055,0.2119,-0.0342,0.8871,-6.79,7.97,0.0,31.43
26065,0.2161,-0.0344,0.8838,-6.85,7.79,0.03,31.45
26075,0.2115,-0.025,0.8882,-6.89,8.08,-0.08,31.42
26085,0.2081,-0.0355,0.8789,-6.82,7.98,-0.02,31.41
26095,0.2152,-0.0332,0.8845,-6.82,7.77,-0.08,31.43
26105,0.2213,-0.0331,0.897,-6.81,7.91,-0.06,31.42
26115,0.2224,-0.0365,0.8958,-6.87,8.08,-0.05,31.43
26125,0.2209,-0.0345,0.887,-6.81,7.97,0.03,31.43
26135,0.2153,-0.0356,0.8862,-6.85,7.88,0.05,31.44
26145,0.217,-0.0334,0.8889,-6.92,7.95,-0.03,31.42
26155,0.2147,-0.0374,0.8827,-6.85,8.05,-0.05,31.42
26165,0.215,-0.0383,0.8772,-6.82,7.88,-0.02,31.42
26175,0.2173,-0.0382,0.8912,-6.82,7.94,-0.06,31.4
26185,0.2253,-0.0385,0.8926,-6.93,7.92,-0.02,31.41
26195,0.2218,-0.0337,0.8912,-6.89,7.97,-0.12,31.44
26205,0.2191,-0.0372,0.8833,-6.79,7.92,-0.06,31.44
26215,0.2223,-0.0326,0.8888,-6.72,7.92,-0.03,31.44
26225,0.2192,-0.0303,0.8906,-6.9,8.09,-0.06,31.44
26235,0.2202,-0.0325,0.8859,-6.75,8.08,0.03,31.45
26245,0.2181,-0.0316,0.8876,-6.82,8.0,-0.02,31.44
26255,0.2227,-0.0298,0.8943,-6.84,7.94,-0.05,31.45
26265,0.218,-0.0376,0.8927,-6.81,8.05,0.03,31.44
26275,0.2195,-0.0389,0.8905,-6.82,7.97,-0.05,31.44
26288,0.2178,-0.0391,0.8855,-6.76,8.02,-0.05,31.41
26298,0.2183,-0.0389,0.8883,-6.85,8.06,-0.03,31.43
26308,0.2191,-0.038,0.8909,-6.84,7.94,-0.06,31.44
26319,0.2194,-0.0349,0.886,-6.72,7.95,-0.08,31.43
26329,0.2172,-0.0336,0.8871,-6.95,8.0,-0.06,31.44
26339,0.217,-0.033,0.8862,-6.87,7.92,-0.05,31.44
26349,0.2185,-0.0334,0.8876,-6.85,7.97,0.0,31.42
26359,0.2152,-0.035,0.8855,-6.84,7.98,-0.08,31.43
26369,0.2155,-0.0336,0.8889,-6.87,7.95,-0.03,31.41
26380,0.2169,-0.0315,0.8888,-6.85,8.03,-0.06,31.44
26390,0.2198,-0.0339,0.8893,-6.82,7.97,0.05,31.43
26400,0.2202,-0.0321,0.8915,-6.85,7.97,-0.06,31.43
26410,0.2183,-0.0332,0.8962,-6.93,8.21,-0.12,31.43
26420,0.2163,-0.037,0.8861,-6.95,7.76,-0.03,31.42
26430,0.2207,-0.0314,0.8816,-6.63,7.85,-0.11,31.4
26440,0.2186,-0.035,0.8944,-6.76,8.2,-0.06,31.41
26450,0.2191,-0.0477,0.8846,-6.73,8.24,0.0,31.4
26460,0.2129,-0.0417,0.8868,-6.78,8.03,-0.03,31.44
26470,0.2195,-0.0408,0.8892,-6.79,7.95,-0.08,31.45
26480,0.2192,-0.0411,0.8868,-6.79,7.94,-0.06,31.44
26490,0.2172,-0.0354,0.885,-6.7,7.97,-0.06,31.44
26500,0.2207,-0.0248,0.8987,-6.7,8.03,-0.02,31.43
26510,0.2162,-0.0293,0.9098,-6.87,8.02,-0.05,31.42
26520,0.2172,-0.031,0.8781,-6.87,7.95,-0.05,31.42
26530,0.2157,-0.0337,0.8884,-6.85,7.91,-0.05,31.44
26540,0.2124,-0.0314,0.881,-6.95,7.91,0.02,31.42
26550,0.2148,-0.0343,0.8877,-7.04,8.09,0.0,31.41
26560,0.2115,-0.0353,0.8898,-6.79,7.97,-0.03,31.44
26570,0.2142,-0.0402,0.8827,-6.82,8.06,0.0,31.43
26580,0.2158,-0.0365,0.8839,-6.78,7.92,-0.09,31.42
26590,0.2169,-0.0308,0.8834,-6.82,7.97,0.0,31.43
26600,0.2159,-0.0389,0.8901,-6.64,7.98,0.03,31.46
26610,0.2166,-0.0342,0.8912,-6.81,8.03,0.02,31.43
26620,0.2184,-0.028,0.8944,-6.87,8.02,-0.05,31.43
26630,0.2159,-0.0354,0.8934,-6.79,8.11,-0.02,31.46
26640,0.2172,-0.0336,0.8862,-6.85,7.91,-0.09,31.41
26650,0.2174,-0.0344,0.8882,-6.75,7.95,0.0,31.46
26660,0.2177,-0.0364,0.8933,-6.81,7.97,-0.06,31.43
26670,0.2178,-0.0408,0.8883,-6.87,7.94,-0.03,31.43
26681,0.2223,-0.036,0.8898,-6.82,7.94,0.02,31.41
26691,0.219,-0.0347,0.8882,-6.81,8.02,-0.03,31.43
26701,0.2146,-0.0343,0.8888,-6.84,8.02,0.03,31.41
26711,0.2177,-0.0328,0.885,-6.87,8.05,-0.02,31.45
26721,0.2159,-0.0347,0.8866,-6.82,8.08,-0.05,31.44
26731,0.2145,-0.0343,0.8849,-6.93,7.95,-0.02,31.45
26741,0.2146,-0.0374,0.8867,-6.85,7.98,0.0,31.43
26751,0.2219,-0.0364,0.8811,-6.78,7.91,-0.11,31.42
26761,0.2152,-0.032,0.8842,-6.85,8.24,-0.05,31.43
26771,0.2137,-0.0306,0.8777,-6.79,7.98,-0.03,31.42
26781,0.2045,-0.0374,0.8844,-6.75,7.79,-0.03,31.44
26791,0.2089,-0.0352,0.8955,-6.95,8.08,0.03,31.42
26801,0.2133,-0.0345,0.8875,-6.87,8.23,-0.02,31.42
26811,0.2172,-0.0306,0.8942,-6.84,7.86,-0.06,31.41
26821,0.2277,-0.0323,0.9097,-6.82,7.85,-0.12,31.43
26831,0.2273,-0.0363,0.9061,-6.89,8.11,-0.15,31.42
26841,0.2174,-0.0332,0.8822,-6.82,8.05,-0.06,31.42
26851,0.2163,-0.0389,0.8806,-6.78,7.94,-0.09,31.42
26861,0.2216,-0.0393,0.8806,-6.81,7.97,-0.06,31.43
26871,0.2163,-0.0425,0.8721,-6.81,8.02,-0.03,31.43
26881,0.2124,-0.0427,0.8729,-6.75,7.79,0.05,31.42
26891,0.2156,-0.0347,0.8922,-6.73,7.8,0.02,31.43
26901,0.2186,-0.0272,0.8948,-6.85,7.89,0.03,31.43
26911,0.2137,-0.0288,0.8933,-6.81,8.2,-0.05,31.41
26921,0.2145,-0.0265,0.8832,-6.76,7.86,-0.06,31.42
26931,0.222,-0.0267,0.8998,-6.81,7.98,-0.06,31.43
26942,0.2196,-0.0377,0.891,-6.84,8.08,-0.15,31.45
26952,0.2156,-0.0421,0.8843,-6.85,8.09,-0.06,31.43
26962,0.2152,-0.04,0.8844,-6.82,7.95,0.03,31.43
26972,0.2164,-0.0437,0.8885,-6.79,7.98,0.06,31.42
26982,0.2147,-0.0333,0.891,-6.85,8.0,-0.05,31.43
26992,0.2141,-0.0338,0.8816,-6.75,7.92,-0.09,31.44
27002,0.2134,-0.032,0.8876,-6.81,7.83,0.06,31.45
27012,0.2107,-0.0378,0.8948,-6.81,7.91,-0.05,31.43
27022,0.2083,-0.0448,0.8779,-6.82,7.92,0.0,31.44
27032,0.207,-0.0198,0.8809,-6.85,7.91,0.02,31.43
27042,0.2228,-0.0302,0.8969,-6.87,7.88,-0.05,31.44
27052,0.2247,-0.0286,0.9038,-6.85,8.08,-0.05,31.44
27062,0.2288,-0.025,0.9009,-6.82,7.92,-0.03,31.44
27072,0.2277,-0.0365,0.9019,-6.9,7.88,-0.05,31.43
27082,0.22,-0.0419,0.8959,-6.84,8.11,-0.08,31.45
27092,0.2134,-0.0409,0.8735,-6.78,8.08,-0.14,31.43
27102,0.2117,-0.0472,0.8658,-6.85,7.92,-0.06,31.43
27112,0.2126,-0.0448,0.8785,-6.89,7.97,0.0,31.44
27122,0.2203,-0.0415,0.89,-6.85,7.98,0.0,31.43
27132,0.2159,-0.0392,0.8914,-6.7,7.85,-0.03,31.44
27142,0.222,-0.0272,0.9011,-6.76,7.95,0.0,31.45
27152,0.2207,-0.0278,0.9012,-6.87,8.11,0.0,31.44
27162,0.2198,-0.0242,0.8857,-6.87,8.08,-0.14,31.44
27172,0.2169,-0.0305,0.8796,-6.87,7.94,-0.03,31.44
27182,0.2131,-0.0411,0.882,-6.76,8.09,-0.09,31.46
27192,0.2101,-0.0376,0.8907,-6.75,7.97,-0.06,31.42
27202,0.2113,-0.0419,0.8843,-6.84,7.92,-0.05,31.42
27212,0.2161,-0.0413,0.8896,-6.76,7.95,-0.03,31.44
27222,0.2212,-0.0378,0.8882,-6.76,7.98,-0.11,31.44
27233,0.2227,-0.0327,0.885,-6.9,8.05,-0.06,31.44
27243,0.2198,-0.0299,0.8899,-6.87,8.0,-0.08,31.43
27253,0.2169,-0.0291,0.8892,-6.84,8.05,-0.06,31.43
27263,0.2159,-0.0361,0.8905,-6.82,8.08,-0.14,31.42
27273,0.2131,-0.0381,0.8878,-6.85,7.97,-0.06,31.41
27285,0.2144,-0.0338,0.8857,-6.87,7.95,-0.08,31.44
27295,0.218,-0.0332,0.8889,-6.85,8.02,-0.02,31.42
27305,0.2192,-0.031,0.8866,-6.81,7.98,-0.08,31.44
27315,0.2157,-0.0276,0.8867,-6.87,8.03,0.02,31.43
27325,0.2153,-0.0265,0.8892,-6.89,7.98,-0.09,31.43
27335,0.2177,-0.0328,0.8916,-6.92,7.94,-0.08,31.43
27345,0.2155,-0.0365,0.8884,-6.84,8.05,0.03,31.42
27355,0.2152,-0.0353,0.8873,-6.9,7.95,0.05,31.42
27365,0.217,-0.036,0.8867,-6.85,7.92,0.03,31.42
27375,0.2212,-0.0372,0.8906,-6.82,7.98,0.06,31.43
27385,0.2235,-0.0349,0.8907,-6.82,7.95,0.02,31.45
27395,0.22,-0.0326,0.8903,-6.85,8.02,0.02,31.44
27405,0.2178,-0.0336,0.8884,-6.85,7.98,-0.06,31.44
27415,0.2153,-0.0371,0.8878,-6.85,8.03,-0.11,31.43
27425,0.2159,-0.0359,0.8904,-6.76,8.0,-0.11,31.46
27435,0.2126,-0.0355,0.8876,-6.89,7.95,-0.03,31.42
