t_ms,accel_x_g,accel_y_g,accel_z_g,gyro_x_dps,gyro_y_dps,gyro_z_dps,imu_temp_c
3274,0.1572,-0.2037,0.8777,-6.55,7.65,-0.02,20.09
3284,0.1572,-0.2056,0.8723,-6.69,7.74,-0.02,20.11
3294,0.1562,-0.208,0.871,-6.5,7.79,-0.02,20.11
3304,0.1575,-0.2119,0.8722,-6.4,7.88,-0.06,20.1
3314,0.1573,-0.215,0.8687,-6.14,7.88,0.03,20.12
3324,0.1543,-0.2151,0.8776,-5.97,7.76,-0.09,20.12
3334,0.1512,-0.2196,0.8806,-6.26,7.77,-0.02,20.13
3344,0.1493,-0.2185,0.871,-6.55,7.8,-0.11,20.12
3354,0.1461,-0.2197,0.8616,-6.75,7.63,-0.14,20.1
3364,0.1492,-0.22,0.8585,-6.53,7.53,-0.23,20.14
3374,0.1509,-0.2172,0.8456,-6.21,7.54,-0.08,20.12
3385,0.1532,-0.2135,0.8423,-5.91,7.45,-0.02,20.12
3396,0.153,-0.2025,0.8362,-5.83,7.18,-0.05,20.14
3406,0.1577,-0.2035,0.8381,-5.97,6.99,-0.09,20.12
3416,0.1549,-0.2007,0.8356,-6.14,7.21,-0.23,20.12
3426,0.1594,-0.2053,0.8412,-5.88,7.69,-0.08,20.11
3436,0.1582,-0.2097,0.8661,-5.39,8.61,0.09,20.16
3446,0.1571,-0.2167,0.8906,-5.24,8.98,0.18,20.13
3456,0.1543,-0.2224,0.9138,-5.63,8.73,0.03,20.14
3466,0.1476,-0.2271,0.9183,-6.44,8.0,-0.11,20.13
3476,0.1508,-0.2328,0.9038,-7.4,7.54,-0.21,20.12
3486,0.1561,-0.2384,0.8717,-7.69,7.63,-0.26,20.12
3496,0.156,-0.2366,0.8522,-7.16,7.88,-0.06,20.13
3506,0.157,-0.2366,0.8433,-5.91,7.98,0.08,20.14
3516,0.1555,-0.2303,0.8473,-5.05,7.8,0.08,20.15
3526,0.1543,-0.2177,0.8544,-4.72,7.33,0.03,20.13
3536,0.1549,-0.2112,0.8607,-5.04,6.89,-0.11,20.13
3546,0.1571,-0.2021,0.8654,-5.65,7.13,-0.06,20.15
3556,0.1575,-0.2028,0.868,-6.09,7.97,0.0,20.12
3566,0.1591,-0.2078,0.8771,-6.15,8.41,-0.02,20.14
3576,0.1561,-0.2177,0.8846,-6.05,8.43,0.08,20.16
3586,0.1545,-0.2168,0.8884,-6.0,7.83,-0.02,20.13
3596,0.1555,-0.2219,0.8859,-6.11,7.22,-0.09,20.15
3606,0.162,-0.223,0.8783,-6.37,7.11,-0.12,20.16
3616,0.1625,-0.2175,0.8695,-6.5,7.56,-0.02,20.15
3626,0.1565,-0.2181,0.8573,-6.4,8.06,0.08,20.16
3636,0.157,-0.2148,0.8546,-6.08,8.2,0.12,20.16
3646,0.1547,-0.2089,0.8547,-5.65,7.74,0.02,20.15
3656,0.1521,-0.2054,0.8564,-5.3,7.18,-0.03,20.15
3666,0.1536,-0.2035,0.8624,-5.3,7.18,-0.09,20.15
3676,0.1589,-0.2003,0.8685,-5.66,7.4,-0.08,20.16
3686,0.156,-0.2012,0.8618,-6.29,7.83,-0.09,20.15
3696,0.1565,-0.2045,0.8605,-6.6,7.98,-0.05,20.14
3706,0.1506,-0.2128,0.86,-6.38,8.03,0.0,20.14
3716,0.1541,-0.2115,0.8647,-5.77,7.89,-0.03,20.17
3726,0.152,-0.2114,0.8765,-5.27,7.95,0.02,20.14
3736,0.1503,-0.2115,0.889,-5.4,7.92,0.09,20.15
3746,0.1437,-0.2106,0.89,-6.0,7.86,0.02,20.15
3756,0.145,-0.2131,0.8792,-6.6,7.68,-0.11,20.16
3766,0.1447,-0.2123,0.8666,-6.93,7.5,-0.14,20.17
3776,0.1499,-0.2119,0.8547,-6.64,7.48,-0.17,20.16
3786,0.1515,-0.2103,0.8492,-5.98,7.71,-0.06,20.14
3796,0.1504,-0.2131,0.8531,-5.47,7.88,0.05,20.15
3806,0.1489,-0.2107,0.8619,-5.3,7.94,-0.02,20.17
3816,0.1501,-0.2117,0.8676,-5.6,7.62,0.0,20.17
3826,0.149,-0.2109,0.8745,-5.8,7.16,-0.14,20.13
3836,0.1543,-0.2129,0.8749,-6.0,7.16,-0.23,20.16
3846,0.1555,-0.2129,0.8688,-6.05,7.47,-0.11,20.15
3856,0.1569,-0.2102,0.8739,-5.98,8.02,0.03,20.16
3866,0.1512,-0.2135,0.885,-5.86,8.21,0.09,20.14
3876,0.152,-0.2131,0.886,-5.91,7.88,-0.08,20.17
3886,0.1499,-0.217,0.8807,-6.31,7.4,-0.11,20.17
3896,0.1586,-0.2158,0.8741,-6.49,7.3,-0.26,20.17
3906,0.1595,-0.2134,0.8651,-6.46,7.48,-0.09,20.18
3916,0.1599,-0.2179,0.8585,-6.31,7.85,-0.02,20.17
3926,0.1577,-0.2183,0.8555,-5.91,8.0,-0.03,20.17
3936,0.1588,-0.2134,0.8639,-5.57,7.76,0.03,20.17
3946,0.1597,-0.2141,0.8641,-5.53,7.39,-0.08,20.14
3956,0.1561,-0.2054,0.8694,-5.86,7.28,-0.11,20.15
3966,0.1599,-0.2054,0.8712,-6.27,7.53,-0.11,20.15
3976,0.1613,-0.2048,0.8667,-6.34,8.02,-0.02,20.16
3986,0.1572,-0.2111,0.8706,-6.17,8.4,0.02,20.16
3996,0.1565,-0.2104,0.871,-6.11,8.23,0.0,20.17
4006,0.156,-0.2122,0.8711,-6.15,7.86,-0.05,20.17
4016,0.157,-0.2156,0.8673,-6.44,7.6,-0.17,20.15
4026,0.1561,-0.2172,0.8597,-6.79,7.6,-0.09,20.15
4036,0.1517,-0.2173,0.8513,-6.75,7.89,-0.05,20.21
4046,0.1554,-0.2196,0.847,-6.46,8.11,0.09,20.18
4056,0.1492,-0.2168,0.8483,-5.83,8.08,0.05,20.16
4066,0.1504,-0.2145,0.8541,-5.54,7.74,0.02,20.17
4076,0.1528,-0.2158,0.8612,-5.5,7.47,0.06,20.16
4086,0.1541,-0.2084,0.8641,-5.73,7.54,-0.05,20.16
4096,0.1531,-0.2104,0.8666,-6.26,7.77,0.0,20.17
4106,0.1519,-0.2142,0.8652,-6.52,8.0,0.02,20.17
4116,0.1504,-0.2148,0.8547,-6.47,7.92,0.03,20.16
4126,0.1514,-0.2201,0.8539,-6.06,7.88,-0.06,20.19
4136,0.1488,-0.2202,0.8624,-5.71,7.76,-0.08,20.17
4146,0.1499,-0.2195,0.8691,-5.36,7.68,0.02,20.17
4156,0.145,-0.2169,0.8849,-5.42,7.73,0.41,20.18
4166,0.1455,-0.2124,0.8864,-5.79,7.66,0.0,20.18
4176,0.1514,-0.2098,0.8818,-6.31,7.45,-0.06,20.18
4186,0.1569,-0.2122,0.8743,-6.66,7.57,-0.12,20.19
4196,0.1553,-0.2153,0.8619,-6.53,7.54,-0.14,20.18
4206,0.1566,-0.2173,0.8613,-6.17,7.74,-0.12,20.19
4216,0.1569,-0.2177,0.8628,-5.76,7.92,-0.03,20.18
4226,0.1562,-0.2111,0.8713,-5.5,7.79,0.08,20.19
4236,0.1572,-0.2094,0.8745,-5.56,7.48,0.0,20.17
4246,0.1537,-0.2087,0.8762,-5.83,7.36,0.02,20.2
4256,0.1571,-0.2078,0.8733,-6.17,7.37,-0.08,20.19
4266,0.1571,-0.2068,0.8666,-6.34,7.51,-0.14,20.21
4276,0.1554,-0.2048,0.8649,-6.15,7.71,-0.09,20.21
4286,0.1544,-0.2083,0.8657,-6.05,7.74,-0.03,20.19
4296,0.1549,-0.2084,0.8656,-5.86,7.65,-0.06,20.21
4306,0.1526,-0.2037,0.8656,-5.92,7.5,-0.15,20.19
4316,0.1539,-0.2051,0.8649,-6.09,7.36,-0.15,20.19
4326,0.1545,-0.2068,0.8654,-6.24,7.51,-0.11,20.18
4336,0.1536,-0.2075,0.8645,-6.38,7.73,-0.09,20.19
4346,0.1512,-0.2059,0.8605,-6.21,7.94,-0.11,20.21
4356,0.1521,-0.2092,0.8644,-6.02,7.85,-0.09,20.2
4366,0.1536,-0.2076,0.8663,-5.95,7.6,-0.12,20.2
4376,0.1533,-0.2111,0.8674,-6.08,7.53,-0.09,20.18
4386,0.1544,-0.2115,0.8667,-6.32,7.48,-0.21,20.19
4396,0.1561,-0.2136,0.8643,-6.38,7.66,-0.17,20.19
4406,0.1559,-0.2131,0.8645,-6.38,7.83,-0.12,20.19
4416,0.1578,-0.2173,0.8658,-6.2,7.8,-0.05,20.22
4426,0.1554,-0.2183,0.8644,-6.02,7.74,-0.05,20.22
4436,0.1575,-0.2192,0.8741,-6.03,7.69,-0.17,20.22
4446,0.1552,-0.2222,0.8728,-6.08,7.6,-0.09,20.18
4456,0.16,-0.2218,0.8734,-6.31,7.68,-0.09,20.18
4466,0.1591,-0.2209,0.8645,-6.4,7.8,-0.11,20.2
4476,0.1578,-0.2219,0.8601,-6.34,7.8,-0.02,20.17
4486,0.156,-0.2233,0.8602,-6.0,7.82,0.03,20.2
4496,0.1567,-0.2191,0.8597,-5.92,7.85,0.02,20.2
4506,0.151,-0.2174,0.8641,-5.82,7.89,-0.06,20.2
4516,0.153,-0.2211,0.866,-5.86,7.63,-0.09,20.2
4526,0.1552,-0.2166,0.8658,-5.89,7.62,-0.03,20.21
4536,0.1544,-0.2184,0.865,-6.17,7.69,-0.12,20.23
4546,0.1533,-0.2155,0.8591,-6.31,7.73,-0.11,20.22
4556,0.1548,-0.2146,0.8607,-6.12,7.77,-0.03,20.24
4566,0.1554,-0.2179,0.8591,-5.97,7.77,-0.03,20.2
4576,0.1503,-0.2134,0.8632,-5.79,7.92,0.02,20.19
4586,0.1528,-0.2117,0.8673,-5.8,7.85,0.0,20.21
4596,0.1526,-0.2131,0.8666,-5.94,7.73,-0.02,20.19
4606,0.1536,-0.2133,0.8716,-6.0,7.71,0.02,20.18
4616,0.1571,-0.2141,0.868,-6.26,7.77,-0.03,20.19
4626,0.1543,-0.2153,0.8633,-6.11,7.82,-0.03,20.19
4636,0.1537,-0.2158,0.8645,-6.08,7.79,0.0,20.22
4646,0.1565,-0.2167,0.8668,-5.77,7.8,-0.02,20.21
4656,0.1547,-0.2145,0.8685,-5.86,7.77,-0.08,20.18
4666,0.1571,-0.2145,0.8694,-5.83,7.57,0.05,20.21
4676,0.1559,-0.2112,0.8708,-5.88,7.59,-0.02,20.2
4686,0.1567,-0.2107,0.87,-5.97,7.6,0.02,20.22
4696,0.1582,-0.2073,0.8673,-6.08,7.71,0.02,20.22
4706,0.1558,-0.2075,0.8699,-6.11,7.76,0.03,20.2
4716,0.156,-0.2096,0.8713,-6.03,7.73,-0.05,20.21
4726,0.1534,-0.2108,0.87,-5.97,7.73,0.03,20.22
4736,0.1576,-0.21,0.869,-5.86,7.77,-0.06,20.2
4746,0.1573,-0.2122,0.8754,-5.91,7.71,-0.06,20.2
4756,0.1573,-0.2104,0.8768,-6.08,7.79,-0.05,20.22
4766,0.1536,-0.2112,0.8696,-6.24,7.83,-0.06,20.2
4776,0.1565,-0.21,0.8702,-6.17,7.77,-0.08,20.22
4786,0.157,-0.2107,0.8661,-6.21,7.79,-0.09,20.22
4796,0.1559,-0.2125,0.8654,-6.18,7.8,-0.03,20.23
4806,0.1521,-0.2092,0.8638,-6.0,7.73,-0.09,20.21
4816,0.1501,-0.2114,0.8643,-5.97,7.68,-0.09,20.22
4826,0.1543,-0.2113,0.8647,-6.12,7.66,-0.12,20.22
4836,0.1533,-0.2086,0.8585,-6.18,7.66,-0.14,20.21
4846,0.1521,-0.2094,0.8612,-6.12,7.66,-0.08,20.2
4856,0.1505,-0.209,0.8571,-6.0,7.77,-0.15,20.24
4866,0.1484,-0.2102,0.8601,-5.98,7.86,-0.03,20.22
4876,0.1503,-0.2106,0.8607,-5.89,7.89,-0.02,20.23
4886,0.1497,-0.2111,0.865,-6.08,7.68,-0.11,20.23
4896,0.1479,-0.2125,0.8683,-6.08,7.66,-0.06,20.24
4906,0.1531,-0.2139,0.8682,-6.18,7.73,-0.03,20.25
4916,0.1525,-0.2162,0.8684,-6.21,7.77,-0.06,20.23
4926,0.1555,-0.2162,0.8719,-6.18,7.86,-0.12,20.21
4936,0.1562,-0.2156,0.8728,-6.05,7.73,-0.06,20.21
4946,0.1564,-0.2167,0.8721,-5.95,7.65,-0.03,20.24
4956,0.1604,-0.2133,0.8726,-5.97,7.6,-0.11,20.23
4966,0.1592,-0.2152,0.8729,-6.0,7.68,-0.03,20.24
4976,0.1581,-0.2134,0.869,-6.08,7.76,-0.03,20.22
4986,0.1582,-0.2141,0.8708,-6.23,7.89,-0.08,20.2
4996,0.1559,-0.2163,0.8699,-6.27,7.83,-0.05,20.24
5006,0.1545,-0.2172,0.8666,-6.23,7.83,-0.03,20.24
5016,0.1552,-0.2142,0.8652,-6.26,7.76,-0.14,20.22
5026,0.1594,-0.2148,0.8651,-6.11,7.86,-0.02,20.25
5036,0.1572,-0.2188,0.868,-6.05,7.86,-0.08,20.24
5046,0.1548,-0.2192,0.868,-6.06,7.82,-0.06,20.22
5056,0.1591,-0.2147,0.8666,-6.02,7.8,-0.02,20.24
5066,0.1536,-0.2136,0.8621,-6.08,7.66,-0.06,20.23
5076,0.1561,-0.2126,0.8632,-5.98,7.65,-0.12,20.25
5086,0.1553,-0.2117,0.8647,-6.02,7.77,-0.11,20.22
5096,0.1567,-0.2118,0.8643,-6.02,7.85,-0.09,20.24
5106,0.1528,-0.2103,0.8621,-5.92,7.89,-0.08,20.24
5116,0.1558,-0.2114,0.8633,-5.98,7.77,-0.09,20.26
5126,0.1552,-0.2136,0.8677,-6.03,7.68,-0.06,20.24
5136,0.1564,-0.2131,0.8671,-5.97,7.71,-0.03,20.23
5146,0.1534,-0.2107,0.8663,-6.03,7.82,-0.03,20.22
5156,0.1498,-0.2101,0.8644,-6.09,7.89,-0.03,20.24
5166,0.1522,-0.2125,0.8651,-6.05,7.98,-0.02,20.24
5176,0.1545,-0.2137,0.8646,-5.95,7.86,0.02,20.24
5186,0.1508,-0.2113,0.8663,-5.91,7.66,0.02,20.24
5196,0.1517,-0.2131,0.8727,-5.92,7.51,-0.03,20.25
5206,0.1544,-0.2147,0.8695,-5.92,7.62,-0.03,20.23
5216,0.155,-0.2108,0.8724,-6.02,7.76,-0.03,20.23
5226,0.1514,-0.2124,0.8689,-6.15,7.85,-0.05,20.21
5236,0.1523,-0.2111,0.8685,-6.05,7.73,-0.05,20.23
5246,0.1536,-0.2122,0.8717,-6.03,7.68,-0.06,20.22
5256,0.1548,-0.2107,0.8649,-6.06,7.53,-0.11,20.24
5266,0.1544,-0.2102,0.8676,-6.08,7.56,0.0,20.24
5276,0.156,-0.2076,0.8627,-6.11,7.62,-0.14,20.23
5286,0.1595,-0.2061,0.863,-6.06,7.57,-0.05,20.25
5296,0.1543,-0.2075,0.8671,-6.08,7.74,-0.03,20.24
5306,0.1528,-0.2069,0.8665,-6.03,7.76,-0.06,20.23
5316,0.1545,-0.2078,0.8694,-6.11,7.68,0.0,20.25
5326,0.1543,-0.2052,0.8661,-6.18,7.6,-0.14,20.27
5336,0.1522,-0.2042,0.8618,-6.23,7.57,-0.14,20.24
5346,0.1541,-0.2067,0.8663,-6.21,7.66,-0.12,20.25
5356,0.1505,-0.2052,0.8633,-6.14,7.79,-0.02,20.24
5366,0.1517,-0.2078,0.8674,-6.05,7.76,-0.09,20.24
5376,0.1517,-0.2101,0.8708,-6.11,7.69,-0.09,20.24
5386,0.1531,-0.212,0.8798,-6.12,7.68,-0.14,20.24
5396,0.1534,-0.2147,0.8772,-6.34,7.57,-0.08,20.25
5406,0.1595,-0.213,0.8745,-6.5,7.71,-0.12,20.22
5416,0.1564,-0.2151,0.8715,-6.47,7.85,-0.06,20.27
5426,0.1572,-0.2172,0.8702,-6.4,7.86,-0.06,20.26
5436,0.151,-0.2189,0.8661,-6.2,7.82,-0.09,20.24
5446,0.1576,-0.2163,0.8669,-6.06,7.54,-0.15,20.25
5456,0.1542,-0.2156,0.8729,-6.02,7.53,-0.15,20.24
5466,0.1531,-0.2169,0.8738,-6.05,7.51,-0.18,20.27
5476,0.1549,-0.2159,0.8656,-6.27,7.79,-0.15,20.26
5486,0.1554,-0.2179,0.8649,-6.31,7.94,-0.11,20.24
5496,0.1544,-0.2139,0.8679,-6.29,7.92,-0.05,20.24
5506,0.1537,-0.2151,0.8584,-6.26,7.77,-0.09,20.26
5516,0.1532,-0.2144,0.8602,-6.35,7.62,-0.09,20.27
5526,0.1562,-0.2175,0.8533,-6.32,7.69,-0.06,20.27
5536,0.1571,-0.2161,0.8542,-6.26,7.79,-0.05,20.24
5546,0.1548,-0.2206,0.855,-6.17,7.97,0.0,20.25
5556,0.1545,-0.219,0.8527,-6.15,7.92,0.05,20.24
5566,0.1527,-0.2155,0.856,-6.11,7.8,0.0,20.26
5576,0.1511,-0.2158,0.8604,-5.92,7.83,-0.06,20.24
5586,0.1538,-0.2167,0.8582,-6.08,7.76,0.0,20.24
5596,0.1539,-0.2137,0.8625,-6.0,7.77,-0.03,20.24
5606,0.1537,-0.2125,0.8619,-6.18,7.8,0.03,20.23
5616,0.1536,-0.219,0.8624,-6.11,7.83,0.0,20.24
5626,0.1562,-0.2178,0.8663,-6.12,7.83,-0.09,20.25
5636,0.1558,-0.2195,0.8683,-6.03,7.71,-0.06,20.25
5646,0.156,-0.2174,0.8702,-5.89,7.74,0.0,20.27
5656,0.16,-0.2203,0.8713,-5.89,7.86,0.0,20.26
5666,0.1581,-0.2184,0.877,-5.92,7.83,0.0,20.25
5676,0.1593,-0.2209,0.8793,-5.91,7.77,0.0,20.28
5686,0.1614,-0.2175,0.8794,-6.0,7.65,-0.05,20.27
5696,0.1598,-0.2173,0.8811,-5.95,7.53,-0.08,20.27
5706,0.1588,-0.2181,0.8782,-5.83,7.59,-0.05,20.27
5716,0.1627,-0.2156,0.8798,-5.86,7.62,-0.08,20.24
5726,0.1619,-0.212,0.8767,-5.89,7.83,-0.02,20.26
5736,0.1582,-0.2136,0.8766,-5.95,7.76,-0.05,20.26
5746,0.1577,-0.2108,0.874,-6.03,7.73,-0.02,20.26
5756,0.1555,-0.2086,0.8704,-6.08,7.65,-0.05,20.24
5766,0.1561,-0.2152,0.8662,-6.06,7.69,-0.11,20.26
5776,0.1572,-0.2157,0.8645,-6.05,7.66,-0.08,20.26
5786,0.1554,-0.2107,0.8622,-6.0,7.68,-0.05,20.27
5796,0.1499,-0.2084,0.8606,-5.97,7.73,-0.06,20.27
5806,0.1533,-0.2111,0.8624,-5.94,7.83,-0.08,20.27
5816,0.1514,-0.2104,0.8636,-6.05,7.74,-0.06,20.26
5826,0.1489,-0.2045,0.8585,-6.12,7.65,-0.12,20.27
5836,0.1508,-0.2041,0.8563,-6.14,7.65,-0.05,20.25
5846,0.1482,-0.2072,0.856,-6.08,7.65,-0.03,20.25
5856,0.149,-0.2091,0.858,-5.98,7.77,-0.05,20.27
5866,0.1522,-0.2054,0.8521,-5.91,7.83,0.0,20.28
5876,0.1488,-0.2058,0.8594,-5.88,7.73,-0.02,20.28
5886,0.1479,-0.2048,0.8683,-5.97,7.82,-0.03,20.25
5896,0.1472,-0.2085,0.8625,-6.18,7.82,-0.06,20.29
5906,0.1506,-0.2084,0.866,-6.29,7.83,-0.03,20.28
5916,0.1531,-0.213,0.8643,-6.24,7.86,0.0,20.26
5926,0.1523,-0.2091,0.8639,-6.17,7.88,-0.03,20.27
5936,0.1553,-0.2147,0.873,-5.98,7.79,-0.18,20.29
5946,0.1547,-0.2177,0.871,-6.09,7.71,-0.03,20.26
5956,0.1542,-0.2162,0.8759,-6.05,7.68,-0.05,20.27
5966,0.1543,-0.2151,0.8748,-6.17,7.77,-0.08,20.26
5976,0.1565,-0.2197,0.8781,-6.27,7.77,-0.03,20.26
5986,0.1561,-0.2192,0.8752,-6.32,7.82,-0.09,20.25
5996,0.1538,-0.2191,0.8707,-6.21,7.73,-0.03,20.24
6006,0.1528,-0.2192,0.8723,-6.08,7.62,-0.08,20.27
6016,0.156,-0.2219,0.8739,-5.98,7.48,-0.14,20.28
6026,0.1561,-0.218,0.8754,-5.88,7.65,-0.08,20.28
6036,0.1578,-0.2148,0.8704,-5.92,7.66,-0.06,20.28
6046,0.157,-0.2196,0.875,-6.05,7.74,-0.05,20.28
6056,0.1571,-0.2189,0.8705,-6.17,7.77,-0.05,20.26
6066,0.1565,-0.2168,0.8644,-6.17,7.76,-0.06,20.29
6076,0.1559,-0.2168,0.8657,-6.14,7.73,-0.11,20.29
6086,0.1547,-0.2202,0.8628,-5.98,7.71,-0.05,20.28
6096,0.158,-0.215,0.8615,-6.0,7.69,-0.05,20.28
6106,0.1578,-0.2173,0.8589,-6.09,7.63,0.0,20.28
6116,0.1582,-0.2157,0.8585,-6.11,7.63,-0.11,20.29
6126,0.1558,-0.2167,0.8552,-6.08,7.65,-0.06,20.3
6137,0.1582,-0.2191,0.8519,-6.05,7.69,-0.08,20.28
6147,0.1571,-0.2155,0.8545,-6.02,7.77,-0.05,20.25
6157,0.156,-0.2108,0.8542,-5.94,7.68,-0.03,20.26
6167,0.1558,-0.2112,0.8541,-5.8,7.68,0.0,20.27
6177,0.1566,-0.2095,0.8566,-5.63,7.63,-0.02,20.25
6187,0.1553,-0.2089,0.8662,-5.63,7.66,-0.02,20.27
6197,0.1573,-0.2076,0.8716,-5.73,7.71,0.0,20.27
6207,0.1556,-0.208,0.8771,-5.82,7.94,0.08,20.28
6217,0.156,-0.2076,0.8739,-5.94,7.98,0.02,20.25
6228,0.153,-0.2117,0.8783,-6.31,8.05,-0.03,20.27
6238,0.1508,-0.2122,0.8782,-6.37,7.94,-0.05,20.27
6248,0.1544,-0.2166,0.8813,-6.23,8.02,-0.06,20.25
6258,0.1542,-0.2179,0.8779,-6.03,7.85,-0.06,20.26
6268,0.1593,-0.2174,0.8782,-5.83,7.71,-0.03,20.29
6278,0.1572,-0.2191,0.8809,-5.76,7.56,-0.08,20.27
6288,0.1575,-0.2169,0.8811,-5.77,7.53,0.02,20.28
6298,0.1562,-0.2142,0.8717,-6.0,7.66,-0.12,20.28
6308,0.1558,-0.2109,0.8708,-6.18,7.74,-0.05,20.29
6318,0.1517,-0.2087,0.8677,-6.17,7.76,-0.05,20.27
6328,0.1553,-0.2073,0.8645,-6.05,7.79,-0.11,20.29
6338,0.1508,-0.2057,0.86,-5.88,7.82,-0.03,20.27
6348,0.1525,-0.202,0.8656,-5.82,7.71,-0.05,20.29
6358,0.1505,-0.2032,0.8618,-5.94,7.68,-0.06,20.27
6368,0.1477,-0.2028,0.8629,-6.03,7.68,-0.02,20.27
6378,0.1515,-0.2024,0.8595,-6.18,7.73,-0.08,20.25
6388,0.1453,-0.2008,0.8606,-6.26,7.88,-0.02,20.28
6398,0.1493,-0.2048,0.8572,-6.32,8.05,0.0,20.27
6408,0.1476,-0.2054,0.8615,-6.27,8.05,-0.03,20.27
6418,0.1501,-0.2091,0.8591,-6.08,7.86,-0.06,20.27
6428,0.1493,-0.2096,0.8599,-6.17,7.71,-0.08,20.27
6450,0.1504,-0.2137,0.8578,-6.27,7.77,-0.26,20.27
6460,0.1544,-0.213,0.8625,-6.2,7.76,0.02,20.28
6470,0.1517,-0.2157,0.8621,-6.21,7.69,-0.08,20.27
6480,0.153,-0.2089,0.8649,-6.18,7.76,-0.09,20.27
6490,0.1538,-0.2148,0.8656,-6.12,7.62,-0.06,20.28
6500,0.1577,-0.2151,0.8658,-6.06,7.68,-0.02,20.27
6510,0.1562,-0.2128,0.8718,-6.0,7.71,-0.14,20.29
6520,0.1547,-0.2129,0.8743,-6.06,7.66,-0.05,20.29
6530,0.1539,-0.2102,0.8732,-6.11,7.53,-0.08,20.28
6540,0.1577,-0.2162,0.8739,-6.15,7.45,-0.15,20.26
6550,0.1572,-0.2181,0.8724,-6.26,7.48,-0.15,20.26
6560,0.1583,-0.2178,0.8719,-6.14,7.65,-0.14,20.29
6570,0.1589,-0.2188,0.8707,-6.21,7.8,-0.08,20.28
6580,0.1582,-0.22,0.874,-6.17,7.95,0.05,20.27
6590,0.1614,-0.2195,0.8754,-6.08,8.06,0.02,20.3
6600,0.1578,-0.2216,0.8794,-6.09,7.88,-0.03,20.29
6610,0.156,-0.2214,0.8795,-5.92,7.6,-0.18,20.29
6620,0.1587,-0.2219,0.8778,-5.97,7.28,-0.18,20.27
6630,0.1619,-0.2219,0.8739,-5.97,7.11,-0.18,20.27
6640,0.1635,-0.2223,0.8688,-6.02,7.27,-0.15,20.28
6650,0.1653,-0.2223,0.869,-5.97,7.51,-0.06,20.27
6660,0.1635,-0.2209,0.8673,-6.0,7.91,-0.09,20.29
6670,0.1643,-0.2146,0.8606,-6.14,8.06,0.02,20.26
6680,0.1559,-0.2104,0.8623,-6.27,8.11,0.0,20.28
6690,0.157,-0.2124,0.8563,-6.49,7.95,-0.12,20.29
6700,0.1586,-0.2142,0.8457,-6.37,7.74,-0.11,20.28
6710,0.1573,-0.218,0.8448,-6.15,7.68,-0.12,20.27
6720,0.1554,-0.2175,0.8453,-6.03,7.73,-0.02,20.28
6730,0.1534,-0.2146,0.8494,-5.65,7.77,0.0,20.31
6740,0.1511,-0.2133,0.8485,-5.59,7.73,-0.02,20.3
6750,0.1499,-0.2068,0.8562,-5.54,7.82,0.03,20.32
6760,0.1526,-0.2068,0.8636,-5.74,7.92,0.14,20.29
6770,0.1499,-0.2006,0.8688,-5.82,8.03,0.06,20.29
6780,0.1481,-0.2025,0.8702,-6.08,8.2,0.08,20.29
6790,0.1487,-0.2075,0.8699,-6.26,8.12,-0.02,20.29
6800,0.1497,-0.2133,0.8722,-6.24,7.98,-0.03,20.3
6810,0.1493,-0.2157,0.8751,-6.21,7.82,-0.03,20.28
6820,0.1511,-0.218,0.873,-6.14,7.68,-0.03,20.28
6830,0.1545,-0.2202,0.8755,-5.82,7.82,0.02,20.29
6840,0.1539,-0.2184,0.879,-5.71,7.89,0.03,20.28
6850,0.1505,-0.2144,0.8794,-5.82,7.91,0.06,20.28
6860,0.1543,-0.2104,0.8816,-5.86,7.83,-0.03,20.28
6870,0.1521,-0.2115,0.8806,-5.94,7.74,-0.12,20.29
6880,0.1526,-0.2114,0.8782,-6.11,7.6,-0.15,20.29
6890,0.1512,-0.2089,0.8729,-6.09,7.69,-0.17,20.29
6900,0.1556,-0.2118,0.8732,-6.05,7.68,-0.08,20.27
6910,0.1521,-0.2112,0.8729,-5.92,7.71,-0.09,20.28
6920,0.1515,-0.2111,0.8726,-5.94,7.73,-0.12,20.3
6930,0.1536,-0.2079,0.8668,-6.02,7.65,-0.06,20.27
6941,0.1534,-0.2074,0.8673,-6.08,7.6,-0.09,20.29
6951,0.1498,-0.2041,0.8639,-6.12,7.65,-0.06,20.28
6961,0.151,-0.2042,0.8625,-6.14,7.71,-0.09,20.28
6971,0.152,-0.2064,0.858,-6.18,7.77,-0.08,20.29
6981,0.153,-0.2068,0.8571,-6.31,7.79,-0.08,20.31
6991,0.151,-0.2087,0.8569,-6.32,7.69,-0.06,20.29
7001,0.1548,-0.2079,0.8584,-6.32,7.66,-0.06,20.29
7011,0.1577,-0.2112,0.8571,-6.38,7.74,-0.08,20.29
7021,0.1548,-0.212,0.8564,-6.38,7.8,-0.06,20.31
7031,0.1561,-0.2114,0.8527,-6.24,7.82,-0.02,20.31
7041,0.1559,-0.2115,0.856,-6.14,7.73,-0.09,20.32
7051,0.1548,-0.2136,0.8569,-6.0,7.71,-0.11,20.29
7061,0.1567,-0.2119,0.8623,-6.03,7.57,-0.11,20.31
7071,0.1561,-0.2141,0.8658,-6.11,7.71,-0.05,20.3
7081,0.1572,-0.2117,0.869,-6.26,7.88,-0.02,20.27
7091,0.1591,-0.2152,0.8706,-6.35,7.94,-0.08,20.28
7101,0.1547,-0.2191,0.869,-6.35,7.97,-0.05,20.32
7111,0.1553,-0.2173,0.8706,-6.29,7.82,-0.06,20.31
7121,0.1542,-0.2209,0.8724,-6.15,7.8,-0.14,20.32
7131,0.1558,-0.222,0.875,-6.11,7.73,-0.03,20.31
7141,0.1538,-0.2217,0.8765,-5.95,7.74,-0.06,20.31
7151,0.1569,-0.228,0.88,-6.09,7.68,-0.02,20.32
7161,0.157,-0.2241,0.8779,-5.98,7.66,0.0,20.29
7171,0.1567,-0.2246,0.8754,-6.12,7.74,-0.09,20.31
7181,0.1588,-0.2235,0.876,-6.06,7.76,-0.09,20.31
7191,0.1578,-0.2212,0.8739,-6.09,7.71,-0.03,20.3
7201,0.1586,-0.2214,0.8685,-6.02,7.68,0.0,20.3
7211,0.1605,-0.222,0.8698,-5.92,7.65,-0.03,20.28
7221,0.1572,-0.2197,0.8672,-5.86,7.71,-0.11,20.29
7231,0.1583,-0.2153,0.8633,-5.82,7.69,-0.03,20.32
7241,0.1567,-0.2134,0.8618,-5.8,7.73,-0.08,20.31
7251,0.1576,-0.2129,0.8645,-5.94,7.68,-0.02,20.29
7261,0.1556,-0.2136,0.8604,-6.02,7.79,0.02,20.3
7271,0.1565,-0.212,0.8618,-5.92,7.85,-0.05,20.3
7288,0.1531,-0.2108,0.8602,-6.03,7.77,-0.02,20.3
7298,0.1554,-0.2095,0.8618,-6.0,7.79,-0.02,20.32
7308,0.1526,-0.213,0.8561,-5.92,7.77,-0.08,20.3
7318,0.1532,-0.2085,0.8572,-5.86,7.77,0.02,20.29
7328,0.1517,-0.2094,0.8578,-5.89,7.74,-0.05,20.3
7338,0.1532,-0.2086,0.8582,-6.03,7.71,0.05,20.33
7348,0.1506,-0.2062,0.8638,-6.0,7.82,0.0,20.32
7358,0.1504,-0.2069,0.865,-6.18,7.88,-0.03,20.32
7368,0.1503,-0.2081,0.8634,-6.03,7.83,0.02,20.32
7378,0.1527,-0.2117,0.8627,-5.97,7.66,0.03,20.33
7388,0.1509,-0.2086,0.8633,-6.08,7.74,-0.06,20.31
7398,0.1532,-0.2096,0.8724,-6.08,7.76,-0.06,20.3
7408,0.1541,-0.2104,0.8701,-6.0,7.83,-0.05,20.31
7418,0.1552,-0.2075,0.8695,-6.02,7.85,-0.03,20.34
7428,0.153,-0.2126,0.8756,-6.0,7.77,0.05,20.32
7438,0.1525,-0.2091,0.8828,-5.95,7.62,-0.05,20.32
7448,0.1506,-0.2104,0.884,-6.03,7.56,-0.08,20.3
7458,0.1564,-0.2136,0.886,-6.02,7.5,-0.03,20.29
7468,0.1577,-0.2134,0.8806,-6.11,7.6,-0.09,20.33
7478,0.1548,-0.2126,0.8865,-6.2,7.77,-0.03,20.3
7488,0.1567,-0.2159,0.8824,-6.27,7.8,0.03,20.3
7498,0.158,-0.2148,0.8848,-6.43,7.86,-0.06,20.33
7508,0.1548,-0.2131,0.8734,-6.35,7.69,-0.12,20.32
7518,0.1539,-0.2169,0.8662,-6.23,7.63,-0.14,20.31
7528,0.1552,-0.2151,0.8673,-6.17,7.56,-0.09,20.31
7538,0.1608,-0.2126,0.8608,-5.97,7.44,-0.18,20.31
7548,0.1595,-0.2148,0.8588,-5.89,7.51,-0.12,20.32
7558,0.1564,-0.212,0.8589,-5.89,7.63,-0.11,20.32
7568,0.1558,-0.2079,0.858,-6.03,7.79,-0.08,20.32
7578,0.1553,-0.2086,0.8574,-6.11,7.82,-0.12,20.32
7588,0.1559,-0.2095,0.8599,-6.26,7.83,-0.12,20.31
7598,0.1519,-0.2115,0.8561,-6.31,7.86,-0.11,20.31
7608,0.1515,-0.2084,0.8533,-6.34,7.89,-0.03,20.33
7618,0.1501,-0.21,0.8553,-6.02,7.82,-0.08,20.32
7628,0.1533,-0.2109,0.863,-5.91,7.65,0.02,20.31
7638,0.1543,-0.2113,0.8698,-5.94,7.68,-0.08,20.33
7648,0.1519,-0.2115,0.8723,-6.03,7.63,-0.02,20.33
7658,0.157,-0.2133,0.8761,-6.15,7.8,0.02,20.31
7668,0.1548,-0.2126,0.8685,-6.38,7.92,-0.02,20.32
7678,0.1539,-0.213,0.8667,-6.35,7.94,0.05,20.33
7688,0.1538,-0.2147,0.8671,-6.29,7.98,0.0,20.32
7698,0.1528,-0.2173,0.8665,-6.21,7.83,-0.05,20.31
7708,0.1537,-0.2163,0.8683,-6.2,7.82,-0.05,20.31
7718,0.1533,-0.2188,0.8672,-6.14,7.69,-0.06,20.32
7728,0.1539,-0.2188,0.8674,-6.05,7.65,-0.14,20.32
7738,0.1567,-0.2211,0.869,-6.03,7.71,-0.05,20.34
7748,0.1531,-0.218,0.8688,-5.97,7.68,-0.03,20.31
7758,0.1562,-0.2152,0.8728,-6.0,7.76,-0.03,20.35
7768,0.1552,-0.215,0.869,-5.92,7.82,0.0,20.31
7778,0.1556,-0.2167,0.8761,-5.97,7.74,-0.06,20.33
7788,0.1576,-0.2144,0.8743,-6.14,7.74,-0.08,20.32
7798,0.1558,-0.2153,0.8716,-6.18,7.76,-0.09,20.3
7808,0.1573,-0.215,0.8673,-6.2,7.8,-0.03,20.33
7818,0.1552,-0.219,0.8688,-6.14,7.74,-0.03,20.35
7828,0.1575,-0.2181,0.8657,-5.97,7.73,-0.08,20.35
7838,0.1565,-0.2172,0.8683,-5.92,7.6,-0.05,20.33
7848,0.1565,-0.2164,0.8667,-5.83,7.56,-0.09,20.31
7858,0.1575,-0.2177,0.8627,-5.85,7.69,-0.08,20.34
7868,0.1578,-0.213,0.8634,-6.03,7.77,-0.05,20.32
7878,0.1566,-0.212,0.8617,-6.05,7.73,0.0,20.35
7888,0.1549,-0.2122,0.8624,-6.02,7.73,0.0,20.36
7898,0.1588,-0.2101,0.8599,-6.08,7.74,-0.09,20.35
7908,0.1541,-0.2113,0.8594,-5.94,7.66,-0.06,20.31
7918,0.1552,-0.2128,0.8613,-5.85,7.62,-0.05,20.32
7928,0.1542,-0.2118,0.8636,-5.88,7.69,-0.02,20.32
7938,0.1532,-0.2095,0.8638,-5.92,7.73,-0.05,20.33
7948,0.1547,-0.2086,0.8695,-5.95,7.68,-0.08,20.33
7958,0.1545,-0.21,0.865,-6.05,7.71,-0.05,20.31
7968,0.1514,-0.2113,0.8635,-6.02,7.79,0.02,20.34
7978,0.1552,-0.2081,0.8662,-6.12,7.77,-0.05,20.34
7988,0.1521,-0.2094,0.8682,-6.23,7.85,-0.03,20.32
7998,0.1525,-0.2126,0.8724,-6.18,7.83,0.02,20.33
8008,0.1521,-0.2131,0.869,-6.15,7.76,-0.02,20.32
8018,0.1544,-0.2097,0.8628,-6.26,7.73,0.0,20.33
8028,0.1522,-0.2118,0.869,-6.12,7.73,-0.11,20.33
8038,0.1514,-0.2118,0.8646,-6.11,7.62,0.03,20.33
8048,0.1527,-0.2115,0.8658,-6.08,7.73,-0.09,20.35
8058,0.1534,-0.2119,0.8649,-6.02,7.82,-0.05,20.33
8068,0.1549,-0.2139,0.8667,-5.97,7.82,-0.08,20.32
8078,0.1547,-0.2122,0.8699,-5.98,7.77,0.0,20.32
8088,0.1549,-0.2136,0.8783,-6.24,7.73,-0.14,20.32
8098,0.1583,-0.2122,0.87,-6.23,7.66,-0.12,20.33
8108,0.1556,-0.2112,0.8706,-6.18,7.76,-0.03,20.35
8118,0.1578,-0.2104,0.8711,-6.11,7.79,-0.06,20.34
8128,0.1525,-0.2124,0.8678,-6.08,7.86,-0.02,20.33
8138,0.1526,-0.2113,0.8667,-5.98,7.83,0.0,20.31
8148,0.1521,-0.2108,0.8734,-6.18,7.73,-0.05,20.32
8158,0.1536,-0.2097,0.8687,-6.17,7.77,-0.12,20.32
8168,0.1543,-0.2134,0.8632,-6.26,7.83,-0.09,20.33
8178,0.153,-0.2168,0.8619,-6.35,7.85,-0.03,20.33
8188,0.1501,-0.2161,0.86,-6.2,7.86,-0.06,20.35
8198,0.1539,-0.2167,0.8621,-6.11,7.76,-0.05,20.34
8208,0.156,-0.2198,0.8595,-6.05,7.69,-0.06,20.34
8218,0.1556,-0.2179,0.8605,-6.0,7.57,-0.05,20.34
8228,0.157,-0.2153,0.8617,-6.03,7.63,0.02,20.33
8238,0.1603,-0.2167,0.8617,-6.05,7.73,-0.14,20.32
8248,0.1548,-0.2131,0.8658,-5.97,7.82,-0.06,20.31
8258,0.1534,-0.214,0.8672,-6.03,7.8,-0.06,20.31
8268,0.1523,-0.2123,0.8665,-6.08,7.66,0.03,20.31
8278,0.1559,-0.2145,0.8658,-6.08,7.65,-0.06,20.34
8288,0.1545,-0.2153,0.8672,-6.11,7.76,-0.03,20.34
8298,0.1556,-0.2155,0.8668,-6.17,7.86,-0.02,20.33
8308,0.156,-0.2168,0.8713,-6.21,7.85,-0.05,20.33
8318,0.1539,-0.2175,0.8696,-6.06,7.83,-0.02,20.34
8328,0.1548,-0.2185,0.8688,-6.0,7.68,-0.02,20.35
8338,0.155,-0.2162,0.8693,-6.0,7.6,0.0,20.36
8348,0.1566,-0.2162,0.8706,-5.95,7.6,-0.09,20.32
8358,0.158,-0.2183,0.8732,-5.94,7.69,-0.05,20.35
8368,0.1564,-0.2147,0.873,-6.02,7.83,-0.08,20.36
8378,0.1542,-0.2152,0.8708,-6.03,7.83,0.0,20.32
8388,0.1558,-0.2186,0.8668,-6.08,7.77,-0.06,20.32
8398,0.1538,-0.2141,0.8693,-6.0,7.65,-0.08,20.31
8408,0.1545,-0.2136,0.8678,-5.98,7.62,-0.05,20.32
8418,0.1576,-0.212,0.8667,-5.92,7.63,-0.08,20.34
8428,0.157,-0.2101,0.8667,-5.74,7.68,-0.03,20.33
8438,0.1562,-0.2107,0.8723,-5.85,7.65,-0.02,20.34
8448,0.1567,-0.2072,0.8706,-5.89,7.71,-0.09,20.37
8458,0.1565,-0.2091,0.8662,-5.98,7.74,-0.03,20.35
8468,0.1538,-0.2069,0.8639,-6.06,7.76,-0.05,20.32
8478,0.1533,-0.2062,0.8628,-6.11,7.89,-0.05,20.35
8488,0.1517,-0.2067,0.8621,-6.11,7.91,0.0,20.34
8498,0.1538,-0.2122,0.8604,-6.0,7.95,-0.03,20.34
8508,0.1531,-0.2112,0.8728,-6.02,7.85,-0.09,20.35
8518,0.1493,-0.2111,0.8683,-6.14,7.65,0.0,20.34
8528,0.1539,-0.2122,0.8672,-6.14,7.65,-0.06,20.34
8538,0.1532,-0.2085,0.869,-6.05,7.63,-0.05,20.34
8548,0.152,-0.2103,0.866,-6.03,7.73,-0.06,20.34
8558,0.1489,-0.2081,0.8658,-5.98,7.83,-0.03,20.34
8568,0.1493,-0.2054,0.8649,-6.05,7.71,0.0,20.34
8578,0.153,-0.2123,0.8711,-6.11,7.83,0.02,20.34
8588,0.1517,-0.2119,0.87,-6.05,7.76,-0.08,20.34
8598,0.1525,-0.2137,0.8706,-6.17,7.82,-0.09,20.35
8608,0.1554,-0.2161,0.8729,-6.15,7.82,-0.05,20.33
8618,0.1532,-0.2157,0.8715,-6.15,7.85,-0.09,20.35
8628,0.1549,-0.217,0.8674,-6.17,7.77,-0.08,20.36
8638,0.1552,-0.2147,0.8708,-6.0,7.56,-0.02,20.34
8648,0.1549,-0.2148,0.8757,-5.86,7.5,-0.05,20.35
8658,0.1515,-0.2104,0.8783,-6.15,7.79,-0.08,20.34
8668,0.1561,-0.2137,0.8704,-6.0,7.42,-0.09,20.37
8678,0.1487,-0.2002,0.8735,-6.11,7.24,0.09,20.34
8688,0.1421,-0.2023,0.8727,-6.18,7.79,-0.08,20.36
8698,0.145,-0.2062,0.8671,-6.23,8.09,-0.29,20.35
8708,0.1477,-0.209,0.8694,-6.06,7.76,-0.08,20.33
8718,0.1517,-0.2141,0.8741,-5.82,7.71,0.0,20.37
8728,0.1615,-0.2152,0.8693,-5.92,7.86,-0.06,20.33
8738,0.1626,-0.2119,0.8633,-6.15,7.73,-0.05,20.34
8748,0.1558,-0.2131,0.8649,-6.24,7.73,-0.08,20.35
8758,0.1516,-0.2159,0.8684,-6.21,7.89,-0.06,20.35
8768,0.1512,-0.214,0.865,-6.37,8.06,-0.05,20.35
8778,0.1526,-0.2166,0.8611,-6.24,7.91,-0.03,20.34
8788,0.1533,-0.2157,0.8578,-6.05,7.66,0.0,20.35
8798,0.1522,-0.219,0.8652,-5.94,7.62,-0.06,20.34
8808,0.1541,-0.2196,0.8651,-6.11,7.74,-0.21,20.34
8818,0.1577,-0.2188,0.8661,-5.98,7.63,-0.12,20.37
8828,0.1592,-0.218,0.8656,-6.0,7.66,0.0,20.34
8838,0.1562,-0.2159,0.8683,-6.0,7.82,-0.03,20.33
8848,0.1556,-0.2151,0.869,-6.08,7.86,-0.02,20.35
8858,0.1531,-0.2103,0.8657,-6.06,7.82,0.02,20.35
8868,0.1543,-0.2131,0.8655,-5.92,7.73,0.0,20.33
8878,0.1532,-0.208,0.8604,-6.14,7.73,-0.09,20.36
8888,0.156,-0.2072,0.8651,-6.02,7.8,0.0,20.33
8898,0.1536,-0.214,0.866,-6.18,7.92,-0.03,20.37
8908,0.155,-0.2125,0.8711,-6.12,7.98,-0.03,20.36
8918,0.1553,-0.2151,0.8704,-6.17,7.86,0.08,20.35
8928,0.1544,-0.2164,0.8726,-6.11,7.77,0.02,20.35
8938,0.1548,-0.2162,0.8715,-6.21,7.8,-0.05,20.33
8948,0.1556,-0.2172,0.8732,-6.18,7.76,-0.05,20.35
8958,0.1526,-0.2133,0.8683,-6.18,7.76,0.0,20.33
8968,0.1553,-0.2147,0.8652,-6.11,7.76,0.02,20.35
8978,0.1531,-0.2118,0.8666,-5.88,7.65,-0.09,20.34
8988,0.1566,-0.2097,0.8677,-5.89,7.68,-0.03,20.35
8998,0.1559,-0.2107,0.8718,-5.98,7.62,-0.05,20.36
9008,0.1539,-0.2112,0.8669,-6.05,7.62,-0.09,20.35
9018,0.1531,-0.2141,0.8638,-6.08,7.74,-0.06,20.35
9028,0.1521,-0.2134,0.8646,-6.12,7.76,-0.09,20.36
9038,0.1562,-0.2097,0.8627,-6.14,7.79,0.0,20.34
9048,0.1536,-0.2092,0.8645,-6.0,7.77,-0.05,20.34
9058,0.1522,-0.2104,0.8684,-6.02,7.76,-0.06,20.35
9068,0.1504,-0.2109,0.8694,-6.21,7.76,-0.08,20.34
9078,0.1504,-0.2118,0.8632,-6.2,7.62,-0.11,20.33
9088,0.1561,-0.2122,0.8622,-6.05,7.6,-0.06,20.34
9098,0.1552,-0.2117,0.8627,-6.0,7.69,-0.09,20.36
9108,0.1554,-0.2139,0.8655,-6.06,7.74,-0.03,20.33
9118,0.1549,-0.2145,0.8673,-5.98,7.69,-0.08,20.36
9128,0.1549,-0.2145,0.8672,-5.98,7.63,-0.03,20.34
9138,0.1534,-0.2119,0.8755,-6.12,7.62,-0.06,20.33
9148,0.1556,-0.2112,0.8684,-6.27,7.73,-0.11,20.35
9158,0.1555,-0.2151,0.8667,-6.09,7.77,-0.14,20.36
9168,0.1575,-0.2123,0.8652,-5.97,7.76,-0.02,20.35
9178,0.1561,-0.2161,0.8746,-6.0,7.82,-0.05,20.35
9188,0.153,-0.2131,0.8669,-6.11,7.8,-0.05,20.34
9198,0.1549,-0.2151,0.8707,-6.14,7.79,0.0,20.34
9208,0.1509,-0.2156,0.8689,-6.38,7.69,-0.12,20.34
9218,0.1526,-0.2136,0.8687,-6.38,7.68,-0.11,20.36
9228,0.1531,-0.214,0.8641,-6.21,7.71,-0.09,20.36
9238,0.1573,-0.2135,0.8634,-5.94,7.59,-0.08,20.35
9248,0.158,-0.2126,0.8651,-5.77,7.56,-0.09,20.33
9258,0.1587,-0.2144,0.8708,-5.71,7.63,-0.06,20.34
9268,0.1549,-0.208,0.869,-6.08,7.59,-0.09,20.35
9278,0.1514,-0.2078,0.863,-6.53,7.51,-0.12,20.35
9288,0.1561,-0.2155,0.8588,-6.6,7.56,-0.14,20.34
9298,0.1671,-0.217,0.865,-6.06,7.92,0.03,20.35
9308,0.1672,-0.2157,0.8772,-5.28,8.32,0.12,20.37
9318,0.1554,-0.2142,0.8906,-5.16,8.23,0.11,20.37
9328,0.1555,-0.2133,0.8936,-5.89,7.63,-0.08,20.39
9338,0.1587,-0.2118,0.8868,-6.84,7.3,-0.21,20.36
9348,0.1598,-0.2155,0.8651,-7.04,7.31,-0.24,20.38
9358,0.1571,-0.2174,0.8505,-6.7,7.76,-0.06,20.34
9368,0.1537,-0.217,0.8472,-6.15,8.41,0.02,20.36
9378,0.147,-0.2131,0.8499,-5.65,8.5,0.11,20.35
9388,0.1462,-0.2081,0.8606,-5.47,8.14,0.03,20.35
9398,0.1417,-0.2061,0.8641,-5.74,7.37,-0.05,20.36
9408,0.1445,-0.2064,0.8605,-6.31,6.99,-0.18,20.37
9418,0.1464,-0.2087,0.8564,-6.61,7.34,-0.18,20.37
9428,0.1488,-0.2129,0.8572,-6.53,7.91,-0.09,20.35
9438,0.1494,-0.2142,0.8597,-6.24,8.24,-0.05,20.37
9448,0.1509,-0.2181,0.8688,-5.66,7.97,-0.02,20.36
9458,0.1512,-0.2152,0.879,-5.39,7.42,-0.05,20.38
9468,0.158,-0.2129,0.8833,-5.63,7.07,-0.05,20.37
9478,0.1627,-0.2123,0.8854,-6.23,7.34,-0.14,20.35
9488,0.1625,-0.2111,0.8798,-6.82,7.89,-0.02,20.37
9498,0.1587,-0.2167,0.8721,-6.84,8.27,-0.02,20.36
9508,0.1562,-0.217,0.8658,-6.44,8.03,-0.03,20.35
9518,0.1558,-0.2156,0.8636,-5.85,7.57,-0.06,20.37
9528,0.1532,-0.2104,0.8632,-5.65,7.24,-0.14,20.36
9538,0.156,-0.2092,0.865,-5.97,7.33,-0.09,20.36
9548,0.156,-0.2106,0.8605,-6.43,7.71,-0.11,20.38
9558,0.1538,-0.212,0.8569,-6.55,8.14,-0.02,20.37
9568,0.1519,-0.2125,0.8608,-6.34,8.12,0.02,20.36
9578,0.1534,-0.214,0.8617,-5.85,7.82,-0.05,20.36
9588,0.1523,-0.2146,0.8707,-5.5,7.36,-0.17,20.33
9599,0.155,-0.2137,0.8772,-5.59,7.34,-0.17,20.36
9609,0.1573,-0.2122,0.8805,-5.92,7.56,-0.09,20.35
9619,0.1586,-0.214,0.877,-6.41,7.95,-0.08,20.37
9629,0.1552,-0.2183,0.8759,-6.55,8.03,0.02,20.36
9639,0.1543,-0.2161,0.8657,-6.37,7.91,-0.05,20.37
9649,0.1522,-0.2212,0.8656,-6.02,7.74,-0.03,20.37
9659,0.1565,-0.2156,0.8668,-5.83,7.59,-0.05,20.37
9669,0.1575,-0.2175,0.8618,-5.88,7.57,-0.11,20.36
9679,0.1548,-0.2155,0.8652,-5.97,7.82,-0.06,20.36
9689,0.1533,-0.2167,0.8643,-6.23,7.92,-0.08,20.35
9699,0.1522,-0.2147,0.8662,-6.26,7.92,-0.05,20.39
9709,0.152,-0.2142,0.8612,-6.2,7.83,-0.05,20.35
9719,0.1553,-0.2131,0.8622,-6.03,7.65,-0.08,20.33
9729,0.1544,-0.2139,0.8599,-6.0,7.6,-0.08,20.36
9739,0.1556,-0.215,0.863,-6.03,7.77,-0.05,20.35
9749,0.1554,-0.2166,0.8658,-6.15,7.86,-0.02,20.37
9759,0.1569,-0.2122,0.8588,-6.23,7.89,-0.05,20.37
9769,0.1497,-0.2147,0.8611,-6.23,7.85,-0.05,20.36
9779,0.1558,-0.2185,0.8633,-5.97,7.68,-0.05,20.36
9789,0.1525,-0.2161,0.8647,-5.83,7.66,0.02,20.37
9799,0.1561,-0.2117,0.8647,-5.83,7.68,-0.08,20.39
9809,0.1549,-0.2136,0.8702,-6.05,7.8,-0.03,20.38
9819,0.1561,-0.2124,0.8707,-6.2,7.94,0.0,20.37
9829,0.1526,-0.2145,0.8638,-6.29,7.86,0.0,20.37
9839,0.1547,-0.2153,0.8644,-6.24,7.74,-0.09,20.36
9849,0.1543,-0.2146,0.8593,-6.0,7.71,-0.12,20.38
9859,0.1528,-0.2152,0.8638,-5.89,7.59,0.03,20.37
9869,0.1553,-0.2137,0.8695,-5.89,7.68,0.0,20.36
9879,0.158,-0.2117,0.8687,-5.86,7.69,-0.05,20.35
9889,0.1538,-0.2147,0.8723,-6.0,7.63,-0.02,20.37
9899,0.1558,-0.2145,0.8728,-6.11,7.76,0.0,20.37
9909,0.1565,-0.2142,0.8752,-6.09,7.76,-0.05,20.36
9919,0.1573,-0.2141,0.8708,-6.11,7.69,-0.09,20.37
9929,0.1559,-0.2128,0.8761,-6.08,7.74,0.02,20.37
9939,0.1542,-0.2137,0.8733,-6.09,7.74,-0.03,20.37
9949,0.1548,-0.2151,0.8661,-6.08,7.62,-0.09,20.37
9959,0.1556,-0.2146,0.8678,-6.11,7.62,-0.03,20.39
9969,0.1545,-0.2118,0.8701,-6.06,7.59,-0.06,20.4
9979,0.1559,-0.2119,0.8706,-5.94,7.69,0.0,20.36
9989,0.1542,-0.2114,0.8694,-5.97,7.69,-0.05,20.37
9999,0.1528,-0.2106,0.8644,-6.12,7.74,-0.08,20.37
10009,0.1545,-0.2102,0.8629,-6.2,7.71,0.0,20.37
10019,0.1532,-0.2101,0.8622,-6.26,7.76,-0.02,20.39
10029,0.1583,-0.2107,0.861,-6.17,7.83,-0.11,20.37
10039,0.1544,-0.2135,0.8632,-6.15,7.89,0.03,20.37
10049,0.1542,-0.2136,0.8645,-6.02,7.82,0.0,20.38
10059,0.1523,-0.2135,0.8629,-6.05,7.74,-0.11,20.39
10069,0.1505,-0.2104,0.8682,-6.05,7.62,-0.08,20.34
10079,0.1527,-0.2126,0.8607,-6.14,7.71,-0.03,20.38
10089,0.1508,-0.2133,0.864,-6.08,7.8,-0.09,20.4
10099,0.1541,-0.2125,0.8617,-6.2,7.86,-0.03,20.37
10109,0.1531,-0.2131,0.8638,-6.18,7.83,-0.05,20.35
10119,0.1533,-0.2131,0.8643,-6.12,7.71,-0.06,20.35
10129,0.1554,-0.2102,0.863,-6.06,7.65,-0.09,20.36
10139,0.1542,-0.2137,0.8657,-6.02,7.73,-0.09,20.37
10149,0.1516,-0.2126,0.8671,-6.05,7.79,-0.02,20.38
10159,0.1515,-0.2118,0.8662,-6.06,7.94,-0.03,20.38
10169,0.1544,-0.2153,0.8683,-6.06,7.82,-0.09,20.39
10179,0.1547,-0.2163,0.8685,-6.14,7.76,-0.03,20.38
10189,0.158,-0.2141,0.8713,-6.14,7.71,-0.02,20.39
10199,0.1589,-0.218,0.871,-6.02,7.69,-0.02,20.39
10209,0.158,-0.2167,0.875,-6.05,7.83,0.02,20.38
10219,0.1586,-0.2148,0.8743,-6.06,7.91,-0.06,20.37
10230,0.1575,-0.2146,0.8737,-6.11,7.83,-0.02,20.37
10240,0.1562,-0.2172,0.8704,-6.11,7.68,-0.11,20.37
10250,0.1562,-0.2184,0.869,-6.11,7.62,-0.03,20.37
10260,0.1562,-0.2167,0.8679,-6.06,7.71,-0.12,20.38
10270,0.1543,-0.2189,0.8652,-6.08,7.73,0.02,20.41
10280,0.1531,-0.2135,0.8595,-5.97,7.69,0.0,20.38
10290,0.1543,-0.2124,0.8649,-5.94,7.73,-0.05,20.35
10300,0.1536,-0.2092,0.8624,-5.94,7.73,0.0,20.39
10310,0.1523,-0.2061,0.8602,-5.95,7.65,-0.06,20.37
10320,0.1547,-0.2097,0.864,-6.09,7.65,-0.06,20.38
10330,0.1511,-0.2052,0.8621,-6.11,7.76,-0.03,20.37
10340,0.1523,-0.2058,0.8601,-6.17,7.74,-0.08,20.39
10350,0.1542,-0.2097,0.8645,-6.06,7.73,-0.02,20.42
10360,0.1515,-0.2075,0.8673,-5.97,7.63,-0.02,20.37
10370,0.1522,-0.2107,0.8672,-5.98,7.69,-0.08,20.37
10380,0.1527,-0.2109,0.8722,-6.21,7.79,-0.06,20.36
10390,0.1528,-0.2112,0.8729,-6.31,7.83,-0.12,20.39
10400,0.1555,-0.2104,0.8748,-6.35,7.82,-0.06,20.38
10410,0.1544,-0.213,0.8727,-6.24,7.83,-0.02,20.4
10420,0.1545,-0.2156,0.8719,-6.14,7.79,-0.11,20.39
10430,0.1556,-0.2126,0.8716,-6.17,7.69,-0.02,20.37
10440,0.1561,-0.2129,0.8715,-6.0,7.6,-0.06,20.39
10450,0.1581,-0.2167,0.8683,-6.09,7.68,-0.12,20.38
10460,0.1537,-0.2156,0.8691,-6.15,7.83,-0.06,20.37
10470,0.155,-0.2148,0.8651,-6.21,7.91,-0.05,20.36
10480,0.1577,-0.2117,0.8706,-6.14,7.97,0.0,20.39
10490,0.1537,-0.214,0.8652,-6.26,7.82,-0.06,20.39
10500,0.1519,-0.2155,0.8658,-6.17,7.76,-0.03,20.4
10510,0.1517,-0.2118,0.8662,-6.12,7.76,-0.05,20.39
10520,0.1523,-0.2158,0.8623,-6.11,7.63,-0.11,20.37
10530,0.1534,-0.2135,0.8676,-6.02,7.69,-0.09,20.39
10540,0.1542,-0.2141,0.8657,-5.98,7.71,-0.05,20.38
10550,0.1553,-0.2157,0.8689,-6.02,7.79,-0.11,20.38
10560,0.1512,-0.2145,0.8695,-6.08,7.82,-0.03,20.37
10570,0.1536,-0.2156,0.8629,-6.11,7.85,-0.03,20.39
10580,0.1542,-0.2173,0.8597,-6.23,7.83,-0.03,20.38
10590,0.1545,-0.2147,0.865,-6.14,7.86,0.0,20.39
10600,0.1558,-0.2151,0.8622,-6.2,7.76,-0.08,20.38
10610,0.1553,-0.2173,0.8597,-6.02,7.73,-0.14,20.37
10620,0.1538,-0.2196,0.8601,-5.86,7.59,-0.11,20.38
10630,0.1559,-0.2175,0.8613,-5.85,7.6,-0.08,20.37
10640,0.1573,-0.2141,0.8683,-5.85,7.74,-0.03,20.38
10650,0.1576,-0.213,0.8645,-5.91,7.83,-0.03,20.39
10660,0.1572,-0.2115,0.8695,-6.08,7.97,-0.05,20.39
10670,0.1525,-0.2135,0.8695,-6.17,7.86,-0.02,20.39
10680,0.1527,-0.2142,0.869,-6.14,7.73,-0.05,20.4
10690,0.1523,-0.2155,0.8667,-6.06,7.71,-0.02,20.41
10700,0.155,-0.2157,0.8646,-6.0,7.59,-0.03,20.4
10710,0.1559,-0.2156,0.8658,-5.94,7.62,-0.03,20.39
10720,0.1545,-0.2157,0.8695,-5.82,7.74,-0.03,20.38
10730,0.1547,-0.2163,0.8717,-5.94,7.79,-0.08,20.39
10740,0.1548,-0.2136,0.8696,-5.97,7.66,-0.08,20.4
10750,0.1543,-0.2137,0.8716,-6.02,7.66,-0.05,20.39
10760,0.155,-0.2122,0.8694,-6.14,7.63,-0.11,20.38
10770,0.1543,-0.2128,0.8704,-6.05,7.69,-0.06,20.36
10780,0.1536,-0.2124,0.8706,-6.12,7.69,-0.05,20.4
10790,0.1573,-0.2111,0.8687,-5.97,7.69,-0.11,20.39
10800,0.1521,-0.2126,0.8662,-5.89,7.68,-0.08,20.39
10810,0.1543,-0.2139,0.8672,-5.94,7.66,-0.03,20.38
10820,0.1547,-0.2115,0.8688,-6.06,7.74,-0.03,20.4
10830,0.1545,-0.2112,0.8674,-6.14,7.69,-0.02,20.41
10840,0.1534,-0.2125,0.8656,-6.14,7.68,-0.06,20.39
10850,0.1552,-0.2114,0.8677,-6.05,7.65,-0.06,20.4
10860,0.1537,-0.2109,0.8677,-6.11,7.71,-0.05,20.39
10870,0.1542,-0.2101,0.868,-5.94,7.6,-0.05,20.39
10880,0.1536,-0.2107,0.8654,-6.06,7.71,-0.09,20.4
10890,0.1545,-0.2092,0.8688,-6.12,7.76,-0.06,20.41
10900,0.1559,-0.2107,0.86,-6.23,7.88,-0.09,20.39
10910,0.1534,-0.2104,0.8651,-6.18,7.82,0.02,20.4
10920,0.1498,-0.2137,0.8632,-6.0,7.79,-0.11,20.41
10930,0.1521,-0.2117,0.8636,-5.95,7.74,-0.08,20.38
10940,0.1553,-0.2123,0.8676,-6.0,7.63,-0.09,20.39
10950,0.156,-0.212,0.8683,-6.02,7.66,-0.05,20.38
10960,0.1542,-0.2134,0.8672,-6.09,7.73,-0.08,20.38
10970,0.1534,-0.2135,0.8676,-6.15,7.89,-0.03,20.39
10980,0.1564,-0.2139,0.8706,-6.18,7.91,-0.03,20.38
10990,0.1554,-0.2128,0.8716,-6.2,7.86,-0.12,20.38
11000,0.1544,-0.2167,0.8698,-6.2,7.85,-0.09,20.4
11010,0.156,-0.2151,0.8684,-6.15,7.83,-0.05,20.41
11020,0.1555,-0.2144,0.8674,-6.29,7.77,-0.08,20.39
11030,0.1532,-0.2145,0.8658,-6.18,7.77,0.02,20.4
11040,0.1541,-0.2135,0.8672,-6.12,7.79,-0.11,20.37
11050,0.1532,-0.2133,0.8667,-5.94,7.83,0.0,20.39
11060,0.1521,-0.214,0.8634,-5.86,7.68,-0.02,20.39
11070,0.1536,-0.2113,0.8687,-5.88,7.71,0.0,20.39
11080,0.1543,-0.2124,0.8671,-6.11,7.71,-0.06,20.39
11090,0.1517,-0.2142,0.8629,-6.17,7.8,-0.08,20.4
11100,0.1522,-0.2122,0.8636,-6.29,7.83,-0.09,20.39
11110,0.1511,-0.2134,0.865,-6.29,7.82,0.0,20.39
11120,0.1534,-0.2126,0.864,-6.08,7.85,-0.06,20.4
11130,0.1553,-0.2139,0.8611,-6.02,7.77,-0.05,20.41
11140,0.1517,-0.2139,0.8629,-6.08,7.71,-0.11,20.41
11150,0.1517,-0.2168,0.8635,-6.09,7.63,-0.05,20.4
11160,0.1526,-0.2157,0.8606,-6.11,7.71,-0.05,20.37
11170,0.1559,-0.2151,0.8666,-6.15,7.74,-0.17,20.39
11180,0.1532,-0.2141,0.8644,-6.02,7.79,-0.06,20.38
11190,0.1534,-0.2148,0.8673,-5.92,7.68,0.06,20.39
11200,0.1545,-0.2155,0.8654,-6.0,7.66,-0.03,20.41
11210,0.157,-0.2145,0.8676,-5.83,7.6,-0.06,20.39
11220,0.1571,-0.2153,0.8737,-5.88,7.62,-0.11,20.42
11230,0.157,-0.2146,0.8706,-5.97,7.73,0.02,20.39
11240,0.1534,-0.2153,0.8743,-6.08,7.69,-0.08,20.39
11250,0.1562,-0.2151,0.873,-6.09,7.71,-0.03,20.41
11260,0.1547,-0.2172,0.8744,-6.06,7.56,0.0,20.39
11270,0.1564,-0.218,0.8696,-5.97,7.62,-0.08,20.41
11280,0.1592,-0.2159,0.8701,-5.94,7.76,-0.08,20.4
11290,0.157,-0.215,0.8689,-6.02,7.76,-0.05,20.4
11300,0.1565,-0.213,0.8699,-6.06,7.77,-0.11,20.38
11310,0.1581,-0.213,0.8677,-6.03,7.68,-0.02,20.39
11320,0.1544,-0.2117,0.868,-6.09,7.62,-0.09,20.39
11330,0.1545,-0.2098,0.8622,-5.97,7.68,-0.03,20.4
11340,0.1534,-0.2064,0.865,-6.03,7.74,-0.11,20.4
11350,0.1526,-0.212,0.8602,-6.02,7.77,-0.08,20.38
11360,0.1559,-0.2114,0.8574,-5.95,7.83,-0.08,20.4
11370,0.1538,-0.2102,0.8566,-6.09,7.83,-0.06,20.4
11380,0.1523,-0.21,0.8622,-6.09,7.71,0.0,20.41
11390,0.1521,-0.2104,0.8589,-6.09,7.79,-0.06,20.4
11400,0.1536,-0.2114,0.861,-6.06,7.83,-0.11,20.4
11410,0.1522,-0.2096,0.8636,-5.95,7.86,-0.06,20.4
11420,0.1499,-0.2104,0.866,-5.85,7.83,0.03,20.39
11430,0.1523,-0.2119,0.8673,-6.09,7.77,-0.08,20.38
11440,0.1521,-0.2102,0.8687,-6.11,7.73,-0.12,20.39
11450,0.1514,-0.2131,0.8706,-6.05,7.74,0.0,20.41
11460,0.1533,-0.2131,0.8695,-6.12,7.79,-0.03,20.39
11470,0.1547,-0.2133,0.8677,-6.21,7.85,-0.06,20.41
11480,0.155,-0.214,0.8671,-6.14,7.83,0.03,20.38
11490,0.151,-0.213,0.8741,-6.08,7.79,-0.06,20.4
11500,0.1549,-0.2144,0.8718,-6.2,7.82,-0.02,20.38
11510,0.1534,-0.2155,0.8715,-6.18,7.69,-0.06,20.39
11520,0.1537,-0.2181,0.869,-6.21,7.68,-0.02,20.4
11530,0.1572,-0.2183,0.8694,-6.14,7.68,-0.08,20.38
11540,0.156,-0.2144,0.8674,-6.12,7.69,-0.03,20.39
11550,0.156,-0.2139,0.8684,-6.05,7.74,-0.09,20.41
11560,0.156,-0.2118,0.8727,-6.11,7.71,-0.09,20.41
11570,0.1562,-0.2152,0.8676,-6.08,7.68,-0.05,20.42
11580,0.1537,-0.2147,0.8645,-6.2,7.74,-0.12,20.41
11590,0.1556,-0.2122,0.8651,-6.15,7.74,-0.09,20.41
11600,0.1578,-0.2146,0.8612,-6.15,7.68,-0.09,20.39
11610,0.1517,-0.2126,0.863,-6.09,7.66,-0.09,20.42
11620,0.1537,-0.2107,0.8635,-6.2,7.74,-0.03,20.42
11630,0.1576,-0.2135,0.8655,-6.15,7.74,-0.17,20.41
11640,0.1565,-0.2135,0.8624,-6.18,7.66,-0.03,20.42
11650,0.1562,-0.2137,0.8611,-6.15,7.8,-0.05,20.42
11660,0.1573,-0.2136,0.8579,-6.38,7.97,-0.17,20.39
11670,0.157,-0.2238,0.856,-6.43,7.89,-0.08,20.4
11680,0.1554,-0.2173,0.8566,-6.15,7.85,0.06,20.43
11690,0.1537,-0.2179,0.8595,-5.98,7.95,0.03,20.4
11700,0.145,-0.214,0.8572,-5.8,7.88,-0.06,20.42
11710,0.1464,-0.2151,0.866,-5.86,7.5,-0.12,20.39
11720,0.1505,-0.2163,0.8669,-5.8,7.28,-0.15,20.41
11730,0.1509,-0.2133,0.8698,-5.77,7.42,-0.02,20.38
11740,0.1504,-0.2096,0.8735,-5.73,7.76,-0.06,20.41
11750,0.1475,-0.2073,0.8779,-5.8,7.86,-0.03,20.41
11760,0.1431,-0.2102,0.8796,-6.08,7.6,0.03,20.4
11770,0.145,-0.2107,0.8744,-6.46,7.42,-0.03,20.42
11780,0.1492,-0.2162,0.8695,-6.5,7.42,-0.08,20.39
11790,0.1566,-0.2153,0.861,-6.27,7.57,-0.14,20.38
11800,0.1604,-0.2168,0.861,-6.0,7.51,0.05,20.39
11810,0.1478,-0.2166,0.9048,-5.97,7.62,-0.02,20.39
11820,0.1665,-0.2103,0.8748,-5.42,7.28,0.03,20.41
11830,0.1921,-0.182,0.8429,-5.34,6.38,0.12,20.39
11840,0.2262,-0.162,0.8142,-5.59,6.72,0.14,20.39
11850,0.1736,-0.1566,0.8456,-6.24,7.16,-0.14,20.42
11860,0.0803,-0.2054,0.8978,-6.35,9.04,-0.27,20.42
11870,0.0519,-0.2234,0.9132,-6.15,10.76,-0.18,20.39
11880,0.1281,-0.2306,0.8739,-5.68,10.12,-0.21,20.39
11890,0.1786,-0.2229,0.868,-5.16,8.41,-0.29,20.4
11900,0.1771,-0.207,0.873,-5.01,6.5,-0.09,20.4
11910,0.1604,-0.2032,0.8844,-5.56,6.63,-0.06,20.4
11920,0.1337,-0.1931,0.8938,-6.17,8.34,-0.18,20.42
11930,0.1449,-0.1943,0.886,-6.37,8.93,-0.03,20.4
11940,0.1665,-0.2115,0.8711,-6.38,8.15,0.0,20.43
11950,0.1687,-0.2166,0.8613,-6.4,7.5,-0.09,20.43
11960,0.1586,-0.2211,0.8665,-6.09,7.28,-0.15,20.44
11970,0.1545,-0.2238,0.8743,-5.8,7.42,-0.08,20.43
11980,0.1599,-0.2174,0.8695,-5.85,7.8,-0.08,20.42
11990,0.168,-0.2201,0.86,-5.94,7.94,-0.09,20.42
12000,0.165,-0.2188,0.8612,-5.98,7.97,-0.05,20.4
12010,0.1566,-0.2152,0.8623,-5.91,7.95,0.09,20.4
12020,0.1543,-0.209,0.8606,-6.05,7.76,-0.11,20.4
12030,0.1512,-0.204,0.8591,-5.91,7.65,-0.18,20.4
12040,0.155,-0.2023,0.8518,-5.79,7.57,-0.06,20.39
12050,0.1536,-0.201,0.8536,-5.79,7.92,0.03,20.42
12060,0.1499,-0.2006,0.8611,-5.92,8.32,0.03,20.41
12070,0.144,-0.2017,0.8678,-6.11,8.31,0.08,20.42
12080,0.1467,-0.2067,0.8663,-6.32,8.11,0.08,20.43
12090,0.1451,-0.2069,0.8633,-6.67,8.05,-0.03,20.39
12100,0.1467,-0.2134,0.8599,-6.76,8.06,-0.05,20.4
12110,0.1472,-0.2152,0.8542,-6.58,8.17,0.05,20.41
12120,0.1472,-0.2183,0.8563,-6.24,8.17,0.12,20.4
12130,0.1455,-0.2202,0.8632,-5.88,7.95,0.06,20.41
12140,0.147,-0.2174,0.8743,-5.82,7.63,0.03,20.42
12150,0.1465,-0.22,0.8738,-5.89,7.4,-0.11,20.41
12160,0.1527,-0.215,0.8787,-6.03,7.51,-0.06,20.41
12170,0.1532,-0.2109,0.8765,-6.32,7.77,-0.06,20.42
12180,0.1527,-0.2119,0.8728,-6.27,7.97,-0.05,20.42
12190,0.1525,-0.2129,0.874,-6.17,7.82,-0.09,20.44
12200,0.153,-0.2136,0.8733,-6.11,7.5,-0.14,20.4
12210,0.1552,-0.2139,0.8755,-5.88,7.28,-0.14,20.42
12220,0.1586,-0.2135,0.8759,-5.82,7.21,-0.15,20.4
12230,0.1628,-0.2122,0.8741,-5.97,7.53,-0.05,20.39
12240,0.1589,-0.2114,0.8815,-6.18,7.94,0.03,20.41
12250,0.1588,-0.2133,0.8778,-6.23,8.05,-0.02,20.43
12260,0.1558,-0.2168,0.8669,-6.27,7.79,-0.08,20.41
12270,0.1595,-0.2141,0.864,-6.17,7.5,-0.17,20.41
12280,0.1588,-0.22,0.8621,-6.18,7.42,-0.21,20.39
12290,0.1575,-0.2198,0.8618,-6.0,7.48,-0.18,20.41
12300,0.1593,-0.2194,0.864,-5.74,7.56,-0.18,20.42
12310,0.1555,-0.2197,0.8666,-5.63,7.6,-0.17,20.44
12320,0.1566,-0.2157,0.866,-5.73,7.48,-0.17,20.42
12330,0.1536,-0.2179,0.8591,-5.88,7.44,-0.18,20.43
12340,0.1522,-0.2153,0.849,-6.69,7.65,-0.29,20.42
12350,0.1631,-0.2069,0.8418,-6.03,7.4,-0.11,20.42
12360,0.1631,-0.2124,0.8616,-4.81,7.27,0.09,20.41
12370,0.1555,-0.2083,0.8783,-5.08,7.79,-0.03,20.43
12380,0.1505,-0.202,0.884,-6.12,7.8,-0.08,20.39
12390,0.1705,-0.199,0.856,-6.67,7.1,-0.15,20.43
12400,0.1642,-0.2047,0.8541,-7.02,7.08,-0.03,20.42
12410,0.1428,-0.2126,0.8601,-7.36,8.66,-0.11,20.41
12420,0.1473,-0.2119,0.8459,-6.53,8.75,0.09,20.4
12430,0.1548,-0.2075,0.8475,-5.19,8.26,0.29,20.42
12440,0.1521,-0.2111,0.8688,-5.01,7.74,0.06,20.41
12450,0.1561,-0.2128,0.8755,-5.77,7.39,-0.02,20.44
12460,0.1581,-0.2106,0.8743,-6.82,7.25,-0.12,20.43
12470,0.1556,-0.225,0.8683,-7.15,7.62,-0.06,20.4
12480,0.1591,-0.2323,0.8627,-7.28,8.37,0.0,20.41
12490,0.1539,-0.2308,0.8582,-6.63,8.49,0.12,20.42
12500,0.1533,-0.2277,0.8658,-5.39,7.98,0.2,20.43
12510,0.1547,-0.2206,0.8782,-4.82,7.54,0.03,20.42
12520,0.1508,-0.2125,0.8898,-4.99,7.08,-0.09,20.41
12530,0.1559,-0.203,0.8922,-5.51,6.98,-0.11,20.44
12540,0.1575,-0.2026,0.8879,-6.26,7.3,-0.12,20.42
12550,0.1549,-0.2026,0.8815,-6.93,7.91,-0.14,20.43
12560,0.1548,-0.209,0.868,-6.92,8.17,-0.09,20.42
12570,0.1538,-0.2078,0.8628,-6.17,7.98,-0.05,20.42
12580,0.1554,-0.2109,0.8635,-5.54,7.65,-0.06,20.44
12590,0.1581,-0.2108,0.8718,-5.66,7.59,-0.11,20.46
12600,0.1577,-0.205,0.871,-6.2,7.76,-0.05,20.41
12610,0.1549,-0.2097,0.8696,-6.4,8.09,0.0,20.41
12620,0.1554,-0.2134,0.8625,-6.58,8.14,-0.02,20.43
12630,0.152,-0.2144,0.8624,-6.37,7.97,-0.02,20.44
12640,0.1543,-0.2112,0.86,-5.91,7.74,-0.05,20.42
12650,0.1547,-0.2126,0.8693,-5.62,7.53,-0.12,20.41
12660,0.1504,-0.2152,0.871,-5.88,7.56,-0.15,20.44
12670,0.1536,-0.2172,0.8712,-6.29,7.74,-0.08,20.41
12680,0.1543,-0.2198,0.8673,-6.47,7.86,-0.12,20.42
12690,0.1536,-0.2208,0.8655,-6.35,7.82,-0.12,20.41
12700,0.1534,-0.2208,0.8595,-6.15,7.65,-0.08,20.39
12710,0.153,-0.2128,0.8616,-5.79,7.42,0.02,20.44
12720,0.1565,-0.2101,0.8633,-5.59,7.4,-0.03,20.43
12730,0.1573,-0.2081,0.8701,-5.74,7.62,-0.11,20.4
12740,0.1576,-0.21,0.8689,-6.18,7.85,-0.03,20.43
12750,0.1559,-0.2108,0.8691,-6.35,7.94,-0.02,20.44
12760,0.1547,-0.2129,0.8656,-6.38,7.97,0.03,20.44
12770,0.1522,-0.2137,0.8649,-6.27,8.02,0.02,20.44
12780,0.1503,-0.2139,0.8641,-6.11,7.85,-0.03,20.42
12790,0.1477,-0.213,0.8601,-6.08,7.48,-0.09,20.43
12800,0.1479,-0.2083,0.8589,-6.26,7.37,-0.08,20.41
12810,0.147,-0.2073,0.8529,-6.56,7.37,-0.12,20.44
12820,0.1448,-0.2008,0.8434,-6.69,7.59,0.0,20.44
12830,0.1437,-0.1989,0.8431,-6.47,7.69,0.0,20.42
12840,0.1407,-0.1986,0.8439,-6.21,7.73,0.02,20.45
12850,0.1404,-0.1993,0.8484,-6.11,7.65,0.02,20.43
12860,0.1409,-0.1995,0.8621,-5.97,7.33,0.03,20.44
12870,0.1451,-0.1967,0.8732,-6.02,7.13,-0.05,20.42
12880,0.1503,-0.196,0.8802,-6.27,6.98,-0.11,20.44
12890,0.1525,-0.2007,0.8857,-6.4,7.16,-0.03,20.44
12900,0.1555,-0.1996,0.8892,-6.5,7.54,0.06,20.41
12910,0.1577,-0.2048,0.8906,-6.6,7.77,0.0,20.42
12920,0.1577,-0.2092,0.8881,-6.64,7.63,-0.02,20.43
12930,0.1583,-0.2157,0.891,-6.95,7.59,-0.11,20.42
12940,0.1552,-0.2246,0.8903,-7.22,7.54,-0.18,20.42
12950,0.1617,-0.2355,0.8796,-7.39,7.71,-0.18,20.45
12960,0.1622,-0.2389,0.874,-7.11,7.73,-0.17,20.43
12970,0.1656,-0.2466,0.8716,-6.49,7.5,-0.17,20.41
12980,0.1693,-0.2485,0.8777,-5.71,7.19,-0.15,20.4
12990,0.1661,-0.2417,0.8844,-5.37,6.96,-0.15,20.4
13000,0.1682,-0.2344,0.8839,-5.48,6.84,-0.27,20.41
13010,0.1696,-0.226,0.8762,-5.73,6.96,-0.23,20.43
13020,0.1681,-0.2217,0.8696,-6.05,7.28,-0.26,20.45
13030,0.1672,-0.217,0.8619,-6.09,7.45,-0.32,20.44
13040,0.1693,-0.2146,0.8556,-5.77,7.53,-0.32,20.45
13050,0.1685,-0.2155,0.8573,-5.62,7.5,-0.31,20.41
13060,0.1692,-0.2208,0.8556,-5.74,7.56,-0.23,20.45
13070,0.1681,-0.2181,0.8589,-5.89,7.76,-0.18,20.43
13080,0.1718,-0.2217,0.8508,-6.12,7.91,-0.14,20.44
13090,0.1705,-0.2238,0.8463,-6.35,8.08,-0.03,20.43
13100,0.1643,-0.2285,0.8396,-6.34,8.24,0.0,20.44
13110,0.1644,-0.2283,0.8346,-6.11,8.21,0.03,20.43
13120,0.162,-0.2263,0.838,-5.74,7.95,0.06,20.43
13130,0.1595,-0.2256,0.8397,-5.51,7.89,0.06,20.44
13140,0.1541,-0.2197,0.8428,-5.33,7.92,0.05,20.45
13150,0.1556,-0.2131,0.8519,-5.42,8.18,0.14,20.43
13160,0.1497,-0.2113,0.8585,-5.73,8.37,0.09,20.44
13170,0.146,-0.2095,0.8562,-6.02,8.29,0.12,20.4
13180,0.1478,-0.2112,0.8564,-6.12,8.09,0.15,20.45
13191,0.1486,-0.2087,0.858,-5.89,7.94,0.18,20.44
13201,0.1525,-0.2083,0.858,-5.97,7.92,0.11,20.44
13211,0.1477,-0.2023,0.8594,-5.91,8.06,0.18,20.44
13221,0.1483,-0.2057,0.8627,-5.85,8.0,0.2,20.46
13231,0.1461,-0.2008,0.8673,-5.88,7.92,0.26,20.44
13241,0.1527,-0.2008,0.8784,-5.82,8.03,0.27,20.44
13251,0.1511,-0.2037,0.8904,-5.68,8.29,0.21,20.43
13261,0.1506,-0.2057,0.9004,-5.98,8.35,0.29,20.42
13271,0.1483,-0.2095,0.9069,-6.27,8.29,0.26,20.47
13281,0.1492,-0.2107,0.9064,-6.63,8.24,0.17,20.45
13291,0.1494,-0.212,0.9015,-6.76,8.08,0.08,20.44
13301,0.1484,-0.2184,0.8906,-6.72,7.79,0.03,20.48
13311,0.1464,-0.2135,0.8822,-6.5,7.69,-0.06,20.43
13321,0.1482,-0.2129,0.8752,-6.05,7.73,-0.11,20.45
13331,0.1489,-0.2052,0.8745,-5.68,7.57,-0.09,20.44
13341,0.1471,-0.2018,0.8737,-5.56,7.28,-0.12,20.4
13351,0.1514,-0.1953,0.8774,-5.62,7.04,-0.17,20.42
13361,0.1511,-0.193,0.875,-5.83,7.05,-0.27,20.43
13371,0.1532,-0.1952,0.8728,-6.29,7.33,-0.27,20.43
13381,0.1525,-0.1989,0.8676,-6.52,7.65,-0.23,20.44
13391,0.1539,-0.2,0.8604,-6.66,7.76,-0.21,20.44
13401,0.1511,-0.2035,0.854,-6.61,7.74,-0.27,20.42
13411,0.1511,-0.2076,0.8491,-6.52,7.59,-0.26,20.42
13421,0.1516,-0.2113,0.8491,-6.47,7.54,-0.29,20.42
13431,0.1559,-0.2144,0.8488,-6.23,7.54,-0.18,20.44
13441,0.1555,-0.2169,0.854,-6.14,7.59,-0.2,20.45
13451,0.1572,-0.2178,0.8578,-6.14,7.47,-0.2,20.46
13461,0.1538,-0.2173,0.854,-6.15,7.31,-0.27,20.44
13471,0.1556,-0.2145,0.8478,-6.14,7.37,-0.29,20.44
13481,0.1558,-0.2168,0.8473,-6.29,7.4,-0.2,20.43
13491,0.1552,-0.2159,0.845,-6.44,7.73,-0.15,20.45
13501,0.1531,-0.2133,0.8481,-6.37,7.95,-0.11,20.45
13511,0.1522,-0.2205,0.8553,-6.08,8.0,-0.08,20.46
13521,0.15,-0.2196,0.8617,-5.98,7.86,-0.06,20.44
13531,0.1554,-0.2192,0.8678,-6.08,7.56,-0.06,20.46
13541,0.1588,-0.2234,0.8712,-6.29,7.48,-0.12,20.44
13551,0.1627,-0.2289,0.8745,-6.4,7.54,-0.12,20.44
13561,0.1644,-0.2324,0.877,-6.46,7.85,-0.03,20.44
13571,0.1656,-0.2354,0.8767,-6.35,8.17,0.11,20.44
13581,0.1654,-0.2401,0.8776,-6.09,8.12,0.08,20.45
13591,0.1678,-0.2358,0.8827,-5.89,8.06,0.08,20.45
13601,0.167,-0.2369,0.8859,-5.88,7.83,0.08,20.44
13611,0.1677,-0.2354,0.8868,-6.03,7.66,-0.02,20.43
13621,0.167,-0.2318,0.8751,-6.02,7.68,-0.11,20.45
13632,0.1708,-0.2308,0.875,-5.97,7.88,0.09,20.44
13642,0.1635,-0.2261,0.87,-5.73,8.0,0.03,20.44
13652,0.1647,-0.2268,0.869,-5.48,7.97,-0.02,20.44
13662,0.1621,-0.2214,0.8733,-5.34,7.89,-0.03,20.45
13672,0.1624,-0.2192,0.8744,-5.47,7.83,-0.06,20.45
13682,0.1635,-0.212,0.8739,-5.63,7.88,-0.08,20.42
13692,0.1639,-0.21,0.8704,-5.76,8.11,-0.06,20.42
13702,0.1632,-0.2089,0.8655,-5.76,8.15,-0.06,20.44
13712,0.1591,-0.2074,0.861,-5.66,8.15,0.02,20.44
13722,0.157,-0.2074,0.8582,-5.48,8.12,-0.02,20.44
13732,0.1609,-0.2056,0.8531,-5.42,7.92,-0.05,20.42
13742,0.1566,-0.2008,0.8588,-5.48,8.0,-0.03,20.44
13752,0.1525,-0.2079,0.8553,-5.65,8.27,-0.02,20.45
13762,0.155,-0.2048,0.8557,-5.66,8.44,0.11,20.44
13772,0.1541,-0.2025,0.854,-5.8,8.37,0.0,20.45
13782,0.1523,-0.2015,0.8538,-5.85,8.23,0.0,20.45
13792,0.1471,-0.2019,0.8529,-5.83,8.05,-0.08,20.46
13802,0.145,-0.199,0.8538,-5.83,7.86,0.0,20.44
13812,0.1489,-0.1996,0.8523,-5.85,7.88,-0.02,20.44
13822,0.1451,-0.1984,0.8497,-6.08,7.89,0.02,20.46
13832,0.1453,-0.1989,0.8513,-6.26,7.88,0.06,20.45
13842,0.1475,-0.1979,0.8562,-6.09,8.0,0.11,20.45
13852,0.1403,-0.1927,0.8586,-6.09,8.2,0.14,20.45
13862,0.1373,-0.1921,0.8657,-6.29,8.32,0.09,20.45
13872,0.1372,-0.1927,0.8717,-6.46,8.21,0.12,20.47
13882,0.1354,-0.1978,0.8788,-6.37,8.02,0.0,20.44
13892,0.1375,-0.2026,0.8829,-6.23,7.79,-0.02,20.45
13902,0.1442,-0.2062,0.8947,-5.97,7.56,0.05,20.44
13912,0.1428,-0.209,0.8984,-5.71,7.51,0.09,20.44
13922,0.1469,-0.2106,0.91,-6.0,7.63,0.14,20.44
13932,0.1455,-0.2139,0.9045,-6.69,7.85,0.05,20.44
13942,0.1437,-0.2124,0.8927,-7.39,8.02,-0.03,20.46
13952,0.145,-0.2231,0.8746,-7.74,8.17,-0.06,20.44
13962,0.1469,-0.228,0.858,-7.68,8.24,-0.05,20.45
13972,0.1462,-0.231,0.8521,-6.89,7.83,-0.18,20.49
13982,0.1516,-0.2316,0.8516,-6.08,7.22,-0.24,20.44
13992,0.1584,-0.2279,0.8573,-5.51,6.76,-0.34,20.45
14002,0.1619,-0.2242,0.8623,-5.39,6.58,-0.21,20.43
14012,0.1646,-0.2211,0.8667,-5.45,6.63,-0.35,20.47
14022,0.1647,-0.2135,0.8644,-5.76,7.02,-0.34,20.45
14032,0.1632,-0.2046,0.8621,-5.94,7.39,-0.26,20.47
14042,0.1606,-0.2056,0.859,-5.97,7.56,-0.12,20.43
14052,0.1599,-0.198,0.8611,-5.74,7.79,-0.17,20.46
14062,0.16,-0.2053,0.8689,-5.77,7.76,-0.14,20.46
14072,0.1593,-0.2111,0.8679,-6.18,7.91,-0.2,20.45
14082,0.1603,-0.2128,0.8613,-6.64,8.02,-0.21,20.44
14092,0.16,-0.2222,0.8604,-6.85,8.09,-0.23,20.45
14102,0.1573,-0.2334,0.8485,-6.92,8.15,-0.12,20.45
14112,0.1628,-0.2357,0.8469,-6.55,7.98,-0.17,20.44
14122,0.1592,-0.2373,0.8446,-6.09,7.79,-0.08,20.42
14132,0.1606,-0.2335,0.8496,-5.63,7.68,-0.03,20.46
14142,0.1611,-0.2323,0.8563,-5.45,7.53,0.03,20.46
14152,0.1597,-0.2239,0.8597,-5.6,7.53,0.0,20.44
14162,0.1586,-0.2207,0.8679,-5.79,7.62,-0.06,20.46
14172,0.1597,-0.2183,0.8696,-5.89,7.74,-0.03,20.45
14182,0.1576,-0.2131,0.8689,-5.98,7.8,0.03,20.44
14192,0.1555,-0.2126,0.8685,-6.05,7.88,0.03,20.45
14202,0.1549,-0.2118,0.8682,-5.94,7.86,0.03,20.45
14212,0.1569,-0.2151,0.8774,-5.91,7.86,0.08,20.44
14222,0.1547,-0.2157,0.8834,-6.02,7.89,0.09,20.45
14232,0.1598,-0.2153,0.8749,-6.17,8.05,0.17,20.44
14242,0.16,-0.2198,0.8815,-6.34,8.09,0.11,20.47
14252,0.1594,-0.2198,0.8749,-6.41,8.06,0.15,20.44
14262,0.1576,-0.2241,0.8724,-6.44,8.08,0.06,20.46
14272,0.1587,-0.2202,0.8657,-6.26,7.97,0.12,20.45
14282,0.1569,-0.2216,0.8663,-5.94,7.89,0.15,20.44
14292,0.1556,-0.2174,0.8658,-5.88,7.88,0.05,20.46
14302,0.1552,-0.2181,0.8678,-5.73,7.89,0.05,20.45
14312,0.1537,-0.2155,0.868,-5.71,7.74,-0.06,20.44
14322,0.1576,-0.2125,0.8691,-5.8,7.62,-0.05,20.45
14332,0.1538,-0.2111,0.8695,-5.91,7.59,-0.08,20.46
14342,0.1541,-0.2075,0.8629,-5.79,7.51,-0.06,20.45
14352,0.1555,-0.208,0.8636,-5.69,7.62,-0.05,20.47
14362,0.1556,-0.204,0.8668,-5.62,7.74,-0.06,20.44
14372,0.1497,-0.1992,0.8781,-5.65,7.69,-0.09,20.47
14382,0.1351,-0.1918,0.8799,-5.65,7.65,-0.11,20.48
14392,0.1531,-0.2058,0.8573,-6.02,7.33,-0.09,20.46
14402,0.1678,-0.2045,0.8502,-6.2,7.25,-0.12,20.43
14412,0.1533,-0.199,0.858,-6.5,7.4,-0.26,20.44
14422,0.1436,-0.2064,0.8528,-6.17,7.82,0.02,20.46
14432,0.1582,-0.2029,0.8563,-6.14,7.79,-0.15,20.46
14442,0.1448,-0.2086,0.8539,-6.14,7.5,-0.17,20.43
14452,0.1493,-0.2103,0.8638,-5.98,7.33,0.06,20.45
14462,0.1409,-0.2119,0.8783,-5.95,7.62,-0.08,20.47
14472,0.1418,-0.2095,0.8766,-5.89,7.85,-0.08,20.46
14482,0.1465,-0.2114,0.8745,-6.0,7.85,-0.05,20.45
14492,0.149,-0.2129,0.8794,-6.12,7.65,-0.15,20.46
14502,0.1398,-0.208,0.8806,-6.12,7.6,-0.05,20.46
14512,0.1492,-0.2113,0.8796,-6.18,7.63,0.0,20.47
14522,0.1559,-0.2135,0.8773,-6.4,7.65,-0.15,20.46
14532,0.1564,-0.214,0.8743,-6.31,7.85,-0.06,20.47
14542,0.1615,-0.2169,0.8779,-6.26,7.98,0.0,20.48
14552,0.1581,-0.2201,0.8821,-6.12,7.97,-0.09,20.43
14562,0.1591,-0.2206,0.8813,-5.97,7.8,-0.06,20.44
14572,0.1606,-0.2205,0.8783,-6.14,7.69,-0.18,20.46
14582,0.1614,-0.2194,0.8691,-6.35,7.77,-0.09,20.45
14592,0.1602,-0.2231,0.8604,-6.56,7.92,-0.09,20.44
14602,0.1572,-0.2192,0.8508,-6.63,8.06,-0.06,20.46
14612,0.1482,-0.2158,0.8387,-6.75,8.05,-0.05,20.46
14622,0.1467,-0.2157,0.8235,-6.75,7.88,-0.06,20.45
14632,0.1432,-0.2094,0.8193,-6.6,7.77,-0.12,20.46
14642,0.1415,-0.201,0.8151,-6.38,7.79,-0.08,20.47
14652,0.1396,-0.1996,0.8201,-5.97,7.8,-0.02,20.47
14662,0.1404,-0.1914,0.8397,-5.57,7.79,-0.02,20.46
14672,0.1396,-0.1912,0.8528,-5.36,7.45,-0.02,20.48
14682,0.1466,-0.1974,0.8694,-5.53,7.02,-0.09,20.46
14692,0.1517,-0.1956,0.8806,-5.88,6.87,-0.05,20.45
14702,0.1567,-0.2003,0.8875,-6.2,7.25,0.0,20.45
14712,0.1578,-0.2024,0.8928,-6.47,7.94,0.17,20.45
14722,0.1545,-0.2081,0.8956,-6.93,8.56,0.12,20.47
14732,0.1503,-0.2194,0.8932,-7.57,8.75,0.23,20.48
14742,0.152,-0.226,0.8823,-7.54,8.53,0.14,20.47
14752,0.1545,-0.2367,0.8795,-7.24,8.06,-0.08,20.47
14762,0.1559,-0.251,0.8839,-6.72,7.56,-0.18,20.47
14772,0.1656,-0.2554,0.8864,-6.15,7.3,-0.09,20.46
14782,0.1768,-0.2615,0.8867,-5.68,7.25,-0.21,20.47
14792,0.1714,-0.2561,0.8976,-5.39,7.1,-0.2,20.45
14802,0.1746,-0.2509,0.8914,-5.42,6.89,-0.18,20.47
14812,0.175,-0.24,0.886,-5.6,7.01,-0.23,20.47
14822,0.174,-0.2268,0.8781,-5.79,7.15,-0.21,20.46
14832,0.1714,-0.2183,0.869,-5.63,7.4,-0.14,20.46
14842,0.1716,-0.2109,0.8676,-5.39,7.62,-0.14,20.47
14852,0.1666,-0.2078,0.8662,-5.3,7.65,-0.09,20.46
14862,0.1647,-0.2061,0.8663,-5.39,7.47,-0.15,20.47
14872,0.1644,-0.2097,0.8612,-5.83,7.42,-0.21,20.47
14882,0.1674,-0.2113,0.8594,-6.15,7.6,-0.12,20.46
14892,0.1685,-0.2107,0.844,-6.35,7.83,-0.05,20.48
14902,0.1626,-0.214,0.8395,-6.21,8.24,0.05,20.45
14912,0.1608,-0.2136,0.8386,-6.06,8.44,0.14,20.44
14922,0.1528,-0.2108,0.8347,-5.77,8.29,0.11,20.48
14932,0.1536,-0.2113,0.8392,-5.68,8.09,0.09,20.47
14942,0.1556,-0.2119,0.8464,-5.69,7.91,0.14,20.46
14952,0.1536,-0.214,0.8452,-5.71,7.85,0.05,20.47
14962,0.1534,-0.2155,0.8527,-5.82,7.97,0.08,20.44
14972,0.1501,-0.2144,0.8578,-5.69,8.15,0.09,20.47
14982,0.1481,-0.2155,0.8655,-5.71,8.2,0.09,20.46
14992,0.1484,-0.2122,0.8704,-5.71,8.15,0.14,20.47
15002,0.149,-0.2091,0.8746,-5.8,7.91,0.11,20.48
15012,0.1479,-0.2065,0.8823,-5.82,7.83,0.17,20.47
15022,0.1438,-0.2079,0.8798,-5.85,8.0,0.12,20.48
15032,0.1454,-0.2063,0.8827,-5.91,8.09,0.14,20.48
15042,0.1462,-0.2035,0.8833,-5.83,8.15,0.15,20.47
15052,0.1453,-0.2041,0.8892,-5.76,8.14,0.14,20.48
15062,0.1453,-0.2026,0.8909,-5.95,8.15,0.14,20.46
15072,0.1406,-0.1998,0.8857,-6.32,8.09,0.02,20.49
15082,0.1355,-0.2057,0.8719,-6.63,7.92,-0.05,20.47
15092,0.1443,-0.214,0.8674,-6.61,8.0,-0.09,20.48
15102,0.1564,-0.22,0.8741,-5.79,8.32,0.02,20.48
15112,0.1581,-0.2136,0.8884,-4.84,8.58,-0.03,20.47
15122,0.1536,-0.2102,0.9014,-4.73,8.46,-0.08,20.47
15132,0.1504,-0.2103,0.906,-5.56,7.77,-0.27,20.49
15142,0.1559,-0.2095,0.8872,-6.72,7.11,-0.49,20.48
15152,0.1599,-0.213,0.8577,-7.13,7.18,-0.46,20.47
15162,0.1653,-0.2172,0.8391,-6.6,7.92,-0.23,20.47
15172,0.1602,-0.2117,0.8378,-5.56,8.66,-0.02,20.48
15182,0.1521,-0.2047,0.8458,-4.81,8.92,0.06,20.48
15192,0.1431,-0.1943,0.8569,-4.79,8.32,0.03,20.49
15202,0.1448,-0.1914,0.8619,-5.51,7.51,-0.09,20.46
15212,0.1442,-0.1896,0.8557,-6.63,7.13,-0.35,20.47
15222,0.1509,-0.1991,0.8436,-7.22,7.68,-0.29,20.44
15232,0.1521,-0.2058,0.838,-7.15,8.58,-0.12,20.48
15242,0.1481,-0.2124,0.842,-6.41,8.85,-0.03,20.47
15252,0.1401,-0.2156,0.8472,-5.77,8.27,0.02,20.47
15262,0.1411,-0.2117,0.8627,-5.4,7.5,-0.12,20.46
15272,0.1436,-0.2119,0.8702,-5.73,7.16,-0.09,20.47
15282,0.1479,-0.2108,0.8691,-6.6,7.63,-0.05,20.47
15292,0.1472,-0.2113,0.861,-7.16,8.41,0.08,20.46
15302,0.1439,-0.2172,0.8591,-7.15,8.72,0.23,20.44
15312,0.1429,-0.2184,0.864,-6.58,8.18,0.05,20.47
15322,0.1431,-0.2167,0.8701,-5.95,7.42,-0.06,20.47
15332,0.1514,-0.214,0.8743,-5.82,6.99,-0.06,20.46
15342,0.158,-0.2163,0.8793,-6.26,7.21,-0.08,20.46
15352,0.1576,-0.2195,0.8796,-6.98,7.91,0.03,20.44
15362,0.1572,-0.2252,0.8705,-7.42,8.43,0.03,20.46
15372,0.1538,-0.2318,0.8636,-7.13,8.14,0.0,20.43
15382,0.1583,-0.2292,0.8599,-6.27,7.6,0.0,20.47
15392,0.163,-0.2316,0.8684,-5.48,7.07,0.03,20.48
15402,0.1664,-0.2272,0.8806,-5.16,7.11,-0.09,20.46
15412,0.1665,-0.2222,0.8905,-5.62,7.39,-0.06,20.46
15422,0.1655,-0.2252,0.894,-6.08,7.73,-0.12,20.43
15432,0.1653,-0.2274,0.8828,-6.58,7.71,-0.12,20.47
15442,0.1648,-0.2275,0.8752,-6.5,7.56,-0.14,20.48
15452,0.1665,-0.2213,0.8667,-6.05,7.34,-0.15,20.46
15462,0.1652,-0.2231,0.8666,-5.5,7.34,-0.18,20.46
15472,0.1636,-0.2217,0.8658,-5.27,7.54,-0.15,20.47
15482,0.1622,-0.2137,0.8726,-5.31,7.71,-0.11,20.48
15492,0.1613,-0.2134,0.8727,-5.51,7.65,-0.09,20.5
15502,0.1589,-0.2137,0.8704,-6.0,7.66,-0.11,20.47
15512,0.1594,-0.2097,0.8624,-6.26,7.65,-0.14,20.44
15522,0.1561,-0.2124,0.8533,-6.26,7.76,-0.12,20.48
15532,0.1544,-0.2117,0.8519,-6.03,7.92,0.0,20.47
15542,0.1538,-0.2122,0.8506,-5.73,7.97,-0.03,20.47
15552,0.1506,-0.2115,0.8535,-5.54,7.85,-0.03,20.45
15562,0.1479,-0.2122,0.8573,-5.71,7.71,-0.02,20.46
15572,0.1458,-0.2091,0.853,-5.86,7.62,-0.06,20.49
15582,0.1462,-0.2073,0.8516,-6.12,7.48,-0.09,20.47
15592,0.1464,-0.2053,0.8491,-6.06,7.59,0.05,20.49
15602,0.1472,-0.2006,0.851,-5.97,7.77,-0.03,20.47
15612,0.1411,-0.1992,0.8558,-5.85,7.92,0.14,20.47
15622,0.1456,-0.1979,0.8611,-5.79,7.97,0.12,20.48
15632,0.1443,-0.2001,0.8738,-6.03,7.95,0.08,20.48
15642,0.146,-0.2034,0.8802,-6.4,7.92,0.09,20.46
15652,0.1523,-0.2112,0.8807,-6.61,8.02,0.08,20.49
15662,0.1454,-0.2145,0.8832,-6.67,8.14,0.15,20.47
15672,0.1505,-0.2205,0.8823,-6.46,8.02,0.03,20.46
15682,0.1499,-0.2223,0.8862,-6.18,7.88,0.02,20.47
15692,0.1522,-0.2208,0.8905,-5.97,7.69,-0.02,20.48
15702,0.1544,-0.2198,0.8972,-5.83,7.53,0.03,20.48
15712,0.1549,-0.2164,0.8953,-5.85,7.48,-0.08,20.46
15722,0.1552,-0.2126,0.8937,-6.12,7.66,0.0,20.48
15732,0.1565,-0.2126,0.8845,-6.41,7.71,-0.05,20.48
15742,0.1572,-0.2098,0.8737,-6.44,7.69,-0.12,20.47
15752,0.1522,-0.207,0.8663,-6.34,7.63,-0.11,20.49
15762,0.1567,-0.2065,0.8591,-6.23,7.59,-0.12,20.47
15772,0.1562,-0.2073,0.8499,-6.0,7.65,-0.15,20.49
15782,0.1575,-0.2063,0.855,-5.92,7.74,-0.03,20.49
15792,0.1519,-0.208,0.8535,-5.98,7.89,-0.11,20.46
15802,0.1501,-0.2069,0.8508,-6.15,7.89,-0.15,20.46
15812,0.1472,-0.2073,0.8545,-6.11,7.8,-0.17,20.45
15822,0.1475,-0.2051,0.8477,-6.15,7.77,-0.17,20.48
15832,0.1508,-0.2065,0.8484,-6.11,7.88,-0.14,20.49
15842,0.1465,-0.207,0.8501,-6.03,7.91,-0.17,20.48
15852,0.1461,-0.2092,0.8536,-6.03,8.02,-0.06,20.47
15862,0.1487,-0.2158,0.8584,-5.97,7.79,-0.11,20.47
15872,0.1464,-0.2125,0.8595,-6.09,7.82,-0.17,20.47
15882,0.1495,-0.2134,0.8606,-6.17,7.73,-0.11,20.47
15892,0.1508,-0.2125,0.8654,-6.23,7.74,-0.15,20.47
15902,0.1508,-0.2157,0.8619,-6.27,7.76,-0.05,20.49
15912,0.1527,-0.2147,0.8641,-6.27,7.88,-0.05,20.47
15922,0.1532,-0.2151,0.8635,-6.2,7.89,-0.02,20.47
15932,0.1517,-0.2156,0.865,-6.14,7.73,-0.05,20.46
15942,0.1553,-0.2164,0.8702,-6.12,7.66,-0.08,20.47
15952,0.1542,-0.2169,0.8708,-6.08,7.68,-0.11,20.5
15962,0.158,-0.2173,0.8792,-6.24,7.76,-0.03,20.49
15972,0.1588,-0.2195,0.881,-6.26,7.83,-0.06,20.48
15982,0.1575,-0.2224,0.881,-6.34,7.88,-0.03,20.47
15992,0.1622,-0.2218,0.8835,-6.32,7.76,0.02,20.48
16002,0.1595,-0.226,0.8873,-6.15,7.63,-0.02,20.5
16012,0.1575,-0.2239,0.8813,-6.23,7.73,0.03,20.49
16022,0.1581,-0.2271,0.88,-6.14,7.73,0.0,20.49
16032,0.1567,-0.2239,0.8785,-6.02,7.71,-0.03,20.47
16042,0.1571,-0.2235,0.8793,-6.03,7.68,0.02,20.47
16052,0.1566,-0.2208,0.8733,-6.14,7.71,-0.02,20.48
16062,0.1553,-0.2212,0.8682,-6.05,7.73,0.02,20.48
16072,0.1527,-0.2177,0.8568,-6.09,7.77,-0.06,20.49
16082,0.1522,-0.2167,0.8578,-6.02,7.83,-0.09,20.47
16092,0.1578,-0.2175,0.8497,-5.94,7.77,-0.09,20.51
16102,0.1576,-0.215,0.8528,-5.71,7.54,-0.08,20.47
16112,0.1556,-0.2136,0.8481,-5.66,7.54,-0.12,20.48
16122,0.1565,-0.212,0.8483,-5.59,7.69,-0.15,20.51
16132,0.1562,-0.2103,0.8539,-5.63,7.8,-0.09,20.49
16142,0.1537,-0.2081,0.8533,-5.62,7.76,-0.06,20.48
16152,0.1498,-0.2091,0.86,-5.59,7.88,-0.03,20.49
16162,0.1504,-0.2108,0.8705,-5.62,7.82,-0.12,20.48
16172,0.1497,-0.212,0.8679,-5.86,7.88,0.0,20.49
16182,0.1514,-0.2152,0.8762,-5.89,7.89,-0.08,20.48
16192,0.1549,-0.2169,0.8783,-5.92,7.92,-0.06,20.5
16202,0.1538,-0.2192,0.8774,-5.97,7.95,-0.08,20.5
16212,0.1541,-0.2161,0.8779,-6.03,7.86,-0.06,20.52
16222,0.1543,-0.2161,0.8763,-5.88,7.76,0.06,20.49
16232,0.1467,-0.2137,0.8754,-5.77,7.73,0.05,20.49
16242,0.1465,-0.2056,0.8727,-5.82,7.59,0.03,20.49
16252,0.1469,-0.2003,0.8706,-5.91,7.6,0.0,20.49
16262,0.1464,-0.2006,0.8724,-5.95,7.59,0.08,20.5
16272,0.1455,-0.199,0.8724,-6.12,7.76,0.03,20.49
16282,0.1484,-0.2002,0.8698,-6.18,7.85,0.05,20.51
16292,0.1511,-0.2026,0.8741,-6.15,7.86,0.03,20.49
16302,0.1497,-0.2076,0.8806,-6.41,7.83,0.03,20.46
16312,0.1536,-0.2084,0.8782,-6.56,7.86,0.0,20.49
16322,0.1508,-0.2089,0.8719,-6.53,7.86,0.02,20.47
16332,0.1533,-0.214,0.8713,-6.41,7.71,0.03,20.5
16342,0.1547,-0.2118,0.8668,-6.18,7.68,0.08,20.49
16352,0.149,-0.2112,0.8683,-6.02,7.6,-0.03,20.52
16362,0.1517,-0.2053,0.871,-5.85,7.53,-0.09,20.49
16372,0.1506,-0.2057,0.8727,-5.86,7.47,-0.09,20.47
16382,0.1511,-0.2059,0.8685,-6.09,7.6,-0.09,20.49
16392,0.1521,-0.204,0.866,-6.32,7.8,-0.05,20.5
16402,0.1506,-0.2026,0.8549,-6.58,7.86,-0.12,20.5
16412,0.149,-0.2042,0.8527,-6.55,7.91,-0.09,20.48
16422,0.1497,-0.2078,0.8512,-6.34,7.94,-0.12,20.54
16432,0.1483,-0.2096,0.8468,-6.11,7.86,-0.14,20.48
16442,0.1492,-0.2115,0.8503,-6.0,7.76,-0.14,20.47
16452,0.1526,-0.2146,0.8528,-5.86,7.65,-0.23,20.5
16462,0.1482,-0.2126,0.8563,-5.85,7.79,-0.17,20.49
16472,0.1504,-0.2157,0.8643,-5.88,7.83,-0.14,20.47
16482,0.1483,-0.2201,0.8674,-5.98,7.89,-0.11,20.49
16492,0.1493,-0.2178,0.874,-5.98,7.82,-0.17,20.5
16502,0.1508,-0.2209,0.8765,-5.94,7.65,-0.17,20.48
16512,0.1531,-0.2205,0.8776,-5.95,7.5,-0.18,20.48
16522,0.1497,-0.219,0.88,-5.92,7.53,-0.09,20.49
16532,0.1533,-0.2216,0.8805,-6.03,7.65,-0.17,20.5
16542,0.152,-0.2161,0.8804,-5.95,7.77,-0.09,20.5
16552,0.1499,-0.2174,0.8817,-6.02,7.88,-0.08,20.47
16562,0.156,-0.2142,0.8798,-6.12,7.85,-0.06,20.5
16572,0.1528,-0.218,0.8777,-6.41,7.82,-0.02,20.5
16582,0.1553,-0.2111,0.8706,-6.63,7.85,-0.09,20.48
16592,0.1582,-0.2222,0.861,-6.41,7.82,-0.02,20.5
16602,0.157,-0.2224,0.8602,-6.32,7.76,0.08,20.52
16612,0.1588,-0.217,0.8635,-6.11,7.92,0.03,20.5
16622,0.1621,-0.2172,0.8683,-5.74,7.91,0.02,20.5
16632,0.1581,-0.2183,0.8702,-5.89,7.69,0.11,20.48
16642,0.1569,-0.2185,0.8726,-6.17,7.71,0.05,20.51
16652,0.1575,-0.2112,0.8707,-6.38,7.79,-0.03,20.49
16662,0.1554,-0.2122,0.863,-6.5,7.69,-0.09,20.5
16672,0.1599,-0.2131,0.8629,-6.15,7.54,0.05,20.48
16682,0.1589,-0.2133,0.8665,-5.74,7.79,0.0,20.49
16692,0.1582,-0.2103,0.8668,-5.62,8.0,-0.02,20.5
16702,0.1556,-0.2075,0.8682,-5.77,7.88,0.03,20.5
16712,0.1592,-0.2094,0.8716,-6.08,7.79,0.06,20.5
16722,0.1525,-0.2112,0.8666,-6.69,8.05,0.0,20.48
16732,0.1534,-0.2126,0.8594,-6.87,8.32,-0.05,20.49
16742,0.1477,-0.214,0.8496,-6.38,8.03,-0.02,20.52
16752,0.1492,-0.2188,0.8555,-5.79,7.94,-0.03,20.49
16762,0.1483,-0.2161,0.8611,-5.4,7.83,-0.08,20.5
16772,0.1453,-0.213,0.8706,-5.34,7.45,-0.11,20.47
16782,0.1489,-0.2124,0.8762,-5.47,7.18,-0.14,20.48
16792,0.1538,-0.2089,0.8762,-5.89,7.31,-0.11,20.48
16802,0.1526,-0.2089,0.8698,-6.27,7.77,-0.15,20.52
16812,0.1505,-0.2102,0.8701,-6.29,8.0,0.02,20.52
16822,0.149,-0.2084,0.8694,-6.12,7.97,-0.08,20.5
16832,0.1487,-0.2091,0.8719,-5.94,7.8,-0.15,20.5
16842,0.1479,-0.2092,0.8752,-5.88,7.39,-0.08,20.49
16852,0.1499,-0.208,0.8741,-5.83,7.24,-0.09,20.5
16862,0.1544,-0.2111,0.8741,-6.08,7.59,-0.09,20.52
16872,0.1543,-0.2117,0.8759,-6.34,7.92,-0.05,20.49
16882,0.151,-0.2113,0.8732,-6.38,8.08,0.0,20.48
16892,0.1484,-0.215,0.8751,-6.21,7.98,-0.03,20.5
16902,0.1455,-0.2122,0.8772,-6.17,7.79,-0.08,20.51
16912,0.1479,-0.2134,0.8737,-6.09,7.44,-0.14,20.5
16922,0.1479,-0.2144,0.8789,-6.18,7.44,-0.09,20.48
16932,0.1531,-0.2139,0.8739,-6.27,7.48,-0.12,20.49
16942,0.1545,-0.2147,0.8735,-6.27,7.53,-0.08,20.53
16952,0.1515,-0.212,0.8684,-6.27,7.5,-0.06,20.49
16962,0.1537,-0.2101,0.8695,-6.06,7.45,-0.09,20.47
16972,0.1572,-0.2083,0.8652,-6.11,7.56,-0.02,20.51
16982,0.1537,-0.2061,0.8661,-6.21,7.8,-0.06,20.5
16992,0.1545,-0.2076,0.8583,-6.32,7.86,-0.02,20.51
17002,0.1564,-0.2053,0.8613,-6.4,7.95,0.0,20.51
17012,0.1545,-0.2072,0.856,-6.52,7.92,-0.06,20.53
17022,0.1537,-0.2106,0.8547,-6.44,7.82,-0.06,20.51
17032,0.1533,-0.215,0.8525,-6.32,7.77,-0.06,20.49
17042,0.1567,-0.2183,0.861,-6.23,7.92,-0.05,20.5
17052,0.1552,-0.2168,0.8557,-6.32,7.95,-0.06,20.52
17062,0.1558,-0.2162,0.859,-6.05,7.91,-0.05,20.5
17072,0.1566,-0.2207,0.861,-5.77,7.83,-0.08,20.49
17082,0.1533,-0.2196,0.8715,-5.91,7.74,-0.06,20.52
17092,0.1503,-0.2135,0.8701,-6.08,7.85,-0.18,20.51
17102,0.1562,-0.2134,0.8652,-6.14,7.79,-0.14,20.51
17112,0.1522,-0.2195,0.8669,-6.26,7.94,-0.08,20.51
17122,0.1519,-0.2168,0.8613,-6.26,8.08,0.0,20.5
17132,0.152,-0.218,0.8627,-6.02,8.0,-0.11,20.49
17142,0.1486,-0.2191,0.8679,-5.82,7.88,-0.08,20.52
17152,0.1514,-0.2206,0.8689,-5.77,7.82,-0.03,20.52
17162,0.1514,-0.2169,0.874,-5.82,7.82,-0.08,20.51
17172,0.1498,-0.2162,0.8737,-5.83,7.92,-0.03,20.51
17182,0.1475,-0.2156,0.8793,-5.94,7.97,-0.03,20.49
17192,0.1488,-0.2192,0.8772,-6.21,7.83,0.08,20.51
17202,0.1534,-0.2172,0.8788,-6.14,7.97,-0.05,20.52
17212,0.1504,-0.2155,0.8793,-6.0,7.94,-0.14,20.53
17222,0.1549,-0.2196,0.8827,-6.12,7.63,-0.12,20.51
17232,0.1558,-0.218,0.881,-6.11,7.4,-0.11,20.51
17242,0.1543,-0.217,0.8799,-6.24,7.44,-0.05,20.5
17252,0.1533,-0.2189,0.8683,-6.23,7.54,-0.06,20.51
17262,0.1552,-0.2179,0.865,-6.11,7.54,0.02,20.51
17272,0.1526,-0.2137,0.8643,-5.76,7.57,0.09,20.52
17282,0.1509,-0.2096,0.8662,-5.56,7.76,0.05,20.5
17292,0.153,-0.208,0.8699,-5.54,7.69,0.09,20.5
17302,0.155,-0.1974,0.8773,-5.86,7.63,0.06,20.51
17312,0.1539,-0.1978,0.8707,-6.24,7.56,-0.12,20.52
17322,0.1504,-0.2018,0.8625,-6.61,7.56,-0.11,20.51
17332,0.1525,-0.2062,0.8525,-6.63,7.76,-0.09,20.5
17342,0.1545,-0.208,0.8459,-6.38,7.88,-0.03,20.52
17352,0.1525,-0.2085,0.8519,-5.86,7.92,0.02,20.51
17362,0.1479,-0.2086,0.8583,-5.63,7.8,0.0,20.5
17372,0.1477,-0.2036,0.8599,-5.79,7.71,-0.03,20.5
17382,0.1484,-0.2012,0.8638,-6.08,7.6,-0.09,20.51
17392,0.1495,-0.2054,0.8666,-6.41,7.68,-0.05,20.52
17402,0.1526,-0.2075,0.8649,-6.4,7.8,-0.02,20.52
17412,0.1515,-0.2091,0.8601,-6.26,7.94,-0.03,20.49
17422,0.1519,-0.2122,0.8676,-6.08,7.97,-0.11,20.54
17432,0.1466,-0.2134,0.8711,-5.88,7.62,-0.08,20.52
17442,0.1509,-0.2174,0.8727,-5.85,7.54,-0.15,20.53
17452,0.1501,-0.2142,0.8755,-6.02,7.68,-0.12,20.52
17462,0.1493,-0.2156,0.8766,-6.21,7.79,-0.12,20.52
17472,0.1486,-0.2174,0.8707,-6.32,7.85,-0.08,20.5
17482,0.149,-0.2179,0.8683,-6.09,7.76,-0.12,20.52
17492,0.149,-0.2198,0.871,-5.91,7.65,-0.06,20.51
17502,0.149,-0.2177,0.8719,-5.76,7.47,0.0,20.52
17512,0.1499,-0.218,0.8745,-5.8,7.57,-0.11,20.52
17522,0.1492,-0.2173,0.8776,-5.98,7.71,-0.15,20.5
17532,0.1465,-0.212,0.8706,-6.24,7.82,-0.11,20.52
17542,0.1482,-0.2131,0.8652,-6.46,7.71,-0.14,20.49
17552,0.1522,-0.2159,0.8639,-6.2,7.59,-0.14,20.5
17562,0.1526,-0.2137,0.8595,-6.02,7.51,-0.09,20.51
17572,0.1542,-0.213,0.8569,-5.8,7.5,-0.08,20.51
17582,0.1559,-0.2101,0.8611,-5.79,7.68,-0.11,20.51
17592,0.1541,-0.2131,0.8682,-5.94,7.73,-0.06,20.53
17602,0.1567,-0.2107,0.8687,-6.27,7.8,-0.03,20.52
17612,0.1553,-0.212,0.8622,-6.46,7.85,-0.03,20.47
17622,0.1584,-0.2123,0.866,-6.31,8.02,-0.02,20.52
17632,0.1553,-0.2167,0.8651,-6.24,7.97,-0.05,20.51
17642,0.1565,-0.2161,0.8662,-6.12,8.02,-0.06,20.5
17652,0.1528,-0.2157,0.8625,-6.08,7.85,-0.03,20.5
17662,0.1549,-0.2135,0.8644,-6.0,7.79,-0.03,20.51
17672,0.1552,-0.2142,0.8671,-5.97,7.8,-0.05,20.51
17682,0.156,-0.2134,0.8684,-6.15,7.77,-0.02,20.53
17692,0.1548,-0.2119,0.8678,-6.14,7.88,0.0,20.51
17702,0.1544,-0.2126,0.868,-6.15,7.97,0.0,20.5
17712,0.1541,-0.2131,0.8677,-6.15,7.94,-0.03,20.52
17722,0.1534,-0.2134,0.8613,-6.14,7.89,0.0,20.51
17732,0.1516,-0.2155,0.8665,-6.09,7.82,-0.06,20.52
17742,0.1492,-0.2191,0.8694,-6.05,7.77,-0.02,20.54
17752,0.152,-0.2166,0.8694,-5.95,7.8,-0.02,20.52
17762,0.1495,-0.2161,0.8684,-5.97,7.79,-0.03,20.53
17772,0.1482,-0.2155,0.8752,-5.95,7.69,-0.09,20.53
17782,0.1508,-0.213,0.879,-5.91,7.69,0.02,20.52
17792,0.1519,-0.2129,0.876,-5.95,7.65,-0.08,20.53
17802,0.1541,-0.2144,0.8737,-5.97,7.66,-0.09,20.54
17812,0.1537,-0.2153,0.8717,-6.15,7.69,-0.08,20.52
17822,0.1538,-0.2089,0.8733,-6.03,7.68,-0.12,20.52
17832,0.1545,-0.2157,0.8683,-5.92,7.68,-0.06,20.51
17842,0.1501,-0.2104,0.8708,-5.86,7.62,-0.02,20.53
17852,0.1505,-0.2074,0.8668,-6.12,7.63,-0.09,20.52
17862,0.1503,-0.2073,0.8643,-6.15,7.65,-0.2,20.53
17872,0.1488,-0.209,0.8613,-6.05,7.73,-0.02,20.51
17882,0.1475,-0.2098,0.8616,-6.08,7.85,-0.02,20.53
17892,0.1481,-0.2089,0.8655,-5.95,7.8,-0.02,20.51
17902,0.1516,-0.2087,0.8666,-6.02,7.77,-0.08,20.49
17912,0.1511,-0.2091,0.8733,-6.06,7.54,-0.08,20.51
17922,0.1479,-0.2078,0.8704,-6.24,7.62,-0.14,20.5
17932,0.152,-0.2092,0.8667,-6.37,7.76,-0.03,20.5
17942,0.1511,-0.2101,0.8691,-6.31,7.85,0.06,20.5
17952,0.153,-0.2119,0.864,-6.24,7.88,-0.06,20.52
17962,0.1488,-0.2152,0.8625,-6.24,7.86,0.0,20.52
17972,0.152,-0.2144,0.8634,-5.98,7.71,-0.02,20.53
17982,0.1525,-0.2129,0.8651,-6.0,7.73,-0.06,20.52
17992,0.153,-0.2129,0.8733,-6.17,7.6,-0.09,20.52
18002,0.1539,-0.212,0.8672,-6.38,7.69,-0.05,20.52
18012,0.1525,-0.2115,0.8657,-6.37,7.8,-0.09,20.51
18022,0.1532,-0.2161,0.8633,-6.26,7.8,-0.12,20.54
18032,0.1514,-0.2174,0.8605,-6.12,7.89,-0.09,20.53
18042,0.1534,-0.2113,0.8612,-6.02,7.82,-0.06,20.53
18052,0.1547,-0.2111,0.8652,-5.97,7.74,0.0,20.5
18062,0.1539,-0.2115,0.8667,-6.02,7.77,0.06,20.52
18072,0.1487,-0.2158,0.8712,-6.11,7.77,-0.09,20.52
18082,0.1503,-0.2156,0.8705,-6.23,7.8,-0.05,20.52
18092,0.1511,-0.2148,0.8718,-6.15,7.8,0.02,20.52
18102,0.152,-0.217,0.8746,-6.15,7.82,0.02,20.52
18112,0.1499,-0.2197,0.873,-6.12,7.85,-0.02,20.54
18122,0.1521,-0.2189,0.8667,-6.05,7.82,-0.06,20.53
18132,0.1506,-0.2209,0.8704,-6.09,7.77,-0.06,20.54
18142,0.152,-0.2202,0.8674,-6.18,7.74,-0.11,20.53
18152,0.1519,-0.2185,0.8694,-6.11,7.66,-0.08,20.5
18162,0.1541,-0.2174,0.8635,-5.97,7.59,-0.06,20.52
18172,0.1547,-0.2184,0.8621,-5.88,7.66,-0.09,20.52
18182,0.1542,-0.2158,0.865,-5.8,7.65,-0.05,20.53
18192,0.156,-0.2113,0.8646,-5.77,7.66,-0.05,20.52
18202,0.1511,-0.2104,0.8687,-5.85,7.73,0.0,20.53
18212,0.1527,-0.2098,0.871,-5.94,7.63,0.0,20.52
18222,0.1534,-0.2074,0.8635,-6.12,7.76,-0.11,20.54
18232,0.1545,-0.2064,0.8641,-6.03,7.74,0.02,20.53
18242,0.1493,-0.2124,0.8663,-6.06,7.83,0.05,20.54
18252,0.1525,-0.2103,0.8595,-5.95,7.82,0.06,20.53
18262,0.1517,-0.2109,0.8646,-6.05,7.79,0.02,20.52
18272,0.1543,-0.2147,0.8662,-5.97,7.76,0.0,20.53
18282,0.1523,-0.2117,0.8743,-6.15,7.8,0.06,20.52
18292,0.151,-0.2126,0.8733,-6.03,7.76,-0.08,20.52
18302,0.1505,-0.2126,0.8715,-6.11,7.73,-0.02,20.53
18312,0.1539,-0.2114,0.8695,-6.06,7.73,-0.06,20.52
18322,0.152,-0.2136,0.8737,-6.03,7.6,-0.09,20.53
18332,0.1511,-0.2096,0.8699,-6.11,7.57,-0.05,20.52
18342,0.1532,-0.2106,0.8707,-6.05,7.65,-0.05,20.53
18352,0.1547,-0.2107,0.8689,-6.09,7.73,-0.05,20.52
18362,0.1552,-0.2119,0.8711,-6.11,7.83,-0.06,20.54
18372,0.153,-0.2095,0.8708,-6.17,7.8,-0.06,20.54
18382,0.1541,-0.2086,0.8702,-6.26,7.76,-0.06,20.53
18392,0.1532,-0.2102,0.8606,-6.26,7.68,-0.05,20.53
18402,0.1488,-0.2084,0.8639,-6.21,7.63,-0.06,20.53
18412,0.1499,-0.2134,0.8656,-6.2,7.79,-0.12,20.54
18422,0.1516,-0.2113,0.8633,-6.02,7.82,-0.05,20.54
18432,0.1492,-0.2133,0.865,-5.97,7.83,-0.09,20.54
18442,0.1477,-0.2137,0.8702,-6.14,7.8,-0.09,20.53
18452,0.1508,-0.2137,0.863,-6.27,7.74,-0.09,20.54
18462,0.1505,-0.2128,0.8634,-6.29,7.69,-0.12,20.53
18472,0.1515,-0.2137,0.8569,-6.32,7.77,-0.18,20.53
18482,0.149,-0.2155,0.8534,-6.26,7.76,-0.08,20.54
18492,0.1517,-0.213,0.8584,-6.06,7.77,-0.11,20.54
18502,0.1499,-0.2112,0.8634,-5.91,7.71,-0.08,20.55
18512,0.1528,-0.2142,0.8657,-5.8,7.62,-0.06,20.53
18522,0.155,-0.2133,0.8708,-5.83,7.66,-0.09,20.52
18532,0.1553,-0.2131,0.8707,-6.06,7.69,-0.12,20.52
18542,0.1534,-0.2139,0.8685,-6.27,7.79,-0.11,20.54
18552,0.1543,-0.2153,0.8691,-6.27,7.88,-0.08,20.52
18562,0.1537,-0.2157,0.8708,-6.17,7.88,-0.05,20.55
18572,0.1566,-0.2167,0.8749,-5.95,7.85,0.02,20.54
18582,0.153,-0.2156,0.8783,-5.73,7.77,0.05,20.54
18592,0.1517,-0.2159,0.8844,-5.79,7.63,0.02,20.52
18602,0.1528,-0.218,0.8854,-6.09,7.6,-0.03,20.54
18612,0.1536,-0.2145,0.8789,-6.38,7.62,-0.08,20.54
18622,0.1564,-0.2119,0.8724,-6.44,7.73,-0.03,20.54
18632,0.1543,-0.2151,0.8633,-6.32,7.8,0.02,20.54
18642,0.1564,-0.2122,0.8582,-6.12,7.92,-0.03,20.53
18652,0.1505,-0.2125,0.8615,-5.94,7.92,-0.08,20.55
18662,0.1499,-0.2097,0.8673,-5.95,7.66,-0.05,20.54
18672,0.1533,-0.2075,0.8615,-6.05,7.62,-0.08,20.54
18682,0.1511,-0.2107,0.8624,-6.29,7.56,-0.08,20.54
18692,0.1544,-0.213,0.86,-6.35,7.85,-0.14,20.55
18702,0.1525,-0.2114,0.8585,-6.26,7.88,-0.11,20.52
18712,0.1526,-0.2146,0.8595,-6.2,7.98,0.02,20.55
18722,0.1525,-0.2131,0.8588,-6.06,7.85,-0.05,20.52
18732,0.152,-0.2145,0.8645,-6.0,7.69,-0.06,20.52
18742,0.1532,-0.2166,0.8669,-6.08,7.56,-0.05,20.52
18752,0.153,-0.2125,0.8639,-6.02,7.56,-0.09,20.53
18762,0.1511,-0.2148,0.8635,-5.92,7.76,-0.06,20.52
18772,0.151,-0.2137,0.8661,-5.89,7.79,-0.06,20.55
18782,0.152,-0.2114,0.8649,-5.91,7.77,-0.02,20.52
18792,0.1508,-0.2117,0.8678,-5.92,7.69,-0.03,20.54
18802,0.1506,-0.2122,0.8684,-6.06,7.71,-0.11,20.52
18812,0.1505,-0.2111,0.8678,-6.11,7.77,-0.03,20.54
18822,0.151,-0.2135,0.8687,-6.09,7.82,-0.05,20.53
18832,0.1504,-0.2144,0.8649,-6.12,7.85,-0.02,20.53
18842,0.1527,-0.2118,0.8651,-6.0,7.88,-0.06,20.52
18852,0.1517,-0.2153,0.8669,-5.98,7.69,-0.03,20.52
18862,0.1526,-0.215,0.8724,-5.94,7.6,-0.09,20.54
18872,0.1532,-0.2141,0.8749,-5.88,7.68,-0.03,20.53
18882,0.1538,-0.2128,0.8749,-5.92,7.76,-0.06,20.55
18892,0.1531,-0.2128,0.8779,-5.97,7.92,0.05,20.53
18902,0.1517,-0.2145,0.8795,-5.94,7.88,0.08,20.52
18912,0.1514,-0.2126,0.8809,-6.06,7.73,0.02,20.55
18922,0.1526,-0.2155,0.8807,-6.23,7.56,-0.08,20.54
18932,0.1542,-0.2133,0.8734,-6.26,7.51,-0.06,20.54
18942,0.1577,-0.2139,0.868,-6.31,7.54,0.02,20.55
18952,0.1533,-0.2115,0.8679,-6.24,7.71,-0.03,20.54
18962,0.1564,-0.2089,0.8661,-6.11,7.85,0.02,20.53
18972,0.1539,-0.2083,0.8636,-6.12,7.73,-0.05,20.54
18982,0.1543,-0.2078,0.8652,-6.09,7.69,-0.06,20.53
18992,0.1554,-0.2063,0.8588,-6.17,7.69,-0.11,20.54
19002,0.1547,-0.2052,0.8604,-6.2,7.73,-0.06,20.52
19012,0.1534,-0.2073,0.8619,-6.26,7.82,0.03,20.55
19022,0.1548,-0.2097,0.861,-6.21,7.86,-0.05,20.54
19032,0.1515,-0.2092,0.8612,-6.2,7.91,-0.02,20.52
19042,0.1526,-0.2136,0.8594,-6.21,7.95,-0.06,20.55
19052,0.1508,-0.2135,0.8639,-6.24,7.86,-0.06,20.54
19062,0.1515,-0.2164,0.8655,-6.21,7.86,-0.06,20.56
19072,0.1498,-0.2133,0.8613,-6.34,7.88,0.02,20.54
19082,0.1494,-0.2183,0.8607,-6.18,7.86,-0.11,20.53
19092,0.1492,-0.218,0.864,-6.2,7.97,-0.03,20.54
19102,0.1528,-0.2188,0.8691,-6.05,7.86,-0.09,20.54
19112,0.1467,-0.2203,0.8671,-6.09,7.74,-0.06,20.57
19122,0.1528,-0.2184,0.8704,-6.14,7.66,-0.11,20.53
19132,0.1544,-0.2189,0.8735,-6.14,7.69,-0.12,20.55
19142,0.151,-0.2211,0.8696,-6.11,7.82,-0.08,20.55
19152,0.1533,-0.2179,0.871,-6.03,7.86,-0.12,20.55
19162,0.1495,-0.2128,0.8705,-5.94,7.76,-0.05,20.54
19172,0.1516,-0.2162,0.8716,-5.83,7.69,0.05,20.58
19182,0.1514,-0.2146,0.8732,-5.82,7.69,-0.05,20.55
19192,0.1532,-0.2158,0.8749,-5.92,7.66,-0.05,20.54
19202,0.1542,-0.2112,0.8771,-6.08,7.8,-0.03,20.55
19212,0.1526,-0.2128,0.87,-6.2,7.77,0.0,20.5
19222,0.1554,-0.2178,0.8719,-6.27,7.88,-0.05,20.55
19232,0.1536,-0.2167,0.8704,-6.31,7.85,0.05,20.55
19242,0.1575,-0.2144,0.8683,-6.17,7.83,0.03,20.53
19252,0.1543,-0.2144,0.8632,-6.11,7.77,0.02,20.55
19262,0.1583,-0.2153,0.8617,-6.11,7.74,-0.02,20.54
19272,0.1522,-0.2129,0.8595,-6.12,7.71,-0.02,20.52
19282,0.1523,-0.2134,0.8665,-6.06,7.66,0.02,20.57
19292,0.1523,-0.2107,0.8613,-5.98,7.68,-0.03,20.55
19302,0.1522,-0.2091,0.8652,-5.92,7.59,-0.08,20.52
19312,0.1552,-0.2095,0.8633,-5.88,7.6,-0.02,20.54
19322,0.1528,-0.2072,0.8649,-5.95,7.56,-0.06,20.53
19332,0.1505,-0.207,0.8672,-6.15,7.57,-0.03,20.54
19342,0.1528,-0.2059,0.8663,-6.2,7.69,-0.11,20.54
19352,0.1534,-0.2087,0.8619,-6.37,7.85,-0.08,20.54
19362,0.1509,-0.2103,0.8589,-6.24,8.0,-0.12,20.55
19372,0.153,-0.2129,0.865,-6.11,7.95,-0.05,20.54
19382,0.1594,-0.2145,0.8691,-6.05,7.66,-0.06,20.54
19392,0.1825,-0.2223,0.8903,-5.15,7.28,-0.02,20.56
19402,0.1547,-0.2139,0.882,-6.17,7.54,-0.12,20.54
19412,0.1316,-0.2036,0.838,-7.79,8.5,-0.11,20.54
19422,0.1405,-0.2181,0.8364,-7.16,8.56,0.05,20.56
19432,0.1338,-0.2206,0.8571,-5.51,8.63,0.14,20.56
19442,0.1349,-0.2123,0.8744,-4.38,8.02,0.06,20.54
19452,0.1407,-0.2074,0.8964,-4.4,6.81,-0.27,20.54
19462,0.1448,-0.2076,0.9011,-5.82,6.31,-0.29,20.54
19472,0.1555,-0.2146,0.8741,-7.83,7.1,-0.24,20.53
19482,0.1577,-0.2181,0.8518,-8.17,8.31,-0.2,20.55
19492,0.1501,-0.2209,0.8389,-6.87,8.87,0.0,20.55
19502,0.15,-0.2218,0.8544,-5.16,8.26,0.21,20.54
19512,0.1467,-0.2156,0.8735,-4.24,7.31,0.09,20.55
19522,0.1533,-0.2081,0.8894,-4.32,6.63,-0.18,20.54
19532,0.1582,-0.2034,0.8953,-5.36,6.67,-0.18,20.53
19542,0.1625,-0.2079,0.8906,-7.01,7.59,-0.23,20.56
19552,0.158,-0.2113,0.8678,-7.97,8.75,-0.02,20.56
19562,0.1572,-0.2152,0.8495,-7.68,9.08,0.09,20.55
19572,0.1523,-0.2213,0.848,-6.49,8.6,0.02,20.54
19582,0.1542,-0.2291,0.8544,-5.15,7.27,0.03,20.55
19592,0.1614,-0.2134,0.8627,-4.58,6.37,-0.12,20.55
19602,0.1685,-0.2069,0.8785,-4.81,6.73,-0.18,20.55
19612,0.1677,-0.209,0.8853,-6.24,8.03,-0.03,20.55
19622,0.1696,-0.2119,0.8719,-7.11,8.46,0.15,20.56
19632,0.1488,-0.2125,0.8531,-7.62,8.92,0.03,20.55
19642,0.1505,-0.2101,0.8304,-7.1,8.44,0.06,20.54
19652,0.1501,-0.2213,0.8375,-5.98,7.68,-0.02,20.54
19662,0.152,-0.2227,0.8541,-4.89,6.92,-0.02,20.54
19672,0.1519,-0.2125,0.8756,-4.82,7.08,0.08,20.56
19682,0.155,-0.2136,0.8853,-5.69,7.57,-0.12,20.57
19692,0.1522,-0.217,0.885,-6.87,7.79,-0.09,20.57
19702,0.1526,-0.2157,0.8678,-7.25,7.53,0.05,20.55
19712,0.1448,-0.215,0.8555,-6.87,7.66,-0.03,20.56
19722,0.1439,-0.2158,0.8518,-5.97,8.0,0.0,20.55
19732,0.1442,-0.2112,0.8607,-5.22,8.06,0.11,20.54
19742,0.1479,-0.2103,0.8683,-5.05,7.98,0.05,20.56
19752,0.1482,-0.2106,0.8846,-5.53,8.02,-0.05,20.54
19762,0.1473,-0.2096,0.8832,-6.43,7.63,-0.12,20.55
19772,0.1545,-0.2137,0.8726,-6.9,7.36,-0.09,20.55
19782,0.1564,-0.219,0.8596,-6.89,7.63,-0.05,20.56
19792,0.1555,-0.2212,0.8472,-6.35,8.09,-0.11,20.54
19802,0.1542,-0.2179,0.8578,-5.66,8.02,0.0,20.56
19812,0.152,-0.2125,0.8619,-5.21,7.63,-0.12,20.54
19822,0.1577,-0.21,0.874,-4.9,7.28,-0.05,20.57
19832,0.155,-0.2075,0.8848,-5.45,7.25,-0.06,20.55
19842,0.1581,-0.2039,0.8802,-6.15,7.6,-0.08,20.55
19852,0.1542,-0.2056,0.8735,-6.72,7.88,-0.11,20.55
19862,0.1509,-0.2114,0.8679,-6.87,8.14,-0.06,20.55
19872,0.1501,-0.2128,0.8571,-6.46,7.97,-0.06,20.54
19882,0.1511,-0.2128,0.8577,-5.91,7.73,-0.05,20.56
19892,0.1556,-0.2128,0.8721,-5.51,7.66,-0.03,20.57
19902,0.1515,-0.2141,0.8807,-5.62,7.74,-0.03,20.56
19912,0.1536,-0.2141,0.8807,-6.2,7.68,-0.05,20.56
19922,0.1543,-0.2075,0.8741,-6.55,7.6,-0.03,20.57
19932,0.1539,-0.2098,0.8656,-6.7,7.53,-0.12,20.58
19942,0.1517,-0.2107,0.8557,-6.41,7.63,-0.06,20.54
19952,0.1555,-0.2102,0.8519,-6.08,7.85,-0.05,20.57
19962,0.1534,-0.2106,0.8651,-5.76,8.0,0.02,20.57
19972,0.1516,-0.2089,0.8739,-5.8,8.06,-0.03,20.54
19982,0.1508,-0.2113,0.8763,-6.06,7.79,0.05,20.56
19992,0.151,-0.2101,0.873,-6.43,7.57,-0.12,20.56
20002,0.1525,-0.2126,0.8685,-6.63,7.56,-0.11,20.56
20012,0.1539,-0.2147,0.8629,-6.47,7.76,-0.05,20.57
20022,0.1559,-0.2128,0.8574,-6.31,7.83,-0.05,20.56
20032,0.15,-0.2136,0.8652,-6.05,7.92,0.02,20.53
20042,0.1472,-0.2152,0.8678,-5.98,7.77,-0.06,20.57
20052,0.1499,-0.2148,0.8699,-6.02,7.6,-0.09,20.54
20062,0.1512,-0.2117,0.8668,-6.09,7.63,-0.08,20.55
20072,0.1553,-0.2125,0.8723,-6.2,7.82,-0.09,20.57
20082,0.153,-0.2198,0.8728,-6.21,8.09,-0.05,20.54
20092,0.152,-0.2188,0.87,-6.31,8.12,-0.03,20.55
20102,0.1515,-0.2253,0.8636,-6.11,7.94,-0.06,20.54
20112,0.1476,-0.2219,0.8684,-5.83,7.71,-0.06,20.56
20122,0.1495,-0.2148,0.8682,-5.85,7.54,-0.08,20.54
20132,0.1515,-0.2159,0.8699,-5.97,7.53,-0.2,20.55
20142,0.1543,-0.2124,0.8654,-6.02,7.53,-0.12,20.55
20152,0.1517,-0.2101,0.8621,-6.14,7.62,-0.15,20.55
20162,0.1522,-0.2126,0.8616,-6.05,7.74,-0.17,20.55
20172,0.1549,-0.2133,0.8679,-5.92,7.65,-0.02,20.56
20182,0.1598,-0.2136,0.8685,-5.76,7.66,-0.05,20.56
20192,0.155,-0.2062,0.8756,-5.86,7.65,-0.06,20.55
20202,0.1466,-0.2058,0.8671,-6.0,7.56,-0.05,20.57
20212,0.1494,-0.2101,0.8674,-6.26,7.69,-0.15,20.57
20222,0.1554,-0.2207,0.8667,-6.53,7.97,-0.14,20.57
20232,0.1572,-0.222,0.8649,-6.26,8.0,0.02,20.58
20242,0.1562,-0.2257,0.8666,-6.23,8.2,0.03,20.55
20252,0.1486,-0.2209,0.8585,-6.53,7.97,0.02,20.54
20262,0.1476,-0.2163,0.8573,-6.09,7.54,0.08,20.54
20272,0.1503,-0.2108,0.871,-5.15,7.51,-0.02,20.58
20282,0.1539,-0.207,0.8761,-5.08,7.59,-0.03,20.55
20292,0.1556,-0.2069,0.8845,-5.86,7.39,-0.09,20.56
20302,0.1586,-0.2028,0.8782,-6.52,7.31,-0.21,20.55
20312,0.1599,-0.2109,0.8658,-6.84,7.25,-0.31,20.57
20322,0.1647,-0.2173,0.8538,-6.84,7.6,-0.03,20.56
20332,0.1626,-0.2142,0.8514,-6.5,8.31,0.0,20.56
20342,0.157,-0.2156,0.8573,-5.66,8.64,0.08,20.57
20352,0.1538,-0.2161,0.8762,-5.3,8.43,0.11,20.54
20362,0.1484,-0.2086,0.8811,-5.62,7.85,0.02,20.57
20372,0.1481,-0.2052,0.8781,-5.89,7.13,-0.11,20.57
20382,0.1509,-0.2094,0.8749,-6.24,6.98,-0.12,20.57
20392,0.152,-0.2075,0.8706,-6.52,7.68,-0.12,20.57
20402,0.1509,-0.2113,0.8634,-6.69,8.43,-0.05,20.54
20412,0.1469,-0.21,0.8584,-6.37,8.52,0.05,20.57
20422,0.1444,-0.2174,0.8585,-6.09,8.2,0.05,20.59
20432,0.1459,-0.2208,0.8685,-6.02,7.48,-0.12,20.57
20442,0.1488,-0.2172,0.8672,-5.94,7.19,-0.26,20.56
20452,0.1499,-0.2153,0.8654,-5.82,7.31,-0.11,20.57
20462,0.1508,-0.2124,0.8673,-5.88,7.68,-0.12,20.54
20472,0.1476,-0.2113,0.8694,-5.91,7.86,-0.03,20.55
20482,0.1466,-0.2067,0.87,-5.82,7.71,-0.05,20.56
20492,0.1501,-0.203,0.8734,-5.79,7.34,-0.14,20.56
20502,0.1545,-0.209,0.8695,-6.05,7.36,-0.2,20.58
20512,0.1528,-0.2064,0.8654,-6.49,7.65,-0.09,20.58
20522,0.1573,-0.2089,0.8634,-6.6,8.03,-0.03,20.56
20532,0.155,-0.215,0.863,-6.47,8.2,0.03,20.55
20542,0.1561,-0.218,0.8622,-6.11,7.98,-0.02,20.58
20552,0.156,-0.2164,0.8672,-5.83,7.73,-0.08,20.57
20562,0.1543,-0.2164,0.8698,-5.88,7.48,-0.05,20.56
20572,0.1576,-0.2157,0.8707,-6.02,7.59,-0.03,20.57
20582,0.1556,-0.2114,0.8662,-6.32,7.86,-0.03,20.58
20592,0.1517,-0.2128,0.8643,-6.41,7.97,-0.08,20.55
20603,0.1504,-0.214,0.8619,-6.08,7.86,-0.03,20.56
20613,0.1505,-0.2137,0.8666,-5.98,7.69,0.0,20.56
20623,0.1506,-0.2118,0.8704,-5.92,7.45,-0.09,20.54
20633,0.1484,-0.2129,0.8693,-6.0,7.51,-0.06,20.58
20643,0.1512,-0.2141,0.8701,-6.31,7.65,-0.12,20.58
20653,0.1538,-0.2158,0.8641,-6.4,7.82,-0.03,20.57
20663,0.153,-0.2153,0.8639,-6.17,7.86,0.05,20.55
20673,0.1526,-0.2112,0.869,-5.98,7.95,-0.03,20.55
20683,0.1492,-0.2125,0.8679,-5.91,7.86,-0.06,20.56
20693,0.1537,-0.2145,0.8696,-5.92,7.71,-0.06,20.56
20703,0.1559,-0.2141,0.8708,-6.05,7.6,-0.05,20.55
20713,0.1534,-0.2161,0.8698,-6.26,7.6,-0.12,20.56
20723,0.1556,-0.219,0.8705,-6.4,7.8,-0.09,20.54
20733,0.1521,-0.2185,0.8654,-6.18,7.97,-0.06,20.56
20743,0.1514,-0.2151,0.8673,-6.02,7.83,-0.02,20.53
20753,0.1517,-0.2166,0.8647,-5.91,7.69,-0.09,20.56
20763,0.1543,-0.2142,0.8698,-5.94,7.57,-0.05,20.58
20773,0.1512,-0.2137,0.8719,-5.85,7.57,-0.11,20.56
20783,0.1511,-0.2156,0.8688,-5.94,7.74,-0.03,20.59
20793,0.1558,-0.2102,0.8667,-6.05,7.74,-0.08,20.57
20803,0.1508,-0.2133,0.8708,-6.05,7.71,-0.08,20.55
20814,0.1523,-0.2113,0.8679,-6.11,7.59,-0.09,20.56
20824,0.1544,-0.2148,0.8638,-6.03,7.57,-0.06,20.57
20834,0.1517,-0.2144,0.8632,-6.09,7.74,-0.05,20.57
20844,0.1488,-0.2118,0.8643,-5.97,7.91,0.03,20.57
20854,0.1515,-0.2109,0.8658,-6.03,7.95,0.0,20.57
20864,0.1497,-0.2131,0.8673,-5.98,7.77,0.05,20.58
20874,0.149,-0.2134,0.8662,-6.14,7.54,-0.14,20.58
20884,0.1515,-0.2118,0.8619,-6.11,7.48,-0.05,20.59
20894,0.1528,-0.2122,0.8666,-6.12,7.62,-0.06,20.57
20904,0.1503,-0.2169,0.8677,-5.98,7.82,-0.03,20.57
20914,0.152,-0.2137,0.8656,-5.92,7.83,-0.08,20.57
20924,0.1504,-0.2112,0.8685,-5.98,7.62,-0.03,20.57
20934,0.1531,-0.21,0.8671,-6.02,7.57,-0.08,20.55
20944,0.153,-0.2131,0.8679,-6.14,7.57,-0.06,20.57
20954,0.1575,-0.2122,0.8702,-6.05,7.73,-0.02,20.56
20964,0.1531,-0.2128,0.8689,-6.05,7.88,-0.02,20.58
20974,0.1526,-0.2124,0.8713,-6.11,7.94,-0.03,20.55
20984,0.1523,-0.2114,0.8706,-6.05,7.83,0.02,20.58
20994,0.1537,-0.2091,0.8735,-6.02,7.62,-0.03,20.59
21004,0.1523,-0.2094,0.8698,-6.05,7.57,-0.03,20.55
21014,0.1548,-0.2142,0.8688,-6.2,7.82,-0.02,20.59
21024,0.1509,-0.2128,0.8669,-6.23,7.91,-0.06,20.58
21034,0.1521,-0.2108,0.8667,-6.23,7.88,0.03,20.58
21044,0.1505,-0.2115,0.8639,-6.12,7.76,-0.08,20.55
21054,0.1544,-0.2104,0.8687,-5.94,7.62,-0.12,20.57
21064,0.1544,-0.2111,0.868,-5.94,7.6,-0.21,20.58
21074,0.1537,-0.2081,0.8713,-6.11,7.85,-0.09,20.6
21084,0.1509,-0.209,0.8691,-6.18,8.02,-0.05,20.59
21094,0.1499,-0.2113,0.8661,-6.27,7.97,-0.11,20.58
21104,0.1482,-0.2115,0.8607,-6.26,7.85,-0.08,20.57
21114,0.1505,-0.2133,0.8656,-6.12,7.76,-0.09,20.58
21124,0.1498,-0.2136,0.8641,-6.09,7.71,-0.05,20.58
21134,0.1501,-0.2145,0.8673,-6.08,7.83,-0.02,20.57
21144,0.1495,-0.2129,0.8717,-6.17,7.91,0.0,20.57
21154,0.1519,-0.2144,0.8704,-6.29,7.8,-0.11,20.55
21164,0.1501,-0.2184,0.869,-6.23,7.74,-0.05,20.58
21174,0.1528,-0.2174,0.8676,-6.18,7.59,-0.09,20.61
21184,0.1541,-0.2124,0.8647,-6.15,7.57,-0.11,20.57
21194,0.1537,-0.2147,0.865,-6.03,7.69,-0.18,20.58
21204,0.1556,-0.2129,0.8676,-5.95,7.77,-0.08,20.57
21214,0.1532,-0.208,0.8663,-6.05,7.74,-0.05,20.57
21224,0.1521,-0.2092,0.8674,-6.11,7.54,-0.03,20.55
21234,0.1528,-0.2113,0.8684,-6.2,7.47,-0.09,20.57
21244,0.1544,-0.2118,0.8685,-6.26,7.66,-0.11,20.56
21254,0.1543,-0.2152,0.8658,-6.12,7.89,-0.09,20.56
21264,0.1534,-0.2168,0.8657,-6.17,8.11,0.0,20.57
21274,0.156,-0.22,0.868,-6.09,8.05,-0.03,20.55
21284,0.149,-0.2144,0.8683,-6.21,7.85,0.0,20.57
21294,0.1499,-0.2135,0.87,-6.12,7.65,-0.06,20.57
21304,0.1511,-0.2131,0.8646,-6.02,7.6,-0.02,20.57
21314,0.1521,-0.2122,0.8695,-5.94,7.73,-0.03,20.58
21324,0.1522,-0.2128,0.8755,-5.98,7.83,-0.06,20.55
21334,0.1531,-0.2147,0.876,-6.15,7.8,-0.06,20.56
21344,0.153,-0.214,0.8739,-6.24,7.63,-0.09,20.59
21354,0.1542,-0.2159,0.869,-6.4,7.53,-0.12,20.56
21364,0.1576,-0.2179,0.8674,-6.21,7.51,-0.09,20.58
21374,0.1562,-0.2185,0.8654,-6.11,7.85,-0.02,20.58
21384,0.1564,-0.2183,0.8636,-5.85,7.97,-0.03,20.58
21394,0.1545,-0.2123,0.8645,-5.76,7.91,0.02,20.57
21404,0.1508,-0.2095,0.8699,-5.85,7.69,0.08,20.58
21414,0.149,-0.2083,0.868,-5.92,7.47,-0.11,20.57
21424,0.1527,-0.2069,0.8682,-6.15,7.51,-0.08,20.55
21434,0.1508,-0.2117,0.8634,-6.15,7.83,-0.08,20.57
21444,0.1516,-0.2133,0.8696,-6.12,8.06,0.0,20.58
21454,0.1487,-0.2146,0.8679,-6.11,8.12,-0.03,20.59
21464,0.1493,-0.2163,0.8707,-6.08,7.86,-0.08,20.58
21474,0.1473,-0.2184,0.8718,-6.08,7.57,-0.05,20.56
21484,0.1511,-0.2148,0.8712,-6.09,7.53,-0.08,20.59
21494,0.1532,-0.2131,0.8685,-6.03,7.62,-0.03,20.57
21504,0.149,-0.2122,0.8665,-6.08,7.79,0.02,20.6
21514,0.1497,-0.2113,0.8667,-5.97,7.76,-0.05,20.6
21524,0.1531,-0.2103,0.87,-6.0,7.62,-0.05,20.59
21534,0.1537,-0.2115,0.8632,-5.94,7.54,-0.03,20.59
21544,0.1555,-0.2092,0.8704,-6.02,7.65,-0.09,20.58
21554,0.1548,-0.2141,0.8708,-6.03,7.89,-0.08,20.6
21564,0.155,-0.2115,0.8738,-6.18,8.02,-0.02,20.59
21574,0.1517,-0.2128,0.8728,-6.23,7.91,-0.14,20.6
21584,0.1514,-0.2144,0.8671,-6.29,7.69,-0.06,20.61
21594,0.1531,-0.2133,0.8695,-6.11,7.57,-0.15,20.58
21604,0.1509,-0.2137,0.8682,-5.97,7.5,-0.06,20.58
21614,0.1504,-0.2095,0.8669,-5.95,7.86,-0.05,20.57
21624,0.1511,-0.2076,0.8699,-6.0,7.91,-0.05,20.57
21634,0.1537,-0.2078,0.8662,-6.02,7.73,-0.05,20.58
21644,0.1519,-0.2129,0.8705,-6.18,7.6,-0.08,20.59
21654,0.1521,-0.2117,0.8663,-6.24,7.6,-0.12,20.57
21664,0.1534,-0.2131,0.8668,-6.15,7.74,-0.03,20.57
21674,0.1516,-0.2118,0.8629,-6.2,8.0,-0.03,20.57
21684,0.1534,-0.2142,0.8641,-6.2,8.02,0.02,20.59
21694,0.1517,-0.2142,0.8643,-6.06,7.79,-0.09,20.58
21704,0.1484,-0.2141,0.8689,-5.97,7.59,-0.03,20.57
21714,0.1509,-0.2137,0.8646,-6.0,7.65,-0.05,20.57
21724,0.1494,-0.2129,0.8638,-6.15,7.68,-0.15,20.6
21734,0.147,-0.2142,0.865,-6.21,7.86,0.0,20.58
21744,0.1492,-0.214,0.8623,-6.12,7.91,-0.05,20.57
21754,0.1481,-0.2142,0.8661,-5.98,7.8,0.0,20.58
21764,0.1476,-0.2161,0.8698,-5.97,7.62,-0.06,20.59
21774,0.1511,-0.2139,0.8684,-6.0,7.44,-0.17,20.57
21784,0.1511,-0.21,0.8665,-5.97,7.45,-0.09,20.57
21794,0.1526,-0.2129,0.8711,-6.12,7.56,-0.11,20.58
21804,0.1577,-0.2141,0.8663,-6.08,7.59,0.0,20.59
21814,0.16,-0.2102,0.868,-6.02,7.73,-0.08,20.57
21824,0.1548,-0.208,0.8673,-5.85,7.73,-0.08,20.59
21834,0.1586,-0.2063,0.8706,-6.03,7.66,-0.08,20.58
21844,0.1589,-0.2058,0.8689,-6.06,7.76,0.0,20.58
21854,0.1549,-0.2072,0.8711,-6.14,7.86,-0.02,20.57
21864,0.1554,-0.2122,0.8723,-6.23,7.92,-0.03,20.57
21874,0.1515,-0.2103,0.8663,-6.34,7.88,-0.05,20.58
21884,0.1526,-0.214,0.859,-6.29,7.85,-0.03,20.57
21894,0.1493,-0.2155,0.8652,-6.12,7.74,-0.03,20.58
21904,0.1505,-0.2181,0.8682,-5.94,7.83,-0.02,20.58
21914,0.1516,-0.2181,0.8688,-5.91,7.8,-0.02,20.61
21924,0.1499,-0.2164,0.8722,-6.05,7.68,-0.06,20.59
21934,0.1498,-0.2156,0.8707,-6.11,7.54,-0.02,20.59
21944,0.1514,-0.2169,0.8669,-6.21,7.54,-0.06,20.59
21954,0.1515,-0.2148,0.8641,-6.11,7.54,-0.03,20.59
21964,0.155,-0.2117,0.8651,-5.97,7.66,-0.05,20.62
21974,0.1559,-0.2113,0.8671,-5.89,7.74,-0.06,20.58
21984,0.1531,-0.2095,0.8683,-5.94,7.68,-0.05,20.57
21994,0.1536,-0.2083,0.8641,-6.15,7.68,-0.12,20.58
22004,0.1531,-0.2081,0.8678,-6.32,7.74,-0.03,20.59
22014,0.1541,-0.2086,0.8662,-6.29,7.77,0.0,20.59
22024,0.1539,-0.2144,0.8671,-6.2,7.92,0.03,20.59
22034,0.1512,-0.2129,0.8707,-6.09,8.05,0.0,20.59
22044,0.1512,-0.2168,0.8685,-6.06,7.89,0.0,20.59
22054,0.1506,-0.2179,0.8708,-6.0,7.71,-0.06,20.61
22064,0.1501,-0.2137,0.8663,-6.14,7.54,-0.08,20.61
22074,0.1509,-0.2163,0.8708,-6.27,7.68,-0.09,20.6
22084,0.1519,-0.2181,0.8682,-6.18,7.82,-0.06,20.59
22094,0.1519,-0.2151,0.8677,-6.11,7.86,-0.02,20.6
22104,0.1497,-0.2172,0.8682,-6.02,7.85,-0.03,20.59
22114,0.1526,-0.2161,0.8679,-5.89,7.62,-0.03,20.6
22124,0.1525,-0.2135,0.8708,-5.97,7.44,-0.08,20.58
22134,0.1541,-0.21,0.8671,-6.14,7.56,-0.06,20.58
22144,0.1541,-0.2096,0.8693,-6.12,7.74,-0.05,20.61
22154,0.1549,-0.2098,0.8682,-6.23,7.95,-0.09,20.59
22164,0.1528,-0.2091,0.8722,-6.23,7.91,-0.08,20.59
22174,0.1526,-0.212,0.8685,-6.14,7.79,-0.05,20.57
22184,0.1525,-0.2123,0.8694,-6.15,7.62,-0.05,20.58
22194,0.1538,-0.212,0.8682,-6.14,7.69,-0.12,20.59
22204,0.1547,-0.2148,0.8669,-6.23,7.83,-0.06,20.57
22214,0.1542,-0.2168,0.8719,-6.2,7.83,-0.02,20.58
22224,0.155,-0.2191,0.8672,-6.11,7.92,0.03,20.6
22234,0.1531,-0.2145,0.8672,-6.0,7.79,-0.03,20.59
22244,0.1521,-0.2172,0.8683,-6.05,7.59,-0.06,20.6
22254,0.1505,-0.2128,0.8689,-5.97,7.62,-0.03,20.59
22264,0.1527,-0.2126,0.8656,-6.12,7.77,-0.05,20.59
22274,0.1522,-0.2097,0.8713,-6.14,7.8,-0.05,20.56
22284,0.1547,-0.2124,0.8644,-6.09,7.85,-0.03,20.58
22294,0.1514,-0.2133,0.8668,-6.06,7.82,-0.08,20.6
22304,0.1482,-0.214,0.8688,-6.09,7.73,-0.09,20.57
22314,0.1498,-0.2112,0.8628,-6.11,7.59,-0.15,20.58
22324,0.1536,-0.2102,0.8647,-6.02,7.66,0.0,20.59
22334,0.1512,-0.2119,0.8678,-5.95,7.8,0.02,20.59
22344,0.1505,-0.2136,0.8704,-6.09,7.88,0.0,20.6
22354,0.1479,-0.212,0.8719,-6.23,7.8,-0.08,20.6
22364,0.1505,-0.2125,0.8665,-6.18,7.73,-0.12,20.6
22374,0.1532,-0.2141,0.8651,-6.24,7.62,-0.12,20.56
22384,0.153,-0.2145,0.8612,-6.2,7.68,0.0,20.59
22394,0.1559,-0.2128,0.8661,-6.09,7.82,-0.05,20.58
22404,0.1547,-0.2145,0.8645,-5.95,7.85,-0.05,20.58
22414,0.1525,-0.2144,0.8719,-6.02,7.8,0.0,20.59
22424,0.152,-0.2129,0.8693,-6.11,7.63,-0.12,20.6
22434,0.1528,-0.2076,0.8679,-6.09,7.5,-0.11,20.6
22444,0.1542,-0.2123,0.8708,-6.17,7.56,-0.05,20.6
22454,0.1571,-0.2122,0.8712,-5.95,7.91,-0.03,20.6
22464,0.1559,-0.2113,0.8718,-6.03,7.88,-0.03,20.59
22474,0.1545,-0.2095,0.8727,-6.23,7.66,0.05,20.59
22484,0.1573,-0.2125,0.8691,-6.18,7.63,-0.11,20.59
22495,0.1544,-0.21,0.8606,-6.18,7.76,-0.14,20.58
22505,0.1548,-0.21,0.861,-6.12,7.69,-0.06,20.57
22515,0.1531,-0.2141,0.8667,-6.08,7.92,-0.08,20.59
22525,0.152,-0.2173,0.8717,-6.02,8.02,-0.05,20.62
22535,0.1481,-0.2168,0.8676,-6.09,8.06,-0.14,20.57
22545,0.142,-0.218,0.8662,-6.37,7.68,-0.06,20.59
22555,0.1465,-0.2158,0.8585,-6.35,7.63,-0.06,20.59
22565,0.1516,-0.2134,0.8551,-6.17,7.6,-0.11,20.58
22575,0.1537,-0.2144,0.8568,-5.8,7.37,0.08,20.59
22585,0.1501,-0.2076,0.863,-5.57,7.74,0.03,20.6
22595,0.1547,-0.2057,0.8782,-5.65,8.03,-0.17,20.59
22605,0.1537,-0.2067,0.8831,-5.94,7.73,-0.06,20.59
22615,0.156,-0.2142,0.8801,-6.53,7.34,-0.11,20.59
22625,0.1614,-0.2184,0.8668,-6.79,7.57,-0.14,20.61
22635,0.1566,-0.2174,0.8616,-6.72,8.05,-0.12,20.58
22645,0.1569,-0.2169,0.8615,-6.15,8.21,0.09,20.59
22655,0.152,-0.217,0.8672,-5.66,8.12,0.09,20.57
22665,0.1489,-0.2155,0.8727,-5.47,7.85,0.02,20.59
22676,0.1439,-0.2122,0.8685,-5.88,7.25,-0.02,20.6
22686,0.1522,-0.2109,0.8702,-6.38,7.25,-0.15,20.58
22697,0.1544,-0.2115,0.8602,-6.6,7.63,-0.21,20.6
22707,0.1515,-0.2136,0.8538,-6.5,8.08,-0.09,20.58
22717,0.1553,-0.2156,0.8605,-5.97,8.31,0.02,20.58
22727,0.1544,-0.2129,0.8629,-5.63,7.97,0.0,20.62
22737,0.1503,-0.2123,0.8756,-5.63,7.45,-0.03,20.59
22748,0.1558,-0.2069,0.8804,-5.74,7.21,-0.14,20.61
22758,0.1581,-0.2102,0.8774,-6.4,7.51,-0.11,20.6
22769,0.1552,-0.2095,0.8715,-6.53,8.0,-0.05,20.59
22779,0.153,-0.2137,0.865,-6.49,8.29,0.03,20.59
22789,0.147,-0.2159,0.8652,-6.09,8.35,0.03,20.62
22799,0.1385,-0.2145,0.8596,-6.15,7.56,-0.05,20.61
22809,0.1479,-0.2158,0.856,-6.18,6.69,-0.15,20.61
22819,0.1584,-0.2168,0.8575,-6.14,6.95,-0.12,20.59
22829,0.1642,-0.2096,0.8604,-5.76,7.97,-0.06,20.61
22839,0.1582,-0.2089,0.8718,-5.45,8.58,0.15,20.6
22849,0.1511,-0.2059,0.882,-5.66,8.55,0.11,20.59
22859,0.1461,-0.2081,0.8848,-6.27,7.76,-0.12,20.6
22869,0.1475,-0.2125,0.8763,-6.72,6.84,-0.32,20.61
22879,0.1572,-0.2169,0.8607,-6.76,6.92,-0.27,20.6
22889,0.1593,-0.2206,0.8505,-6.43,7.89,-0.08,20.61
22899,0.1567,-0.2156,0.8514,-6.02,8.67,0.11,20.59
22909,0.1487,-0.2136,0.8621,-5.63,8.67,0.12,20.61
22919,0.145,-0.2137,0.8752,-5.45,7.92,0.08,20.6
22929,0.1458,-0.207,0.8798,-5.68,7.08,-0.11,20.59
22939,0.1552,-0.2065,0.8754,-6.23,6.98,-0.26,20.6
22949,0.1576,-0.2085,0.8645,-6.67,7.56,-0.14,20.58
22959,0.156,-0.2124,0.8547,-6.7,8.34,-0.05,20.59
22969,0.1542,-0.214,0.8585,-6.43,8.55,-0.02,20.6
22979,0.1481,-0.2168,0.865,-5.92,8.02,0.05,20.62
22989,0.1461,-0.2181,0.8708,-5.71,7.36,-0.03,20.59
22999,0.1514,-0.2191,0.8729,-5.85,7.22,-0.12,20.61
23009,0.1542,-0.2128,0.868,-6.29,7.62,-0.14,20.6
23019,0.1552,-0.2139,0.8646,-6.5,8.08,0.02,20.62
23029,0.1525,-0.215,0.8678,-6.24,8.21,0.03,20.6
23039,0.1506,-0.2159,0.87,-5.95,7.89,-0.03,20.62
23049,0.1528,-0.2113,0.8773,-5.57,7.42,-0.06,20.62
23059,0.1571,-0.2101,0.88,-5.68,7.3,-0.05,20.62
23069,0.1539,-0.2145,0.8744,-6.26,7.63,-0.12,20.61
23079,0.1517,-0.2125,0.8658,-6.64,8.03,0.02,20.61
23089,0.1506,-0.2148,0.8572,-6.79,8.09,-0.06,20.61
23099,0.1494,-0.2163,0.8492,-6.46,7.82,-0.06,20.61
23109,0.1559,-0.2172,0.8507,-5.88,7.47,-0.06,20.6
23119,0.1538,-0.2141,0.8627,-5.1,7.6,0.03,20.63
23130,0.1555,-0.2043,0.8794,-4.96,7.76,0.11,20.62
23141,0.1501,-0.2029,0.8922,-5.68,7.89,0.0,20.62
23151,0.1487,-0.2036,0.8837,-6.49,7.71,-0.06,20.61
23161,0.1493,-0.2096,0.8689,-7.25,7.44,-0.26,20.6
23171,0.1552,-0.2167,0.8582,-7.11,7.56,-0.23,20.59
23181,0.1591,-0.2234,0.8551,-6.37,8.05,-0.03,20.62
23193,0.1478,-0.2152,0.8545,-5.79,7.82,0.06,20.61
23203,0.1506,-0.2152,0.8524,-5.56,7.24,0.02,20.61
23213,0.1593,-0.2124,0.8672,-5.56,7.33,-0.23,20.62
23223,0.1613,-0.2084,0.8823,-5.59,7.62,0.05,20.58
23233,0.1516,-0.2061,0.8864,-5.95,8.09,0.14,20.61
23243,0.1488,-0.205,0.882,-6.47,8.4,-0.02,20.59
23253,0.1472,-0.2129,0.8741,-6.81,8.18,-0.21,20.59
23263,0.1425,-0.2142,0.8602,-6.63,7.59,-0.17,20.59
23274,0.1471,-0.2184,0.8562,-6.0,7.34,-0.06,20.6
23285,0.1459,-0.2178,0.8654,-5.74,7.74,0.02,20.62
23295,0.1431,-0.2125,0.8691,-5.89,8.08,-0.08,20.61
23305,0.1483,-0.2111,0.8749,-5.94,7.98,0.0,20.59
23315,0.1506,-0.2108,0.8738,-5.95,7.54,-0.09,20.6
23325,0.1516,-0.2091,0.8738,-6.09,7.42,-0.14,20.61
23335,0.1559,-0.2097,0.8708,-6.18,7.54,-0.03,20.6
23345,0.1569,-0.2095,0.868,-6.26,7.74,-0.05,20.61
23355,0.1589,-0.2128,0.8666,-6.43,7.85,-0.08,20.6
23365,0.1584,-0.2147,0.8617,-6.32,7.89,-0.09,20.64
23375,0.1589,-0.2179,0.8646,-6.09,7.82,-0.06,20.62
23385,0.1588,-0.2189,0.864,-5.92,7.68,0.0,20.61
23395,0.155,-0.2156,0.8676,-6.0,7.77,0.0,20.61
23405,0.1533,-0.2157,0.8654,-6.14,7.98,0.02,20.6
23415,0.1514,-0.2145,0.8658,-6.06,8.0,0.06,20.6
23425,0.1483,-0.2118,0.8657,-6.06,7.76,-0.03,20.6
23435,0.1503,-0.2129,0.8651,-6.05,7.53,-0.11,20.61
23445,0.152,-0.2111,0.8699,-5.88,7.37,-0.15,20.62
23455,0.1555,-0.2108,0.8715,-5.86,7.69,-0.06,20.61
23465,0.1504,-0.2126,0.8743,-6.09,7.97,0.0,20.6
23475,0.1489,-0.2136,0.8734,-6.2,8.03,-0.09,20.6
23485,0.1503,-0.2142,0.8707,-6.38,7.82,-0.03,20.61
23495,0.1511,-0.2147,0.8708,-6.38,7.59,-0.08,20.64
23505,0.1523,-0.2139,0.8646,-6.15,7.45,0.0,20.61
23515,0.1542,-0.2108,0.8639,-5.76,7.65,-0.03,20.6
23525,0.1559,-0.2096,0.8674,-5.77,7.73,-0.08,20.63
23535,0.1532,-0.2153,0.8726,-5.89,7.63,-0.03,20.6
23545,0.158,-0.213,0.8708,-5.98,7.85,-0.09,20.62
23555,0.1509,-0.2092,0.8723,-6.11,8.11,-0.06,20.63
23567,0.1465,-0.2072,0.8658,-6.34,8.09,-0.09,20.59
23578,0.1405,-0.2108,0.8661,-6.49,8.06,-0.12,20.62
23588,0.1456,-0.2095,0.8638,-6.31,7.66,-0.02,20.62
23598,0.1497,-0.2089,0.8616,-5.85,7.51,0.0,20.61
23608,0.1509,-0.2122,0.8652,-5.71,7.66,-0.02,20.61
23618,0.1487,-0.214,0.8694,-5.73,7.86,-0.02,20.61
23628,0.1472,-0.2159,0.874,-6.26,7.47,-0.12,20.61
23638,0.1442,-0.2177,0.8665,-6.23,7.59,0.0,20.59
23648,0.135,-0.205,0.8524,-6.67,8.12,-0.08,20.62
23658,0.1519,-0.2091,0.8519,-6.78,7.34,-0.26,20.63
23668,0.1677,-0.2192,0.8608,-6.12,6.5,-0.2,20.61
23678,0.1779,-0.2173,0.8678,-5.11,7.1,0.09,20.62
23688,0.173,-0.2064,0.8856,-4.61,8.87,0.17,20.61
23698,0.1575,-0.2072,0.9075,-5.19,9.44,0.05,20.6
23708,0.1484,-0.2096,0.9106,-6.66,7.98,-0.02,20.6
23718,0.1479,-0.2153,0.8756,-8.18,6.63,-0.4,20.62
23728,0.1584,-0.2173,0.8363,-8.11,6.69,-0.47,20.6
23738,0.1604,-0.226,0.8258,-6.73,7.71,-0.11,20.63
23748,0.1633,-0.2274,0.8334,-5.16,8.76,0.26,20.62
23758,0.1473,-0.215,0.8593,-4.21,9.21,0.38,20.62
23768,0.1371,-0.2087,0.8879,-4.35,8.37,0.21,20.62
23778,0.137,-0.2003,0.8948,-5.53,6.72,-0.17,20.62
23788,0.1471,-0.1991,0.8822,-6.84,6.03,-0.4,20.63
23798,0.1527,-0.2042,0.8625,-7.47,6.9,-0.32,20.63
23808,0.1548,-0.2101,0.8503,-7.19,8.46,-0.09,20.61
23818,0.1497,-0.2202,0.8545,-6.26,9.19,0.15,20.63
23828,0.1453,-0.2207,0.8661,-5.39,8.58,0.11,20.6
23838,0.1439,-0.2173,0.8837,-4.96,7.22,0.03,20.61
23848,0.1549,-0.2152,0.886,-5.47,6.52,-0.18,20.59
23858,0.1639,-0.2108,0.8812,-6.55,6.95,-0.15,20.6
23869,0.167,-0.2125,0.8666,-7.28,8.4,0.02,20.61
23879,0.1564,-0.2166,0.8496,-6.95,9.1,0.12,20.63
23889,0.1495,-0.2158,0.8566,-6.12,8.5,0.06,20.63
23899,0.1478,-0.2159,0.8647,-5.34,7.27,-0.02,20.62
23910,0.1527,-0.2123,0.8702,-5.19,6.5,-0.15,20.62
23920,0.1564,-0.208,0.8691,-5.91,7.07,-0.18,20.63
23930,0.157,-0.2084,0.8654,-6.69,8.26,-0.08,20.63
23940,0.1508,-0.2124,0.861,-6.9,8.85,0.03,20.61
23950,0.1475,-0.2183,0.8588,-6.34,8.41,0.03,20.64
23960,0.1478,-0.2151,0.8658,-5.66,7.44,-0.08,20.63
23970,0.1533,-0.2119,0.8702,-5.15,6.89,-0.09,20.63
23980,0.1589,-0.2089,0.8771,-5.37,7.04,-0.05,20.64
23990,0.1595,-0.2057,0.8824,-6.08,7.71,-0.05,20.62
24000,0.1561,-0.2087,0.8757,-6.58,8.35,0.06,20.6
24010,0.1484,-0.2128,0.8757,-6.72,8.32,-0.06,20.62
24020,0.1516,-0.2134,0.8646,-6.64,7.83,-0.06,20.65
24030,0.1545,-0.2155,0.8665,-6.29,7.4,-0.12,20.63
24040,0.1556,-0.2184,0.8569,-5.98,7.47,-0.09,20.62
24050,0.1562,-0.2155,0.8655,-5.77,7.82,-0.06,20.64
24060,0.1525,-0.2148,0.8693,-5.74,8.14,0.03,20.62
24070,0.1511,-0.2098,0.8721,-5.76,8.06,0.03,20.63
24080,0.1506,-0.2113,0.8746,-6.05,7.69,-0.12,20.62
24090,0.1534,-0.209,0.8734,-6.14,7.42,-0.15,20.62
24100,0.1559,-0.2096,0.8701,-6.17,7.45,-0.17,20.63
24110,0.1537,-0.2069,0.8633,-6.34,7.77,-0.14,20.62
24120,0.1484,-0.2075,0.8606,-6.44,7.97,-0.12,20.64
24130,0.1439,-0.2111,0.8555,-6.4,8.0,-0.03,20.62
24140,0.1454,-0.2163,0.8566,-6.26,7.82,-0.02,20.64
24150,0.1475,-0.219,0.8572,-5.95,7.77,0.0,20.61
24160,0.1506,-0.2185,0.8682,-5.94,7.68,-0.06,20.63
24170,0.1531,-0.2156,0.8762,-5.71,7.5,0.05,20.62
24181,0.1587,-0.2123,0.8827,-5.68,7.62,0.03,20.64
24191,0.1593,-0.2061,0.8888,-5.45,7.94,-0.05,20.64
24201,0.1597,-0.2073,0.8937,-5.85,8.02,-0.12,20.64
24213,0.1592,-0.2117,0.8827,-6.75,7.65,-0.17,20.62
24224,0.1616,-0.2189,0.8624,-7.21,7.48,-0.2,20.61
24236,0.1553,-0.2272,0.8365,-7.59,7.19,-0.38,20.64
24247,0.1564,-0.2268,0.8282,-6.63,7.15,0.05,20.63
24257,0.1648,-0.2178,0.843,-4.73,8.17,0.32,20.64
24267,0.1571,-0.2024,0.8782,-3.69,9.66,0.34,20.62
24281,0.142,-0.1969,0.9086,-4.99,8.63,0.02,20.63
24291,0.1417,-0.1992,0.903,-6.84,7.07,-0.35,20.62
24301,0.1442,-0.2057,0.8704,-7.83,6.05,-0.27,20.64
24311,0.1547,-0.2124,0.8442,-7.66,7.08,-0.31,20.64
24321,0.1481,-0.2179,0.838,-6.6,8.67,-0.12,20.64
24331,0.15,-0.2244,0.8557,-5.48,9.08,0.14,20.62
24342,0.1416,-0.224,0.8794,-4.69,8.26,0.17,20.62
24352,0.1455,-0.217,0.887,-5.11,7.02,-0.09,20.61
24362,0.1495,-0.2094,0.8851,-6.11,6.63,-0.26,20.63
24372,0.1644,-0.2069,0.8738,-6.92,7.08,-0.29,20.63
24382,0.1665,-0.2067,0.8654,-7.01,8.03,-0.06,20.64
24392,0.1571,-0.2168,0.8522,-6.44,8.79,0.05,20.62
24402,0.1495,-0.2134,0.8593,-5.71,8.56,-0.02,20.65
24412,0.1481,-0.2161,0.8655,-5.39,7.31,-0.12,20.64
24422,0.1565,-0.2168,0.8746,-5.65,6.58,-0.26,20.62
24432,0.1573,-0.2106,0.8644,-6.34,7.11,-0.14,20.64
24442,0.158,-0.2073,0.8561,-6.7,8.35,0.06,20.63
24452,0.1495,-0.2118,0.8658,-6.47,9.19,0.15,20.64
24462,0.1444,-0.2111,0.8696,-5.89,8.61,0.11,20.63
24472,0.1439,-0.2103,0.8793,-5.42,7.34,-0.03,20.63
24482,0.1464,-0.2087,0.8754,-5.4,6.24,-0.27,20.64
24492,0.1575,-0.2073,0.8755,-5.83,6.46,-0.23,20.64
24502,0.1594,-0.2137,0.8754,-6.55,7.63,-0.17,20.65
24512,0.1583,-0.2162,0.8656,-6.93,8.82,0.05,20.64
24522,0.1487,-0.2195,0.8596,-6.63,8.93,0.15,20.67
24532,0.1432,-0.2175,0.8634,-6.14,8.14,0.08,20.64
24542,0.1433,-0.2157,0.8633,-5.68,7.15,-0.14,20.61
24552,0.1537,-0.2122,0.8655,-5.56,6.85,-0.15,20.62
24562,0.1597,-0.2094,0.8662,-5.69,7.33,-0.08,20.62
24572,0.1578,-0.2085,0.8765,-6.03,8.2,-0.08,20.66
24582,0.1537,-0.2081,0.8734,-6.4,8.35,0.06,20.62
24592,0.1484,-0.2096,0.8673,-6.4,7.98,0.0,20.64
24602,0.1503,-0.2114,0.8646,-6.27,7.37,-0.18,20.64
24612,0.1541,-0.2114,0.8669,-6.14,7.31,-0.17,20.62
24622,0.1575,-0.2125,0.8618,-6.08,7.69,-0.02,20.61
24632,0.1553,-0.2156,0.8684,-5.83,8.32,-0.03,20.62
24642,0.151,-0.215,0.8732,-5.91,8.34,0.09,20.64
24652,0.1492,-0.2175,0.8761,-6.02,7.85,0.02,20.64
24662,0.1508,-0.2135,0.8765,-6.18,7.15,-0.14,20.62
24672,0.1517,-0.2123,0.8682,-6.31,7.08,-0.14,20.61
24682,0.1564,-0.213,0.8613,-6.29,7.66,-0.09,20.62
24692,0.1552,-0.2119,0.8593,-6.15,8.2,-0.12,20.63
24702,0.1505,-0.2144,0.8611,-6.09,8.46,0.09,20.64
24712,0.1475,-0.2115,0.8673,-6.06,7.95,-0.02,20.63
24722,0.1494,-0.2155,0.8669,-6.05,7.42,-0.09,20.64
24732,0.1512,-0.2124,0.8654,-6.14,7.21,-0.15,20.63
24742,0.1565,-0.2113,0.8695,-6.15,7.5,-0.08,20.64
24752,0.1528,-0.2139,0.8687,-6.06,8.11,0.03,20.62
24762,0.1499,-0.212,0.866,-6.11,8.23,0.02,20.63
24772,0.1486,-0.2126,0.8641,-6.09,7.86,-0.02,20.62
24782,0.147,-0.2103,0.8655,-6.08,7.4,-0.11,20.63
24792,0.1517,-0.2095,0.8662,-6.03,7.25,-0.17,20.61
24802,0.1541,-0.2096,0.8657,-6.02,7.48,-0.14,20.62
24812,0.156,-0.2108,0.8689,-6.08,7.89,0.0,20.63
24822,0.1543,-0.2157,0.8711,-6.14,8.17,0.06,20.62
24832,0.1504,-0.2136,0.8699,-6.2,7.97,0.05,20.62
24842,0.152,-0.2163,0.8689,-6.21,7.65,-0.03,20.61
24852,0.1503,-0.2317,0.853,-6.44,7.22,-0.15,20.63
24862,0.1598,-0.2327,0.8491,-6.41,7.82,-0.02,20.61
24872,0.1552,-0.2203,0.8529,-5.94,8.85,0.03,20.64
24882,0.1387,-0.2133,0.8674,-5.73,8.79,0.03,20.63
24892,0.147,-0.2137,0.8693,-6.17,6.96,-0.09,20.63
24902,0.1581,-0.2142,0.8574,-6.52,5.74,-0.32,20.63
24912,0.1714,-0.2062,0.8501,-6.41,6.5,-0.31,20.63
24922,0.17,-0.2112,0.8633,-5.65,8.4,0.05,20.62
24932,0.1621,-0.2117,0.8845,-5.28,9.47,0.31,20.62
24943,0.1487,-0.212,0.8921,-5.82,8.78,0.17,20.62
24953,0.1464,-0.2133,0.8818,-6.52,7.16,-0.24,20.65
24963,0.1501,-0.2135,0.8702,-6.82,6.23,-0.38,20.63
24973,0.1619,-0.2168,0.856,-6.66,6.78,-0.24,20.65
24983,0.1555,-0.2173,0.8517,-6.49,8.31,0.02,20.64
24993,0.1472,-0.2158,0.8474,-5.88,9.24,0.14,20.64
25003,0.1403,-0.2183,0.8651,-5.42,8.73,0.14,20.63
25013,0.1332,-0.214,0.8694,-5.73,7.3,-0.12,20.64
25023,0.1423,-0.2078,0.8683,-6.11,6.53,-0.26,20.62
25033,0.1541,-0.2067,0.8667,-6.44,6.76,-0.29,20.63
25043,0.1565,-0.2125,0.8546,-6.55,7.79,0.05,20.62
25053,0.1528,-0.2112,0.855,-6.2,8.73,0.21,20.62
25063,0.1494,-0.2107,0.8647,-5.66,8.7,0.08,20.63
25073,0.1512,-0.214,0.8865,-5.15,7.39,-0.18,20.66
25083,0.1577,-0.2109,0.8876,-5.27,6.43,-0.18,20.67
25093,0.1672,-0.2068,0.8854,-6.03,6.84,-0.21,20.63
25103,0.1691,-0.2092,0.8739,-7.07,8.03,-0.2,20.64
25113,0.1626,-0.2159,0.8661,-7.39,8.85,0.06,20.66
25123,0.1519,-0.2206,0.8474,-6.95,8.73,0.11,20.63
25133,0.1475,-0.2216,0.8484,-6.08,7.77,-0.08,20.64
25143,0.1564,-0.2175,0.8528,-5.3,6.92,-0.06,20.64
25153,0.1555,-0.2137,0.8621,-5.11,6.89,-0.05,20.61
25163,0.1517,-0.2058,0.8713,-5.54,7.53,-0.02,20.64
25173,0.1506,-0.2056,0.8729,-6.26,8.35,0.0,20.64
25183,0.1459,-0.2073,0.8719,-6.66,8.32,0.05,20.64
25193,0.144,-0.2119,0.8641,-6.6,7.73,-0.03,20.64
25203,0.1442,-0.2131,0.8636,-6.31,7.34,-0.12,20.65
25213,0.1493,-0.2112,0.8687,-5.69,7.68,-0.08,20.63
25223,0.1497,-0.2095,0.8804,-5.5,8.08,-0.08,20.67
25233,0.1506,-0.2173,0.8746,-6.14,7.65,-0.08,20.65
25243,0.1511,-0.2181,0.8702,-6.49,7.16,-0.02,20.65
25253,0.1635,-0.2177,0.8662,-6.46,7.25,-0.06,20.63
25263,0.167,-0.2169,0.8689,-5.97,7.92,-0.08,20.65
25273,0.1615,-0.2133,0.8757,-5.54,8.38,0.15,20.65
25283,0.1566,-0.2109,0.88,-5.69,8.32,0.15,20.63
25293,0.1498,-0.21,0.874,-6.2,7.8,-0.12,20.62
25303,0.1486,-0.2123,0.8646,-6.81,7.31,-0.23,20.64
25313,0.1543,-0.2163,0.8531,-6.78,7.1,-0.27,20.63
25323,0.1558,-0.2173,0.8441,-6.5,7.65,-0.08,20.62
25333,0.1537,-0.2188,0.8508,-5.74,8.41,0.08,20.66
25343,0.1481,-0.2146,0.8677,-5.3,8.5,0.11,20.65
25353,0.1475,-0.2112,0.876,-5.27,7.86,0.11,20.63
25363,0.147,-0.208,0.8812,-5.69,6.99,-0.2,20.64
25373,0.152,-0.2081,0.8762,-6.34,6.93,-0.17,20.64
25383,0.1521,-0.2097,0.8669,-6.79,7.57,-0.15,20.65
25393,0.1554,-0.2129,0.8606,-6.61,8.37,0.0,20.64
25403,0.1488,-0.2158,0.8617,-6.12,8.61,0.09,20.63
25413,0.147,-0.2188,0.8677,-5.76,8.11,0.05,20.63
25423,0.1449,-0.2103,0.8701,-5.77,7.24,-0.15,20.63
25433,0.1497,-0.2157,0.8673,-6.15,6.96,-0.14,20.63
25443,0.1564,-0.2153,0.8622,-6.67,7.48,-0.2,20.64
25453,0.1565,-0.219,0.8591,-6.63,8.27,0.05,20.66
25463,0.1536,-0.2222,0.8635,-6.14,8.66,0.05,20.64
25473,0.1512,-0.2181,0.8654,-5.45,8.14,0.09,20.62
25483,0.1523,-0.2123,0.8743,-5.21,7.21,-0.03,20.65
25493,0.1587,-0.2084,0.8868,-5.5,6.79,-0.15,20.63
25505,0.1581,-0.2076,0.8818,-6.24,7.39,-0.17,20.63
25515,0.1576,-0.213,0.8729,-6.78,8.31,-0.05,20.65
25526,0.1567,-0.2223,0.8671,-6.85,8.72,0.0,20.66
25536,0.155,-0.2241,0.863,-6.34,8.31,-0.09,20.62
25546,0.1489,-0.2206,0.8639,-5.77,7.44,-0.11,20.61
25556,0.1506,-0.2137,0.8678,-5.37,7.01,-0.03,20.64
25566,0.1541,-0.2046,0.8688,-5.39,7.44,-0.11,20.63
25576,0.1548,-0.2035,0.8665,-5.89,7.92,-0.11,20.64
25586,0.145,-0.2067,0.8615,-6.92,7.71,-0.23,20.64
25596,0.1514,-0.2119,0.845,-6.99,7.24,-0.14,20.64
25606,0.1643,-0.214,0.8516,-6.03,7.76,-0.21,20.61
25616,0.1689,-0.2206,0.8685,-5.07,8.41,-0.05,20.64
25626,0.161,-0.2179,0.8811,-5.22,8.14,0.17,20.65
25636,0.1501,-0.2101,0.8887,-6.17,7.91,0.08,20.64
25646,0.1417,-0.2122,0.8729,-7.22,7.85,-0.09,20.63
25656,0.1412,-0.2162,0.8588,-7.42,7.42,-0.18,20.64
25666,0.1444,-0.2185,0.8517,-6.67,7.16,-0.02,20.64
25676,0.1476,-0.212,0.8458,-5.62,7.79,-0.02,20.63
25686,0.1455,-0.2114,0.8615,-4.92,8.06,-0.06,20.62
25696,0.1487,-0.2062,0.876,-4.89,7.73,0.03,20.64
25706,0.1511,-0.2045,0.8827,-5.65,7.24,-0.08,20.64
25716,0.1543,-0.2032,0.875,-6.75,7.37,-0.29,20.62
25726,0.1542,-0.2107,0.8632,-7.33,7.77,-0.15,20.62
25736,0.1567,-0.2155,0.8516,-7.16,8.2,-0.12,20.62
25746,0.1542,-0.2203,0.8485,-6.32,8.21,0.02,20.64
25756,0.1497,-0.2189,0.8569,-5.33,7.86,-0.02,20.64
25766,0.1569,-0.2197,0.8749,-4.78,7.19,-0.05,20.64
25776,0.1582,-0.2126,0.8871,-5.19,7.07,-0.12,20.61
25786,0.1576,-0.2086,0.8865,-6.21,7.63,-0.09,20.64
25796,0.1569,-0.2104,0.8783,-7.13,8.29,-0.03,20.63
25806,0.1532,-0.2142,0.8638,-7.28,8.49,0.0,20.63
25816,0.1493,-0.2178,0.8616,-6.63,8.15,-0.03,20.65
25826,0.1504,-0.2159,0.8557,-5.69,7.54,-0.06,20.65
25836,0.1505,-0.2135,0.8641,-5.24,7.16,-0.06,20.67
25846,0.1541,-0.2114,0.874,-5.48,7.24,-0.08,20.64
25856,0.1545,-0.2091,0.8695,-6.21,7.73,-0.06,20.64
25866,0.1519,-0.2113,0.8723,-6.5,8.15,-0.06,20.65
25876,0.1477,-0.2085,0.8679,-6.43,8.06,-0.08,20.66
25886,0.152,-0.2141,0.8627,-6.2,7.74,-0.05,20.66
25896,0.1581,-0.2155,0.8679,-5.83,7.5,-0.05,20.65
25907,0.1554,-0.2164,0.8687,-5.69,7.56,-0.08,20.65
25917,0.1527,-0.215,0.8757,-5.98,7.73,-0.08,20.64
25927,0.1526,-0.2152,0.8746,-6.43,7.89,-0.15,20.66
25937,0.1512,-0.2164,0.8687,-6.76,7.73,-0.2,20.67
25947,0.1516,-0.2162,0.8527,-6.41,7.66,-0.06,20.65
25958,0.1555,-0.2175,0.8599,-5.83,7.91,0.05,20.65
25968,0.1466,-0.2079,0.8612,-5.53,8.18,0.0,20.64
25979,0.1421,-0.2048,0.8667,-5.79,8.05,0.02,20.66
25989,0.1447,-0.2079,0.8698,-6.31,7.34,-0.11,20.64
25999,0.1493,-0.2115,0.861,-6.52,6.99,-0.12,20.64
26009,0.1567,-0.2126,0.8601,-6.27,7.39,-0.11,20.68
26019,0.1597,-0.2145,0.8629,-5.82,8.06,-0.06,20.67
26030,0.1522,-0.214,0.8751,-5.56,8.12,0.06,20.64
26041,0.1458,-0.2198,0.8826,-6.15,7.71,-0.03,20.66
26051,0.1493,-0.2249,0.8741,-6.69,7.44,-0.09,20.67
26061,0.1351,-0.2076,0.8518,-6.96,7.97,-0.15,20.66
26071,0.1508,-0.2136,0.8499,-7.02,7.27,-0.31,20.66
26081,0.1694,-0.2197,0.8481,-6.4,6.69,-0.18,20.64
26091,0.1786,-0.2194,0.8633,-5.04,7.44,0.17,20.65
26101,0.1746,-0.2076,0.8875,-4.08,9.05,0.34,20.65
26111,0.1577,-0.2063,0.9087,-4.84,9.25,0.2,20.65
26121,0.1464,-0.2043,0.9126,-6.55,7.86,-0.06,20.64
26131,0.1462,-0.2083,0.877,-8.17,6.53,-0.35,20.66
26141,0.1521,-0.2151,0.8385,-8.5,6.58,-0.47,20.65
26151,0.1602,-0.2194,0.8191,-7.08,7.65,-0.23,20.66
26161,0.1627,-0.2249,0.8333,-5.07,8.67,0.23,20.67
26171,0.1482,-0.2163,0.8691,-3.86,9.13,0.47,20.66
26181,0.1368,-0.2072,0.8911,-4.12,8.27,0.15,20.66
26191,0.1368,-0.2034,0.9009,-5.6,6.69,-0.14,20.64
26201,0.1456,-0.1991,0.8871,-7.33,6.11,-0.4,20.64
26211,0.1549,-0.205,0.8547,-8.02,6.95,-0.27,20.64
26221,0.1578,-0.2135,0.8438,-7.28,8.47,0.02,20.68
26231,0.1512,-0.2212,0.8525,-5.82,9.31,0.17,20.69
26241,0.1448,-0.2198,0.8729,-4.84,8.64,0.15,20.64
26251,0.1455,-0.2161,0.8864,-4.75,7.1,-0.05,20.65
26261,0.1533,-0.2122,0.8903,-5.68,6.2,-0.31,20.65
26271,0.1628,-0.208,0.8822,-6.9,6.78,-0.21,20.67
26281,0.1652,-0.2112,0.8564,-7.73,8.32,0.03,20.68
26291,0.1575,-0.2115,0.8484,-7.15,9.3,0.18,20.65
26301,0.1499,-0.2175,0.8467,-5.95,8.82,0.12,20.65
26311,0.1454,-0.2157,0.8586,-4.85,7.45,-0.03,20.64
26321,0.1473,-0.2098,0.8705,-4.78,6.35,-0.2,20.64
26331,0.156,-0.2061,0.8746,-5.66,6.63,-0.21,20.63
26341,0.1583,-0.2079,0.8713,-6.76,7.8,-0.05,20.66
26351,0.1492,-0.2097,0.8616,-7.47,8.85,0.11,20.64
26361,0.1487,-0.2188,0.8521,-6.87,8.81,0.08,20.65
26371,0.1423,-0.2191,0.8568,-5.66,7.94,-0.02,20.67
26381,0.1492,-0.2175,0.8726,-4.82,6.85,-0.14,20.64
26391,0.1564,-0.2131,0.8835,-5.02,6.73,-0.18,20.66
26401,0.1586,-0.208,0.8857,-5.77,7.39,-0.03,20.63
26411,0.1569,-0.2092,0.8849,-6.64,8.31,0.06,20.66
26421,0.1554,-0.2123,0.8729,-7.19,8.63,0.02,20.64
26431,0.1505,-0.2169,0.861,-6.9,8.18,-0.08,20.67
26441,0.1515,-0.2189,0.8574,-6.21,7.48,-0.08,20.66
26451,0.1538,-0.2135,0.8589,-5.63,7.18,-0.09,20.67
26461,0.1559,-0.2122,0.8601,-5.42,7.4,-0.05,20.66
26471,0.1544,-0.2136,0.8726,-5.6,7.88,0.05,20.67
26481,0.1562,-0.2113,0.8707,-6.18,8.15,0.02,20.67
26491,0.1508,-0.2103,0.8721,-6.4,8.0,-0.05,20.65
26501,0.1533,-0.2112,0.8662,-6.38,7.53,-0.15,20.65
26511,0.152,-0.2133,0.8625,-6.09,7.37,-0.14,20.67
26521,0.1531,-0.214,0.8652,-5.98,7.54,-0.14,20.66
26531,0.1556,-0.214,0.8699,-5.8,7.94,-0.02,20.66
26541,0.1493,-0.2134,0.87,-5.91,8.15,0.05,20.67
26551,0.1492,-0.2123,0.8726,-6.15,8.0,-0.02,20.66
26561,0.1505,-0.2151,0.8694,-6.23,7.71,-0.03,20.65
26571,0.1537,-0.2107,0.8665,-6.26,7.44,-0.11,20.66
26581,0.1531,-0.2111,0.8618,-6.2,7.54,-0.09,20.65
26592,0.1505,-0.212,0.8596,-5.98,7.85,0.0,20.66
26602,0.1472,-0.2113,0.8628,-6.0,8.03,0.06,20.67
26612,0.1498,-0.2115,0.8698,-6.03,7.92,0.0,20.66
26622,0.151,-0.2111,0.8693,-6.08,7.65,-0.08,20.66
26632,0.1519,-0.2111,0.869,-6.12,7.56,-0.14,20.66
26642,0.156,-0.2142,0.8677,-6.18,7.74,-0.02,20.65
26652,0.1577,-0.2164,0.8674,-6.14,7.8,-0.11,20.65
26662,0.1542,-0.215,0.8668,-6.05,7.95,0.02,20.65
26672,0.1555,-0.2155,0.8711,-6.0,7.83,0.0,20.65
26682,0.1525,-0.2137,0.8695,-5.98,7.63,-0.03,20.66
26692,0.1569,-0.2141,0.8702,-6.02,7.48,0.0,20.66
26702,0.1558,-0.2102,0.8683,-6.14,7.56,0.0,20.67
26712,0.1543,-0.2092,0.8674,-6.06,7.86,0.02,20.67
26722,0.1537,-0.2115,0.8726,-6.06,8.02,-0.05,20.66
26732,0.1517,-0.2142,0.8702,-6.0,7.92,-0.09,20.67
26742,0.1508,-0.2139,0.868,-5.98,7.76,-0.06,20.65
26752,0.1525,-0.2112,0.8708,-6.0,7.69,0.06,20.67
26762,0.1527,-0.2115,0.871,-6.09,7.73,-0.08,20.66
26772,0.1512,-0.2136,0.8671,-6.2,7.89,-0.05,20.67
26782,0.1498,-0.2097,0.8671,-6.41,7.91,-0.05,20.65
26792,0.1453,-0.2144,0.8645,-6.37,7.82,-0.15,20.64
26802,0.1453,-0.2188,0.8553,-6.44,7.45,-0.15,20.64
26812,0.1478,-0.2208,0.855,-6.26,7.54,-0.06,20.67
26822,0.1531,-0.2198,0.8624,-5.91,7.95,0.0,20.67
26832,0.151,-0.2161,0.8685,-5.62,7.98,-0.02,20.66
26843,0.1533,-0.2129,0.8796,-5.62,7.69,0.0,20.69
26853,0.1565,-0.2123,0.8812,-5.79,7.57,-0.05,20.69
26863,0.1581,-0.2102,0.8822,-6.15,7.54,-0.05,20.67
26873,0.1621,-0.2142,0.8729,-6.15,7.54,-0.15,20.68
26883,0.163,-0.2136,0.8708,-6.18,7.83,-0.05,20.67
26893,0.1571,-0.2135,0.8647,-6.34,8.02,-0.12,20.67
26903,0.1567,-0.2147,0.8593,-6.44,7.77,-0.12,20.67
26913,0.1438,-0.2108,0.8478,-6.66,7.53,-0.08,20.68
26923,0.1499,-0.2109,0.8383,-6.72,7.31,-0.17,20.68
26933,0.1616,-0.218,0.8381,-6.02,7.47,-0.14,20.68
26943,0.1647,-0.2159,0.8552,-4.72,8.32,0.23,20.68
26953,0.1564,-0.2042,0.8843,-4.29,9.02,0.2,20.67
26963,0.1429,-0.2012,0.9088,-5.3,8.43,0.03,20.67
26973,0.1415,-0.2078,0.8965,-6.69,7.04,-0.18,20.66
26983,0.1454,-0.2056,0.8717,-7.57,6.6,-0.26,20.68
26993,0.1493,-0.2135,0.8517,-7.57,7.39,-0.31,20.67
27003,0.1469,-0.2191,0.8407,-6.76,8.49,-0.12,20.68
27013,0.1447,-0.2216,0.8572,-5.91,8.69,0.14,20.67
27023,0.1462,-0.2206,0.8684,-5.07,8.11,0.17,20.67
27033,0.1489,-0.219,0.8815,-4.99,7.37,0.03,20.68
27043,0.1519,-0.2128,0.8895,-5.71,6.76,-0.17,20.67
27053,0.1572,-0.207,0.8748,-6.61,6.89,-0.14,20.67
27063,0.1614,-0.2087,0.8599,-7.04,7.77,-0.09,20.68
27073,0.1605,-0.2145,0.8562,-6.76,8.55,0.02,20.68
27083,0.1548,-0.2147,0.851,-5.89,8.27,-0.05,20.68
27093,0.1537,-0.2145,0.8663,-5.37,7.54,-0.06,20.68
27103,0.157,-0.2147,0.8744,-5.3,6.99,-0.17,20.68
27113,0.1571,-0.2117,0.8724,-6.02,7.36,-0.17,20.69
27123,0.1578,-0.2139,0.8676,-6.81,8.12,-0.03,20.66
27133,0.1543,-0.2135,0.8611,-6.98,8.53,0.03,20.66
27143,0.1482,-0.2166,0.8594,-6.49,8.44,0.08,20.69
27153,0.146,-0.2131,0.8621,-5.66,7.5,-0.05,20.66
27163,0.1506,-0.2123,0.8743,-4.9,6.95,-0.05,20.67
27173,0.1517,-0.2076,0.8843,-5.22,7.05,-0.18,20.66
27183,0.153,-0.2074,0.8809,-6.03,7.73,-0.05,20.69
27193,0.1492,-0.2094,0.8785,-6.99,8.41,-0.11,20.69
27203,0.1475,-0.2142,0.8619,-7.24,8.44,-0.08,20.67
27213,0.1487,-0.2183,0.8536,-6.78,7.98,-0.14,20.69
27223,0.1498,-0.2174,0.8489,-6.08,7.48,-0.11,20.69
27233,0.1541,-0.217,0.8595,-5.39,7.34,-0.12,20.68
27243,0.1573,-0.2183,0.8689,-5.27,7.44,-0.03,20.71
27253,0.1558,-0.2092,0.8774,-5.59,7.76,0.02,20.67
27263,0.1545,-0.2119,0.8771,-6.12,7.92,0.05,20.69
27273,0.1543,-0.2122,0.8757,-6.63,7.8,-0.09,20.67
27283,0.1558,-0.2122,0.8727,-6.67,7.62,-0.08,20.66
27293,0.1558,-0.2158,0.8619,-6.37,7.57,-0.14,20.68
27303,0.1567,-0.2142,0.863,-6.02,7.82,0.0,20.66
27313,0.1558,-0.2152,0.8679,-5.73,7.98,0.02,20.66
27323,0.1522,-0.2157,0.8773,-5.79,7.92,0.05,20.67
27333,0.1514,-0.2111,0.8716,-6.05,7.74,-0.08,20.66
27343,0.1506,-0.2124,0.8688,-6.5,7.44,-0.18,20.67
27353,0.1538,-0.2144,0.8611,-6.44,7.45,-0.15,20.68
27363,0.1552,-0.2146,0.8566,-6.11,7.76,-0.03,20.68
27373,0.153,-0.21,0.8607,-5.66,8.15,0.08,20.68
27383,0.1521,-0.2103,0.8743,-5.54,8.18,0.06,20.65
27393,0.1439,-0.212,0.8772,-5.95,7.8,-0.02,20.69
