t_ms,accel_x_g,accel_y_g,accel_z_g,gyro_x_dps,gyro_y_dps,gyro_z_dps,imu_temp_c
3288,0.3265,-0.0276,0.8618,-6.56,7.97,-0.02,29.29
3298,0.3281,-0.0253,0.8671,-6.66,7.92,-0.05,29.24
3308,0.3259,-0.0239,0.8639,-6.73,7.91,-0.08,29.26
3318,0.3304,-0.025,0.8668,-6.75,8.03,-0.09,29.25
3328,0.3298,-0.0238,0.8618,-6.67,7.95,-0.11,29.26
3338,0.3286,-0.0245,0.8671,-6.58,7.95,0.02,29.28
3349,0.3292,-0.0234,0.8607,-6.64,7.98,0.0,29.22
3359,0.3262,-0.0247,0.8662,-6.76,7.94,-0.03,29.25
3369,0.325,-0.0266,0.8632,-6.64,7.91,-0.09,29.26
3379,0.3273,-0.0245,0.861,-6.63,7.94,-0.06,29.27
3389,0.3293,-0.0237,0.8628,-6.75,7.98,0.05,29.27
3399,0.3275,-0.025,0.8656,-6.66,8.02,-0.03,29.24
3409,0.3292,-0.0264,0.8655,-6.64,7.98,-0.06,29.28
3419,0.3292,-0.0276,0.8687,-6.7,7.97,-0.06,29.29
3429,0.3315,-0.024,0.8645,-6.72,7.91,-0.09,29.26
3439,0.3284,-0.0254,0.8644,-6.66,7.97,-0.09,29.27
3449,0.3271,-0.026,0.8624,-6.7,7.98,0.02,29.25
3459,0.3308,-0.0249,0.8622,-6.69,7.86,-0.06,29.28
3469,0.328,-0.0272,0.8645,-6.67,7.92,-0.02,29.29
3479,0.3282,-0.0243,0.8596,-6.79,7.86,-0.06,29.28
3489,0.3285,-0.0232,0.8651,-6.75,7.91,-0.05,29.27
3499,0.3258,-0.0239,0.8666,-6.73,7.97,-0.03,29.29
3509,0.329,-0.0255,0.8646,-6.7,8.0,-0.08,29.28
3519,0.327,-0.0283,0.8676,-6.56,8.05,-0.09,29.27
3529,0.3278,-0.0253,0.8662,-6.67,8.05,-0.06,29.27
3539,0.3269,-0.025,0.8663,-6.7,7.89,-0.02,29.28
3549,0.327,-0.027,0.8611,-6.67,8.02,-0.02,29.27
3559,0.3279,-0.0292,0.8627,-6.73,7.94,-0.08,29.28
3569,0.3285,-0.0259,0.8672,-6.7,7.91,0.03,29.29
3579,0.3271,-0.0277,0.865,-6.72,7.92,0.03,29.3
3590,0.328,-0.0284,0.8646,-6.67,7.94,-0.08,29.28
3600,0.3295,-0.0256,0.8679,-6.6,7.97,-0.05,29.3
3610,0.3291,-0.0247,0.8645,-6.69,8.02,0.0,29.32
3620,0.3284,-0.0271,0.8641,-6.73,7.97,-0.05,29.28
3630,0.3281,-0.025,0.8646,-6.73,7.97,-0.09,29.3
3640,0.3279,-0.0262,0.8632,-6.66,7.92,0.0,29.26
3650,0.3271,-0.0249,0.8633,-6.75,7.94,0.02,29.3
3660,0.3278,-0.0243,0.8618,-6.63,7.95,0.02,29.29
3670,0.3275,-0.0259,0.8651,-6.69,8.0,-0.08,29.28
3680,0.3246,-0.0253,0.8623,-6.72,7.94,-0.08,29.32
3690,0.3279,-0.0238,0.8647,-6.69,8.0,-0.08,29.3
3700,0.3279,-0.0231,0.8655,-6.69,7.83,-0.06,29.27
3710,0.3258,-0.0239,0.8652,-6.63,7.97,0.0,29.28
3720,0.3303,-0.0254,0.8662,-6.7,7.94,-0.11,29.29
3730,0.3282,-0.0254,0.8641,-6.67,7.91,0.0,29.32
3740,0.3276,-0.0255,0.8632,-6.72,8.03,-0.08,29.3
3750,0.3292,-0.0237,0.865,-6.66,7.94,-0.06,29.3
3760,0.3287,-0.026,0.8617,-6.7,7.94,0.02,29.3
3770,0.3265,-0.024,0.8644,-6.66,7.91,-0.09,29.33
3780,0.3312,-0.0269,0.8668,-6.64,8.0,-0.03,29.32
3790,0.3311,-0.0251,0.8647,-6.64,7.95,0.0,29.3
3800,0.3279,-0.0269,0.8607,-6.67,7.94,-0.08,29.3
3810,0.3274,-0.026,0.8646,-6.72,8.0,-0.06,29.3
3820,0.3281,-0.0234,0.8625,-6.67,7.92,-0.05,29.32
3830,0.329,-0.0258,0.8627,-6.69,7.97,-0.02,29.32
3840,0.3311,-0.0233,0.8644,-6.63,7.88,-0.02,29.33
3850,0.3279,-0.0265,0.8621,-6.67,7.98,0.0,29.31
3860,0.3284,-0.0247,0.8638,-6.73,7.97,-0.05,29.31
3870,0.3265,-0.0253,0.8635,-6.73,8.0,-0.03,29.31
3880,0.3297,-0.0248,0.8586,-6.67,8.0,-0.05,29.31
3890,0.328,-0.0244,0.8649,-6.73,7.92,-0.02,29.34
3900,0.326,-0.0265,0.8639,-6.64,7.94,-0.02,29.31
3910,0.3273,-0.0269,0.8663,-6.73,8.02,-0.08,29.3
3920,0.3254,-0.022,0.8641,-6.69,7.95,0.02,29.29
3930,0.3279,-0.0261,0.8645,-6.78,7.95,-0.08,29.32
3940,0.3284,-0.0219,0.8677,-6.72,7.91,-0.14,29.32
3950,0.3278,-0.0254,0.8671,-6.75,7.94,-0.08,29.32
3960,0.3302,-0.0247,0.8646,-6.72,7.97,-0.05,29.29
3970,0.3289,-0.0237,0.863,-6.69,7.94,-0.03,29.3
3980,0.3259,-0.0247,0.8635,-6.67,7.95,-0.11,29.32
3990,0.327,-0.0244,0.8645,-6.61,7.89,-0.14,29.31
4000,0.3285,-0.0223,0.865,-6.64,8.06,-0.03,29.33
4010,0.328,-0.0266,0.8655,-6.7,7.95,0.0,29.32
4020,0.3279,-0.0258,0.8611,-6.64,7.91,-0.03,29.32
4030,0.3287,-0.0261,0.863,-6.72,8.0,-0.08,29.3
4040,0.3263,-0.0276,0.8612,-6.72,7.95,-0.06,29.32
4050,0.3271,-0.0267,0.8615,-6.72,8.06,-0.09,29.33
4060,0.3289,-0.026,0.8612,-6.69,7.95,-0.02,29.32
4070,0.3257,-0.0267,0.865,-6.67,7.97,-0.06,29.32
4080,0.3267,-0.027,0.8654,-6.72,7.95,-0.08,29.33
4090,0.3296,-0.0271,0.8594,-6.67,7.95,-0.03,29.32
4100,0.3298,-0.0251,0.8656,-6.75,7.95,-0.05,29.32
4110,0.3278,-0.0227,0.8639,-6.63,8.02,-0.03,29.3
4120,0.3267,-0.0233,0.8683,-6.73,7.97,-0.03,29.3
4130,0.3252,-0.026,0.863,-6.7,7.97,-0.05,29.31
4140,0.3298,-0.0262,0.8641,-6.63,7.91,-0.05,29.33
4150,0.3284,-0.0266,0.8644,-6.7,7.95,-0.03,29.35
4160,0.3301,-0.0238,0.8638,-6.67,7.95,-0.06,29.32
4170,0.3268,-0.0243,0.8621,-6.67,7.94,0.02,29.33
4180,0.3291,-0.0251,0.8656,-6.7,7.88,0.03,29.33
4190,0.3287,-0.0251,0.8634,-6.64,7.98,-0.02,29.35
4200,0.3279,-0.0254,0.8629,-6.66,8.0,-0.08,29.33
4210,0.327,-0.0273,0.8605,-6.69,8.02,-0.02,29.33
4220,0.3276,-0.0258,0.8625,-6.72,7.94,-0.08,29.34
4230,0.3256,-0.0251,0.8607,-6.72,7.95,-0.06,29.34
4240,0.3293,-0.0244,0.8628,-6.7,7.94,-0.06,29.35
4250,0.3253,-0.0273,0.86,-6.64,7.91,0.02,29.35
4260,0.3281,-0.0249,0.8652,-6.72,7.98,0.02,29.35
4270,0.328,-0.025,0.8628,-6.73,7.91,-0.03,29.35
4280,0.3265,-0.0214,0.8674,-6.67,7.94,-0.05,29.34
4290,0.3275,-0.0256,0.8654,-6.61,8.0,-0.03,29.35
4300,0.3256,-0.0266,0.866,-6.73,8.0,-0.05,29.35
4310,0.3301,-0.0215,0.8651,-6.66,7.95,-0.05,29.33
4320,0.3285,-0.0269,0.8654,-6.7,7.94,0.0,29.34
4330,0.3301,-0.028,0.861,-6.7,7.97,-0.09,29.35
4340,0.3304,-0.0258,0.8652,-6.73,8.02,-0.06,29.34
4350,0.3309,-0.0258,0.8629,-6.69,7.95,-0.02,29.38
4360,0.3278,-0.0228,0.8684,-6.67,8.0,-0.05,29.33
4370,0.327,-0.0253,0.8654,-6.7,8.0,-0.03,29.34
4380,0.3274,-0.0256,0.8619,-6.73,7.97,-0.03,29.34
4390,0.3278,-0.0253,0.8641,-6.69,7.95,-0.03,29.37
4400,0.3273,-0.0253,0.8665,-6.69,7.92,-0.03,29.34
4410,0.3264,-0.0267,0.8636,-6.72,7.91,0.0,29.35
4420,0.3265,-0.0261,0.8606,-6.79,7.95,-0.05,29.35
4430,0.3256,-0.025,0.8633,-6.69,8.03,-0.06,29.36
4440,0.3307,-0.0239,0.8638,-6.73,7.94,-0.02,29.34
4450,0.3275,-0.024,0.8652,-6.76,7.95,-0.05,29.37
4460,0.3269,-0.0226,0.866,-6.78,7.92,-0.06,29.32
4470,0.3301,-0.0256,0.8628,-6.72,8.03,-0.03,29.34
4480,0.3296,-0.0248,0.8669,-6.67,7.95,-0.08,29.36
4490,0.3279,-0.0262,0.8649,-6.66,7.97,-0.02,29.37
4500,0.3304,-0.0262,0.864,-6.72,7.98,0.02,29.34
4510,0.3274,-0.0262,0.8643,-6.69,7.98,-0.18,29.34
4520,0.3289,-0.0249,0.8633,-6.73,7.89,-0.06,29.34
4530,0.3309,-0.0245,0.864,-6.67,7.95,-0.08,29.36
4540,0.3263,-0.025,0.8643,-6.67,7.94,-0.05,29.34
4550,0.3314,-0.0243,0.8627,-6.72,7.92,-0.11,29.37
4560,0.3335,-0.0243,0.8596,-6.64,7.85,-0.14,29.37
4570,0.326,-0.0243,0.8689,-6.7,7.97,0.0,29.37
4580,0.3267,-0.0237,0.8666,-6.72,8.09,-0.14,29.37
4590,0.3253,-0.0276,0.8651,-6.69,8.05,-0.03,29.34
4600,0.3274,-0.0278,0.8663,-6.79,7.95,0.02,29.35
4610,0.3254,-0.0286,0.8638,-6.72,7.91,-0.03,29.34
4620,0.3268,-0.0288,0.8674,-6.66,7.91,0.03,29.36
4630,0.3289,-0.0256,0.8627,-6.69,7.98,-0.08,29.37
4640,0.3311,-0.0251,0.8644,-6.72,7.91,-0.05,29.37
4650,0.3269,-0.0253,0.8613,-6.72,7.98,-0.03,29.36
4660,0.3262,-0.0249,0.865,-6.72,7.97,-0.09,29.37
4670,0.3274,-0.0258,0.865,-6.7,7.98,0.02,29.37
4680,0.3279,-0.0282,0.8644,-6.6,7.89,-0.05,29.36
4690,0.3281,-0.0255,0.8668,-6.66,7.94,0.0,29.36
4700,0.328,-0.0255,0.8638,-6.75,7.92,-0.05,29.37
4710,0.3273,-0.0249,0.8641,-6.64,7.89,-0.03,29.35
4720,0.3286,-0.0276,0.8669,-6.64,7.88,0.03,29.37
4730,0.327,-0.0264,0.8608,-6.75,7.91,-0.05,29.39
4740,0.3278,-0.0267,0.8628,-6.7,7.94,-0.05,29.37
4750,0.328,-0.0269,0.8611,-6.76,7.95,-0.09,29.37
4760,0.3281,-0.0255,0.8684,-6.64,7.97,-0.12,29.36
4770,0.3269,-0.0245,0.8684,-6.7,7.97,-0.11,29.38
4780,0.3286,-0.0223,0.8617,-6.81,7.88,-0.06,29.38
4790,0.3313,-0.0253,0.8617,-6.75,7.91,-0.11,29.37
4800,0.3293,-0.0255,0.8634,-6.73,7.94,-0.03,29.36
4810,0.3296,-0.0251,0.8623,-6.69,7.95,0.03,29.35
4820,0.326,-0.027,0.8666,-6.75,7.94,0.03,29.37
4830,0.3264,-0.0237,0.8624,-6.64,7.97,-0.14,29.39
4840,0.3276,-0.0271,0.8638,-6.73,7.98,-0.06,29.38
4850,0.3285,-0.0262,0.868,-6.72,7.94,-0.02,29.37
4860,0.3268,-0.025,0.8646,-6.66,8.02,0.03,29.39
4870,0.3262,-0.0244,0.8613,-6.69,7.97,-0.05,29.39
4880,0.3284,-0.0227,0.8633,-6.76,7.98,-0.06,29.39
4890,0.3303,-0.0256,0.8669,-6.81,7.98,-0.05,29.38
4900,0.3295,-0.0258,0.8644,-6.66,7.94,-0.02,29.37
4910,0.3263,-0.0239,0.8624,-6.6,7.95,-0.08,29.35
4920,0.3259,-0.0261,0.8644,-6.61,7.95,-0.03,29.37
4930,0.3269,-0.0254,0.8652,-6.69,8.0,0.02,29.41
4940,0.3282,-0.027,0.8636,-6.75,7.89,0.03,29.38
4950,0.3291,-0.0277,0.8676,-6.72,7.94,-0.03,29.37
4960,0.3287,-0.0245,0.8667,-6.67,7.91,-0.03,29.39
4970,0.3267,-0.0255,0.8629,-6.81,7.94,0.03,29.38
4980,0.3263,-0.0261,0.8632,-6.72,7.91,0.03,29.37
4990,0.3241,-0.0248,0.866,-6.69,7.98,-0.03,29.38
5000,0.3291,-0.0254,0.8655,-6.7,7.91,-0.05,29.4
5010,0.3274,-0.0254,0.8627,-6.66,7.92,0.02,29.38
5020,0.3275,-0.0239,0.8643,-6.69,8.0,-0.09,29.38
5030,0.329,-0.0228,0.8669,-6.64,8.0,0.02,29.38
5040,0.329,-0.0258,0.8651,-6.67,7.92,-0.02,29.37
5050,0.3274,-0.0248,0.8627,-6.78,7.91,-0.03,29.37
5060,0.3273,-0.0249,0.8641,-6.75,7.94,0.0,29.37
5070,0.3303,-0.0254,0.8639,-6.69,7.91,-0.09,29.39
5080,0.3269,-0.0255,0.8624,-6.64,7.91,0.03,29.38
5090,0.3285,-0.0254,0.8654,-6.73,8.0,-0.05,29.39
5100,0.3291,-0.0261,0.8625,-6.72,7.98,-0.15,29.39
5110,0.3273,-0.0243,0.8643,-6.73,7.94,-0.02,29.39
5120,0.3293,-0.0249,0.8643,-6.66,7.86,-0.02,29.4
5130,0.327,-0.026,0.8623,-6.64,7.92,-0.02,29.37
5140,0.3292,-0.0249,0.8601,-6.69,7.98,-0.05,29.39
5150,0.3286,-0.0287,0.8661,-6.72,7.92,-0.03,29.38
5160,0.3263,-0.0255,0.8682,-6.66,7.89,-0.11,29.38
5170,0.3291,-0.024,0.8656,-6.7,7.98,-0.03,29.39
5180,0.3302,-0.0247,0.864,-6.63,7.98,-0.06,29.39
5190,0.3276,-0.025,0.8647,-6.7,8.0,-0.08,29.39
5200,0.3287,-0.0259,0.8673,-6.63,7.94,-0.11,29.39
5210,0.3256,-0.0236,0.8655,-6.69,7.98,-0.05,29.39
5220,0.3271,-0.0288,0.8625,-6.67,7.98,-0.03,29.41
5230,0.3292,-0.0265,0.8612,-6.61,7.97,-0.08,29.4
5240,0.3265,-0.0287,0.8622,-6.64,7.95,-0.02,29.39
5250,0.3269,-0.025,0.8685,-6.73,7.89,-0.02,29.41
5260,0.3292,-0.0236,0.8641,-6.72,7.94,-0.02,29.4
5270,0.3292,-0.0266,0.8634,-6.69,8.06,0.0,29.42
5280,0.326,-0.0255,0.8667,-6.7,7.98,-0.02,29.41
5290,0.3286,-0.0271,0.8632,-6.69,7.94,-0.03,29.4
5300,0.3293,-0.0258,0.8656,-6.75,7.92,-0.02,29.39
5310,0.325,-0.0266,0.8622,-6.75,7.92,-0.08,29.39
5320,0.329,-0.0248,0.864,-6.66,7.95,-0.05,29.39
5330,0.3275,-0.0255,0.8661,-6.73,8.0,-0.06,29.41
5340,0.3302,-0.0286,0.8612,-6.67,7.98,-0.05,29.41
5350,0.3289,-0.0258,0.8633,-6.76,7.94,-0.05,29.4
5360,0.3276,-0.0277,0.866,-6.66,8.03,0.03,29.41
5370,0.3295,-0.0264,0.8658,-6.69,7.94,-0.05,29.42
5380,0.3284,-0.0284,0.8649,-6.69,7.94,-0.05,29.42
5390,0.3265,-0.0265,0.869,-6.66,7.95,0.0,29.42
5400,0.3269,-0.026,0.8661,-6.75,7.98,-0.08,29.4
5410,0.3278,-0.024,0.863,-6.73,7.97,-0.06,29.42
5420,0.3259,-0.024,0.8621,-6.7,7.95,-0.02,29.4
5430,0.3262,-0.0236,0.8633,-6.64,7.95,-0.09,29.39
5440,0.3271,-0.025,0.8651,-6.72,7.97,-0.05,29.42
5450,0.3278,-0.0265,0.864,-6.7,8.02,-0.06,29.39
5460,0.3311,-0.0255,0.8639,-6.69,7.91,0.0,29.39
5470,0.3278,-0.0247,0.8649,-6.7,7.95,-0.03,29.4
5480,0.3269,-0.0262,0.8673,-6.67,7.94,-0.03,29.42
5490,0.3274,-0.0253,0.8662,-6.66,7.94,-0.06,29.42
5500,0.3265,-0.0269,0.866,-6.69,7.97,0.0,29.41
5510,0.3257,-0.0253,0.8649,-6.66,7.95,-0.05,29.42
5521,0.3282,-0.0276,0.864,-6.73,7.95,-0.03,29.4
5531,0.3281,-0.0248,0.8667,-6.76,7.97,-0.02,29.42
5541,0.3252,-0.0294,0.8673,-6.69,7.92,-0.09,29.41
5551,0.3257,-0.0247,0.863,-6.75,7.92,0.0,29.39
5561,0.3268,-0.0243,0.8647,-6.7,7.95,0.02,29.42
5571,0.3279,-0.0243,0.8633,-6.79,7.95,-0.03,29.43
5581,0.3269,-0.0249,0.8656,-6.7,8.0,-0.09,29.39
5591,0.3276,-0.0254,0.8658,-6.67,7.94,-0.05,29.4
5601,0.329,-0.0231,0.8619,-6.64,7.98,-0.03,29.41
5611,0.3284,-0.0228,0.8654,-6.72,7.97,-0.02,29.4
5621,0.3281,-0.0253,0.8635,-6.64,7.94,-0.05,29.41
5631,0.327,-0.0261,0.8591,-6.72,7.97,-0.03,29.4
5641,0.328,-0.0272,0.8671,-6.69,7.97,0.03,29.44
5651,0.3284,-0.0249,0.8682,-6.72,7.98,-0.08,29.41
5661,0.3275,-0.0253,0.8649,-6.73,7.98,0.0,29.43
5671,0.3282,-0.025,0.8645,-6.66,7.94,-0.09,29.44
5681,0.3297,-0.0262,0.8647,-6.67,7.97,0.0,29.42
5691,0.328,-0.0267,0.8629,-6.73,7.94,-0.02,29.45
5701,0.3309,-0.0248,0.8627,-6.69,7.97,-0.03,29.4
5711,0.3274,-0.0239,0.8656,-6.64,7.92,-0.05,29.43
5721,0.329,-0.0264,0.8617,-6.7,7.92,-0.11,29.41
5732,0.3308,-0.0265,0.8665,-6.61,7.98,-0.09,29.43
5742,0.329,-0.0278,0.8644,-6.64,8.03,-0.03,29.41
5752,0.3296,-0.0256,0.8646,-6.61,7.92,-0.05,29.39
5762,0.3269,-0.0277,0.8682,-6.75,7.95,-0.03,29.43
5772,0.3287,-0.0254,0.8657,-6.6,7.85,0.0,29.43
5782,0.3262,-0.026,0.8647,-6.66,7.95,-0.05,29.44
5792,0.3268,-0.0264,0.865,-6.76,8.0,-0.05,29.41
5802,0.3269,-0.0266,0.8621,-6.67,7.97,-0.08,29.44
5812,0.3267,-0.0277,0.8632,-6.67,7.98,-0.03,29.44
5822,0.3287,-0.0258,0.8628,-6.72,7.86,-0.03,29.43
5832,0.3281,-0.0255,0.8646,-6.64,7.95,0.0,29.42
5842,0.3278,-0.026,0.8657,-6.69,7.95,-0.02,29.42
5852,0.3287,-0.0259,0.8617,-6.64,7.97,-0.06,29.43
5862,0.3273,-0.0255,0.8661,-6.67,7.98,-0.03,29.41
5872,0.3263,-0.0267,0.8638,-6.7,7.98,-0.06,29.42
5882,0.3287,-0.0239,0.8606,-6.7,8.02,-0.02,29.42
5892,0.3268,-0.0264,0.8621,-6.69,8.02,-0.03,29.42
5902,0.3296,-0.0238,0.8645,-6.66,7.98,-0.03,29.43
5912,0.3279,-0.0254,0.8635,-6.72,7.94,-0.05,29.41
5922,0.3319,-0.0271,0.8628,-6.7,7.95,-0.05,29.41
5932,0.3265,-0.0251,0.8654,-6.69,7.98,-0.05,29.44
5942,0.328,-0.0253,0.8634,-6.67,7.95,0.03,29.42
5952,0.3295,-0.0239,0.8652,-6.75,8.02,-0.03,29.42
5962,0.3268,-0.0267,0.863,-6.63,8.03,-0.08,29.44
5972,0.3297,-0.0267,0.8611,-6.76,8.0,-0.08,29.42
5982,0.3303,-0.026,0.8622,-6.76,7.98,-0.02,29.41
5992,0.3282,-0.0248,0.8638,-6.72,7.95,-0.03,29.43
6002,0.325,-0.0251,0.8652,-6.67,7.95,-0.09,29.41
6012,0.3285,-0.0244,0.866,-6.69,7.94,-0.05,29.44
6022,0.3275,-0.0249,0.8604,-6.61,7.94,0.05,29.47
6032,0.3303,-0.0275,0.8644,-6.67,7.98,0.06,29.44
6042,0.3307,-0.0286,0.8652,-6.7,7.92,-0.09,29.42
6052,0.327,-0.0242,0.8651,-6.73,8.02,0.02,29.44
6062,0.3274,-0.024,0.8636,-6.66,7.98,0.0,29.42
6072,0.3292,-0.0255,0.8643,-6.73,7.95,-0.02,29.42
6082,0.3301,-0.0245,0.8639,-6.69,7.94,0.0,29.42
6092,0.3268,-0.0231,0.8601,-6.76,7.98,-0.08,29.44
6102,0.3273,-0.0253,0.8655,-6.73,7.97,-0.08,29.4
6112,0.3282,-0.0251,0.8661,-6.72,8.08,-0.14,29.45
6122,0.3259,-0.0267,0.8656,-6.69,7.97,-0.05,29.42
6132,0.3265,-0.0271,0.8678,-6.69,8.02,-0.08,29.44
6142,0.3285,-0.0245,0.8618,-6.73,8.02,0.0,29.41
6152,0.3298,-0.0265,0.8641,-6.7,7.95,-0.08,29.42
6162,0.3254,-0.0254,0.8665,-6.64,7.95,-0.08,29.43
6172,0.3282,-0.0264,0.8633,-6.72,8.02,-0.09,29.45
6182,0.3326,-0.0277,0.8656,-6.72,7.92,-0.11,29.43
6192,0.3282,-0.0264,0.8655,-6.78,7.97,-0.02,29.45
6202,0.3284,-0.0271,0.8638,-6.69,7.97,-0.05,29.41
6212,0.3286,-0.0234,0.8647,-6.76,7.95,-0.06,29.42
6222,0.3306,-0.0248,0.8651,-6.67,7.95,-0.02,29.43
6232,0.3275,-0.0233,0.8644,-6.7,7.91,-0.05,29.41
6242,0.3275,-0.0245,0.8625,-6.7,7.91,-0.03,29.45
6252,0.3284,-0.0225,0.8671,-6.75,7.95,-0.11,29.45
6262,0.3292,-0.0216,0.8654,-6.66,7.97,-0.03,29.44
6272,0.3269,-0.0253,0.8636,-6.66,7.92,-0.05,29.43
6282,0.3289,-0.027,0.8643,-6.72,7.95,-0.05,29.45
6292,0.3264,-0.0255,0.865,-6.72,7.98,-0.08,29.43
6302,0.3298,-0.0276,0.8621,-6.75,7.91,-0.02,29.44
6312,0.3273,-0.0233,0.8671,-6.73,7.95,0.0,29.42
6322,0.3263,-0.0269,0.8645,-6.75,7.95,-0.03,29.44
6332,0.3257,-0.0234,0.8616,-6.72,8.02,-0.02,29.43
6342,0.3268,-0.0247,0.8619,-6.72,7.89,-0.09,29.44
6352,0.3278,-0.0249,0.8673,-6.72,7.92,-0.09,29.44
6362,0.3287,-0.0253,0.8629,-6.73,7.98,-0.05,29.42
6372,0.3267,-0.0251,0.8625,-6.63,8.08,0.0,29.46
6383,0.3274,-0.027,0.8682,-6.76,8.0,-0.08,29.44
6393,0.3267,-0.0228,0.8633,-6.67,7.92,-0.09,29.43
6403,0.3264,-0.0269,0.8649,-6.72,7.95,-0.03,29.42
6413,0.3289,-0.0238,0.8636,-6.7,7.95,-0.03,29.43
6423,0.3292,-0.0272,0.8619,-6.7,7.94,-0.05,29.43
6433,0.3263,-0.0264,0.8636,-6.69,7.97,-0.02,29.42
6446,0.3317,-0.0248,0.8643,-6.85,7.94,-0.14,29.44
6456,0.3312,-0.0249,0.865,-6.66,7.82,0.03,29.43
6466,0.3269,-0.0264,0.864,-6.7,7.97,-0.08,29.42
6476,0.3276,-0.0258,0.8669,-6.67,7.98,-0.06,29.44
6486,0.3295,-0.0245,0.8674,-6.73,7.95,-0.08,29.44
6496,0.3293,-0.0258,0.8628,-6.72,7.92,-0.06,29.43
6506,0.3292,-0.0256,0.8639,-6.64,7.88,-0.11,29.44
6516,0.328,-0.0262,0.8639,-6.66,7.98,0.02,29.43
6526,0.3293,-0.0265,0.863,-6.64,7.97,0.03,29.44
6536,0.3276,-0.025,0.8629,-6.7,7.88,-0.09,29.44
6546,0.3252,-0.0256,0.8657,-6.78,7.98,-0.05,29.45
6556,0.3276,-0.0253,0.8652,-6.69,8.0,-0.12,29.43
6566,0.3275,-0.0262,0.8656,-6.7,7.94,0.05,29.44
6576,0.3286,-0.0265,0.8665,-6.73,8.0,-0.02,29.44
6586,0.3276,-0.0271,0.8622,-6.66,7.95,-0.05,29.44
6596,0.3287,-0.025,0.8665,-6.7,7.97,0.06,29.46
6606,0.3271,-0.0273,0.8657,-6.75,7.98,-0.02,29.44
6616,0.327,-0.0281,0.8645,-6.73,8.02,-0.02,29.43
6626,0.3273,-0.025,0.8617,-6.7,7.97,0.02,29.44
6636,0.3281,-0.0272,0.8641,-6.75,7.97,-0.06,29.44
6646,0.3291,-0.0269,0.8624,-6.69,7.98,-0.08,29.44
6656,0.3265,-0.0243,0.8657,-6.63,7.94,-0.03,29.45
6666,0.3276,-0.0261,0.8621,-6.66,7.97,-0.08,29.47
6676,0.3263,-0.0271,0.8635,-6.7,7.97,0.0,29.44
6686,0.3279,-0.0256,0.8628,-6.69,7.94,0.0,29.45
6696,0.3284,-0.0282,0.8669,-6.73,7.86,-0.05,29.45
6706,0.3268,-0.0277,0.8621,-6.76,8.0,-0.05,29.47
6716,0.3304,-0.0262,0.8651,-6.69,8.02,-0.09,29.45
6726,0.3282,-0.0267,0.8635,-6.61,7.91,-0.03,29.45
6736,0.3291,-0.0259,0.864,-6.69,7.91,-0.11,29.46
6746,0.3268,-0.0258,0.866,-6.78,7.97,-0.09,29.43
6756,0.3308,-0.0221,0.8668,-6.69,8.0,0.02,29.45
6766,0.3275,-0.0242,0.8666,-6.66,8.03,-0.03,29.46
6776,0.3298,-0.0245,0.8636,-6.75,7.92,-0.03,29.48
6786,0.3301,-0.0245,0.8657,-6.72,8.0,-0.02,29.44
6796,0.3268,-0.0254,0.8641,-6.7,7.95,-0.05,29.44
6806,0.3264,-0.0262,0.8695,-6.67,7.95,-0.05,29.46
6816,0.3297,-0.0284,0.8638,-6.7,8.0,-0.02,29.46
6826,0.3241,-0.0259,0.8613,-6.7,8.06,-0.15,29.45
6836,0.3243,-0.0244,0.8629,-6.73,7.94,-0.03,29.44
6846,0.3286,-0.0249,0.8639,-6.72,7.95,-0.02,29.43
6856,0.3296,-0.0255,0.8647,-6.67,7.95,-0.08,29.46
6866,0.3274,-0.0234,0.8638,-6.67,7.94,-0.03,29.47
6876,0.3281,-0.0265,0.8643,-6.7,7.94,-0.03,29.44
6886,0.3258,-0.0264,0.8677,-6.64,8.02,0.02,29.45
6896,0.3282,-0.0253,0.8669,-6.73,8.08,-0.05,29.45
6906,0.3284,-0.0248,0.8641,-6.72,7.94,-0.08,29.45
6916,0.3282,-0.0269,0.865,-6.73,7.97,0.0,29.47
6926,0.3276,-0.0259,0.8651,-6.73,7.92,-0.03,29.45
6936,0.3289,-0.0286,0.8663,-6.72,8.05,-0.02,29.47
6947,0.3269,-0.0282,0.8636,-6.79,7.95,-0.02,29.46
6959,0.3274,-0.0273,0.8636,-6.73,8.0,-0.03,29.46
6969,0.328,-0.0243,0.8661,-6.75,7.98,-0.03,29.46
6979,0.3275,-0.0233,0.8669,-6.66,7.91,-0.03,29.46
6989,0.3285,-0.0278,0.8615,-6.67,7.98,-0.09,29.45
6999,0.327,-0.0271,0.8654,-6.67,7.92,-0.05,29.45
7009,0.3258,-0.0259,0.8643,-6.66,7.94,-0.05,29.44
7020,0.3279,-0.0277,0.8658,-6.7,7.98,0.06,29.45
7030,0.329,-0.0249,0.8628,-6.67,7.91,-0.03,29.45
7040,0.3285,-0.0275,0.8634,-6.76,7.95,-0.09,29.45
7050,0.3296,-0.0269,0.8652,-6.67,8.03,-0.03,29.45
7060,0.3268,-0.0258,0.8645,-6.75,7.95,-0.08,29.47
7070,0.3267,-0.026,0.8649,-6.69,7.91,-0.09,29.46
7080,0.3258,-0.0264,0.8673,-6.76,7.97,-0.09,29.44
7090,0.3264,-0.0271,0.8625,-6.73,7.95,-0.03,29.44
7100,0.3276,-0.0239,0.8647,-6.67,7.95,-0.03,29.48
7110,0.327,-0.0244,0.8608,-6.72,8.02,-0.05,29.46
7120,0.325,-0.0248,0.8671,-6.63,7.97,-0.02,29.45
7130,0.3311,-0.024,0.8615,-6.7,7.95,-0.08,29.46
7140,0.3317,-0.0244,0.8623,-6.64,7.94,-0.03,29.47
7150,0.3269,-0.024,0.8693,-6.6,7.97,0.02,29.46
7160,0.3295,-0.0253,0.8618,-6.67,7.89,-0.03,29.45
7170,0.3304,-0.0232,0.8608,-6.76,7.94,0.06,29.45
7180,0.3291,-0.0272,0.8667,-6.67,7.95,-0.09,29.45
7190,0.3308,-0.0267,0.8611,-6.84,8.0,-0.03,29.46
7200,0.3279,-0.0272,0.8623,-6.64,7.94,-0.02,29.45
7210,0.3278,-0.0271,0.8623,-6.67,7.95,-0.05,29.45
7221,0.3264,-0.0286,0.8677,-6.66,7.92,-0.05,29.47
7231,0.3311,-0.0264,0.8651,-6.72,7.86,-0.02,29.48
7241,0.3303,-0.0258,0.8645,-6.78,7.89,-0.06,29.46
7251,0.3302,-0.0264,0.8652,-6.73,7.92,-0.06,29.45
7261,0.3315,-0.0243,0.8607,-6.69,7.92,-0.02,29.47
7271,0.3295,-0.0234,0.8672,-6.75,8.02,-0.12,29.46
7282,0.3262,-0.0244,0.8691,-6.67,7.91,-0.09,29.49
7292,0.327,-0.0238,0.8657,-6.7,7.89,0.0,29.48
7302,0.3279,-0.0233,0.8663,-6.73,7.91,-0.03,29.48
7312,0.3273,-0.0267,0.8627,-6.61,8.0,-0.03,29.47
7322,0.33,-0.0237,0.8663,-6.69,7.88,-0.14,29.46
7332,0.3295,-0.0226,0.8619,-6.73,7.95,-0.14,29.45
7342,0.3302,-0.025,0.8638,-6.81,7.92,0.02,29.46
7352,0.3311,-0.0255,0.8601,-6.76,7.92,0.0,29.46
7362,0.3314,-0.0278,0.8658,-6.78,7.95,0.06,29.47
7372,0.3289,-0.025,0.8646,-6.66,8.03,-0.06,29.47
7382,0.3259,-0.0249,0.8679,-6.79,8.0,0.0,29.48
7392,0.3278,-0.0267,0.8658,-6.73,8.02,-0.02,29.45
7402,0.3306,-0.0266,0.8616,-6.69,7.95,-0.02,29.47
7412,0.3295,-0.0217,0.8657,-6.67,7.97,0.0,29.44
7422,0.327,-0.0244,0.8661,-6.75,8.0,0.0,29.47
7432,0.3292,-0.0275,0.8644,-6.7,7.97,-0.09,29.47
7442,0.3273,-0.0281,0.8684,-6.7,7.94,0.05,29.49
7452,0.3274,-0.0255,0.8674,-6.73,7.95,-0.05,29.44
7462,0.3257,-0.0251,0.8688,-6.75,7.94,0.03,29.49
7472,0.3274,-0.0255,0.8636,-6.72,7.88,-0.08,29.47
7482,0.3251,-0.0254,0.8671,-6.72,7.94,-0.09,29.47
7492,0.3269,-0.0255,0.8684,-6.73,7.92,-0.06,29.47
7502,0.3273,-0.0245,0.8657,-6.72,7.95,-0.05,29.45
7512,0.3311,-0.0272,0.864,-6.73,7.98,-0.06,29.47
7522,0.3281,-0.0261,0.8617,-6.66,7.94,-0.02,29.45
7532,0.3286,-0.0272,0.8643,-6.63,7.88,-0.02,29.47
7542,0.3264,-0.0245,0.8661,-6.7,7.97,0.02,29.47
7552,0.3276,-0.0281,0.8644,-6.69,7.92,0.0,29.47
7562,0.3259,-0.024,0.8678,-6.67,7.95,-0.03,29.48
7572,0.3293,-0.0256,0.8617,-6.72,7.92,0.03,29.46
7582,0.3312,-0.0283,0.8649,-6.73,7.95,-0.03,29.47
7592,0.3301,-0.0267,0.8651,-6.73,7.88,-0.02,29.46
7602,0.3309,-0.0221,0.8651,-6.76,7.91,-0.02,29.48
7612,0.3285,-0.0258,0.8666,-6.69,8.03,0.02,29.49
7622,0.3276,-0.0261,0.8668,-6.76,8.0,-0.02,29.47
7632,0.3284,-0.0258,0.8639,-6.7,8.03,-0.02,29.48
7642,0.3289,-0.0239,0.8696,-6.7,7.95,0.0,29.49
7652,0.3282,-0.0249,0.8645,-6.69,7.98,-0.05,29.48
7663,0.3275,-0.0256,0.8654,-6.72,7.92,-0.11,29.48
7673,0.3302,-0.0277,0.8638,-6.69,7.89,-0.08,29.47
7683,0.3282,-0.0254,0.8654,-6.66,7.91,-0.02,29.49
7693,0.3246,-0.0254,0.8662,-6.61,7.97,-0.03,29.46
7703,0.327,-0.0269,0.8652,-6.69,7.98,-0.03,29.47
7713,0.3268,-0.0267,0.8622,-6.7,7.94,-0.11,29.47
7723,0.3296,-0.0258,0.864,-6.78,7.95,0.02,29.47
7733,0.3309,-0.0251,0.8643,-6.82,7.91,0.02,29.48
7743,0.3301,-0.0253,0.8602,-6.76,7.94,0.05,29.49
7753,0.328,-0.026,0.8625,-6.73,7.91,-0.05,29.49
7763,0.325,-0.0249,0.8623,-6.76,7.98,-0.06,29.48
7773,0.3286,-0.0236,0.8665,-6.73,8.0,-0.03,29.47
7783,0.3254,-0.0261,0.8673,-6.67,8.02,-0.09,29.47
7793,0.3297,-0.0256,0.865,-6.66,7.98,-0.05,29.49
7803,0.3274,-0.0258,0.8654,-6.7,7.97,-0.05,29.49
7813,0.3268,-0.028,0.8629,-6.72,7.98,0.02,29.47
7823,0.3262,-0.0259,0.8595,-6.76,7.91,-0.06,29.48
7833,0.3265,-0.0262,0.8613,-6.66,7.95,0.05,29.51
7843,0.3271,-0.0247,0.8625,-6.63,8.02,-0.09,29.49
7853,0.3276,-0.0244,0.8632,-6.7,8.03,-0.08,29.48
7863,0.3278,-0.025,0.8643,-6.69,7.97,-0.05,29.49
7873,0.327,-0.0254,0.8628,-6.73,7.94,-0.05,29.48
7883,0.3284,-0.0261,0.864,-6.72,7.95,-0.03,29.5
7893,0.3289,-0.0254,0.8635,-6.72,7.97,-0.02,29.51
7903,0.3291,-0.0239,0.8669,-6.73,7.95,-0.02,29.49
7913,0.3278,-0.0249,0.8635,-6.73,7.89,0.02,29.48
7923,0.3275,-0.0271,0.864,-6.69,7.94,-0.06,29.5
7933,0.3278,-0.0249,0.8645,-6.67,7.98,-0.02,29.48
7943,0.3306,-0.0249,0.8629,-6.7,8.0,-0.03,29.48
7953,0.3309,-0.0275,0.8672,-6.73,7.95,-0.05,29.51
7963,0.3285,-0.0278,0.8663,-6.72,7.91,0.03,29.5
7973,0.3276,-0.0251,0.8596,-6.75,7.92,0.02,29.5
7983,0.329,-0.0234,0.8645,-6.78,8.02,0.02,29.49
7993,0.3296,-0.0239,0.8643,-6.69,7.95,-0.05,29.47
8003,0.3296,-0.0243,0.8668,-6.69,7.97,-0.08,29.49
8013,0.3291,-0.026,0.8632,-6.66,7.95,-0.02,29.5
8023,0.3273,-0.0264,0.8658,-6.66,7.88,-0.02,29.49
8033,0.3271,-0.0256,0.8627,-6.61,7.95,0.0,29.47
8043,0.3314,-0.0259,0.8628,-6.78,8.02,-0.09,29.51
8053,0.3273,-0.0269,0.8647,-6.69,7.95,-0.05,29.48
8063,0.3286,-0.0266,0.868,-6.7,7.97,-0.03,29.48
8073,0.3259,-0.0244,0.8657,-6.73,8.03,-0.06,29.51
8083,0.3287,-0.0283,0.8639,-6.64,7.98,0.03,29.52
8093,0.3285,-0.026,0.8588,-6.67,7.95,-0.02,29.5
8103,0.3298,-0.0244,0.8655,-6.78,8.0,0.0,29.49
8113,0.329,-0.0244,0.8663,-6.73,7.92,0.02,29.49
8123,0.3298,-0.0259,0.8629,-6.69,8.0,0.08,29.46
8133,0.3284,-0.0272,0.8657,-6.79,7.97,-0.03,29.47
8143,0.329,-0.0282,0.861,-6.79,7.95,-0.12,29.49
8153,0.3287,-0.0278,0.8593,-6.69,7.94,0.0,29.5
8163,0.3281,-0.026,0.8618,-6.72,7.92,-0.06,29.49
8173,0.3293,-0.0248,0.8652,-6.73,8.02,-0.03,29.48
8183,0.3271,-0.0276,0.8661,-6.7,7.95,0.0,29.48
8193,0.3287,-0.0267,0.868,-6.79,7.92,-0.03,29.49
8203,0.3287,-0.026,0.8636,-6.76,7.97,-0.06,29.48
8213,0.3281,-0.0262,0.8691,-6.75,7.91,0.06,29.49
8223,0.3275,-0.028,0.8644,-6.7,7.91,-0.02,29.49
8233,0.3275,-0.0273,0.8633,-6.73,7.94,-0.06,29.49
8243,0.3257,-0.027,0.8616,-6.75,7.91,-0.09,29.48
8253,0.33,-0.0244,0.8619,-6.73,8.0,0.0,29.48
8263,0.3297,-0.0254,0.8568,-6.64,7.97,-0.11,29.48
8273,0.3271,-0.0247,0.863,-6.7,7.98,-0.03,29.48
8283,0.3269,-0.0237,0.861,-6.66,8.02,0.0,29.48
8293,0.328,-0.0271,0.8636,-6.73,7.92,-0.05,29.51
8303,0.329,-0.026,0.8669,-6.79,7.95,-0.05,29.46
8313,0.3264,-0.0265,0.866,-6.73,8.03,-0.14,29.47
8323,0.3296,-0.0275,0.8666,-6.76,7.95,-0.06,29.49
8333,0.3275,-0.0238,0.8643,-6.69,7.95,-0.02,29.49
8343,0.327,-0.027,0.8658,-6.72,8.0,-0.02,29.49
8353,0.329,-0.0244,0.8655,-6.73,7.95,-0.03,29.49
8363,0.326,-0.0249,0.8652,-6.67,7.95,0.05,29.48
8373,0.3268,-0.0244,0.8643,-6.73,7.89,-0.03,29.49
8383,0.3306,-0.0247,0.8652,-6.69,7.97,-0.05,29.49
8393,0.3306,-0.0237,0.863,-6.7,8.0,-0.11,29.48
8403,0.3275,-0.0247,0.861,-6.69,7.95,-0.11,29.5
8413,0.3275,-0.0272,0.8646,-6.72,8.02,-0.09,29.48
8423,0.3298,-0.0266,0.8628,-6.73,7.97,-0.06,29.49
8433,0.3284,-0.0209,0.8625,-6.76,7.91,-0.09,29.51
8443,0.3252,-0.0278,0.8654,-6.72,7.95,-0.11,29.47
8453,0.327,-0.025,0.8615,-6.75,8.0,-0.02,29.49
8463,0.327,-0.0262,0.8635,-6.79,7.95,-0.06,29.5
8473,0.3251,-0.0245,0.8657,-6.76,7.94,-0.06,29.49
8483,0.3267,-0.026,0.8645,-6.72,7.91,-0.08,29.5
8493,0.3292,-0.0247,0.8622,-6.7,7.97,0.05,29.49
8503,0.3306,-0.0259,0.8636,-6.7,7.98,-0.02,29.49
8513,0.3293,-0.0253,0.8643,-6.73,7.98,0.02,29.49
8523,0.3269,-0.0299,0.8666,-6.7,8.02,-0.02,29.52
8533,0.328,-0.0267,0.8604,-6.67,7.95,-0.08,29.49
8543,0.3296,-0.025,0.8635,-6.73,8.0,-0.08,29.48
8553,0.3259,-0.0265,0.8615,-6.69,7.95,-0.11,29.51
8563,0.3245,-0.0238,0.8657,-6.78,7.94,-0.09,29.51
8573,0.327,-0.027,0.8656,-6.7,7.98,-0.05,29.5
8583,0.3253,-0.0271,0.8652,-6.75,7.98,-0.06,29.5
8593,0.325,-0.0262,0.8606,-6.75,7.97,-0.08,29.53
8603,0.3292,-0.0256,0.8616,-6.75,8.03,-0.06,29.49
8613,0.3285,-0.0247,0.8617,-6.75,8.0,-0.03,29.49
8623,0.3297,-0.0299,0.8658,-6.7,7.92,0.02,29.5
8633,0.3295,-0.0229,0.8656,-6.73,7.91,-0.03,29.52
8643,0.3254,-0.0234,0.8672,-6.73,7.92,-0.08,29.52
8653,0.3258,-0.024,0.8672,-6.73,7.98,-0.02,29.48
8663,0.3282,-0.0255,0.8656,-6.78,8.0,0.0,29.52
8673,0.3271,-0.0254,0.8628,-6.7,7.95,-0.03,29.54
8683,0.3286,-0.0266,0.8639,-6.81,7.97,-0.02,29.52
8693,0.3281,-0.024,0.8662,-6.72,7.94,-0.02,29.52
8703,0.3285,-0.0245,0.8666,-6.7,7.97,-0.05,29.5
8713,0.3293,-0.0277,0.8665,-6.66,7.95,-0.08,29.49
8723,0.3286,-0.0221,0.8652,-6.69,7.97,-0.11,29.51
8733,0.3286,-0.0283,0.8665,-6.73,7.95,-0.06,29.53
8743,0.326,-0.0267,0.8634,-6.7,7.95,-0.02,29.52
8753,0.3284,-0.0278,0.8639,-6.64,8.02,-0.06,29.49
8763,0.327,-0.026,0.8605,-6.76,8.09,-0.03,29.5
8773,0.3291,-0.026,0.8607,-6.81,8.02,-0.03,29.5
8783,0.3274,-0.0266,0.8654,-6.73,7.98,-0.03,29.49
8793,0.3273,-0.0267,0.8668,-6.67,7.91,-0.03,29.48
8803,0.3287,-0.0231,0.8605,-6.73,7.95,-0.02,29.51
8813,0.3279,-0.0262,0.8621,-6.7,7.95,0.0,29.51
8823,0.3287,-0.0283,0.8613,-6.66,7.94,-0.05,29.49
8833,0.3279,-0.0261,0.8644,-6.7,8.02,-0.06,29.52
8843,0.3273,-0.0262,0.8644,-6.75,7.95,-0.02,29.52
8853,0.327,-0.0266,0.8677,-6.73,8.02,0.09,29.53
8863,0.3289,-0.0219,0.8651,-6.72,7.98,-0.06,29.52
8873,0.3302,-0.0243,0.8644,-6.7,7.95,-0.05,29.52
8883,0.3242,-0.0281,0.8629,-6.76,7.98,0.0,29.52
8893,0.3273,-0.0253,0.8632,-6.69,7.86,-0.02,29.52
8903,0.3279,-0.0243,0.8654,-6.63,7.97,0.0,29.53
8913,0.3268,-0.0273,0.8691,-6.69,7.98,-0.05,29.52
8923,0.328,-0.0258,0.8646,-6.69,7.92,-0.02,29.53
8933,0.3306,-0.0256,0.8652,-6.76,7.97,-0.05,29.52
8943,0.3323,-0.0256,0.8654,-6.72,7.95,-0.08,29.5
8953,0.3279,-0.026,0.8636,-6.72,7.92,-0.05,29.52
8963,0.3309,-0.0251,0.8639,-6.72,7.98,0.03,29.52
8973,0.3267,-0.0261,0.8635,-6.72,7.97,0.03,29.5
8983,0.3295,-0.027,0.8643,-6.63,7.92,-0.03,29.51
8993,0.3286,-0.0253,0.8667,-6.76,7.83,-0.02,29.51
9003,0.3286,-0.0284,0.8633,-6.73,7.91,0.0,29.5
9013,0.3269,-0.0265,0.8627,-6.66,7.94,-0.09,29.49
9023,0.3273,-0.0233,0.8639,-6.64,7.97,-0.02,29.49
9033,0.3303,-0.024,0.8601,-6.66,7.92,-0.03,29.52
9043,0.3267,-0.0267,0.8632,-6.72,7.97,-0.03,29.53
9053,0.3278,-0.0254,0.865,-6.75,8.02,-0.05,29.51
9063,0.3323,-0.0254,0.8635,-6.76,8.06,-0.09,29.52
9073,0.3273,-0.0231,0.8627,-6.72,8.0,-0.09,29.52
9083,0.327,-0.028,0.8656,-6.7,7.91,-0.06,29.52
9093,0.3248,-0.0277,0.8625,-6.69,7.98,-0.02,29.52
9103,0.3273,-0.0269,0.8645,-6.81,7.97,-0.02,29.52
9113,0.3269,-0.0259,0.8651,-6.7,7.98,-0.08,29.51
9123,0.3298,-0.0278,0.8696,-6.72,7.92,-0.03,29.5
9133,0.325,-0.0271,0.8673,-6.7,7.95,-0.05,29.51
9143,0.327,-0.0237,0.8654,-6.78,7.98,0.02,29.53
9153,0.3295,-0.024,0.8632,-6.81,7.94,-0.08,29.52
9163,0.3303,-0.0261,0.8636,-6.75,8.02,-0.09,29.54
9173,0.3312,-0.0255,0.8643,-6.69,7.95,0.0,29.54
9183,0.3289,-0.0266,0.8625,-6.66,7.88,-0.03,29.49
9193,0.3276,-0.0258,0.8628,-6.69,7.95,-0.09,29.54
9203,0.3276,-0.0253,0.8651,-6.73,7.98,-0.05,29.5
9213,0.33,-0.0258,0.8639,-6.78,7.95,-0.09,29.52
9223,0.33,-0.0267,0.8669,-6.78,7.94,-0.02,29.52
9233,0.326,-0.024,0.8632,-6.73,7.94,-0.02,29.52
9243,0.3256,-0.0265,0.8674,-6.72,7.92,-0.03,29.51
9253,0.3276,-0.0261,0.8646,-6.76,8.0,-0.02,29.51
9263,0.3284,-0.0253,0.8624,-6.67,7.94,-0.03,29.5
9273,0.3287,-0.0258,0.8634,-6.66,7.89,0.02,29.5
9283,0.326,-0.0288,0.8634,-6.72,7.97,0.0,29.52
9293,0.3291,-0.0288,0.8667,-6.72,7.97,-0.08,29.51
9303,0.328,-0.0278,0.8639,-6.73,7.92,0.0,29.51
9313,0.3271,-0.0249,0.863,-6.66,7.94,-0.08,29.55
9323,0.3304,-0.0266,0.8667,-6.73,7.97,-0.09,29.54
9333,0.3265,-0.0249,0.865,-6.67,7.91,-0.05,29.51
9343,0.3314,-0.0272,0.8647,-6.66,7.97,-0.08,29.52
9353,0.3281,-0.0259,0.8647,-6.72,7.95,-0.11,29.53
9363,0.3295,-0.0256,0.8673,-6.75,7.94,-0.06,29.52
9373,0.3281,-0.025,0.8658,-6.76,7.92,0.02,29.51
9383,0.3297,-0.0251,0.8673,-6.69,8.05,-0.03,29.5
9393,0.3284,-0.0251,0.8678,-6.61,7.92,-0.09,29.51
9403,0.327,-0.0232,0.8655,-6.73,7.95,-0.06,29.52
9413,0.3289,-0.0245,0.864,-6.76,7.92,-0.08,29.52
9423,0.329,-0.0234,0.8641,-6.76,7.92,-0.06,29.53
9433,0.3291,-0.0231,0.8656,-6.75,7.92,-0.11,29.51
9443,0.3297,-0.0226,0.8625,-6.69,7.92,0.0,29.53
9453,0.3275,-0.0272,0.8638,-6.67,7.98,-0.08,29.5
9463,0.3268,-0.0272,0.8624,-6.72,7.94,-0.02,29.54
9473,0.3286,-0.025,0.8629,-6.69,7.97,-0.03,29.52
9483,0.3271,-0.025,0.8605,-6.79,7.94,-0.02,29.5
9493,0.326,-0.0271,0.8641,-6.76,7.91,-0.08,29.49
9503,0.329,-0.0229,0.8617,-6.69,7.97,-0.11,29.54
9513,0.3268,-0.0278,0.8655,-6.75,8.02,-0.03,29.55
9523,0.328,-0.027,0.8636,-6.79,7.94,-0.05,29.54
9533,0.3285,-0.0251,0.8638,-6.73,7.97,-0.05,29.53
9543,0.3282,-0.0276,0.869,-6.78,7.92,-0.03,29.52
9553,0.3281,-0.0251,0.866,-6.7,7.94,-0.03,29.52
9563,0.3265,-0.0262,0.8647,-6.7,7.91,-0.02,29.53
9573,0.3269,-0.0273,0.8604,-6.7,7.98,-0.06,29.52
9583,0.3295,-0.0233,0.8615,-6.69,8.02,-0.06,29.53
9593,0.3289,-0.025,0.8608,-6.66,8.03,-0.05,29.54
9603,0.3285,-0.027,0.8639,-6.67,7.92,-0.02,29.51
9613,0.3311,-0.0254,0.8628,-6.67,7.94,0.02,29.53
9623,0.3285,-0.026,0.864,-6.72,7.92,-0.03,29.52
9633,0.3314,-0.0261,0.865,-6.7,7.95,-0.05,29.52
9643,0.3257,-0.0243,0.8657,-6.69,7.97,-0.08,29.54
9653,0.3271,-0.0265,0.8644,-6.7,7.98,-0.02,29.53
9663,0.3281,-0.0238,0.8636,-6.75,8.0,-0.05,29.52
9673,0.3284,-0.027,0.8628,-6.61,7.91,-0.02,29.53
9683,0.3239,-0.0283,0.8643,-6.67,7.97,0.03,29.54
9693,0.3237,-0.025,0.8628,-6.73,7.97,-0.06,29.53
9703,0.3263,-0.024,0.8606,-6.72,8.0,0.0,29.52
9713,0.3281,-0.0249,0.8656,-6.72,7.89,-0.05,29.52
9723,0.3273,-0.0277,0.8684,-6.79,7.98,0.02,29.54
9733,0.3264,-0.0256,0.8617,-6.79,8.05,-0.02,29.54
9743,0.3276,-0.0258,0.864,-6.67,7.97,0.03,29.52
9753,0.3323,-0.0281,0.8652,-6.78,7.94,-0.03,29.51
9763,0.3303,-0.0234,0.8663,-6.64,7.94,-0.02,29.54
9773,0.3297,-0.0254,0.8652,-6.76,8.0,-0.06,29.53
9783,0.3271,-0.0254,0.863,-6.7,7.97,-0.08,29.52
9793,0.3252,-0.0226,0.8621,-6.67,7.89,-0.02,29.51
9804,0.3267,-0.0231,0.8672,-6.73,7.91,-0.09,29.52
9814,0.3282,-0.0271,0.871,-6.69,8.11,-0.05,29.53
9824,0.3267,-0.0294,0.8622,-6.75,8.03,0.02,29.52
9834,0.3289,-0.0255,0.8617,-6.69,7.92,0.0,29.55
9844,0.3287,-0.0255,0.866,-6.69,7.88,0.0,29.52
9854,0.3253,-0.026,0.8698,-6.64,8.05,-0.03,29.51
9864,0.3264,-0.0262,0.8615,-6.75,8.0,-0.03,29.54
9874,0.3267,-0.0251,0.8612,-6.76,7.86,-0.11,29.54
9884,0.3301,-0.0229,0.8658,-6.66,7.98,-0.05,29.54
9894,0.3295,-0.0228,0.8647,-6.76,7.98,-0.05,29.53
9904,0.3274,-0.0255,0.8655,-6.69,7.89,-0.03,29.52
9914,0.3268,-0.0238,0.8641,-6.69,7.94,-0.09,29.51
9924,0.3281,-0.0258,0.8679,-6.79,7.92,-0.14,29.54
9934,0.329,-0.0244,0.8655,-6.73,7.97,-0.02,29.52
9944,0.3295,-0.0284,0.8632,-6.67,7.95,-0.05,29.54
9954,0.3296,-0.0275,0.8647,-6.73,7.91,-0.03,29.55
9964,0.3257,-0.0247,0.8646,-6.72,7.89,0.0,29.54
9974,0.3281,-0.0233,0.8643,-6.67,8.03,-0.06,29.54
9984,0.3271,-0.0242,0.8634,-6.7,7.98,-0.05,29.55
9994,0.3258,-0.0243,0.866,-6.67,7.92,-0.03,29.53
10004,0.3279,-0.0228,0.8622,-6.66,7.89,-0.05,29.54
10014,0.3267,-0.0236,0.8711,-6.76,7.88,-0.05,29.54
10024,0.326,-0.0267,0.8649,-6.7,7.92,-0.03,29.55
10034,0.3303,-0.0255,0.8606,-6.7,7.97,-0.02,29.56
10044,0.3293,-0.0302,0.8629,-6.73,7.98,-0.05,29.52
10054,0.3281,-0.0267,0.8672,-6.75,7.95,-0.06,29.54
10064,0.3254,-0.0256,0.8685,-6.72,8.05,-0.05,29.54
10074,0.3279,-0.0272,0.8627,-6.75,7.94,0.0,29.54
10084,0.3276,-0.0243,0.8665,-6.7,7.95,-0.02,29.54
10094,0.3304,-0.0232,0.8618,-6.75,7.95,-0.03,29.54
10104,0.3286,-0.0248,0.8634,-6.72,7.98,0.03,29.57
10114,0.3264,-0.0231,0.8606,-6.73,7.94,-0.02,29.53
10124,0.3263,-0.0267,0.8602,-6.66,7.91,0.02,29.54
10134,0.3275,-0.0267,0.8635,-6.66,7.98,-0.05,29.56
10144,0.3295,-0.0259,0.8662,-6.72,7.92,-0.03,29.57
10154,0.328,-0.0251,0.864,-6.66,7.97,-0.03,29.56
10164,0.3309,-0.0258,0.8619,-6.75,7.98,-0.08,29.55
10174,0.3257,-0.0232,0.865,-6.76,8.05,0.02,29.53
10184,0.3273,-0.024,0.8622,-6.7,7.95,0.08,29.53
10194,0.3279,-0.0236,0.8657,-6.7,7.94,-0.08,29.55
10204,0.3276,-0.0254,0.8633,-6.73,7.98,-0.02,29.54
10214,0.3259,-0.0276,0.8635,-6.78,7.92,-0.03,29.53
10224,0.3295,-0.0289,0.8641,-6.61,7.98,-0.03,29.54
10234,0.3271,-0.0265,0.866,-6.69,7.95,-0.08,29.55
10244,0.3308,-0.0247,0.8665,-6.66,8.0,-0.09,29.54
10254,0.3268,-0.0281,0.8618,-6.75,7.94,-0.05,29.53
10264,0.327,-0.025,0.8638,-6.73,7.97,0.0,29.54
10274,0.3263,-0.0258,0.8654,-6.73,7.92,-0.03,29.53
10284,0.328,-0.0249,0.8627,-6.79,7.89,-0.09,29.53
10294,0.3253,-0.0242,0.8616,-6.75,7.97,-0.05,29.54
10304,0.3281,-0.0249,0.8646,-6.76,7.97,-0.05,29.52
10314,0.3257,-0.0248,0.8649,-6.72,7.97,-0.03,29.56
10324,0.3279,-0.0254,0.8657,-6.69,7.88,-0.09,29.54
10334,0.33,-0.0258,0.8655,-6.76,7.91,-0.12,29.54
10344,0.3297,-0.0286,0.86,-6.73,7.89,-0.03,29.55
10354,0.325,-0.0288,0.8655,-6.76,7.94,-0.08,29.56
10364,0.3306,-0.027,0.8602,-6.69,8.02,-0.09,29.54
10374,0.3287,-0.0247,0.8607,-6.7,7.92,-0.06,29.55
10384,0.3282,-0.0239,0.8636,-6.63,7.82,-0.08,29.54
10394,0.3269,-0.0255,0.8671,-6.72,7.92,-0.05,29.57
10404,0.3251,-0.0259,0.8679,-6.69,8.02,-0.03,29.57
10414,0.3284,-0.0273,0.8611,-6.73,7.97,-0.06,29.53
10424,0.3274,-0.0233,0.8652,-6.73,7.95,-0.05,29.54
10434,0.3296,-0.0244,0.8635,-6.67,7.91,-0.02,29.55
10444,0.3296,-0.0259,0.8657,-6.76,7.92,-0.15,29.52
10454,0.3245,-0.0258,0.8622,-6.63,7.97,-0.09,29.54
10464,0.3274,-0.0264,0.8613,-6.69,8.03,-0.06,29.54
10474,0.3279,-0.026,0.8639,-6.72,8.05,-0.03,29.55
10484,0.3298,-0.0259,0.8644,-6.76,8.0,-0.11,29.54
10494,0.3265,-0.0243,0.8624,-6.66,7.91,-0.02,29.55
10504,0.3307,-0.0236,0.8672,-6.72,7.98,0.0,29.55
10514,0.3275,-0.024,0.8652,-6.78,8.03,0.02,29.56
10524,0.3273,-0.0238,0.864,-6.82,8.02,-0.05,29.55
10534,0.327,-0.0283,0.8633,-6.7,8.02,0.05,29.53
10544,0.3269,-0.027,0.8676,-6.72,7.98,-0.02,29.55
10554,0.3265,-0.0256,0.8679,-6.79,7.95,0.0,29.56
10564,0.3282,-0.0264,0.8638,-6.75,7.97,0.0,29.55
10574,0.3307,-0.0271,0.8668,-6.69,7.97,-0.06,29.52
10584,0.3302,-0.0264,0.8639,-6.7,8.02,-0.03,29.55
10594,0.3284,-0.0234,0.8641,-6.64,8.02,-0.05,29.57
10604,0.3279,-0.0222,0.8662,-6.75,7.98,-0.06,29.56
10615,0.325,-0.0254,0.866,-6.69,8.0,-0.08,29.54
10625,0.3282,-0.026,0.8666,-6.73,7.91,-0.05,29.54
10635,0.3275,-0.0239,0.8657,-6.73,7.97,-0.06,29.55
10645,0.3289,-0.0264,0.8641,-6.7,7.94,-0.05,29.54
10655,0.327,-0.0273,0.864,-6.72,7.95,-0.05,29.56
10665,0.3284,-0.0248,0.8671,-6.76,7.98,-0.08,29.55
10675,0.3286,-0.0278,0.8663,-6.75,8.05,0.0,29.54
10685,0.3267,-0.0271,0.8645,-6.7,8.0,0.05,29.55
10695,0.329,-0.0249,0.8667,-6.7,7.95,-0.02,29.54
10705,0.3301,-0.0226,0.8634,-6.7,7.98,-0.03,29.54
10715,0.3275,-0.0262,0.8649,-6.66,7.97,0.0,29.54
10725,0.326,-0.0247,0.8662,-6.64,8.03,-0.11,29.55
10735,0.3257,-0.0217,0.8668,-6.78,7.95,-0.02,29.55
10745,0.3262,-0.0236,0.865,-6.73,8.02,-0.05,29.53
10755,0.3278,-0.0227,0.8634,-6.63,8.03,-0.02,29.58
10765,0.3293,-0.0242,0.8658,-6.69,8.0,-0.03,29.57
10775,0.3258,-0.0256,0.865,-6.78,7.97,0.02,29.54
10785,0.3322,-0.0267,0.8638,-6.75,7.95,0.02,29.55
10795,0.3291,-0.0282,0.8644,-6.79,8.02,-0.09,29.56
10805,0.3264,-0.0289,0.8673,-6.7,8.05,-0.03,29.56
10815,0.3262,-0.0264,0.8621,-6.7,7.91,-0.06,29.56
10826,0.3276,-0.0231,0.8619,-6.76,7.89,-0.03,29.56
10836,0.3284,-0.0233,0.8635,-6.7,7.95,-0.05,29.55
10846,0.3281,-0.0228,0.8672,-6.66,7.94,-0.02,29.58
10856,0.3247,-0.026,0.8666,-6.76,7.92,-0.05,29.55
10866,0.3279,-0.0223,0.8696,-6.69,8.0,-0.05,29.56
10876,0.3285,-0.0256,0.8641,-6.69,7.89,-0.11,29.54
10886,0.3319,-0.0295,0.8649,-6.73,7.92,-0.02,29.55
10896,0.3285,-0.0275,0.8618,-6.64,7.98,-0.03,29.55
10906,0.3296,-0.03,0.8621,-6.7,7.89,-0.03,29.54
10916,0.327,-0.0261,0.8641,-6.69,7.92,-0.08,29.54
10927,0.3289,-0.0238,0.8676,-6.75,7.94,0.02,29.54
10938,0.327,-0.0201,0.8657,-6.72,7.98,-0.09,29.53
10948,0.3281,-0.0239,0.8643,-6.76,7.95,-0.15,29.55
10959,0.3267,-0.0248,0.8611,-6.67,7.94,-0.05,29.54
10969,0.328,-0.0258,0.8649,-6.64,7.98,-0.05,29.55
10979,0.326,-0.0259,0.8644,-6.72,8.03,-0.06,29.54
10989,0.329,-0.0269,0.8599,-6.72,7.89,-0.03,29.55
10999,0.3274,-0.0287,0.8611,-6.75,7.89,-0.09,29.57
11009,0.3281,-0.0295,0.8617,-6.73,8.0,-0.12,29.59
11019,0.3289,-0.0255,0.8677,-6.78,7.98,0.02,29.57
11029,0.328,-0.0229,0.8676,-6.75,7.95,-0.02,29.54
11040,0.3276,-0.0221,0.8628,-6.75,7.95,0.02,29.57
11050,0.3279,-0.0271,0.8616,-6.72,7.92,0.02,29.57
11061,0.3275,-0.0277,0.8617,-6.79,8.0,0.03,29.54
11071,0.3286,-0.0242,0.8632,-6.72,7.97,-0.08,29.58
11081,0.3284,-0.0273,0.8663,-6.73,7.98,-0.03,29.57
11091,0.3264,-0.0272,0.8608,-6.75,7.97,-0.06,29.58
11101,0.3262,-0.0277,0.8665,-6.7,7.98,-0.03,29.54
11111,0.3287,-0.0278,0.8702,-6.82,8.0,0.03,29.55
11121,0.3274,-0.0287,0.8654,-6.81,7.92,-0.09,29.58
11131,0.3247,-0.0259,0.8691,-6.72,7.97,-0.06,29.56
11141,0.3271,-0.0256,0.8636,-6.69,7.97,-0.08,29.57
11151,0.3267,-0.0221,0.8646,-6.73,8.0,-0.05,29.57
11161,0.3284,-0.0242,0.8624,-6.73,7.98,-0.08,29.55
11171,0.3293,-0.0256,0.8619,-6.78,7.88,-0.06,29.56
11181,0.3284,-0.0281,0.8638,-6.66,7.94,-0.06,29.56
11191,0.328,-0.0277,0.863,-6.7,8.06,-0.09,29.57
11201,0.3306,-0.0271,0.8646,-6.66,7.95,-0.02,29.57
11211,0.3302,-0.0244,0.8673,-6.67,7.98,0.05,29.56
11221,0.3285,-0.0239,0.8665,-6.73,7.92,-0.03,29.55
11231,0.3275,-0.0255,0.8657,-6.66,8.0,-0.02,29.55
11242,0.3262,-0.0261,0.8658,-6.7,7.85,0.02,29.56
11252,0.3267,-0.0248,0.8601,-6.72,7.95,-0.03,29.56
11262,0.3267,-0.0255,0.8619,-6.75,7.92,0.0,29.56
11272,0.3279,-0.028,0.8639,-6.66,8.0,-0.05,29.58
11282,0.3286,-0.026,0.8721,-6.63,7.95,-0.05,29.57
11292,0.3262,-0.0272,0.869,-6.63,7.95,-0.11,29.57
11302,0.3274,-0.0286,0.8649,-6.75,7.98,-0.11,29.54
11312,0.327,-0.0253,0.8634,-6.79,7.95,-0.05,29.56
11322,0.3257,-0.025,0.8651,-6.78,7.97,-0.06,29.56
11332,0.3268,-0.0275,0.8644,-6.79,7.94,-0.06,29.59
11342,0.3287,-0.0233,0.8643,-6.72,7.97,-0.03,29.56
11352,0.3293,-0.0256,0.8616,-6.79,7.94,-0.08,29.56
11362,0.3304,-0.0265,0.8606,-6.73,7.92,-0.11,29.57
11372,0.33,-0.0295,0.8627,-6.64,7.97,-0.03,29.57
11382,0.3295,-0.0277,0.8644,-6.78,8.0,0.05,29.55
11392,0.3347,-0.0253,0.8641,-6.75,7.89,0.02,29.6
11402,0.3296,-0.0276,0.8619,-6.7,7.91,-0.05,29.58
11412,0.3286,-0.0247,0.8604,-6.7,7.97,-0.02,29.59
11423,0.3292,-0.0256,0.8645,-6.78,8.0,-0.06,29.54
11433,0.3252,-0.027,0.8646,-6.76,7.91,-0.03,29.56
11443,0.3251,-0.0242,0.8662,-6.79,8.0,-0.02,29.55
11453,0.3262,-0.0262,0.864,-6.73,7.97,-0.02,29.55
11463,0.3287,-0.0269,0.8606,-6.81,8.02,-0.11,29.56
11473,0.327,-0.0284,0.8641,-6.75,7.98,-0.03,29.55
11483,0.3302,-0.0251,0.8668,-6.69,8.0,-0.06,29.56
11493,0.3306,-0.0258,0.8652,-6.64,8.02,-0.03,29.57
11503,0.3269,-0.0259,0.8689,-6.7,7.95,-0.02,29.58
11513,0.3323,-0.0253,0.8684,-6.76,7.94,-0.02,29.56
11523,0.3291,-0.0255,0.8597,-6.64,7.95,-0.09,29.57
11533,0.3285,-0.0248,0.8638,-6.78,7.94,-0.02,29.56
11543,0.328,-0.0236,0.8638,-6.75,8.0,-0.09,29.56
11553,0.329,-0.0267,0.8655,-6.73,7.97,-0.08,29.57
11563,0.3268,-0.0289,0.8643,-6.73,7.98,-0.08,29.56
11573,0.3263,-0.0262,0.8657,-6.7,7.97,-0.03,29.57
11583,0.3298,-0.0265,0.8672,-6.72,7.95,-0.05,29.58
11593,0.329,-0.0264,0.8674,-6.7,7.97,-0.05,29.56
11603,0.3275,-0.0253,0.8632,-6.76,8.03,-0.08,29.58
11613,0.3257,-0.0253,0.8601,-6.72,7.98,-0.02,29.57
11623,0.3263,-0.0261,0.8641,-6.76,7.97,0.06,29.57
11633,0.329,-0.0262,0.8639,-6.72,8.02,0.0,29.59
11643,0.3303,-0.0262,0.8679,-6.75,7.97,0.0,29.55
11653,0.3274,-0.0223,0.8663,-6.75,7.92,-0.02,29.58
11663,0.3301,-0.0248,0.8629,-6.75,7.97,-0.02,29.57
11673,0.3282,-0.0234,0.8621,-6.72,8.0,-0.09,29.58
11683,0.3256,-0.0244,0.8662,-6.7,7.92,-0.03,29.56
11693,0.3265,-0.0249,0.8672,-6.7,7.95,-0.08,29.59
11703,0.3295,-0.0248,0.8654,-6.7,7.92,-0.05,29.57
11713,0.3285,-0.0254,0.8652,-6.7,7.92,0.06,29.58
11723,0.3264,-0.0236,0.8629,-6.67,7.92,-0.03,29.57
11733,0.3314,-0.0266,0.8665,-6.76,8.02,0.02,29.57
11743,0.3271,-0.0269,0.8669,-6.79,7.98,0.0,29.54
11753,0.3267,-0.0282,0.8607,-6.73,7.97,-0.09,29.59
11763,0.325,-0.0228,0.864,-6.79,7.97,-0.11,29.55
11773,0.3301,-0.0256,0.8673,-6.76,7.89,0.0,29.55
11783,0.3275,-0.026,0.8643,-6.7,7.95,-0.05,29.55
11793,0.3262,-0.0264,0.8666,-6.79,7.94,-0.05,29.56
11803,0.3268,-0.0261,0.8647,-6.7,7.92,-0.05,29.57
11813,0.3315,-0.026,0.8649,-6.73,7.94,-0.09,29.57
11823,0.3247,-0.0261,0.8654,-6.63,7.92,-0.11,29.58
11833,0.3273,-0.0273,0.8619,-6.72,7.91,-0.11,29.57
11843,0.3259,-0.0232,0.8656,-6.72,7.97,-0.06,29.57
11853,0.3295,-0.0264,0.8671,-6.66,8.0,0.03,29.55
11863,0.3278,-0.0271,0.8668,-6.7,7.98,-0.12,29.55
11873,0.3262,-0.0238,0.865,-6.73,7.97,-0.03,29.58
11883,0.3268,-0.0276,0.865,-6.81,7.89,-0.05,29.58
11893,0.3293,-0.0254,0.863,-6.78,8.0,0.0,29.59
11903,0.3273,-0.0265,0.8672,-6.66,7.92,-0.08,29.56
11913,0.3293,-0.0272,0.8651,-6.67,7.97,0.0,29.59
11923,0.3293,-0.0234,0.8677,-6.78,7.97,-0.08,29.57
11933,0.3282,-0.025,0.8638,-6.78,8.0,0.03,29.59
11943,0.3258,-0.0271,0.8643,-6.69,7.98,0.03,29.56
11953,0.3245,-0.0306,0.8669,-6.69,7.94,0.0,29.59
11963,0.3297,-0.0234,0.8651,-6.73,7.97,-0.05,29.59
11973,0.3298,-0.0256,0.8606,-6.78,7.95,-0.03,29.56
11983,0.3322,-0.0267,0.8655,-6.75,7.94,-0.06,29.57
11993,0.3265,-0.0239,0.8667,-6.7,7.95,-0.06,29.57
12003,0.3435,-0.0299,0.8451,-6.81,7.76,0.03,29.57
12013,0.3234,-0.0206,0.8698,-6.72,8.05,-0.09,29.55
12023,0.3407,-0.0244,0.8521,-6.66,7.56,-0.05,29.55
12033,0.3337,-0.0251,0.8621,-6.72,7.88,0.03,29.56
12043,0.3334,-0.0222,0.8673,-6.89,7.88,-0.05,29.57
12053,0.3253,-0.0258,0.8669,-6.63,8.0,0.03,29.56
12063,0.328,-0.0254,0.8629,-6.73,8.05,-0.02,29.56
12073,0.329,-0.0273,0.8612,-6.72,7.89,-0.05,29.57
12083,0.3307,-0.0258,0.8606,-6.75,7.79,-0.06,29.56
12093,0.3339,-0.03,0.8561,-6.67,7.74,-0.02,29.58
12103,0.3192,-0.0217,0.8713,-6.81,8.18,-0.05,29.57
12113,0.3224,-0.0217,0.8707,-6.61,8.24,-0.11,29.58
12123,0.3254,-0.0294,0.8601,-6.75,7.98,0.02,29.58
12133,0.326,-0.0309,0.869,-6.79,7.97,-0.02,29.56
12143,0.3262,-0.0264,0.8643,-6.73,7.82,-0.08,29.58
12153,0.3375,-0.0236,0.8563,-6.58,7.76,-0.05,29.57
12163,0.326,-0.0255,0.8612,-6.72,8.03,-0.05,29.58
12173,0.3281,-0.025,0.8672,-6.81,7.8,0.02,29.57
12183,0.3337,-0.026,0.8501,-6.78,7.77,-0.09,29.59
12193,0.3271,-0.0266,0.8647,-6.67,8.08,0.02,29.58
12203,0.3271,-0.0276,0.8657,-6.72,8.03,0.0,29.59
12213,0.3273,-0.0258,0.8652,-6.7,7.97,-0.06,29.59
12223,0.3307,-0.0236,0.8687,-6.78,7.95,-0.06,29.58
12233,0.3262,-0.0256,0.8608,-6.75,7.8,0.06,29.57
12243,0.3296,-0.0229,0.8612,-6.76,7.76,-0.02,29.58
12253,0.3214,-0.0261,0.8617,-6.85,8.37,-0.15,29.56
12263,0.322,-0.0297,0.8645,-6.6,8.03,-0.11,29.56
12273,0.3282,-0.0259,0.8666,-6.75,7.95,-0.02,29.59
12283,0.3282,-0.0245,0.8822,-6.76,8.06,-0.05,29.6
12293,0.3287,-0.03,0.8665,-6.79,8.11,-0.09,29.59
12303,0.3375,-0.0277,0.858,-6.79,7.62,0.02,29.61
12313,0.3306,-0.0312,0.8561,-6.64,7.98,-0.03,29.6
12323,0.3293,-0.0258,0.8708,-6.76,7.97,-0.02,29.59
12333,0.323,-0.0238,0.8665,-6.73,8.12,-0.08,29.57
12343,0.3237,-0.0245,0.8606,-6.73,8.12,-0.06,29.59
12353,0.3229,-0.0244,0.8606,-6.69,8.0,-0.02,29.58
12363,0.3236,-0.026,0.8623,-6.66,7.95,-0.05,29.56
12373,0.327,-0.0223,0.8763,-6.73,7.95,0.0,29.57
12383,0.3285,-0.0249,0.8671,-6.69,8.11,0.0,29.59
12393,0.328,-0.0282,0.8621,-6.79,8.02,-0.12,29.57
12403,0.3258,-0.0298,0.8665,-6.85,8.09,-0.02,29.59
12413,0.3312,-0.024,0.8721,-6.87,8.12,-0.05,29.59
12423,0.3297,-0.0277,0.8665,-6.78,8.06,0.05,29.6
12433,0.3236,-0.0272,0.8558,-6.73,7.88,-0.06,29.59
12443,0.3278,-0.0239,0.8688,-6.76,7.94,-0.08,29.57
12453,0.3267,-0.0232,0.8687,-6.76,8.08,-0.02,29.59
12463,0.3285,-0.024,0.8683,-6.67,7.92,-0.08,29.57
12473,0.3311,-0.0273,0.8627,-6.67,7.8,-0.05,29.56
12483,0.3243,-0.025,0.8625,-6.41,7.28,0.03,29.59
12493,0.3398,-0.0216,0.8727,-6.73,7.6,0.02,29.63
12503,0.3307,-0.0266,0.8732,-6.81,8.29,-0.09,29.58
12513,0.3254,-0.0323,0.8517,-6.7,7.97,-0.03,29.59
12523,0.3252,-0.0272,0.8591,-6.73,7.85,-0.02,29.59
12533,0.3276,-0.0256,0.8693,-6.7,7.95,-0.08,29.59
12543,0.326,-0.026,0.8645,-6.73,8.15,0.0,29.59
12553,0.3239,-0.0262,0.8557,-6.7,7.91,-0.14,29.6
12563,0.3292,-0.0229,0.8568,-6.7,7.86,0.02,29.58
12573,0.3293,-0.0233,0.868,-6.67,7.98,-0.06,29.59
12583,0.328,-0.024,0.8673,-6.66,8.06,-0.09,29.58
12593,0.3307,-0.0251,0.864,-6.7,7.95,-0.03,29.58
12603,0.3298,-0.0269,0.8644,-6.67,7.85,-0.02,29.58
12613,0.3308,-0.0273,0.8674,-6.72,7.89,-0.05,29.59
12623,0.3285,-0.0253,0.869,-6.76,7.95,-0.02,29.59
12633,0.3295,-0.0277,0.8623,-6.64,7.94,-0.09,29.59
12643,0.3274,-0.0273,0.8594,-6.67,7.94,0.0,29.57
12653,0.3268,-0.0233,0.8661,-6.64,7.95,-0.08,29.6
12663,0.3301,-0.0267,0.8668,-6.73,8.0,-0.06,29.57
12673,0.3247,-0.0248,0.8687,-6.75,7.97,-0.03,29.57
12683,0.3256,-0.0261,0.8643,-6.72,7.95,-0.06,29.57
12693,0.3313,-0.0251,0.8684,-6.78,7.98,0.0,29.59
12703,0.3301,-0.0253,0.8638,-6.81,8.02,0.0,29.59
12713,0.3303,-0.0239,0.861,-6.75,7.85,-0.06,29.61
12723,0.3241,-0.0244,0.8666,-6.73,7.95,-0.02,29.6
12733,0.3271,-0.025,0.8687,-6.73,8.0,0.03,29.59
12743,0.3257,-0.0249,0.8678,-6.81,8.0,-0.08,29.6
12753,0.326,-0.0243,0.8635,-6.72,7.97,0.02,29.58
12763,0.3226,-0.0219,0.86,-6.81,7.95,-0.03,29.55
12773,0.3248,-0.0254,0.8607,-6.82,7.92,-0.09,29.6
12783,0.3225,-0.0273,0.871,-6.73,8.0,-0.06,29.57
12793,0.328,-0.0222,0.8661,-6.78,7.95,-0.02,29.6
12803,0.3271,-0.0286,0.8662,-6.72,7.92,-0.03,29.59
12813,0.3313,-0.0255,0.8643,-6.7,7.88,-0.05,29.59
12823,0.3296,-0.0262,0.8649,-6.73,7.94,-0.03,29.59
12833,0.3281,-0.0287,0.8632,-6.76,8.03,0.02,29.58
12843,0.3256,-0.0254,0.8624,-6.75,7.94,0.0,29.61
12853,0.3301,-0.0227,0.8646,-6.63,7.95,-0.06,29.57
12863,0.3263,-0.0225,0.8606,-6.73,7.95,-0.02,29.59
12873,0.3274,-0.0236,0.8687,-6.64,8.0,-0.03,29.57
12883,0.33,-0.0245,0.8633,-6.7,7.91,-0.02,29.58
12893,0.3291,-0.0247,0.865,-6.75,8.03,-0.02,29.61
12903,0.3215,-0.0267,0.8715,-6.79,8.14,-0.08,29.59
12913,0.3292,-0.0245,0.8658,-6.63,8.06,-0.05,29.59
12923,0.3264,-0.0282,0.8607,-6.75,7.97,-0.06,29.58
12933,0.3274,-0.0262,0.8672,-6.73,7.91,0.03,29.57
12943,0.3289,-0.0261,0.8696,-6.78,8.0,-0.03,29.61
12953,0.3281,-0.0232,0.8661,-6.72,8.03,0.02,29.59
12963,0.3242,-0.025,0.8629,-6.76,7.95,-0.06,29.6
12973,0.3271,-0.0223,0.8623,-6.78,7.97,-0.03,29.59
12983,0.3296,-0.021,0.8627,-6.67,7.95,-0.05,29.6
12993,0.3307,-0.0273,0.8613,-6.75,7.95,-0.11,29.61
13003,0.3273,-0.0251,0.8673,-6.67,7.85,-0.03,29.62
13013,0.326,-0.0265,0.8684,-6.73,7.92,-0.05,29.62
13023,0.3287,-0.0286,0.8622,-6.79,7.98,-0.09,29.6
13033,0.3273,-0.0286,0.8647,-6.73,7.95,-0.05,29.62
13043,0.3303,-0.0297,0.8649,-6.75,7.98,-0.03,29.61
13053,0.3311,-0.0259,0.8634,-6.7,7.94,-0.15,29.63
13063,0.3248,-0.0258,0.8616,-6.69,7.95,-0.08,29.59
13074,0.3286,-0.0231,0.8623,-6.85,7.89,-0.11,29.58
13084,0.3271,-0.0261,0.8657,-6.82,7.97,-0.06,29.6
13094,0.3252,-0.0248,0.8629,-6.78,7.97,0.02,29.59
13104,0.327,-0.0258,0.8654,-6.75,8.0,-0.03,29.6
13114,0.3285,-0.0276,0.8699,-6.73,7.98,-0.05,29.6
13124,0.329,-0.0284,0.8657,-6.72,7.92,0.08,29.57
13134,0.3252,-0.026,0.8643,-6.72,7.95,-0.06,29.61
13144,0.3296,-0.0245,0.8622,-6.73,7.97,-0.05,29.61
13154,0.3291,-0.0272,0.8619,-6.67,7.95,-0.03,29.62
13164,0.3253,-0.0222,0.8641,-6.79,7.89,-0.06,29.59
13174,0.3267,-0.0231,0.8691,-6.75,7.95,-0.06,29.58
13184,0.3275,-0.0229,0.8616,-6.78,7.91,-0.02,29.61
13194,0.3273,-0.0258,0.8605,-6.79,8.0,-0.03,29.58
13204,0.3291,-0.0254,0.86,-6.64,7.95,-0.03,29.62
13214,0.328,-0.0258,0.8639,-6.67,7.97,0.0,29.6
13224,0.3297,-0.0264,0.8656,-6.76,7.97,-0.08,29.59
13234,0.3269,-0.0284,0.8663,-6.7,7.95,-0.06,29.62
13244,0.3276,-0.0273,0.8693,-6.76,7.95,-0.02,29.62
13254,0.327,-0.0236,0.8671,-6.75,7.92,0.06,29.59
13264,0.3258,-0.0242,0.866,-6.7,7.92,-0.05,29.61
13274,0.3262,-0.0256,0.8684,-6.75,8.0,-0.09,29.61
13284,0.3271,-0.0256,0.8655,-6.81,7.97,-0.02,29.64
13294,0.3259,-0.0253,0.8606,-6.72,7.95,0.02,29.62
13304,0.3289,-0.0248,0.8635,-6.7,7.89,-0.05,29.63
13314,0.3304,-0.026,0.8658,-6.76,8.0,-0.03,29.61
13324,0.328,-0.0299,0.8678,-6.75,8.0,-0.05,29.62
13334,0.3289,-0.0302,0.864,-6.69,7.94,0.05,29.62
13344,0.3278,-0.028,0.8656,-6.73,7.98,0.0,29.59
13354,0.3278,-0.0256,0.864,-6.72,7.98,-0.05,29.6
13364,0.3258,-0.0253,0.866,-6.81,7.95,0.03,29.59
13374,0.3254,-0.0243,0.865,-6.75,7.95,0.02,29.6
13384,0.3269,-0.0238,0.8619,-6.75,8.0,-0.08,29.61
13394,0.3279,-0.0214,0.8651,-6.76,7.97,-0.05,29.6
13404,0.3278,-0.0275,0.8674,-6.7,7.92,-0.08,29.59
13414,0.3258,-0.026,0.863,-6.75,7.91,-0.05,29.6
13424,0.3286,-0.0305,0.8632,-6.72,7.94,-0.14,29.61
13434,0.329,-0.0305,0.8639,-6.7,7.97,-0.06,29.6
13444,0.3312,-0.0272,0.8646,-6.75,7.94,-0.02,29.59
13454,0.3279,-0.0232,0.8655,-6.73,7.91,-0.06,29.61
13464,0.327,-0.0248,0.8643,-6.75,7.94,0.0,29.6
13474,0.3291,-0.0251,0.8608,-6.73,7.97,-0.02,29.62
13484,0.3273,-0.025,0.8591,-6.7,7.97,-0.08,29.61
13494,0.3268,-0.0223,0.8618,-6.76,7.88,-0.12,29.63
13504,0.3287,-0.0267,0.8651,-6.75,8.0,-0.05,29.61
13514,0.3286,-0.0275,0.8646,-6.76,8.0,0.0,29.6
13524,0.327,-0.0287,0.861,-6.79,7.95,0.03,29.61
13534,0.326,-0.0273,0.8658,-6.73,7.94,-0.02,29.62
13544,0.3304,-0.0251,0.8627,-6.72,7.86,-0.05,29.61
13554,0.3298,-0.0273,0.8627,-6.73,7.95,-0.06,29.63
13564,0.3296,-0.0259,0.8651,-6.72,8.02,-0.09,29.62
13574,0.3286,-0.0236,0.8699,-6.67,7.98,0.05,29.63
13584,0.33,-0.0248,0.8636,-6.73,7.97,-0.06,29.62
13594,0.3278,-0.0258,0.8605,-6.76,7.95,-0.09,29.61
13604,0.3269,-0.0272,0.8638,-6.76,7.98,-0.06,29.62
13614,0.3254,-0.025,0.8639,-6.78,7.95,-0.05,29.62
13624,0.3273,-0.0232,0.8658,-6.7,7.98,-0.03,29.61
13634,0.3287,-0.0245,0.8622,-6.7,8.05,0.0,29.63
13644,0.3265,-0.0295,0.8601,-6.73,8.02,0.0,29.6
13654,0.3252,-0.026,0.8645,-6.7,7.91,0.03,29.59
13664,0.3267,-0.0237,0.8701,-6.6,8.06,-0.15,29.61
13674,0.3307,-0.0258,0.864,-6.72,7.83,-0.05,29.62
13684,0.3269,-0.0254,0.8676,-6.67,8.03,-0.09,29.62
13694,0.3284,-0.0298,0.87,-6.73,8.12,-0.06,29.62
13704,0.3281,-0.0295,0.8676,-6.75,8.11,0.05,29.62
13714,0.327,-0.0234,0.8558,-6.73,8.12,-0.02,29.61
13724,0.3264,-0.0243,0.8502,-6.73,7.82,-0.05,29.62
13734,0.3281,-0.026,0.8649,-6.7,7.91,-0.08,29.63
13744,0.3252,-0.0258,0.8688,-6.7,7.92,-0.09,29.6
13754,0.326,-0.024,0.8662,-6.69,7.98,-0.03,29.62
13764,0.3274,-0.0247,0.8625,-6.72,8.0,-0.08,29.6
13774,0.3226,-0.0238,0.8679,-6.82,7.98,-0.08,29.58
13784,0.3269,-0.0267,0.8639,-6.66,7.98,-0.06,29.6
13794,0.3269,-0.0287,0.8656,-6.82,8.0,0.05,29.61
13804,0.325,-0.0288,0.8629,-6.82,7.95,-0.06,29.6
13814,0.3267,-0.0254,0.8639,-6.76,7.97,-0.08,29.61
13824,0.3276,-0.0254,0.8613,-6.63,7.95,-0.06,29.59
13834,0.3271,-0.0232,0.8661,-6.72,7.97,-0.05,29.6
13844,0.328,-0.0272,0.8682,-6.75,7.97,0.0,29.62
13854,0.325,-0.0275,0.8661,-6.81,7.94,-0.08,29.61
13864,0.3275,-0.0282,0.8672,-6.7,7.97,0.0,29.62
13874,0.3313,-0.0266,0.8679,-6.7,7.97,-0.03,29.63
13884,0.3275,-0.0256,0.8625,-6.73,7.86,0.0,29.6
13894,0.327,-0.0217,0.865,-6.66,8.08,0.0,29.63
13904,0.3274,-0.0258,0.8622,-6.79,7.95,-0.06,29.62
13914,0.3267,-0.028,0.8615,-6.7,7.95,-0.14,29.59
13924,0.3286,-0.0251,0.8651,-6.66,7.95,0.0,29.6
13934,0.3286,-0.0259,0.8656,-6.76,8.03,0.02,29.63
13944,0.3302,-0.0332,0.8636,-6.73,7.94,-0.05,29.62
13954,0.3285,-0.0302,0.8683,-6.7,7.89,-0.08,29.6
13964,0.3311,-0.0237,0.8596,-6.78,7.92,-0.03,29.6
13974,0.3295,-0.0264,0.8606,-6.58,7.82,0.06,29.58
13985,0.3274,-0.0206,0.87,-6.69,7.82,0.02,29.62
13995,0.3303,-0.0214,0.8728,-6.76,8.0,0.03,29.6
14005,0.3256,-0.0227,0.8649,-6.66,8.02,-0.11,29.59
14015,0.3293,-0.0233,0.8578,-6.66,7.82,-0.02,29.62
14025,0.3311,-0.0238,0.8622,-6.72,7.89,-0.03,29.63
14035,0.33,-0.0261,0.869,-6.81,7.95,-0.05,29.6
14045,0.3318,-0.0286,0.8679,-6.78,8.0,0.02,29.62
14055,0.3282,-0.0277,0.8674,-6.7,7.92,0.02,29.6
14065,0.3289,-0.0247,0.8682,-6.76,7.97,-0.06,29.62
14075,0.3284,-0.0229,0.8669,-6.78,7.92,-0.03,29.62
14085,0.3236,-0.0262,0.863,-6.73,7.92,-0.09,29.63
14095,0.3284,-0.0244,0.8634,-6.79,7.95,0.02,29.61
14105,0.3264,-0.0228,0.8674,-6.75,7.95,-0.08,29.62
14115,0.3262,-0.0248,0.8639,-6.81,7.97,-0.06,29.63
14125,0.3276,-0.0212,0.8633,-6.69,7.97,-0.05,29.63
14135,0.329,-0.0256,0.8606,-6.76,7.91,-0.06,29.61
14145,0.3289,-0.0272,0.8635,-6.81,7.89,0.0,29.63
14155,0.3269,-0.0264,0.864,-6.73,8.03,-0.08,29.62
14165,0.3267,-0.026,0.8632,-6.69,7.94,-0.02,29.62
14175,0.3279,-0.028,0.8674,-6.73,7.91,-0.02,29.61
14185,0.3274,-0.0248,0.8673,-6.75,7.98,0.02,29.6
14195,0.3285,-0.0251,0.8683,-6.79,7.88,0.0,29.62
14205,0.3268,-0.0248,0.8654,-6.73,7.92,-0.11,29.62
14215,0.3301,-0.0232,0.8622,-6.76,7.97,-0.02,29.62
14225,0.327,-0.0243,0.8618,-6.81,7.88,-0.02,29.63
14235,0.3285,-0.0243,0.8665,-6.75,7.94,-0.09,29.62
14245,0.3278,-0.0267,0.8665,-6.67,7.98,-0.14,29.63
14255,0.3274,-0.0269,0.8683,-6.73,8.03,-0.06,29.64
14265,0.3265,-0.0281,0.8623,-6.72,8.03,-0.06,29.62
14275,0.3279,-0.0283,0.8615,-6.76,8.03,-0.02,29.61
14285,0.328,-0.0297,0.8638,-6.73,8.0,-0.06,29.61
14295,0.3301,-0.0286,0.8646,-6.67,7.95,-0.05,29.63
14305,0.3284,-0.0248,0.8668,-6.7,7.95,-0.08,29.59
14315,0.3274,-0.0236,0.8632,-6.73,8.0,-0.08,29.63
14325,0.3229,-0.0244,0.8677,-6.72,8.02,-0.09,29.62
14335,0.3254,-0.0245,0.8656,-6.7,7.95,-0.09,29.61
14345,0.3265,-0.0261,0.8627,-6.82,7.95,-0.03,29.62
14355,0.3304,-0.0275,0.8663,-6.72,8.05,-0.05,29.62
14365,0.3296,-0.0262,0.8605,-6.67,7.97,-0.08,29.64
14375,0.3289,-0.0259,0.8652,-6.69,7.95,-0.06,29.63
14385,0.33,-0.0243,0.866,-6.73,7.92,-0.11,29.63
14395,0.3275,-0.0266,0.8649,-6.73,7.98,-0.05,29.64
14405,0.3295,-0.0264,0.8676,-6.75,7.97,-0.02,29.62
14415,0.325,-0.0258,0.8651,-6.67,8.08,0.02,29.63
14425,0.3257,-0.0244,0.8618,-6.72,7.97,-0.05,29.62
14435,0.3285,-0.0244,0.8633,-6.72,8.02,-0.02,29.61
14445,0.3276,-0.0255,0.8632,-6.72,7.94,-0.14,29.64
14455,0.3248,-0.0249,0.8641,-6.73,7.92,-0.11,29.64
14465,0.3274,-0.0256,0.8633,-6.76,7.91,-0.03,29.62
14475,0.3243,-0.0269,0.8629,-6.75,7.91,-0.08,29.63
14485,0.3264,-0.0248,0.8643,-6.67,7.95,-0.09,29.62
14495,0.3269,-0.0211,0.8679,-6.73,7.92,-0.02,29.66
14505,0.328,-0.0237,0.8672,-6.72,7.98,-0.09,29.63
14515,0.325,-0.0222,0.8674,-6.7,8.02,-0.12,29.63
14525,0.3252,-0.0253,0.8689,-6.69,7.97,0.0,29.64
14535,0.3307,-0.025,0.864,-6.76,7.91,0.03,29.62
14545,0.3259,-0.0266,0.8661,-6.72,7.92,-0.05,29.62
14555,0.3281,-0.0277,0.865,-6.76,7.94,-0.06,29.62
14565,0.3235,-0.0253,0.8639,-6.73,8.02,-0.12,29.62
14575,0.327,-0.0275,0.8661,-6.72,8.05,-0.03,29.64
14585,0.3282,-0.0245,0.861,-6.72,7.98,-0.06,29.62
14595,0.3306,-0.0214,0.8623,-6.82,7.91,-0.05,29.63
14605,0.3286,-0.0256,0.8665,-6.73,7.95,-0.06,29.63
14615,0.3297,-0.0265,0.8657,-6.67,7.95,-0.08,29.6
14625,0.3279,-0.0283,0.8599,-6.72,7.91,-0.02,29.62
14635,0.3257,-0.025,0.858,-6.69,8.0,-0.14,29.63
14645,0.3251,-0.0247,0.8623,-6.7,7.95,-0.02,29.64
14655,0.3267,-0.0248,0.8669,-6.64,7.92,-0.03,29.62
14665,0.3279,-0.0215,0.8695,-6.69,7.98,-0.03,29.6
14675,0.323,-0.0239,0.8623,-6.78,8.35,-0.11,29.63
14685,0.3314,-0.0288,0.8605,-6.67,7.6,0.02,29.63
14695,0.3322,-0.0237,0.869,-6.73,8.06,-0.02,29.66
14705,0.3246,-0.0231,0.8678,-6.7,8.17,-0.05,29.62
14715,0.3226,-0.0282,0.8605,-6.75,8.08,0.0,29.66
14725,0.3313,-0.0275,0.8644,-6.76,8.0,-0.03,29.62
14735,0.3284,-0.0264,0.8639,-6.7,7.97,-0.05,29.63
14745,0.3271,-0.028,0.8628,-6.7,8.02,-0.02,29.64
14755,0.3264,-0.0269,0.8604,-6.67,7.83,-0.02,29.64
14765,0.3259,-0.0269,0.8691,-6.67,7.85,-0.05,29.61
14775,0.3259,-0.0247,0.8635,-6.73,8.09,-0.03,29.64
14785,0.3278,-0.0245,0.8649,-6.64,7.94,0.03,29.6
14795,0.3292,-0.0248,0.8636,-6.73,7.92,0.0,29.61
14805,0.327,-0.0219,0.8688,-6.81,7.98,-0.08,29.62
14815,0.3286,-0.024,0.8615,-6.69,8.09,0.0,29.63
14825,0.3284,-0.0288,0.8619,-6.7,8.0,-0.08,29.62
14835,0.3278,-0.0258,0.8651,-6.69,7.95,-0.03,29.64
14845,0.3296,-0.0262,0.8678,-6.81,8.02,-0.02,29.64
14855,0.3307,-0.0244,0.8632,-6.73,8.0,-0.03,29.62
14865,0.3273,-0.0244,0.8616,-6.75,7.98,-0.08,29.63
14875,0.3253,-0.025,0.8647,-6.78,7.94,-0.02,29.63
14885,0.3275,-0.0256,0.8667,-6.73,7.98,-0.09,29.63
14895,0.3273,-0.025,0.8625,-6.72,8.05,0.0,29.62
14905,0.3262,-0.0254,0.8617,-6.79,7.94,-0.08,29.61
14915,0.3296,-0.0262,0.8611,-6.78,8.05,-0.06,29.63
14925,0.3286,-0.0277,0.8634,-6.73,7.97,-0.02,29.62
14935,0.3289,-0.028,0.8624,-6.73,7.89,-0.03,29.63
14945,0.3323,-0.0267,0.8633,-6.7,7.89,-0.06,29.62
14955,0.3276,-0.0281,0.8625,-6.69,7.97,-0.06,29.62
14965,0.3258,-0.0244,0.8666,-6.63,7.98,0.0,29.62
14975,0.3301,-0.0227,0.8644,-6.72,7.98,-0.09,29.63
14985,0.328,-0.0259,0.8669,-6.72,7.91,-0.08,29.64
14995,0.3289,-0.0228,0.8722,-6.75,7.92,-0.05,29.62
15005,0.334,-0.0243,0.8657,-6.78,7.89,0.0,29.64
15015,0.328,-0.028,0.8694,-6.79,7.94,-0.09,29.62
15025,0.3291,-0.0298,0.8619,-6.69,8.03,-0.05,29.65
15035,0.3271,-0.028,0.8636,-6.75,7.97,-0.03,29.65
15045,0.3269,-0.0254,0.8585,-6.72,7.88,0.02,29.64
15055,0.3274,-0.0226,0.8654,-6.67,7.92,-0.02,29.63
15065,0.3276,-0.0245,0.8667,-6.73,8.0,0.03,29.65
15075,0.3256,-0.022,0.8615,-6.69,7.98,-0.09,29.62
15085,0.3265,-0.0271,0.8625,-6.7,7.95,-0.05,29.63
15095,0.328,-0.0245,0.8639,-6.64,8.03,-0.06,29.61
15105,0.3275,-0.0255,0.8597,-6.73,8.0,-0.08,29.62
15115,0.3257,-0.0239,0.8665,-6.73,7.88,-0.11,29.64
15125,0.3301,-0.0276,0.8662,-6.67,7.91,-0.02,29.62
15135,0.3295,-0.0282,0.8707,-6.67,7.94,-0.05,29.64
15145,0.3287,-0.0298,0.8649,-6.72,7.94,0.0,29.64
15155,0.3259,-0.0308,0.8602,-6.69,7.95,0.02,29.64
15165,0.327,-0.024,0.8623,-6.81,7.97,-0.08,29.65
15175,0.3262,-0.0206,0.8707,-6.67,8.09,0.0,29.62
15185,0.3275,-0.0248,0.8658,-6.69,8.03,-0.05,29.61
15195,0.3262,-0.0256,0.8667,-6.69,7.89,-0.05,29.63
15206,0.3313,-0.0253,0.8705,-6.61,7.85,-0.08,29.65
15216,0.3392,-0.0326,0.8759,-6.67,8.03,-0.05,29.65
15226,0.3317,-0.0228,0.8811,-6.82,8.02,-0.11,29.62
15236,0.3235,-0.0226,0.8386,-6.72,8.0,-0.09,29.63
15246,0.3248,-0.0306,0.8583,-6.66,7.53,-0.08,29.61
15256,0.3326,-0.0299,0.8695,-6.56,7.83,-0.02,29.63
15266,0.3324,-0.0276,0.8776,-6.76,8.14,0.02,29.64
15276,0.3264,-0.0267,0.8582,-6.76,8.12,-0.03,29.65
15286,0.324,-0.0217,0.8579,-6.64,7.92,-0.06,29.62
15296,0.3302,-0.0212,0.8685,-6.67,7.82,0.02,29.63
15306,0.3297,-0.0231,0.8699,-6.7,8.0,-0.11,29.64
15316,0.3297,-0.0253,0.8629,-6.78,8.02,-0.09,29.62
15326,0.3264,-0.0249,0.8613,-6.81,7.89,-0.12,29.64
15337,0.3278,-0.0275,0.8661,-6.72,7.91,-0.02,29.63
15347,0.3285,-0.0282,0.8665,-6.66,7.98,-0.18,29.62
15357,0.3264,-0.0281,0.8663,-6.81,8.05,-0.05,29.63
15367,0.3258,-0.0276,0.8628,-6.73,7.91,-0.02,29.65
15377,0.3284,-0.028,0.8599,-6.64,7.95,0.02,29.63
15387,0.327,-0.0221,0.8625,-6.67,7.97,0.06,29.65
15397,0.329,-0.0216,0.8689,-6.75,7.95,-0.03,29.64
15407,0.329,-0.0234,0.8633,-6.76,7.95,-0.02,29.64
15417,0.3273,-0.024,0.865,-6.75,7.92,0.05,29.65
15427,0.327,-0.027,0.866,-6.73,7.98,-0.06,29.65
15437,0.3292,-0.03,0.8623,-6.66,7.92,-0.03,29.64
15447,0.3297,-0.0293,0.8611,-6.76,7.86,0.02,29.65
15457,0.3263,-0.0265,0.8627,-6.72,7.92,-0.05,29.64
15467,0.3295,-0.0275,0.8666,-6.75,7.95,-0.09,29.64
15477,0.3259,-0.0269,0.8628,-6.7,8.05,-0.02,29.63
15487,0.3268,-0.0247,0.8612,-6.67,7.94,0.0,29.63
15497,0.3264,-0.0251,0.8672,-6.7,7.97,0.03,29.64
15507,0.3278,-0.022,0.8682,-6.72,7.94,0.03,29.63
15517,0.3273,-0.0261,0.8627,-6.72,7.95,-0.06,29.65
15527,0.3257,-0.025,0.8632,-6.76,7.97,-0.09,29.63
15537,0.3279,-0.0243,0.8639,-6.79,7.92,-0.02,29.64
15547,0.3271,-0.0284,0.8663,-6.61,8.0,-0.06,29.64
15557,0.3279,-0.03,0.8657,-6.75,7.97,0.03,29.64
15567,0.3269,-0.0292,0.8639,-6.72,7.94,-0.06,29.64
15577,0.3289,-0.0281,0.8663,-6.75,8.0,-0.03,29.66
15587,0.3268,-0.0256,0.8671,-6.73,8.0,-0.02,29.65
15597,0.326,-0.0232,0.8646,-6.72,8.02,0.02,29.64
15607,0.3282,-0.0248,0.865,-6.66,7.97,-0.05,29.65
15617,0.3265,-0.0237,0.8661,-6.67,7.95,-0.05,29.65
15627,0.3291,-0.0239,0.8616,-6.75,7.94,-0.03,29.65
15637,0.3269,-0.025,0.8644,-6.72,7.95,0.03,29.63
15647,0.3301,-0.0237,0.8622,-6.72,7.94,-0.09,29.64
15657,0.3312,-0.026,0.8643,-6.7,7.97,-0.03,29.65
15667,0.3328,-0.0265,0.8661,-6.66,7.92,-0.03,29.65
15677,0.329,-0.0291,0.8668,-6.75,8.02,-0.08,29.65
15687,0.3275,-0.03,0.8647,-6.73,7.97,-0.06,29.63
15697,0.3308,-0.028,0.8625,-6.66,8.0,-0.08,29.64
15707,0.3286,-0.0228,0.8665,-6.72,7.95,0.0,29.64
15717,0.3296,-0.0244,0.8667,-6.79,7.97,-0.05,29.64
15727,0.3254,-0.026,0.8641,-6.76,8.03,-0.09,29.66
15737,0.3242,-0.0253,0.8651,-6.73,7.97,-0.06,29.66
15747,0.3247,-0.0243,0.8613,-6.76,7.92,-0.09,29.66
15757,0.328,-0.0232,0.8636,-6.7,7.95,-0.11,29.64
15767,0.3287,-0.0282,0.8649,-6.72,7.95,0.02,29.61
15777,0.3284,-0.0281,0.8658,-6.72,7.95,-0.06,29.64
15787,0.3273,-0.0283,0.8655,-6.7,7.94,-0.11,29.64
15797,0.3306,-0.0256,0.861,-6.64,7.91,-0.02,29.66
15807,0.328,-0.0255,0.864,-6.66,7.88,-0.03,29.63
15817,0.3298,-0.0248,0.8666,-6.78,7.89,-0.06,29.65
15827,0.329,-0.0245,0.8657,-6.69,7.97,-0.02,29.64
15837,0.3267,-0.0264,0.8645,-6.79,7.97,-0.05,29.63
15847,0.327,-0.0232,0.8582,-6.72,8.0,-0.03,29.65
15857,0.3295,-0.0258,0.8668,-6.76,7.98,-0.05,29.65
15867,0.3289,-0.0255,0.8611,-6.76,8.0,-0.06,29.64
15877,0.3243,-0.0253,0.8629,-6.72,7.91,0.0,29.67
15887,0.3303,-0.0266,0.8657,-6.67,7.88,0.05,29.65
15897,0.3317,-0.025,0.8611,-6.75,8.06,0.0,29.63
15907,0.3225,-0.0206,0.8789,-6.72,8.35,0.02,29.64
15917,0.3196,-0.0245,0.8566,-6.66,8.2,-0.02,29.62
15927,0.322,-0.024,0.8623,-6.69,7.97,-0.05,29.65
15937,0.3304,-0.0267,0.8619,-6.75,7.88,0.02,29.64
15947,0.3297,-0.0287,0.8671,-6.69,8.0,-0.11,29.64
15957,0.3273,-0.0254,0.8662,-6.72,7.98,-0.03,29.67
15967,0.3259,-0.0264,0.8632,-6.66,7.89,-0.02,29.64
15977,0.3295,-0.0267,0.8623,-6.69,7.89,-0.06,29.66
15987,0.3253,-0.0275,0.8705,-6.82,8.05,-0.02,29.66
15997,0.3263,-0.0231,0.8677,-6.73,8.06,0.0,29.64
16007,0.326,-0.024,0.8662,-6.73,8.0,-0.03,29.65
16017,0.3275,-0.0247,0.8629,-6.75,7.97,-0.11,29.65
16027,0.3268,-0.025,0.8647,-6.78,7.91,-0.03,29.65
16037,0.3306,-0.0247,0.8645,-6.72,7.97,-0.08,29.67
16047,0.3291,-0.0231,0.86,-6.78,7.97,-0.11,29.64
16057,0.3271,-0.0283,0.8634,-6.7,7.95,0.0,29.65
16067,0.3279,-0.0282,0.8674,-6.72,7.94,0.0,29.64
16077,0.3298,-0.028,0.8661,-6.75,7.98,-0.11,29.66
16087,0.3304,-0.0269,0.8644,-6.69,7.94,-0.05,29.63
16097,0.3271,-0.0267,0.8656,-6.66,7.98,0.06,29.66
16107,0.33,-0.0262,0.8627,-6.72,7.92,-0.03,29.65
16117,0.3247,-0.0256,0.8638,-6.75,7.94,-0.02,29.64
16127,0.3251,-0.0258,0.8632,-6.76,8.0,-0.03,29.65
16137,0.3256,-0.0239,0.8657,-6.78,8.0,-0.06,29.67
16147,0.326,-0.0248,0.863,-6.78,7.97,0.05,29.64
16157,0.3276,-0.0251,0.8605,-6.69,7.97,-0.03,29.67
16167,0.3259,-0.0266,0.8716,-6.79,7.97,-0.03,29.67
16177,0.3295,-0.0245,0.8669,-6.81,8.03,-0.06,29.66
16187,0.3282,-0.0267,0.8645,-6.73,7.97,-0.05,29.67
16197,0.3292,-0.0258,0.8633,-6.67,7.94,-0.08,29.65
16207,0.3271,-0.0259,0.8676,-6.79,7.91,-0.05,29.64
16217,0.3292,-0.0238,0.8627,-6.69,7.95,-0.03,29.65
16227,0.3284,-0.0277,0.8624,-6.7,7.95,0.02,29.65
16237,0.3223,-0.0223,0.8654,-6.7,7.8,0.0,29.66
16247,0.3282,-0.0206,0.8588,-6.69,7.95,-0.06,29.66
16257,0.3315,-0.0258,0.8623,-6.76,7.83,-0.06,29.63
16267,0.3318,-0.0244,0.866,-6.67,7.82,-0.03,29.64
16277,0.3289,-0.0231,0.8655,-6.69,8.09,-0.06,29.68
16287,0.3265,-0.0272,0.8655,-6.75,8.0,-0.09,29.66
16297,0.3274,-0.0253,0.8656,-6.67,8.03,-0.11,29.66
16307,0.3265,-0.0245,0.8636,-6.79,7.92,-0.06,29.65
16317,0.3334,-0.0276,0.8577,-6.76,7.88,-0.05,29.65
16327,0.3301,-0.0276,0.8616,-6.75,8.02,-0.02,29.66
16337,0.3258,-0.0277,0.8601,-6.85,8.0,-0.06,29.65
16347,0.3267,-0.0259,0.8615,-6.79,8.0,-0.02,29.64
16357,0.3267,-0.024,0.8623,-6.67,7.89,0.0,29.66
16367,0.3256,-0.026,0.8662,-6.72,8.0,-0.05,29.66
16377,0.3271,-0.0242,0.8646,-6.75,8.02,-0.05,29.67
16387,0.3271,-0.0239,0.8645,-6.69,7.98,-0.03,29.66
16397,0.327,-0.0267,0.8676,-6.78,8.0,0.0,29.64
16407,0.3315,-0.0236,0.8616,-6.7,7.95,0.0,29.66
16417,0.3281,-0.0275,0.8643,-6.72,7.89,-0.02,29.68
16427,0.3296,-0.0272,0.8629,-6.64,8.0,0.02,29.66
16437,0.3252,-0.0254,0.8613,-6.7,7.95,-0.03,29.65
16447,0.3292,-0.0233,0.8663,-6.69,8.0,-0.03,29.66
16457,0.328,-0.0247,0.8634,-6.75,7.95,-0.02,29.66
16467,0.325,-0.0256,0.8676,-6.75,8.0,-0.09,29.65
16477,0.3308,-0.0242,0.8644,-6.76,8.02,-0.06,29.65
16487,0.3246,-0.024,0.8729,-6.69,8.14,-0.12,29.66
16497,0.328,-0.0244,0.8706,-6.7,8.08,-0.02,29.64
16507,0.328,-0.027,0.8613,-6.67,8.09,-0.05,29.64
16517,0.3275,-0.024,0.8621,-6.75,7.95,-0.05,29.64
16527,0.3269,-0.0248,0.8665,-6.66,8.0,-0.09,29.65
16537,0.3302,-0.0259,0.866,-6.9,8.05,-0.02,29.68
16547,0.3274,-0.0238,0.8604,-6.76,7.98,-0.08,29.63
16557,0.3274,-0.0236,0.8596,-6.66,7.91,-0.09,29.67
16567,0.3295,-0.025,0.868,-6.76,7.91,-0.03,29.67
16577,0.3259,-0.0245,0.8723,-6.72,7.86,-0.11,29.67
16587,0.3241,-0.0251,0.8713,-6.67,8.06,0.0,29.68
16597,0.3276,-0.0238,0.8607,-6.72,7.95,-0.08,29.69
16607,0.3271,-0.0239,0.8792,-6.6,8.02,-0.05,29.68
16617,0.343,-0.0228,0.8652,-6.82,7.86,-0.03,29.67
16627,0.3271,-0.0247,0.8635,-6.69,8.27,-0.08,29.64
16637,0.3268,-0.028,0.8486,-6.67,7.8,-0.06,29.68
16647,0.3295,-0.0216,0.868,-6.75,7.83,-0.02,29.68
16657,0.3322,-0.0233,0.8716,-6.72,8.02,-0.11,29.67
16667,0.3262,-0.028,0.8662,-6.66,8.18,-0.03,29.66
16677,0.3278,-0.0299,0.858,-6.75,7.94,-0.05,29.66
16687,0.3285,-0.0272,0.8691,-6.73,7.95,-0.05,29.68
16697,0.3274,-0.0244,0.8649,-6.7,8.08,-0.08,29.68
16707,0.3248,-0.0247,0.8539,-6.78,7.95,-0.03,29.67
16717,0.3281,-0.0251,0.8624,-6.72,7.88,-0.06,29.66
16727,0.3323,-0.0242,0.8661,-6.78,7.8,0.02,29.65
16737,0.3273,-0.0278,0.8591,-6.79,8.09,0.02,29.67
16747,0.3281,-0.0264,0.8606,-6.7,7.92,-0.06,29.67
16757,0.3296,-0.0253,0.8613,-6.78,7.89,-0.02,29.66
16767,0.3291,-0.0259,0.8712,-6.82,8.02,-0.05,29.64
16777,0.3315,-0.0248,0.8713,-6.72,8.0,-0.03,29.65
16787,0.3315,-0.0231,0.869,-6.64,8.02,-0.08,29.67
16797,0.3292,-0.0239,0.8663,-6.79,8.05,0.0,29.67
16807,0.327,-0.0251,0.8625,-6.75,7.98,-0.05,29.67
16817,0.3236,-0.0276,0.8583,-6.67,8.08,-0.08,29.67
16827,0.3232,-0.0275,0.8622,-6.78,8.0,-0.03,29.67
16838,0.327,-0.024,0.8613,-6.7,7.98,0.02,29.67
16848,0.3221,-0.0219,0.8625,-6.75,8.08,-0.09,29.66
16858,0.3276,-0.0236,0.8652,-6.75,8.08,0.0,29.67
16868,0.3269,-0.0254,0.8685,-6.76,8.05,-0.05,29.66
16878,0.3298,-0.0225,0.8658,-6.78,7.97,-0.06,29.66
16888,0.3265,-0.0234,0.8694,-6.72,8.02,-0.02,29.69
16900,0.3298,-0.0282,0.8628,-6.66,7.94,-0.08,29.65
16910,0.3286,-0.026,0.8628,-6.7,7.94,-0.03,29.67
16920,0.3286,-0.0312,0.8636,-6.72,8.0,-0.06,29.71
16930,0.326,-0.0278,0.8594,-6.79,8.03,-0.06,29.68
16940,0.3273,-0.0286,0.8557,-6.73,7.92,-0.03,29.67
16950,0.3258,-0.0228,0.8616,-6.79,7.95,-0.02,29.69
16960,0.3256,-0.0228,0.8651,-6.7,7.95,-0.06,29.68
16970,0.3274,-0.0225,0.8657,-6.76,7.95,0.02,29.71
16980,0.3297,-0.0233,0.8638,-6.73,7.86,-0.03,29.7
16990,0.3281,-0.0222,0.8699,-6.73,7.92,-0.03,29.66
17000,0.3296,-0.0247,0.8639,-6.78,7.98,-0.11,29.68
17010,0.3293,-0.028,0.8646,-6.75,7.92,-0.02,29.68
17020,0.3295,-0.0287,0.866,-6.75,8.06,0.0,29.66
17030,0.326,-0.0291,0.8618,-6.76,7.97,-0.03,29.65
17040,0.3229,-0.027,0.863,-6.72,7.95,-0.02,29.67
17050,0.3247,-0.027,0.8684,-6.73,8.03,-0.06,29.68
17060,0.3285,-0.0283,0.8619,-6.69,7.98,0.03,29.69
17070,0.3259,-0.0278,0.8699,-6.76,7.98,-0.05,29.69
17080,0.3264,-0.0267,0.8628,-6.75,8.05,-0.06,29.66
17090,0.3269,-0.0208,0.8655,-6.75,7.88,-0.03,29.67
17100,0.3279,-0.0232,0.8673,-6.7,7.91,0.0,29.68
17110,0.327,-0.024,0.8665,-6.7,8.05,-0.05,29.67
17121,0.3262,-0.0255,0.8632,-6.7,8.02,-0.09,29.68
17131,0.3276,-0.0247,0.86,-6.73,7.97,-0.05,29.66
17141,0.3284,-0.0273,0.8599,-6.67,7.95,-0.08,29.66
17151,0.3318,-0.0249,0.86,-6.79,7.89,-0.05,29.67
17161,0.3274,-0.0228,0.8619,-6.72,8.03,-0.06,29.67
17171,0.3295,-0.0231,0.8651,-6.81,7.95,-0.03,29.69
17181,0.325,-0.0242,0.8645,-6.84,7.94,-0.03,29.68
17191,0.3313,-0.0259,0.8663,-6.75,7.95,-0.02,29.68
17201,0.3275,-0.0271,0.8674,-6.7,8.0,-0.12,29.69
17211,0.3313,-0.0267,0.8673,-6.73,7.92,-0.06,29.67
17221,0.3311,-0.0295,0.8634,-6.75,7.92,0.0,29.69
17231,0.3279,-0.0294,0.8644,-6.67,8.0,-0.03,29.69
17241,0.3292,-0.0298,0.8632,-6.69,7.92,0.03,29.69
17251,0.3282,-0.0267,0.8655,-6.75,7.91,0.0,29.67
17261,0.3246,-0.0249,0.8593,-6.81,7.97,0.11,29.67
17271,0.3263,-0.0233,0.8632,-6.7,7.94,0.02,29.71
17281,0.3253,-0.0234,0.8647,-6.76,7.94,-0.02,29.68
17291,0.3279,-0.0231,0.8663,-6.69,7.92,-0.03,29.69
17301,0.3284,-0.0244,0.8672,-6.66,8.02,-0.12,29.69
17311,0.3298,-0.0256,0.8667,-6.73,8.05,-0.08,29.68
17321,0.3282,-0.0256,0.8651,-6.73,8.02,-0.03,29.68
17331,0.3286,-0.0266,0.8665,-6.64,7.95,0.0,29.67
17341,0.3307,-0.026,0.8622,-6.75,7.98,-0.08,29.68
17351,0.3325,-0.0281,0.8677,-6.73,8.0,-0.03,29.68
17361,0.3275,-0.0269,0.8621,-6.69,8.03,-0.08,29.67
17371,0.3281,-0.0239,0.8615,-6.72,7.94,0.02,29.66
17381,0.329,-0.0187,0.8651,-6.67,7.95,-0.06,29.68
17391,0.3243,-0.0189,0.8651,-6.72,8.0,-0.05,29.69
17401,0.3269,-0.022,0.864,-6.76,7.86,-0.06,29.69
17411,0.3309,-0.0232,0.8633,-6.69,7.8,-0.03,29.67
17421,0.3276,-0.0249,0.8732,-6.69,8.09,-0.11,29.68
17431,0.3298,-0.0275,0.865,-6.81,8.11,-0.08,29.68
17441,0.3293,-0.0273,0.8625,-6.75,7.97,-0.09,29.67
17451,0.3269,-0.0244,0.8616,-6.73,7.86,0.0,29.66
17461,0.3286,-0.026,0.866,-6.76,7.94,-0.02,29.67
17471,0.3295,-0.0258,0.8638,-6.72,7.98,-0.03,29.69
17481,0.3306,-0.024,0.8569,-6.76,7.91,-0.05,29.67
17491,0.3276,-0.0254,0.8622,-6.64,7.91,-0.06,29.67
17501,0.329,-0.0251,0.8628,-6.73,7.94,-0.09,29.65
17511,0.3297,-0.0278,0.8596,-6.75,8.03,0.0,29.69
17521,0.3322,-0.0275,0.8629,-6.69,7.94,-0.06,29.69
17531,0.3307,-0.0282,0.8641,-6.75,7.91,-0.08,29.68
17541,0.3311,-0.0238,0.8708,-6.72,7.95,0.0,29.71
17551,0.3286,-0.0304,0.8628,-6.67,8.05,-0.08,29.68
17561,0.3265,-0.0273,0.8633,-6.79,7.94,-0.05,29.66
17571,0.3241,-0.0261,0.8651,-6.67,7.88,-0.05,29.67
17581,0.3281,-0.0238,0.8658,-6.76,8.02,-0.08,29.68
17591,0.3258,-0.0214,0.8588,-6.69,8.02,-0.08,29.68
17601,0.3276,-0.0229,0.8574,-6.72,7.86,0.03,29.67
17611,0.3295,-0.0208,0.8622,-6.72,7.89,-0.12,29.68
17621,0.3311,-0.0275,0.8634,-6.76,7.95,-0.08,29.69
17631,0.329,-0.0259,0.8663,-6.78,7.98,-0.05,29.68
17641,0.3278,-0.0266,0.8652,-6.75,7.92,-0.02,29.69
17651,0.3256,-0.0232,0.8655,-6.73,7.89,-0.02,29.7
17661,0.3291,-0.0251,0.8691,-6.79,8.05,-0.03,29.7
17671,0.3284,-0.0249,0.866,-6.75,7.95,-0.03,29.67
17681,0.3271,-0.0262,0.8634,-6.66,7.92,0.0,29.68
17691,0.3262,-0.0255,0.8646,-6.7,7.94,-0.05,29.67
17701,0.3268,-0.0227,0.8639,-6.75,7.94,-0.06,29.68
17711,0.3297,-0.0244,0.8619,-6.85,8.06,0.0,29.67
17721,0.3251,-0.0244,0.8594,-6.75,8.03,-0.06,29.68
17731,0.3273,-0.0273,0.8632,-6.72,7.98,-0.03,29.68
17741,0.3278,-0.0261,0.8625,-6.76,7.86,-0.08,29.69
17751,0.3295,-0.0253,0.8654,-6.7,7.86,-0.06,29.7
17761,0.3308,-0.0283,0.8606,-6.66,7.82,-0.11,29.67
17771,0.3257,-0.0286,0.8561,-6.7,7.97,-0.02,29.69
17781,0.3268,-0.0258,0.8613,-6.75,7.91,-0.06,29.68
17791,0.3306,-0.0264,0.8656,-6.67,7.92,-0.06,29.67
17801,0.3323,-0.0236,0.8646,-6.89,7.98,-0.08,29.68
17811,0.3325,-0.026,0.8617,-6.66,7.92,-0.11,29.67
17821,0.3285,-0.0261,0.8635,-6.7,7.98,-0.03,29.69
17831,0.3282,-0.0203,0.8645,-6.73,7.98,-0.05,29.69
17841,0.3302,-0.0264,0.8625,-6.75,7.98,-0.03,29.67
17851,0.326,-0.0286,0.8632,-6.81,7.98,0.03,29.69
17861,0.3295,-0.0278,0.8628,-6.75,7.83,-0.06,29.68
17871,0.3281,-0.0305,0.8662,-6.73,8.03,-0.03,29.68
17881,0.3207,-0.0272,0.8673,-6.79,8.09,-0.11,29.67
17891,0.3292,-0.0249,0.8596,-6.7,8.15,-0.03,29.67
17901,0.3269,-0.0214,0.8628,-6.69,7.8,-0.03,29.67
17911,0.3295,-0.0242,0.8752,-6.66,7.94,-0.06,29.7
17921,0.3312,-0.0223,0.8683,-6.79,8.05,-0.06,29.69
17931,0.3279,-0.0262,0.855,-6.89,8.05,-0.03,29.69
17941,0.3253,-0.0239,0.8612,-6.67,7.85,-0.05,29.67
17951,0.329,-0.0276,0.8635,-6.78,7.89,-0.06,29.71
17961,0.3312,-0.0251,0.8645,-6.76,7.98,-0.03,29.7
17971,0.3297,-0.028,0.8661,-6.73,7.97,-0.03,29.69
17981,0.3309,-0.0291,0.8566,-6.81,7.91,-0.08,29.7
17991,0.3291,-0.0247,0.8629,-6.73,7.95,-0.02,29.7
18001,0.3298,-0.0243,0.8679,-6.73,8.06,0.0,29.67
18011,0.3287,-0.0253,0.8647,-6.75,7.94,-0.03,29.68
18021,0.3276,-0.0262,0.8634,-6.75,7.94,-0.08,29.69
18031,0.3256,-0.024,0.8657,-6.75,8.0,-0.11,29.71
18041,0.3282,-0.0226,0.865,-6.67,7.97,0.0,29.7
18051,0.3247,-0.0231,0.8682,-6.78,8.0,-0.08,29.71
18061,0.3282,-0.0255,0.864,-6.75,7.97,-0.12,29.68
18071,0.3286,-0.0256,0.8623,-6.66,7.95,0.02,29.69
18081,0.3286,-0.0258,0.8635,-6.75,8.0,-0.05,29.67
18091,0.3257,-0.027,0.866,-6.76,8.0,-0.08,29.68
18101,0.3258,-0.0262,0.8695,-6.7,7.91,0.0,29.71
18111,0.332,-0.0242,0.8683,-6.64,7.97,0.03,29.68
18121,0.3285,-0.0287,0.8621,-6.7,7.98,-0.03,29.69
18131,0.3268,-0.025,0.8661,-6.69,7.95,-0.09,29.68
18141,0.3292,-0.0223,0.8638,-6.7,7.92,-0.02,29.68
18151,0.324,-0.0266,0.8647,-6.72,7.95,-0.03,29.7
18161,0.3275,-0.0203,0.8643,-6.73,7.97,0.0,29.7
18171,0.3263,-0.0251,0.8625,-6.82,8.02,-0.02,29.7
18181,0.3295,-0.0233,0.8622,-6.69,7.98,-0.05,29.68
18191,0.33,-0.0229,0.865,-6.75,7.89,-0.08,29.72
18201,0.3271,-0.0247,0.8672,-6.75,8.0,-0.03,29.7
18211,0.3295,-0.0261,0.8699,-6.81,7.97,-0.03,29.71
18221,0.3263,-0.0232,0.8619,-6.73,7.98,-0.05,29.69
18231,0.3258,-0.0223,0.8606,-6.7,7.92,-0.05,29.7
18241,0.3289,-0.025,0.8643,-6.73,7.88,-0.05,29.69
18251,0.3297,-0.0276,0.8635,-6.78,7.94,-0.15,29.7
18261,0.3241,-0.0273,0.8645,-6.78,8.06,-0.08,29.7
18271,0.3273,-0.027,0.8599,-6.78,7.97,0.03,29.69
18281,0.3241,-0.026,0.8646,-6.75,7.91,-0.06,29.69
18291,0.327,-0.026,0.8695,-6.64,7.97,0.02,29.69
18301,0.3291,-0.0266,0.8652,-6.75,8.02,-0.03,29.68
18311,0.3265,-0.0276,0.8619,-6.73,8.02,-0.06,29.7
18321,0.3254,-0.0258,0.8636,-6.72,8.0,-0.06,29.69
18331,0.3248,-0.0284,0.8628,-6.72,7.92,-0.05,29.7
18341,0.3344,-0.0251,0.8597,-6.76,7.83,-0.08,29.71
18351,0.3252,-0.0273,0.8732,-6.79,8.27,-0.08,29.7
18361,0.3314,-0.0288,0.8645,-6.84,7.82,-0.05,29.69
18372,0.3344,-0.0228,0.8625,-6.64,7.86,0.0,29.7
18382,0.3264,-0.0237,0.8691,-6.69,7.97,-0.06,29.7
18392,0.33,-0.0273,0.8677,-6.75,7.94,-0.03,29.69
18402,0.3314,-0.0276,0.8596,-6.78,7.94,-0.02,29.68
18412,0.3248,-0.0232,0.8668,-6.69,7.92,-0.12,29.71
18422,0.3265,-0.0251,0.8624,-6.73,7.92,-0.06,29.69
18432,0.3301,-0.0256,0.8643,-6.75,7.91,0.02,29.7
18442,0.3269,-0.0242,0.8601,-6.84,7.94,0.02,29.7
18452,0.3318,-0.0259,0.8661,-6.76,7.89,0.03,29.71
18462,0.3263,-0.0266,0.8689,-6.66,8.0,-0.12,29.69
18472,0.3264,-0.0275,0.8645,-6.7,7.98,-0.05,29.69
18482,0.3267,-0.0244,0.8679,-6.73,7.98,-0.11,29.69
18492,0.3245,-0.0251,0.8655,-6.7,8.03,-0.03,29.72
18502,0.3317,-0.0282,0.8658,-6.73,7.98,-0.06,29.71
18512,0.3312,-0.0271,0.8667,-6.76,7.92,-0.08,29.67
18522,0.3296,-0.0255,0.8623,-6.72,7.98,0.03,29.69
18532,0.3306,-0.0266,0.8646,-6.7,7.92,-0.09,29.69
18542,0.3274,-0.022,0.8622,-6.63,7.98,-0.03,29.7
18552,0.3251,-0.0228,0.8679,-6.76,7.91,-0.03,29.71
18562,0.3256,-0.0243,0.868,-6.73,8.03,-0.06,29.7
18572,0.327,-0.0266,0.8645,-6.72,8.02,-0.05,29.69
18582,0.3268,-0.0232,0.8643,-6.69,8.03,-0.03,29.68
18592,0.3286,-0.0242,0.868,-6.72,8.02,0.03,29.7
18602,0.3251,-0.0283,0.8625,-6.66,7.95,0.0,29.73
18612,0.3282,-0.025,0.8627,-6.75,7.91,-0.09,29.7
18622,0.326,-0.0228,0.866,-6.69,8.0,-0.08,29.71
18632,0.3279,-0.0251,0.8661,-6.75,7.94,0.0,29.72
18642,0.3267,-0.0236,0.8627,-6.7,7.92,-0.03,29.72
18652,0.328,-0.0236,0.8684,-6.82,7.94,0.0,29.69
18662,0.3268,-0.0266,0.8677,-6.75,8.05,-0.03,29.71
18672,0.3295,-0.0254,0.8621,-6.85,8.06,-0.05,29.71
18682,0.3262,-0.0247,0.8658,-6.7,7.97,-0.05,29.7
18692,0.3263,-0.0271,0.8656,-6.69,7.89,0.0,29.69
18702,0.3247,-0.0239,0.8605,-6.72,7.97,0.02,29.7
18712,0.3257,-0.0289,0.8616,-6.7,7.97,-0.08,29.72
18722,0.3243,-0.0225,0.8663,-6.72,8.03,0.0,29.69
18732,0.3276,-0.024,0.8643,-6.76,7.98,-0.08,29.73
18742,0.328,-0.0275,0.8684,-6.69,7.98,-0.05,29.7
18752,0.3278,-0.0275,0.864,-6.73,7.92,0.0,29.69
18762,0.3282,-0.0278,0.8647,-6.73,7.98,0.02,29.69
18772,0.3271,-0.0289,0.8658,-6.69,8.05,0.0,29.69
18782,0.3259,-0.028,0.8671,-6.7,8.02,-0.02,29.71
18792,0.3263,-0.0253,0.8625,-6.7,7.95,-0.06,29.7
18802,0.3258,-0.0231,0.8638,-6.73,7.95,-0.11,29.71
18812,0.3258,-0.0244,0.8613,-6.7,7.92,-0.09,29.69
18822,0.3276,-0.0238,0.8643,-6.75,7.95,-0.02,29.7
18832,0.3275,-0.0248,0.8629,-6.78,8.02,-0.03,29.69
18842,0.3265,-0.0272,0.87,-6.7,7.97,-0.02,29.72
18852,0.3284,-0.0275,0.8627,-6.66,7.92,0.02,29.71
18862,0.3289,-0.0255,0.8645,-6.66,8.02,0.03,29.71
18872,0.328,-0.0262,0.8594,-6.78,7.91,-0.02,29.72
18882,0.3269,-0.028,0.8656,-6.75,8.03,-0.06,29.71
18892,0.3281,-0.0247,0.8645,-6.75,7.95,-0.02,29.7
18902,0.3289,-0.0258,0.8624,-6.67,7.97,-0.03,29.71
18912,0.3273,-0.0276,0.8698,-6.72,7.98,-0.03,29.7
18922,0.3297,-0.0266,0.8667,-6.73,8.0,-0.06,29.72
18932,0.3289,-0.0266,0.8629,-6.72,7.91,-0.06,29.7
18942,0.3273,-0.0267,0.87,-6.81,7.94,-0.11,29.7
18952,0.3259,-0.0262,0.8691,-6.79,7.97,-0.05,29.7
18962,0.3279,-0.0253,0.8649,-6.78,7.94,-0.09,29.68
18972,0.3273,-0.0231,0.8654,-6.69,7.92,0.02,29.69
18982,0.3298,-0.0261,0.8641,-6.69,8.03,-0.05,29.67
18992,0.3293,-0.0262,0.8641,-6.75,8.0,-0.05,29.68
19002,0.3279,-0.0244,0.8671,-6.7,7.91,-0.02,29.72
19012,0.332,-0.0237,0.8585,-6.85,7.83,-0.05,29.69
19022,0.3307,-0.0261,0.8619,-6.72,7.89,-0.06,29.73
19032,0.3271,-0.0256,0.8687,-6.67,7.97,-0.06,29.7
19042,0.3263,-0.0248,0.8629,-6.73,8.02,-0.03,29.7
19052,0.3335,-0.0269,0.8604,-6.64,7.92,0.0,29.69
19062,0.3296,-0.0261,0.8665,-6.73,7.88,0.0,29.71
19072,0.3291,-0.0242,0.8708,-6.75,7.97,-0.02,29.7
19082,0.3279,-0.0231,0.8655,-6.7,8.11,-0.08,29.69
19092,0.3267,-0.0247,0.8634,-6.7,8.03,-0.03,29.7
19102,0.328,-0.0226,0.8616,-6.69,7.88,0.0,29.71
19112,0.3302,-0.0247,0.8688,-6.69,8.09,-0.02,29.69
19122,0.3308,-0.0264,0.8662,-6.76,8.02,-0.05,29.69
19132,0.3279,-0.0277,0.864,-6.7,7.89,-0.05,29.7
19142,0.3292,-0.0215,0.8678,-6.72,8.0,-0.03,29.71
19152,0.3275,-0.0243,0.8655,-6.7,7.94,0.02,29.67
19162,0.3241,-0.0223,0.8617,-6.7,7.97,-0.05,29.69
19172,0.3247,-0.0278,0.8611,-6.72,7.92,-0.14,29.69
19182,0.327,-0.0286,0.8644,-6.76,7.91,-0.02,29.68
19192,0.3295,-0.0264,0.8643,-6.72,7.91,0.03,29.7
19202,0.326,-0.0253,0.8663,-6.73,7.89,-0.02,29.69
19212,0.3262,-0.0269,0.8698,-6.64,7.94,-0.06,29.72
19222,0.3263,-0.0251,0.8618,-6.73,8.09,-0.02,29.7
19232,0.3289,-0.0245,0.865,-6.66,7.94,-0.08,29.7
19242,0.3286,-0.0281,0.8616,-6.76,7.94,-0.08,29.7
19252,0.3286,-0.0256,0.8662,-6.7,8.08,0.03,29.69
19262,0.3251,-0.022,0.86,-6.72,7.97,0.02,29.7
19272,0.3263,-0.0242,0.864,-6.72,7.89,-0.06,29.69
19282,0.3293,-0.0231,0.8671,-6.78,7.89,-0.08,29.69
19292,0.3281,-0.0248,0.8701,-6.79,7.94,-0.06,29.7
19302,0.3265,-0.0266,0.8702,-6.72,7.89,-0.06,29.69
19312,0.3322,-0.0251,0.8656,-6.78,7.92,-0.11,29.7
19322,0.3275,-0.0262,0.8643,-6.73,7.94,0.05,29.7
19332,0.329,-0.0251,0.8615,-6.78,8.0,0.0,29.69
19342,0.3256,-0.0249,0.8616,-6.76,7.95,-0.03,29.71
19352,0.3275,-0.027,0.8669,-6.75,8.0,-0.02,29.68
19362,0.328,-0.0251,0.8663,-6.67,8.03,0.02,29.72
19372,0.3269,-0.0245,0.8618,-6.69,8.03,-0.06,29.7
19382,0.3279,-0.026,0.8658,-6.73,8.02,0.0,29.69
19392,0.328,-0.0255,0.859,-6.81,7.94,-0.03,29.7
19402,0.3263,-0.0281,0.8654,-6.75,7.92,-0.05,29.71
19412,0.3259,-0.0255,0.8698,-6.72,8.14,0.0,29.71
19422,0.329,-0.0232,0.8593,-6.72,7.95,-0.18,29.7
19432,0.3239,-0.0251,0.8654,-6.72,7.94,-0.05,29.69
19442,0.3308,-0.0266,0.8666,-6.7,7.95,-0.05,29.71
19452,0.3301,-0.0227,0.8691,-6.76,7.95,0.05,29.72
19462,0.3289,-0.0262,0.8651,-6.73,8.11,-0.08,29.68
19472,0.3276,-0.0248,0.8616,-6.67,7.92,-0.06,29.69
19482,0.3275,-0.0237,0.8615,-6.64,7.89,-0.05,29.69
19492,0.3284,-0.0238,0.8678,-6.69,8.0,0.02,29.7
19502,0.3237,-0.024,0.863,-6.67,8.05,-0.02,29.7
19512,0.3256,-0.0253,0.8651,-6.72,8.06,0.05,29.71
19523,0.3268,-0.027,0.8667,-6.67,7.98,-0.11,29.69
19533,0.3302,-0.0295,0.8618,-6.73,8.03,-0.08,29.71
19543,0.326,-0.0273,0.8599,-6.72,8.03,-0.02,29.7
19553,0.3263,-0.0292,0.8588,-6.76,7.91,-0.03,29.68
19563,0.3274,-0.0229,0.8691,-6.7,7.85,-0.05,29.71
19573,0.3322,-0.027,0.8738,-6.76,8.05,-0.05,29.7
19583,0.329,-0.0266,0.8639,-6.72,8.03,0.05,29.7
19593,0.3276,-0.0254,0.8622,-6.72,7.94,-0.02,29.69
19603,0.3312,-0.0228,0.8618,-6.75,8.0,-0.09,29.71
19613,0.3284,-0.0227,0.8599,-6.7,7.91,-0.15,29.71
19623,0.3253,-0.0269,0.8586,-6.66,7.91,-0.02,29.72
19633,0.3269,-0.026,0.8644,-6.75,7.83,0.0,29.73
19643,0.3296,-0.0256,0.8617,-6.81,7.97,-0.02,29.69
19653,0.3264,-0.0299,0.8636,-6.75,7.92,-0.02,29.71
19663,0.3292,-0.0276,0.868,-6.75,8.02,-0.03,29.71
19673,0.3297,-0.0272,0.8671,-6.73,7.92,-0.05,29.72
19683,0.3292,-0.0284,0.8688,-6.72,7.98,-0.08,29.71
19693,0.3291,-0.025,0.8663,-6.73,7.92,-0.03,29.71
19703,0.3268,-0.0227,0.8652,-6.72,8.03,-0.08,29.73
19713,0.3286,-0.0225,0.8632,-6.76,7.98,-0.02,29.73
19723,0.3256,-0.0281,0.8593,-6.75,7.95,-0.06,29.71
19733,0.326,-0.0273,0.8638,-6.75,7.94,-0.05,29.7
19743,0.3258,-0.0269,0.8638,-6.72,7.95,0.03,29.71
19753,0.3276,-0.0277,0.8595,-6.82,7.94,-0.05,29.72
19763,0.33,-0.0272,0.8651,-6.72,7.92,-0.06,29.7
19773,0.3295,-0.0295,0.8676,-6.73,8.03,-0.09,29.72
19783,0.33,-0.0244,0.8635,-6.7,7.98,-0.17,29.7
19793,0.3281,-0.0243,0.864,-6.75,7.92,-0.08,29.74
19803,0.3268,-0.0238,0.8601,-6.7,7.94,-0.06,29.74
19813,0.3258,-0.0258,0.8574,-6.73,7.89,-0.06,29.72
19823,0.3253,-0.0229,0.8621,-6.75,7.92,-0.03,29.73
19833,0.3284,-0.0258,0.8545,-6.76,7.82,-0.05,29.73
19843,0.3282,-0.0264,0.8591,-6.69,8.05,-0.03,29.71
19853,0.3268,-0.0249,0.8682,-6.69,7.92,-0.02,29.72
19863,0.332,-0.0276,0.8666,-6.73,7.86,0.0,29.74
19873,0.3309,-0.0298,0.8695,-6.79,7.94,-0.08,29.72
19883,0.3251,-0.0293,0.8691,-6.69,8.14,-0.05,29.72
19893,0.3282,-0.0259,0.8633,-6.79,8.02,-0.08,29.71
19903,0.3308,-0.0232,0.8632,-6.82,7.95,-0.02,29.71
19913,0.324,-0.0242,0.8674,-6.79,7.94,-0.02,29.72
19923,0.3251,-0.0239,0.8578,-6.78,7.92,-0.02,29.71
19933,0.3282,-0.0264,0.864,-6.73,7.89,-0.08,29.72
19943,0.3296,-0.0234,0.8676,-6.72,7.95,-0.03,29.72
19953,0.3262,-0.0208,0.8676,-6.76,7.91,-0.03,29.72
19963,0.3296,-0.027,0.8666,-6.67,7.95,-0.09,29.72
19973,0.3282,-0.0286,0.8667,-6.76,7.94,-0.05,29.72
19983,0.3293,-0.0254,0.8658,-6.76,7.94,-0.11,29.7
19993,0.3287,-0.0262,0.8647,-6.75,7.98,0.0,29.69
20003,0.3292,-0.0255,0.86,-6.67,8.03,-0.02,29.72
20013,0.3276,-0.0239,0.8625,-6.79,7.97,-0.02,29.71
20023,0.3295,-0.0238,0.8586,-6.7,7.92,-0.05,29.7
20033,0.3276,-0.0225,0.8628,-6.7,7.89,-0.03,29.69
20043,0.3267,-0.028,0.8633,-6.7,7.98,-0.03,29.7
20053,0.3319,-0.0225,0.865,-6.75,7.79,-0.02,29.71
20063,0.3271,-0.0262,0.8671,-6.73,8.09,-0.02,29.69
20073,0.3278,-0.026,0.8643,-6.7,7.89,-0.03,29.71
20083,0.3292,-0.0255,0.8658,-6.66,7.91,-0.05,29.72
20093,0.3285,-0.0275,0.8715,-6.69,7.98,-0.02,29.71
20103,0.3274,-0.0245,0.8622,-6.73,8.02,0.03,29.72
20113,0.3292,-0.0249,0.8608,-6.66,7.92,-0.05,29.73
20123,0.3242,-0.0231,0.8647,-6.72,8.02,-0.06,29.74
20133,0.3258,-0.0248,0.8589,-6.69,7.91,-0.17,29.7
20143,0.3282,-0.0238,0.865,-6.75,7.97,-0.09,29.72
20153,0.3237,-0.0217,0.8679,-6.78,7.89,0.02,29.73
20163,0.3295,-0.0253,0.8605,-6.75,8.03,-0.06,29.72
20173,0.3263,-0.0231,0.8654,-6.75,7.71,-0.02,29.72
20183,0.3293,-0.0271,0.8723,-6.67,7.94,-0.06,29.72
20193,0.3285,-0.0289,0.8645,-6.76,8.15,-0.06,29.7
20203,0.3213,-0.0271,0.8591,-6.67,7.94,-0.08,29.72
20213,0.3271,-0.0244,0.865,-6.67,7.83,-0.12,29.72
20223,0.3285,-0.0222,0.8672,-6.75,7.91,-0.08,29.73
20233,0.3292,-0.0222,0.8702,-6.76,8.09,-0.03,29.72
20243,0.326,-0.0242,0.8655,-6.76,7.98,0.0,29.72
20253,0.327,-0.0226,0.8677,-6.78,7.95,0.02,29.74
20263,0.3252,-0.0269,0.8707,-6.75,8.06,-0.06,29.72
20273,0.3276,-0.0266,0.8645,-6.78,8.08,-0.03,29.71
20283,0.3274,-0.0272,0.8618,-6.66,7.94,-0.11,29.72
20293,0.3287,-0.0249,0.8683,-6.76,7.89,-0.05,29.72
20303,0.3289,-0.0253,0.8624,-6.72,8.0,-0.06,29.72
20313,0.3273,-0.0269,0.8647,-6.67,7.94,-0.06,29.72
20323,0.3243,-0.0265,0.8588,-6.7,7.94,-0.03,29.72
20333,0.3286,-0.0239,0.865,-6.78,7.98,-0.08,29.75
20343,0.33,-0.0255,0.8633,-6.82,8.03,0.05,29.7
20353,0.328,-0.0267,0.8594,-6.76,7.98,-0.08,29.72
20363,0.3289,-0.0238,0.8612,-6.78,7.95,-0.09,29.72
20373,0.328,-0.0249,0.8673,-6.75,8.02,-0.08,29.73
20383,0.33,-0.0275,0.8691,-6.72,7.98,-0.03,29.7
20393,0.3302,-0.0277,0.8657,-6.67,8.03,0.0,29.73
20403,0.3312,-0.0254,0.8616,-6.73,7.98,0.0,29.75
20413,0.329,-0.0248,0.8597,-6.81,7.89,0.02,29.72
20423,0.3264,-0.0233,0.8628,-6.61,7.95,-0.02,29.72
20433,0.3275,-0.0249,0.8654,-6.7,7.95,0.03,29.72
20443,0.326,-0.0258,0.8658,-6.67,7.95,-0.06,29.71
20453,0.3284,-0.0248,0.8641,-6.79,7.94,-0.11,29.7
20463,0.3284,-0.0273,0.8619,-6.66,7.98,-0.03,29.71
20473,0.3307,-0.0243,0.8639,-6.76,7.97,-0.05,29.7
20483,0.329,-0.0282,0.8676,-6.7,7.94,-0.09,29.7
20493,0.3295,-0.0302,0.8535,-6.76,7.85,-0.09,29.71
20504,0.3263,-0.0305,0.8578,-6.64,7.83,-0.03,29.72
20514,0.3318,-0.0244,0.8657,-6.7,7.89,-0.02,29.73
20524,0.3251,-0.0229,0.8682,-6.76,8.02,-0.02,29.7
20534,0.3221,-0.0251,0.8604,-6.7,8.08,-0.05,29.72
20544,0.3269,-0.0238,0.8601,-6.73,7.91,-0.06,29.74
20554,0.3278,-0.0215,0.8638,-6.7,7.88,-0.09,29.72
20564,0.3281,-0.0282,0.8672,-6.75,8.06,-0.06,29.73
20574,0.3276,-0.028,0.8633,-6.63,8.0,-0.06,29.72
20584,0.3293,-0.0248,0.8624,-6.69,7.82,-0.08,29.75
20594,0.3271,-0.0236,0.8719,-6.7,7.98,0.0,29.73
20604,0.3291,-0.0265,0.8658,-6.7,8.02,0.0,29.74
20614,0.326,-0.0231,0.8643,-6.75,7.98,-0.03,29.71
20624,0.3293,-0.0271,0.865,-6.72,7.98,-0.02,29.73
20634,0.3258,-0.0225,0.8638,-6.76,8.09,-0.08,29.75
20644,0.3278,-0.0247,0.8624,-6.78,7.94,-0.09,29.74
20654,0.3246,-0.0262,0.8657,-6.69,8.03,-0.08,29.72
20664,0.326,-0.0256,0.866,-6.67,7.98,0.0,29.72
20674,0.3279,-0.0283,0.8589,-6.7,7.98,-0.05,29.73
20684,0.3315,-0.0265,0.8635,-6.72,7.94,-0.02,29.74
20694,0.3274,-0.0264,0.8676,-6.73,7.98,-0.08,29.72
20704,0.3271,-0.0256,0.8689,-6.72,8.03,-0.06,29.72
20714,0.3263,-0.0306,0.8671,-6.79,8.02,-0.06,29.72
20724,0.3257,-0.0256,0.8641,-6.76,7.98,-0.08,29.72
20734,0.3285,-0.0249,0.8552,-6.72,8.0,-0.05,29.72
20744,0.3243,-0.0258,0.8593,-6.72,8.03,0.02,29.72
20754,0.325,-0.0251,0.8569,-6.78,7.85,-0.06,29.74
20764,0.3319,-0.0253,0.8667,-6.76,7.98,-0.02,29.71
20774,0.3286,-0.0245,0.8604,-6.79,8.05,-0.06,29.72
20784,0.3252,-0.0261,0.86,-6.69,8.02,-0.09,29.71
20794,0.3254,-0.0261,0.8669,-6.7,8.02,-0.05,29.73
20804,0.3264,-0.025,0.8737,-6.79,8.03,-0.09,29.72
20814,0.3269,-0.0259,0.8666,-6.73,8.06,0.02,29.72
20824,0.326,-0.0273,0.8671,-6.7,7.98,0.0,29.72
20834,0.3306,-0.0237,0.8646,-6.69,8.0,-0.02,29.74
20844,0.333,-0.0253,0.8669,-6.7,7.95,-0.02,29.74
20854,0.3302,-0.0223,0.8646,-6.67,7.95,-0.09,29.72
20864,0.3287,-0.0256,0.8651,-6.73,8.0,-0.12,29.73
20874,0.3276,-0.0233,0.8604,-6.69,7.95,-0.05,29.77
20884,0.326,-0.0293,0.8628,-6.67,7.92,0.02,29.72
20894,0.3271,-0.025,0.8639,-6.75,7.98,-0.08,29.73
20904,0.3276,-0.0271,0.8633,-6.72,7.89,-0.05,29.73
20914,0.3308,-0.0269,0.8635,-6.75,7.88,-0.03,29.73
20924,0.3252,-0.0273,0.873,-6.66,8.08,-0.02,29.72
20934,0.3271,-0.0278,0.8688,-6.67,8.08,-0.03,29.74
20944,0.3275,-0.0271,0.864,-6.79,7.94,0.02,29.74
20954,0.3275,-0.0233,0.8663,-6.79,8.0,-0.05,29.73
20964,0.3258,-0.0229,0.8613,-6.72,7.95,-0.06,29.74
20974,0.3285,-0.0239,0.8663,-6.73,7.91,-0.02,29.75
20984,0.3268,-0.0251,0.8658,-6.78,7.95,-0.02,29.75
20994,0.3251,-0.0244,0.866,-6.75,7.95,-0.02,29.72
21004,0.327,-0.0244,0.865,-6.73,7.97,-0.02,29.75
21014,0.3289,-0.0289,0.8636,-6.72,7.97,-0.05,29.72
21024,0.3285,-0.0272,0.8624,-6.76,7.94,-0.08,29.74
21034,0.3281,-0.0249,0.8656,-6.64,7.94,-0.05,29.73
21044,0.3281,-0.026,0.8643,-6.76,7.95,-0.03,29.73
21054,0.3245,-0.0244,0.8629,-6.69,8.0,-0.03,29.72
21064,0.3278,-0.0233,0.8661,-6.69,7.97,-0.02,29.71
21074,0.3274,-0.0265,0.8662,-6.72,7.91,-0.03,29.72
21084,0.3289,-0.0249,0.8628,-6.73,7.97,-0.02,29.72
21094,0.3278,-0.0292,0.8616,-6.79,8.0,0.0,29.71
21104,0.3292,-0.0242,0.8639,-6.7,7.98,0.0,29.71
21114,0.3309,-0.0266,0.8643,-6.73,7.94,-0.08,29.73
21124,0.3281,-0.0289,0.8655,-6.72,7.95,-0.06,29.74
21134,0.3278,-0.0295,0.8618,-6.72,7.94,-0.08,29.74
21144,0.329,-0.0259,0.8606,-6.67,7.95,-0.02,29.73
21154,0.3295,-0.0237,0.8691,-6.79,7.94,-0.05,29.73
21164,0.3278,-0.0228,0.8651,-6.76,7.97,0.02,29.75
21174,0.3306,-0.0251,0.8623,-6.76,8.0,-0.08,29.75
21184,0.3262,-0.0245,0.8594,-6.69,7.94,-0.11,29.73
21194,0.3275,-0.025,0.8622,-6.72,7.94,-0.06,29.71
21204,0.3285,-0.0267,0.8657,-6.73,7.98,-0.06,29.75
21214,0.327,-0.0271,0.8632,-6.7,7.92,-0.12,29.73
21224,0.3298,-0.0269,0.8657,-6.82,7.98,-0.05,29.74
21234,0.3315,-0.03,0.8658,-6.73,7.88,-0.05,29.75
21244,0.3279,-0.0245,0.869,-6.73,7.97,-0.03,29.73
21254,0.3295,-0.0238,0.864,-6.78,8.09,0.0,29.73
21264,0.3271,-0.0226,0.8591,-6.75,7.94,-0.09,29.74
21274,0.3284,-0.0249,0.8597,-6.66,7.95,0.0,29.74
21284,0.328,-0.0239,0.8597,-6.69,8.05,-0.03,29.75
21294,0.327,-0.0253,0.8655,-6.79,8.02,-0.05,29.76
21304,0.3263,-0.025,0.8621,-6.75,7.98,-0.03,29.74
21314,0.3273,-0.0253,0.8651,-6.72,7.86,-0.08,29.73
21324,0.3285,-0.0265,0.868,-6.75,7.91,0.05,29.74
21334,0.3252,-0.0226,0.8679,-6.76,7.98,0.0,29.75
21344,0.3291,-0.027,0.8629,-6.73,7.95,-0.05,29.73
21354,0.3243,-0.0283,0.8628,-6.73,7.95,-0.09,29.74
21364,0.3268,-0.0253,0.8605,-6.7,7.94,0.02,29.75
21374,0.3253,-0.0245,0.859,-6.73,8.03,0.05,29.74
21384,0.3279,-0.024,0.8628,-6.69,7.98,0.03,29.75
21394,0.3269,-0.0239,0.8601,-6.66,8.02,-0.05,29.75
21404,0.3264,-0.0242,0.8593,-6.73,7.91,-0.02,29.73
21414,0.326,-0.0265,0.8666,-6.78,8.0,-0.03,29.73
21424,0.3322,-0.0269,0.8673,-6.78,7.89,-0.02,29.75
21434,0.3302,-0.025,0.8633,-6.76,7.98,-0.05,29.75
21444,0.3278,-0.024,0.8617,-6.73,7.88,0.03,29.74
21454,0.3325,-0.022,0.8691,-6.7,7.95,-0.02,29.74
21464,0.3312,-0.0244,0.8671,-6.73,8.03,-0.06,29.75
21474,0.3274,-0.0269,0.8618,-6.75,8.0,-0.06,29.72
21484,0.3263,-0.0255,0.8615,-6.76,7.95,0.0,29.72
21494,0.3278,-0.0253,0.8658,-6.73,8.0,-0.05,29.75
21504,0.3275,-0.0262,0.8662,-6.73,8.02,-0.05,29.73
21514,0.3259,-0.0273,0.8627,-6.7,7.97,-0.08,29.77
21524,0.3282,-0.0287,0.8629,-6.73,7.91,-0.09,29.75
21534,0.3286,-0.0272,0.8698,-6.7,7.95,-0.03,29.74
21544,0.329,-0.0282,0.8688,-6.75,7.95,-0.05,29.78
21554,0.3304,-0.025,0.8628,-6.7,8.02,-0.08,29.73
21564,0.327,-0.0258,0.8625,-6.73,7.86,-0.03,29.75
21574,0.3296,-0.0231,0.865,-6.75,7.94,-0.11,29.73
21584,0.3304,-0.0211,0.8704,-6.69,8.09,-0.08,29.74
21594,0.3263,-0.025,0.8671,-6.79,8.09,-0.06,29.76
21604,0.3252,-0.0253,0.8618,-6.72,7.97,-0.02,29.74
21614,0.3309,-0.0244,0.865,-6.67,7.94,-0.02,29.74
21624,0.332,-0.0234,0.8674,-6.79,8.02,0.03,29.74
21634,0.3303,-0.027,0.8628,-6.75,7.97,-0.11,29.72
21644,0.3287,-0.0272,0.8627,-6.78,7.86,-0.03,29.74
21654,0.3314,-0.025,0.8638,-6.73,7.89,0.03,29.77
21664,0.3273,-0.0278,0.8584,-6.63,8.02,-0.02,29.76
21674,0.3248,-0.0253,0.8593,-6.78,8.0,-0.05,29.76
21684,0.3257,-0.0244,0.8561,-6.75,7.97,-0.05,29.74
21694,0.3306,-0.024,0.8665,-6.66,7.92,-0.02,29.74
21704,0.33,-0.022,0.8654,-6.7,8.02,-0.03,29.74
21714,0.3297,-0.0258,0.8622,-6.72,7.97,-0.02,29.73
21724,0.3298,-0.0292,0.8665,-6.72,7.95,-0.08,29.72
21734,0.3284,-0.0269,0.8652,-6.73,8.0,-0.06,29.76
21744,0.326,-0.0272,0.8673,-6.78,7.92,-0.02,29.73
21754,0.3258,-0.0286,0.8617,-6.66,7.98,-0.02,29.76
21764,0.3276,-0.025,0.8665,-6.69,7.94,-0.08,29.76
21774,0.3241,-0.0253,0.8663,-6.6,7.95,-0.05,29.74
21784,0.3269,-0.0238,0.8623,-6.75,7.95,-0.08,29.72
21794,0.3289,-0.0265,0.8597,-6.67,7.92,-0.03,29.73
21804,0.3203,-0.0254,0.8562,-6.84,7.91,-0.09,29.73
21814,0.3298,-0.0254,0.8571,-6.67,7.83,-0.08,29.73
21824,0.33,-0.0247,0.8691,-6.78,7.94,0.02,29.73
21834,0.327,-0.0258,0.8677,-6.76,8.09,-0.05,29.76
21844,0.329,-0.0291,0.8607,-6.82,8.02,0.0,29.73
21854,0.3264,-0.0256,0.8602,-6.69,7.97,-0.06,29.75
21864,0.3279,-0.0271,0.8665,-6.67,7.94,-0.02,29.75
21874,0.3268,-0.0265,0.8661,-6.75,7.91,0.0,29.75
21884,0.3258,-0.0281,0.8641,-6.64,7.88,-0.03,29.74
21894,0.3279,-0.0254,0.8662,-6.67,7.91,0.03,29.75
21904,0.3314,-0.0221,0.8656,-6.64,8.0,0.03,29.73
21914,0.3307,-0.0258,0.8671,-6.7,7.91,0.02,29.72
21924,0.326,-0.0254,0.8689,-6.69,7.88,0.03,29.73
21934,0.3295,-0.0258,0.8719,-6.73,8.06,-0.08,29.76
21944,0.3271,-0.0247,0.8652,-6.76,8.08,-0.05,29.74
21955,0.3278,-0.0256,0.8612,-6.69,8.02,-0.06,29.73
21965,0.3298,-0.027,0.861,-6.7,7.88,0.02,29.74
21975,0.3258,-0.0281,0.8634,-6.73,7.89,-0.09,29.72
21985,0.3258,-0.0289,0.8678,-6.75,7.95,-0.06,29.73
21995,0.3271,-0.0291,0.8655,-6.69,8.02,-0.05,29.73
22005,0.3267,-0.0248,0.8662,-6.78,7.89,-0.08,29.72
22015,0.3265,-0.024,0.8641,-6.72,7.92,-0.06,29.74
22025,0.3279,-0.0276,0.8661,-6.67,7.94,-0.02,29.73
22035,0.3273,-0.024,0.8579,-6.69,7.94,-0.06,29.72
22045,0.3323,-0.0264,0.8575,-6.67,7.92,-0.05,29.72
22055,0.3274,-0.0258,0.8622,-6.7,7.88,-0.05,29.73
22065,0.3302,-0.026,0.8615,-6.76,7.95,-0.12,29.75
22075,0.3274,-0.0258,0.8624,-6.69,7.94,-0.03,29.73
22085,0.3307,-0.0247,0.8638,-6.66,7.95,-0.06,29.73
22095,0.3275,-0.0255,0.866,-6.72,7.92,0.02,29.74
22105,0.3269,-0.0266,0.8641,-6.82,7.95,0.02,29.74
22115,0.3281,-0.0248,0.8638,-6.78,7.94,0.02,29.75
22125,0.3251,-0.0249,0.8646,-6.72,7.97,-0.09,29.74
22135,0.3268,-0.026,0.8658,-6.79,7.95,0.0,29.74
22145,0.3271,-0.0259,0.8699,-6.75,7.91,0.02,29.73
22155,0.3278,-0.0247,0.8632,-6.75,8.03,0.0,29.73
22165,0.3319,-0.026,0.8625,-6.76,7.98,-0.08,29.72
22175,0.327,-0.0205,0.86,-6.76,7.89,-0.05,29.74
22185,0.3258,-0.0243,0.8676,-6.76,8.0,-0.03,29.74
22195,0.3296,-0.0243,0.8668,-6.75,7.98,-0.05,29.77
22205,0.3284,-0.0273,0.863,-6.69,8.03,-0.09,29.73
22215,0.3331,-0.0239,0.8645,-6.82,7.89,-0.14,29.74
22225,0.3314,-0.0284,0.8608,-6.67,7.94,-0.02,29.76
22235,0.328,-0.0251,0.8619,-6.75,8.02,-0.02,29.77
22245,0.3289,-0.0237,0.8628,-6.73,7.92,-0.05,29.75
22255,0.3323,-0.0222,0.86,-6.73,7.94,0.02,29.74
22265,0.3257,-0.0254,0.8667,-6.72,8.0,0.02,29.75
22275,0.3306,-0.0237,0.859,-6.75,8.0,-0.08,29.74
22285,0.3268,-0.0251,0.8624,-6.75,8.02,-0.06,29.72
22300,0.3289,-0.0262,0.8644,-6.75,8.05,-0.06,29.72
22310,0.3284,-0.0258,0.8622,-6.73,7.94,-0.05,29.74
22320,0.3281,-0.0264,0.8662,-6.6,7.92,0.03,29.74
22330,0.3271,-0.0249,0.8623,-6.79,7.97,-0.08,29.74
22340,0.3287,-0.026,0.8638,-6.78,7.94,-0.03,29.72
22350,0.3271,-0.0248,0.8663,-6.72,7.95,0.03,29.73
22360,0.329,-0.0272,0.8667,-6.82,8.0,-0.06,29.72
22370,0.3254,-0.0312,0.8666,-6.69,7.97,-0.12,29.75
22380,0.3269,-0.0266,0.8684,-6.72,7.95,-0.12,29.75
22390,0.3271,-0.0261,0.8713,-6.75,7.94,-0.08,29.75
22400,0.3265,-0.0273,0.8612,-6.73,8.0,-0.03,29.75
22410,0.3271,-0.0262,0.8601,-6.72,8.0,-0.02,29.74
22420,0.3276,-0.0247,0.8629,-6.72,7.94,-0.08,29.76
22430,0.3306,-0.0259,0.8632,-6.7,8.05,0.03,29.74
22440,0.3293,-0.0243,0.863,-6.73,8.0,-0.03,29.76
22450,0.3232,-0.0272,0.8651,-6.76,7.98,-0.02,29.75
22460,0.3273,-0.0273,0.8708,-6.69,7.97,-0.05,29.77
22470,0.3273,-0.0255,0.868,-6.69,7.95,-0.06,29.75
22480,0.3289,-0.0261,0.8674,-6.75,7.94,-0.05,29.75
22490,0.3292,-0.0243,0.8632,-6.79,7.89,-0.03,29.77
22500,0.3289,-0.0275,0.8657,-6.69,7.94,-0.03,29.76
22510,0.3267,-0.0251,0.8606,-6.63,7.94,-0.03,29.75
22520,0.3276,-0.026,0.8569,-6.76,8.0,0.03,29.77
22530,0.3276,-0.0237,0.8607,-6.79,8.02,-0.09,29.75
22540,0.3285,-0.0249,0.8608,-6.82,8.0,-0.02,29.77
22550,0.3285,-0.0229,0.8641,-6.69,7.94,-0.05,29.78
22560,0.3289,-0.025,0.8691,-6.76,8.0,0.0,29.75
22570,0.3292,-0.0255,0.8663,-6.82,7.97,-0.08,29.74
22581,0.3291,-0.0283,0.8635,-6.78,8.02,-0.08,29.74
22591,0.3281,-0.0314,0.8647,-6.73,7.91,-0.06,29.74
22601,0.3276,-0.0287,0.8646,-6.61,8.0,-0.06,29.77
22611,0.3262,-0.0271,0.8608,-6.73,8.02,-0.06,29.78
22621,0.3269,-0.0243,0.8638,-6.75,7.92,0.05,29.76
22631,0.3265,-0.0242,0.8616,-6.78,7.95,-0.03,29.76
22641,0.3286,-0.0249,0.8658,-6.78,7.91,0.05,29.76
22651,0.3269,-0.0248,0.8647,-6.7,8.03,0.0,29.75
22661,0.3289,-0.0234,0.8633,-6.72,7.98,0.0,29.74
22671,0.3307,-0.0251,0.8715,-6.72,8.0,-0.09,29.77
22681,0.335,-0.0254,0.8636,-6.76,7.76,-0.05,29.75
22691,0.3337,-0.0242,0.8671,-6.75,7.95,-0.08,29.77
22701,0.3284,-0.0247,0.8657,-6.75,8.03,-0.03,29.76
22711,0.3235,-0.0247,0.8619,-6.73,7.97,-0.02,29.76
22721,0.3264,-0.0242,0.8641,-6.69,8.09,-0.02,29.76
22731,0.3289,-0.0254,0.8594,-6.75,7.95,0.02,29.75
22741,0.3285,-0.0244,0.8618,-6.76,7.94,-0.06,29.74
22751,0.3292,-0.0245,0.8698,-6.69,7.98,-0.11,29.75
22761,0.3298,-0.0259,0.8662,-6.75,8.03,0.02,29.74
22771,0.3271,-0.027,0.863,-6.72,8.0,-0.05,29.72
22781,0.3297,-0.0294,0.865,-6.79,7.95,0.0,29.77
22791,0.329,-0.0245,0.8649,-6.7,7.91,0.03,29.76
22801,0.3312,-0.0248,0.865,-6.76,7.98,0.03,29.77
22811,0.3286,-0.0248,0.8652,-6.76,7.94,0.02,29.75
22821,0.3281,-0.0244,0.8624,-6.73,7.97,-0.05,29.77
22831,0.3291,-0.0234,0.8658,-6.72,7.89,-0.02,29.73
22841,0.3293,-0.0244,0.8617,-6.79,7.95,-0.02,29.75
22851,0.3301,-0.0232,0.8688,-6.73,7.94,-0.06,29.74
22861,0.3295,-0.0282,0.8695,-6.75,8.05,-0.03,29.74
22871,0.3251,-0.0298,0.868,-6.78,8.09,-0.02,29.76
22881,0.3301,-0.0293,0.8684,-6.7,7.88,-0.06,29.78
22891,0.3271,-0.0281,0.8661,-6.76,8.02,-0.03,29.78
22901,0.3281,-0.0258,0.8646,-6.76,8.05,-0.03,29.75
22911,0.3276,-0.0236,0.858,-6.76,7.89,-0.02,29.75
22921,0.3285,-0.0256,0.8667,-6.66,7.94,0.03,29.73
22931,0.3287,-0.0227,0.8661,-6.82,7.85,-0.05,29.75
22941,0.3304,-0.0248,0.8644,-6.7,7.94,-0.08,29.78
22951,0.3298,-0.0261,0.8643,-6.7,7.98,-0.05,29.74
22961,0.3268,-0.0275,0.8623,-6.63,8.02,-0.06,29.76
22971,0.3303,-0.0272,0.864,-6.72,7.92,-0.03,29.74
22981,0.328,-0.0281,0.8658,-6.76,7.92,-0.12,29.76
22991,0.3281,-0.0254,0.8645,-6.79,8.0,-0.09,29.75
23002,0.3273,-0.0244,0.8613,-6.75,7.91,-0.05,29.76
23012,0.3274,-0.024,0.8604,-6.79,8.0,-0.03,29.75
23022,0.3282,-0.024,0.865,-6.76,7.94,-0.12,29.74
23032,0.3292,-0.0221,0.865,-6.69,8.0,-0.05,29.74
23042,0.3304,-0.0281,0.8616,-6.75,7.94,-0.11,29.74
23052,0.3273,-0.0253,0.8678,-6.82,8.02,-0.03,29.74
23062,0.3259,-0.0271,0.8672,-6.75,8.02,-0.02,29.76
23072,0.326,-0.0261,0.8713,-6.78,8.0,-0.08,29.74
23082,0.3265,-0.0248,0.8633,-6.76,7.73,0.02,29.75
23092,0.3262,-0.0219,0.8713,-6.76,8.05,-0.03,29.76
23102,0.3297,-0.0286,0.864,-6.72,8.11,-0.06,29.77
23112,0.3236,-0.0216,0.8577,-6.69,7.92,-0.05,29.76
23122,0.3269,-0.0194,0.8608,-6.73,7.76,-0.06,29.74
23132,0.3302,-0.024,0.8735,-6.76,7.91,-0.06,29.75
23142,0.3318,-0.0262,0.8628,-6.75,8.03,-0.05,29.76
23152,0.3265,-0.0303,0.8607,-6.76,7.94,-0.02,29.77
23162,0.3309,-0.0233,0.8606,-6.7,7.83,0.0,29.76
23172,0.3315,-0.0256,0.8699,-6.63,7.89,0.03,29.76
23182,0.3286,-0.0245,0.8607,-6.7,7.98,-0.09,29.77
23192,0.3286,-0.0272,0.8611,-6.75,7.98,-0.08,29.76
23202,0.3268,-0.0262,0.8636,-6.69,7.92,-0.03,29.77
23212,0.3262,-0.0267,0.8622,-6.76,7.97,-0.06,29.8
23222,0.33,-0.0231,0.8527,-6.7,7.92,-0.09,29.75
23232,0.3295,-0.0267,0.8632,-6.67,7.94,-0.02,29.77
23242,0.328,-0.0277,0.8696,-6.72,7.98,-0.03,29.75
23252,0.3256,-0.0267,0.8724,-6.76,8.11,-0.09,29.76
23262,0.3337,-0.0255,0.8602,-6.69,7.89,-0.02,29.76
23272,0.3246,-0.0272,0.8704,-6.67,8.11,-0.09,29.76
23282,0.3273,-0.0248,0.8596,-6.79,7.95,-0.09,29.77
23292,0.3263,-0.0242,0.8569,-6.7,7.88,-0.06,29.76
23302,0.3273,-0.0217,0.8601,-6.76,7.89,-0.06,29.8
23312,0.3278,-0.0233,0.8672,-6.73,7.97,-0.02,29.77
23322,0.3291,-0.0247,0.8688,-6.7,7.88,0.02,29.76
23332,0.3295,-0.0258,0.8662,-6.76,8.0,0.02,29.77
23342,0.3284,-0.0266,0.8649,-6.72,7.94,0.03,29.75
23352,0.3284,-0.0262,0.8608,-6.73,7.94,-0.11,29.77
23364,0.3282,-0.0311,0.8618,-6.76,7.92,-0.08,29.8
23374,0.3263,-0.0256,0.8608,-6.67,7.98,-0.05,29.79
23384,0.3275,-0.0229,0.863,-6.72,7.94,-0.05,29.78
23394,0.3256,-0.0253,0.8643,-6.81,7.98,0.02,29.78
23404,0.325,-0.0259,0.8639,-6.73,7.91,-0.05,29.79
23414,0.3258,-0.0251,0.8641,-6.76,7.97,-0.06,29.77
23424,0.3301,-0.0242,0.8661,-6.67,7.97,0.0,29.76
23434,0.3323,-0.0264,0.8621,-6.79,8.02,-0.06,29.77
23444,0.3306,-0.0255,0.865,-6.72,7.92,0.0,29.77
23454,0.33,-0.0264,0.8602,-6.76,7.86,-0.03,29.77
23464,0.3293,-0.0256,0.8699,-6.76,7.91,0.0,29.76
23474,0.3328,-0.0265,0.8567,-6.64,7.95,-0.03,29.78
23484,0.3302,-0.0247,0.8579,-6.7,7.95,-0.05,29.77
23494,0.333,-0.0245,0.8582,-6.7,7.88,-0.02,29.77
23504,0.3247,-0.0233,0.8693,-6.81,7.95,-0.03,29.79
23514,0.3278,-0.0226,0.866,-6.75,8.02,-0.03,29.75
23524,0.3259,-0.0265,0.865,-6.61,7.97,-0.09,29.75
23534,0.3312,-0.0281,0.8689,-6.7,7.86,0.02,29.79
23544,0.3307,-0.0249,0.8627,-6.75,7.91,-0.03,29.77
23554,0.3241,-0.0267,0.8715,-6.6,8.21,0.03,29.76
23564,0.3326,-0.0271,0.8596,-6.69,7.91,0.0,29.76
23574,0.3247,-0.0261,0.868,-6.7,8.05,-0.08,29.78
23584,0.3264,-0.0242,0.8593,-6.79,7.97,-0.06,29.77
23594,0.3245,-0.0243,0.8658,-6.76,8.02,-0.03,29.76
23604,0.3301,-0.0275,0.8613,-6.72,7.97,-0.08,29.78
23614,0.3241,-0.0251,0.8629,-6.7,7.91,-0.12,29.76
23624,0.3323,-0.0239,0.8676,-6.7,7.98,-0.08,29.78
23634,0.3306,-0.027,0.8672,-6.76,7.92,0.02,29.77
23644,0.3303,-0.0276,0.8691,-6.72,8.02,-0.08,29.76
23654,0.3273,-0.0276,0.8622,-6.81,8.05,-0.03,29.8
23665,0.3284,-0.0251,0.8611,-6.73,7.97,-0.02,29.76
23675,0.3247,-0.0222,0.8582,-6.67,8.02,-0.05,29.78
23685,0.3282,-0.0248,0.8599,-6.78,8.0,-0.03,29.79
23695,0.3264,-0.024,0.8601,-6.75,8.05,-0.02,29.79
23705,0.3303,-0.0249,0.8618,-6.69,7.94,-0.06,29.78
23715,0.3293,-0.0251,0.8618,-6.79,7.92,-0.11,29.76
23725,0.3314,-0.0273,0.8684,-6.79,8.05,-0.11,29.78
23735,0.3269,-0.0311,0.8622,-6.73,7.92,-0.08,29.77
23745,0.3264,-0.0298,0.8616,-6.81,7.97,-0.11,29.77
23755,0.3274,-0.0288,0.8622,-6.72,8.02,0.06,29.77
23765,0.325,-0.0244,0.8608,-6.67,7.98,-0.08,29.77
23775,0.3246,-0.0258,0.8638,-6.66,7.98,-0.02,29.76
23785,0.3259,-0.0244,0.8617,-6.69,7.95,-0.02,29.76
23795,0.3267,-0.0199,0.8616,-6.75,7.95,-0.08,29.77
23805,0.3281,-0.0234,0.863,-6.73,7.95,-0.03,29.75
23815,0.3295,-0.0262,0.8691,-6.73,7.89,-0.02,29.77
23825,0.3282,-0.0273,0.8715,-6.78,7.98,-0.06,29.78
23835,0.3297,-0.0278,0.8729,-6.7,8.0,-0.05,29.76
23845,0.33,-0.0289,0.8618,-6.81,8.03,-0.09,29.76
23855,0.3287,-0.0271,0.8621,-6.73,7.95,-0.03,29.77
23865,0.329,-0.0239,0.8601,-6.79,7.86,-0.09,29.77
23875,0.327,-0.0251,0.863,-6.76,7.86,0.0,29.79
23885,0.3276,-0.0239,0.8627,-6.69,7.97,-0.02,29.77
23895,0.3245,-0.024,0.8658,-6.75,8.02,0.06,29.77
23905,0.3274,-0.0222,0.8702,-6.75,7.94,-0.11,29.78
23915,0.3304,-0.0273,0.8667,-6.66,7.89,-0.05,29.78
23925,0.3292,-0.0273,0.869,-6.76,7.92,-0.17,29.79
23935,0.3292,-0.0269,0.8694,-6.72,7.85,-0.11,29.79
23945,0.3287,-0.0284,0.8656,-6.7,8.0,-0.03,29.79
23955,0.3248,-0.0281,0.8623,-6.72,7.98,-0.06,29.76
23965,0.3252,-0.0264,0.8586,-6.75,8.09,0.03,29.81
23975,0.3282,-0.0253,0.8619,-6.76,8.06,-0.08,29.79
23985,0.3243,-0.0243,0.8605,-6.75,7.91,-0.02,29.78
23995,0.3258,-0.0214,0.8674,-6.79,7.92,-0.06,29.76
24005,0.3311,-0.0223,0.8671,-6.82,8.0,-0.06,29.77
24015,0.329,-0.0259,0.8689,-6.76,7.98,0.03,29.77
24025,0.33,-0.0256,0.8629,-6.75,7.97,-0.06,29.77
24035,0.3273,-0.0254,0.8677,-6.69,7.94,-0.05,29.78
24045,0.3291,-0.0264,0.8615,-6.75,7.98,-0.08,29.75
24055,0.3292,-0.0261,0.861,-6.69,7.89,-0.08,29.77
24065,0.327,-0.0265,0.8578,-6.72,7.98,-0.02,29.78
24075,0.325,-0.0256,0.8577,-6.76,7.97,0.02,29.78
24085,0.327,-0.0231,0.8635,-6.69,7.82,-0.02,29.74
24095,0.3301,-0.0225,0.8685,-6.67,7.98,0.0,29.79
24105,0.3274,-0.0215,0.8633,-6.72,8.06,-0.08,29.77
24115,0.3254,-0.0255,0.8611,-6.7,8.03,-0.05,29.78
24125,0.3297,-0.0256,0.8661,-6.73,7.92,-0.02,29.79
24135,0.3306,-0.031,0.8689,-6.75,8.0,0.05,29.77
24145,0.3296,-0.0262,0.8661,-6.66,8.03,0.03,29.78
24155,0.3262,-0.0278,0.8604,-6.81,7.97,0.05,29.77
24165,0.3287,-0.0258,0.8608,-6.76,7.98,-0.02,29.77
24175,0.328,-0.0262,0.8625,-6.76,7.91,0.0,29.8
24185,0.3265,-0.0227,0.8618,-6.7,7.98,0.0,29.79
24195,0.3265,-0.022,0.8657,-6.78,8.03,-0.06,29.78
24205,0.3292,-0.025,0.8663,-6.7,8.03,-0.05,29.77
24215,0.3287,-0.0245,0.8639,-6.81,8.0,-0.06,29.8
24225,0.3289,-0.027,0.8641,-6.79,8.0,-0.03,29.79
24235,0.3278,-0.0255,0.8633,-6.67,8.05,-0.15,29.81
24245,0.3248,-0.028,0.8643,-6.61,7.94,-0.08,29.8
24255,0.3293,-0.0289,0.8672,-6.75,7.98,-0.09,29.8
24265,0.3291,-0.0243,0.8624,-6.7,7.98,-0.06,29.8
24275,0.3253,-0.0242,0.8586,-6.67,7.92,0.02,29.79
24285,0.3274,-0.0238,0.8635,-6.76,8.0,0.0,29.77
24295,0.3296,-0.024,0.8638,-6.73,7.95,-0.06,29.77
24305,0.3281,-0.0239,0.8666,-6.72,7.98,-0.02,29.79
24315,0.3304,-0.0273,0.8688,-6.67,8.06,-0.03,29.8
24325,0.3262,-0.0258,0.8645,-6.66,7.97,0.03,29.78
24335,0.3285,-0.0289,0.8618,-6.73,8.0,-0.05,29.77
24345,0.3289,-0.0278,0.8639,-6.73,7.95,-0.05,29.81
24355,0.3268,-0.0233,0.8669,-6.76,7.95,-0.06,29.78
24365,0.327,-0.0261,0.8619,-6.66,7.95,-0.03,29.78
24375,0.3289,-0.0248,0.8619,-6.72,7.89,-0.02,29.77
24385,0.328,-0.0237,0.8623,-6.73,7.92,-0.12,29.79
24395,0.3285,-0.0227,0.8644,-6.69,8.02,-0.09,29.76
24405,0.3285,-0.0282,0.8716,-6.66,7.98,-0.05,29.77
24415,0.3273,-0.0245,0.8679,-6.75,7.97,0.0,29.81
24425,0.328,-0.0242,0.8698,-6.76,7.97,-0.08,29.77
24435,0.327,-0.0292,0.8628,-6.76,8.0,-0.03,29.77
24445,0.3331,-0.0293,0.8572,-6.69,7.97,-0.06,29.8
24455,0.3258,-0.0253,0.8672,-6.66,8.14,-0.03,29.79
24465,0.3248,-0.021,0.858,-6.76,8.08,0.03,29.77
24475,0.3226,-0.0212,0.8607,-6.67,7.88,-0.03,29.78
24485,0.3298,-0.0222,0.8661,-6.66,7.86,-0.05,29.79
24495,0.3302,-0.027,0.8684,-6.76,7.89,-0.11,29.8
24505,0.3301,-0.0273,0.8662,-6.7,8.02,-0.05,29.8
24515,0.3286,-0.0289,0.8683,-6.78,7.95,-0.06,29.79
24525,0.3295,-0.028,0.8663,-6.72,8.03,-0.08,29.78
24535,0.3286,-0.0276,0.8628,-6.69,8.06,0.0,29.81
24545,0.3273,-0.0265,0.8685,-6.69,8.08,-0.03,29.79
24555,0.3254,-0.0231,0.8657,-6.76,7.97,-0.02,29.78
24565,0.3279,-0.026,0.8677,-6.7,7.95,-0.02,29.8
24575,0.3263,-0.0244,0.8608,-6.72,8.0,0.05,29.79
24585,0.3275,-0.0204,0.8616,-6.7,8.02,-0.11,29.76
24595,0.327,-0.0243,0.8644,-6.64,7.94,0.02,29.81
24605,0.3308,-0.0231,0.8726,-6.73,7.97,-0.06,29.78
24615,0.3248,-0.0265,0.8701,-6.75,8.09,-0.03,29.77
24625,0.3275,-0.024,0.86,-6.75,8.03,-0.02,29.77
24635,0.328,-0.0288,0.8676,-6.66,8.0,-0.11,29.79
24645,0.3407,-0.024,0.8558,-6.73,7.66,-0.05,29.81
24655,0.3234,-0.026,0.8635,-6.67,7.98,0.02,29.79
24665,0.3143,-0.0216,0.8801,-6.78,8.32,-0.12,29.79
24675,0.3234,-0.0226,0.8639,-6.73,8.31,-0.12,29.79
24685,0.3239,-0.0261,0.853,-6.73,7.97,-0.06,29.78
24695,0.3269,-0.0275,0.8702,-6.82,7.74,-0.09,29.79
24705,0.3314,-0.0232,0.8783,-6.64,7.94,-0.11,29.8
24715,0.3265,-0.0284,0.8645,-6.72,8.05,-0.06,29.8
24725,0.326,-0.0299,0.8616,-6.78,7.89,-0.11,29.79
24735,0.3302,-0.0251,0.8632,-6.67,7.89,-0.05,29.78
24745,0.3296,-0.0261,0.8678,-6.73,7.95,-0.02,29.79
24755,0.3265,-0.0249,0.8607,-6.76,8.0,0.0,29.8
24765,0.328,-0.0276,0.8606,-6.76,7.98,-0.06,29.79
24775,0.3291,-0.026,0.8673,-6.76,7.95,-0.02,29.8
24785,0.3313,-0.0245,0.8678,-6.78,7.85,0.02,29.79
24795,0.3281,-0.0239,0.8623,-6.81,7.97,-0.08,29.78
24805,0.3268,-0.0266,0.8662,-6.7,7.92,-0.02,29.78
24815,0.3281,-0.0277,0.8658,-6.79,7.94,-0.05,29.82
24825,0.3297,-0.0239,0.8647,-6.75,8.02,-0.05,29.79
24835,0.3289,-0.0247,0.8638,-6.66,7.91,-0.02,29.78
24845,0.3303,-0.0259,0.8644,-6.72,7.97,0.02,29.81
24855,0.3304,-0.0251,0.86,-6.73,7.91,-0.03,29.82
24865,0.3275,-0.0248,0.8584,-6.76,7.95,-0.05,29.81
24875,0.332,-0.0248,0.8629,-6.64,7.94,-0.09,29.79
24885,0.3323,-0.0262,0.8657,-6.69,7.97,0.02,29.81
24895,0.3317,-0.0237,0.8657,-6.73,7.91,-0.02,29.81
24905,0.3318,-0.0232,0.8647,-6.67,7.95,0.05,29.79
24915,0.3292,-0.027,0.8688,-6.73,8.05,0.02,29.81
24925,0.3267,-0.0273,0.8602,-6.76,8.02,-0.06,29.79
24935,0.3241,-0.0237,0.8621,-6.72,7.98,0.0,29.77
24945,0.326,-0.0244,0.8616,-6.67,7.88,-0.09,29.79
24955,0.328,-0.0262,0.8654,-6.73,7.98,-0.09,29.8
24965,0.3264,-0.0227,0.8647,-6.79,7.92,-0.09,29.79
24975,0.3269,-0.0276,0.8643,-6.72,8.0,-0.06,29.78
24985,0.3256,-0.024,0.8638,-6.76,7.98,0.03,29.79
24995,0.3274,-0.0272,0.8639,-6.79,7.92,-0.02,29.79
25005,0.3262,-0.0272,0.8622,-6.76,7.97,-0.09,29.8
25015,0.3264,-0.0281,0.8625,-6.81,7.92,0.0,29.82
25025,0.3263,-0.0273,0.8641,-6.64,7.97,-0.14,29.81
25035,0.3282,-0.0226,0.8655,-6.63,7.92,-0.12,29.82
25045,0.3265,-0.0232,0.8657,-6.69,8.02,-0.05,29.78
25055,0.3284,-0.0256,0.8683,-6.73,7.97,-0.03,29.77
25065,0.328,-0.0258,0.8622,-6.7,7.97,-0.05,29.79
25075,0.328,-0.0237,0.8635,-6.78,7.91,-0.14,29.8
25085,0.3268,-0.0233,0.8666,-6.75,7.91,-0.05,29.8
25095,0.3271,-0.0254,0.8624,-6.66,7.97,-0.03,29.78
25105,0.3264,-0.0286,0.8615,-6.75,8.0,-0.05,29.79
25115,0.3274,-0.0258,0.8629,-6.79,7.95,-0.05,29.8
25125,0.3281,-0.0282,0.8641,-6.75,8.0,-0.06,29.79
25135,0.3267,-0.0255,0.8641,-6.84,7.92,-0.03,29.79
25145,0.329,-0.0248,0.8639,-6.72,7.91,-0.08,29.82
25155,0.3247,-0.0242,0.8617,-6.81,7.97,0.0,29.79
25165,0.3304,-0.0292,0.8655,-6.78,7.98,-0.08,29.8
25175,0.3274,-0.024,0.8644,-6.78,7.95,-0.02,29.8
25185,0.3274,-0.0254,0.8687,-6.67,8.0,0.0,29.78
25195,0.3285,-0.0248,0.8641,-6.79,8.05,-0.05,29.8
25205,0.3251,-0.0247,0.8607,-6.76,7.94,-0.02,29.78
25215,0.3318,-0.027,0.8649,-6.72,7.98,0.02,29.79
25225,0.3264,-0.028,0.8669,-6.75,7.89,0.05,29.82
25235,0.3274,-0.0229,0.8717,-6.75,7.88,-0.09,29.8
25245,0.3318,-0.0238,0.8737,-6.75,7.92,-0.02,29.82
25255,0.3291,-0.0256,0.864,-6.72,7.97,-0.03,29.81
25265,0.3274,-0.0288,0.8606,-6.73,7.98,0.05,29.8
25275,0.3243,-0.028,0.861,-6.78,7.92,-0.12,29.79
25285,0.3259,-0.0275,0.8623,-6.73,7.95,-0.08,29.8
25295,0.3282,-0.0261,0.8638,-6.73,7.91,-0.03,29.79
25305,0.327,-0.0256,0.8676,-6.72,7.91,-0.02,29.81
25315,0.329,-0.0253,0.8625,-6.75,7.95,0.03,29.79
25325,0.3287,-0.0228,0.8662,-6.69,7.95,-0.05,29.8
25335,0.3263,-0.0264,0.8707,-6.72,8.0,-0.06,29.79
25345,0.3269,-0.0248,0.8668,-6.76,8.06,-0.05,29.82
25355,0.3289,-0.024,0.8678,-6.78,8.0,-0.11,29.82
25365,0.3263,-0.0258,0.8647,-6.7,7.95,0.03,29.79
25375,0.3256,-0.0251,0.8669,-6.73,7.94,0.0,29.8
25385,0.3259,-0.0253,0.8671,-6.73,7.95,-0.03,29.81
25395,0.3262,-0.0244,0.8632,-6.75,7.86,-0.08,29.79
25405,0.3246,-0.0258,0.8695,-6.76,7.98,-0.06,29.8
25415,0.326,-0.0262,0.8632,-6.75,7.97,-0.05,29.81
25425,0.3278,-0.0255,0.871,-6.67,7.97,-0.11,29.79
25435,0.3281,-0.0271,0.8651,-6.69,8.03,-0.11,29.81
25445,0.3282,-0.0258,0.864,-6.73,8.03,-0.09,29.8
25455,0.3289,-0.0258,0.8646,-6.76,7.92,-0.02,29.81
25465,0.3264,-0.0283,0.8656,-6.75,8.03,0.03,29.78
25475,0.3289,-0.0266,0.863,-6.79,7.98,-0.09,29.8
25485,0.3274,-0.0226,0.8666,-6.76,7.94,-0.14,29.8
25495,0.3333,-0.0197,0.869,-6.63,7.91,-0.05,29.79
25505,0.332,-0.0242,0.8728,-6.7,8.06,0.05,29.81
25515,0.3279,-0.0251,0.8687,-6.78,8.21,-0.08,29.82
25525,0.3228,-0.0248,0.8555,-6.69,7.92,-0.06,29.8
25535,0.3271,-0.0233,0.8633,-6.7,7.83,-0.06,29.8
25545,0.3319,-0.0232,0.8671,-6.69,8.06,-0.08,29.81
25555,0.3289,-0.025,0.8687,-6.76,8.02,-0.05,29.81
25565,0.327,-0.028,0.8625,-6.76,7.83,-0.02,29.82
25575,0.3268,-0.0269,0.864,-6.72,7.94,-0.03,29.79
25585,0.3273,-0.0269,0.8643,-6.75,7.94,0.02,29.81
25595,0.3274,-0.0272,0.8622,-6.75,7.92,-0.02,29.8
25605,0.3273,-0.0253,0.8616,-6.75,7.88,-0.06,29.78
25615,0.3276,-0.0247,0.8687,-6.69,7.85,-0.06,29.81
25625,0.3304,-0.025,0.8704,-6.78,7.91,-0.02,29.82
25635,0.3253,-0.026,0.8647,-6.69,8.05,-0.02,29.78
25645,0.3267,-0.0271,0.8625,-6.69,8.03,0.02,29.82
25655,0.3282,-0.0259,0.8639,-6.64,7.94,-0.05,29.81
25665,0.3279,-0.0239,0.8674,-6.73,8.0,-0.05,29.82
25675,0.3256,-0.0234,0.8624,-6.73,8.0,-0.05,29.8
25685,0.327,-0.0259,0.8644,-6.7,7.91,-0.06,29.78
25695,0.3308,-0.0251,0.8668,-6.69,7.98,-0.03,29.8
25705,0.3253,-0.0243,0.8698,-6.69,8.03,-0.03,29.83
25715,0.328,-0.0259,0.866,-6.7,8.02,-0.06,29.81
25725,0.3273,-0.0245,0.8646,-6.73,7.92,0.0,29.8
25735,0.3269,-0.0244,0.8649,-6.72,7.98,-0.11,29.81
25745,0.327,-0.0272,0.8704,-6.69,8.12,0.02,29.8
25755,0.3225,-0.0293,0.8654,-6.76,8.17,-0.03,29.81
25765,0.3237,-0.0232,0.8604,-6.75,7.97,-0.08,29.81
25775,0.3287,-0.0226,0.8586,-6.72,7.85,-0.05,29.81
25785,0.33,-0.0215,0.8657,-6.69,7.94,-0.05,29.79
25795,0.328,-0.0228,0.8662,-6.73,7.98,-0.06,29.8
25805,0.3265,-0.0233,0.865,-6.69,7.97,-0.09,29.82
25815,0.3269,-0.0277,0.8662,-6.67,8.0,-0.03,29.81
25825,0.3287,-0.0269,0.8656,-6.72,7.95,-0.02,29.82
25835,0.3269,-0.0267,0.8621,-6.7,7.88,-0.03,29.82
25845,0.3287,-0.0259,0.8606,-6.75,7.97,-0.05,29.81
25855,0.3267,-0.0294,0.8649,-6.79,7.98,0.03,29.8
25865,0.3275,-0.0251,0.8658,-6.7,8.03,-0.08,29.8
25875,0.3251,-0.0243,0.8682,-6.75,8.08,-0.02,29.81
25885,0.3256,-0.0256,0.8661,-6.81,7.98,-0.06,29.78
25895,0.3279,-0.0223,0.8645,-6.75,7.95,-0.02,29.82
25905,0.329,-0.0265,0.8671,-6.72,7.94,-0.02,29.8
25915,0.3264,-0.0262,0.8649,-6.76,7.98,0.02,29.8
25925,0.3286,-0.0264,0.8638,-6.73,7.95,0.0,29.81
25935,0.3269,-0.0278,0.8691,-6.72,8.03,-0.14,29.81
25945,0.3295,-0.0253,0.8674,-6.73,8.02,-0.11,29.81
25955,0.3281,-0.0266,0.8635,-6.73,7.94,0.03,29.79
25965,0.3275,-0.0244,0.8684,-6.69,7.91,-0.06,29.8
25975,0.3297,-0.0219,0.8656,-6.7,8.0,-0.06,29.81
25985,0.3302,-0.022,0.8639,-6.79,7.95,-0.02,29.8
25995,0.3269,-0.0253,0.8671,-6.84,7.95,0.03,29.82
26006,0.3286,-0.0254,0.8663,-6.69,7.89,-0.06,29.78
26016,0.3303,-0.0255,0.8651,-6.63,7.94,-0.02,29.79
26026,0.3279,-0.0273,0.8646,-6.72,8.0,-0.03,29.8
26036,0.3263,-0.0276,0.8698,-6.7,7.97,-0.06,29.78
26046,0.3289,-0.0281,0.865,-6.73,8.02,0.0,29.79
26056,0.3282,-0.0267,0.8651,-6.7,7.94,-0.03,29.81
26066,0.3256,-0.0244,0.8627,-6.67,7.91,0.03,29.8
26076,0.3312,-0.0223,0.8624,-6.72,7.94,0.0,29.81
26086,0.3262,-0.0249,0.8625,-6.75,8.02,-0.09,29.81
26096,0.3258,-0.0259,0.8624,-6.79,7.97,-0.05,29.83
26106,0.3296,-0.0238,0.8646,-6.69,7.97,-0.09,29.78
26116,0.3306,-0.0282,0.8657,-6.79,7.95,-0.06,29.81
26126,0.3328,-0.0276,0.8624,-6.7,7.98,-0.05,29.83
26136,0.3263,-0.0278,0.8666,-6.72,8.02,-0.03,29.81
26146,0.329,-0.026,0.8616,-6.75,7.92,-0.05,29.82
26156,0.3296,-0.024,0.8575,-6.81,7.85,-0.06,29.81
26166,0.3226,-0.0239,0.8689,-6.72,7.95,-0.06,29.81
26176,0.3286,-0.0217,0.8698,-6.76,7.97,-0.02,29.8
26186,0.3278,-0.0234,0.8669,-6.72,8.06,0.0,29.82
26196,0.3254,-0.0258,0.8601,-6.78,7.88,-0.09,29.8
26206,0.3273,-0.0256,0.8628,-6.75,7.95,-0.06,29.8
26216,0.3291,-0.027,0.8666,-6.81,8.03,-0.08,29.79
26226,0.3265,-0.0299,0.8658,-6.72,8.02,-0.02,29.79
26236,0.3271,-0.0299,0.8638,-6.73,7.98,-0.08,29.82
26246,0.332,-0.0258,0.8663,-6.75,8.05,-0.02,29.8
26256,0.3296,-0.0233,0.8666,-6.76,7.98,-0.02,29.84
26266,0.3252,-0.0245,0.8638,-6.75,8.05,-0.02,29.8
26276,0.3267,-0.0236,0.864,-6.76,7.94,-0.09,29.82
26286,0.3274,-0.0236,0.8616,-6.7,7.91,-0.02,29.81
26296,0.3278,-0.0247,0.8661,-6.78,7.88,-0.03,29.81
26306,0.3278,-0.0266,0.866,-6.73,7.98,-0.05,29.82
26316,0.3269,-0.027,0.8654,-6.72,8.0,-0.11,29.78
26326,0.3281,-0.0243,0.8645,-6.73,7.92,-0.06,29.81
26336,0.3313,-0.0254,0.8724,-6.75,7.98,-0.02,29.79
26346,0.3318,-0.0253,0.8618,-6.67,8.06,-0.09,29.81
26356,0.3286,-0.0239,0.8629,-6.81,8.02,0.0,29.81
26366,0.3267,-0.0262,0.859,-6.73,7.94,-0.09,29.82
26376,0.3303,-0.0238,0.8629,-6.61,7.92,-0.03,29.8
26386,0.3273,-0.0236,0.864,-6.84,8.0,-0.05,29.81
26396,0.3242,-0.0261,0.8639,-6.73,7.97,-0.11,29.79
26406,0.3247,-0.0249,0.8647,-6.78,7.91,-0.08,29.83
26416,0.326,-0.0236,0.8667,-6.81,7.91,0.05,29.79
26426,0.3256,-0.03,0.8629,-6.72,8.0,-0.14,29.81
26436,0.3326,-0.0264,0.8669,-6.76,7.88,-0.09,29.81
26446,0.3274,-0.0264,0.8647,-6.75,7.89,0.02,29.79
26456,0.3256,-0.0254,0.8636,-6.75,7.83,0.0,29.8
26466,0.3267,-0.0265,0.8655,-6.64,8.0,-0.02,29.8
26476,0.329,-0.025,0.8617,-6.7,7.97,0.0,29.77
26486,0.3247,-0.0262,0.8606,-6.75,7.98,-0.03,29.82
26496,0.3276,-0.0276,0.8634,-6.78,7.94,-0.03,29.78
26506,0.3292,-0.024,0.8639,-6.69,8.02,-0.06,29.82
26516,0.3286,-0.0262,0.8638,-6.67,8.03,-0.08,29.79
26526,0.3298,-0.0269,0.8687,-6.72,7.97,-0.14,29.82
26536,0.3264,-0.0272,0.8638,-6.7,7.92,-0.08,29.79
26546,0.3281,-0.0234,0.8633,-6.7,7.91,-0.06,29.8
26556,0.3287,-0.0273,0.8628,-6.69,8.08,-0.02,29.82
26566,0.3271,-0.0269,0.8608,-6.7,8.05,0.02,29.82
26576,0.3278,-0.0258,0.8567,-6.78,7.91,-0.05,29.82
26586,0.3296,-0.024,0.8605,-6.73,7.86,-0.06,29.79
26596,0.3278,-0.0247,0.8668,-6.78,7.88,-0.06,29.8
26606,0.3278,-0.024,0.8665,-6.75,7.94,-0.06,29.8
26617,0.3269,-0.0273,0.8684,-6.67,7.95,-0.02,29.78
26627,0.3276,-0.0259,0.8677,-6.7,7.98,-0.05,29.81
26637,0.328,-0.0261,0.8621,-6.75,7.98,-0.09,29.82
26647,0.3297,-0.0265,0.8625,-6.69,8.0,-0.05,29.84
26657,0.3292,-0.0234,0.8622,-6.72,8.02,-0.08,29.82
26667,0.3267,-0.0251,0.8611,-6.82,7.97,-0.06,29.82
26677,0.3275,-0.0247,0.8641,-6.75,8.02,-0.09,29.81
26687,0.3276,-0.0255,0.8657,-6.75,7.94,-0.08,29.81
26697,0.3291,-0.0239,0.8655,-6.76,7.95,-0.02,29.83
26707,0.3303,-0.0272,0.866,-6.7,7.95,-0.02,29.82
26717,0.3284,-0.0282,0.8622,-6.69,7.97,-0.06,29.82
26727,0.3275,-0.0271,0.8663,-6.76,7.98,-0.08,29.81
26737,0.3269,-0.0243,0.8641,-6.66,7.97,0.0,29.82
26747,0.3282,-0.0222,0.8627,-6.76,7.97,-0.02,29.82
26757,0.3285,-0.0247,0.8628,-6.76,7.97,0.05,29.82
26767,0.3287,-0.0269,0.861,-6.76,8.03,-0.03,29.81
26777,0.3263,-0.0239,0.861,-6.76,7.92,0.03,29.83
26787,0.3257,-0.0259,0.8667,-6.75,7.97,-0.11,29.83
26797,0.3287,-0.0253,0.8656,-6.72,7.86,-0.03,29.8
26807,0.3279,-0.0233,0.8671,-6.72,7.95,0.06,29.82
26817,0.3293,-0.0284,0.865,-6.78,7.94,-0.06,29.82
26827,0.329,-0.0256,0.8632,-6.69,7.91,-0.06,29.82
26837,0.3271,-0.0269,0.8613,-6.72,7.98,-0.02,29.83
26847,0.328,-0.0294,0.8651,-6.76,7.92,-0.11,29.83
26857,0.3268,-0.0298,0.8657,-6.75,7.91,0.02,29.82
26867,0.329,-0.0265,0.8643,-6.64,7.95,0.0,29.84
26877,0.3265,-0.0249,0.864,-6.64,7.97,0.02,29.81
26887,0.3281,-0.0262,0.8622,-6.69,7.98,-0.09,29.82
26897,0.329,-0.0249,0.8645,-6.73,8.0,0.02,29.83
26907,0.3263,-0.0228,0.8634,-6.76,7.97,0.02,29.8
26917,0.3242,-0.0258,0.8658,-6.73,7.97,-0.08,29.82
26927,0.3235,-0.0219,0.8705,-6.67,7.91,0.03,29.8
26937,0.3301,-0.0193,0.8699,-6.53,8.05,-0.11,29.81
26947,0.3219,-0.0254,0.8658,-6.81,8.05,-0.03,29.84
26957,0.3245,-0.0288,0.8683,-6.69,7.97,-0.08,29.83
26967,0.328,-0.0253,0.8707,-6.76,7.97,-0.03,29.8
26977,0.3251,-0.0214,0.8676,-6.64,7.98,-0.09,29.81
26987,0.327,-0.0219,0.8628,-6.66,7.86,-0.03,29.81
26997,0.3322,-0.0221,0.8607,-6.67,7.89,-0.03,29.81
27007,0.3304,-0.0267,0.86,-6.69,7.98,-0.08,29.8
27017,0.3282,-0.0297,0.8586,-6.78,7.94,0.03,29.79
27027,0.3256,-0.0233,0.8666,-6.7,7.92,0.02,29.82
27038,0.3298,-0.0253,0.8691,-6.7,7.89,-0.03,29.83
27049,0.3306,-0.0253,0.8698,-6.72,7.97,-0.06,29.82
27059,0.3306,-0.0258,0.8667,-6.73,7.91,-0.03,29.81
27069,0.3303,-0.0276,0.8644,-6.7,7.94,-0.05,29.81
27079,0.3314,-0.0256,0.8656,-6.7,7.97,-0.05,29.81
27089,0.3271,-0.0276,0.8608,-6.75,8.06,0.09,29.83
27099,0.3256,-0.0275,0.8638,-6.73,7.98,-0.05,29.82
27109,0.3264,-0.026,0.8639,-6.7,7.95,0.0,29.81
27119,0.3268,-0.0243,0.8639,-6.61,7.98,-0.06,29.84
27129,0.3268,-0.0232,0.8657,-6.72,7.97,-0.08,29.83
27140,0.3291,-0.0229,0.8678,-6.78,7.92,-0.06,29.81
27150,0.3301,-0.0233,0.8647,-6.75,7.98,-0.02,29.82
27160,0.328,-0.0266,0.8673,-6.76,7.97,-0.09,29.8
27170,0.3306,-0.0258,0.8668,-6.79,7.98,-0.03,29.83
27180,0.3264,-0.0267,0.8613,-6.75,8.0,-0.05,29.84
27190,0.3271,-0.0264,0.8633,-6.76,8.03,-0.02,29.82
27200,0.3278,-0.024,0.8636,-6.81,7.98,-0.02,29.8
27210,0.3292,-0.024,0.8651,-6.72,7.89,-0.03,29.84
27220,0.3269,-0.0288,0.8672,-6.76,8.05,-0.14,29.82
27230,0.3308,-0.0253,0.8685,-6.72,7.98,-0.06,29.82
27240,0.3293,-0.0271,0.8707,-6.78,7.98,0.02,29.84
27250,0.3278,-0.0236,0.8647,-6.79,7.97,-0.06,29.83
27260,0.3301,-0.0271,0.8645,-6.67,7.97,-0.05,29.83
27270,0.3293,-0.0229,0.8683,-6.7,7.94,-0.03,29.82
27280,0.3311,-0.026,0.8667,-6.78,7.89,-0.11,29.81
27291,0.3269,-0.0284,0.8623,-6.81,8.0,-0.12,29.83
27301,0.3282,-0.0266,0.8676,-6.78,7.98,-0.03,29.82
27311,0.33,-0.028,0.8661,-6.67,8.02,0.0,29.83
27321,0.3298,-0.0242,0.8654,-6.81,8.0,0.0,29.84
27333,0.329,-0.0259,0.8656,-6.67,7.97,-0.11,29.85
27343,0.3287,-0.0253,0.8661,-6.79,7.97,-0.05,29.84
27353,0.3281,-0.0236,0.8661,-6.72,8.0,-0.05,29.82
27363,0.3268,-0.0256,0.8634,-6.73,7.91,-0.06,29.84
27373,0.3278,-0.0269,0.8586,-6.73,7.92,0.03,29.82
27383,0.3282,-0.0258,0.8647,-6.7,7.92,-0.06,29.82
27393,0.3295,-0.0282,0.8654,-6.69,7.94,0.0,29.82
27403,0.3276,-0.0273,0.8678,-6.64,7.98,-0.05,29.81
27413,0.3292,-0.0245,0.8677,-6.75,7.95,-0.08,29.82
27423,0.3279,-0.0253,0.8645,-6.78,7.92,-0.03,29.84
