t_ms,accel_x_g,accel_y_g,accel_z_g,gyro_x_dps,gyro_y_dps,gyro_z_dps,imu_temp_c
3286,0.208,-0.0305,0.8842,-6.5,7.86,-0.09,27.59
3297,0.2065,-0.0277,0.8859,-6.47,7.92,-0.05,27.59
3307,0.2073,-0.0267,0.8889,-6.56,7.94,-0.02,27.59
3317,0.2053,-0.0269,0.8877,-6.52,7.89,-0.02,27.59
3327,0.2072,-0.0283,0.8862,-6.55,7.95,-0.06,27.6
3337,0.2072,-0.0278,0.8844,-6.53,7.92,0.02,27.6
3347,0.2068,-0.0287,0.8862,-6.49,7.89,-0.12,27.6
3357,0.2081,-0.031,0.8866,-6.53,7.88,-0.03,27.62
3367,0.2073,-0.0293,0.8845,-6.5,7.92,-0.03,27.6
3377,0.2048,-0.0283,0.8875,-6.66,7.92,-0.02,27.59
3387,0.2067,-0.0283,0.8922,-6.61,7.89,-0.02,27.6
3397,0.2035,-0.0295,0.8876,-6.53,7.92,-0.09,27.6
3407,0.2076,-0.0261,0.887,-6.6,7.91,-0.05,27.6
3417,0.2051,-0.0308,0.8878,-6.55,7.95,-0.11,27.59
3427,0.2075,-0.0321,0.8878,-6.56,7.86,-0.05,27.59
3437,0.2067,-0.0262,0.8882,-6.5,7.92,-0.09,27.59
3447,0.2078,-0.0281,0.8883,-6.5,7.89,-0.05,27.63
3457,0.2076,-0.0298,0.8842,-6.58,7.89,-0.03,27.59
3467,0.2039,-0.0291,0.8868,-6.56,7.85,0.05,27.61
3477,0.2083,-0.0258,0.8888,-6.5,7.85,-0.03,27.62
3487,0.2109,-0.0282,0.8838,-6.58,7.82,-0.02,27.59
3497,0.2097,-0.0298,0.8834,-6.61,7.86,-0.08,27.62
3507,0.2068,-0.0302,0.8853,-6.56,7.86,-0.03,27.61
3517,0.2068,-0.0276,0.8866,-6.56,7.86,0.02,27.62
3527,0.2075,-0.0292,0.8844,-6.6,7.89,0.05,27.6
3537,0.2069,-0.0309,0.8881,-6.55,7.88,-0.06,27.64
3547,0.207,-0.0314,0.8837,-6.52,7.98,-0.06,27.61
3557,0.2063,-0.0302,0.8834,-6.5,7.88,-0.05,27.61
3567,0.2057,-0.026,0.887,-6.55,7.88,-0.09,27.61
3577,0.2072,-0.0291,0.8839,-6.53,7.88,-0.05,27.62
3587,0.2072,-0.0305,0.8868,-6.52,7.91,-0.05,27.59
3597,0.2053,-0.0305,0.8866,-6.55,7.92,0.0,27.61
3607,0.209,-0.0302,0.8853,-6.53,7.85,0.0,27.61
3617,0.2084,-0.0282,0.8867,-6.58,7.88,0.0,27.62
3627,0.2037,-0.0286,0.8844,-6.53,7.83,-0.05,27.62
3637,0.2052,-0.0305,0.8911,-6.55,7.89,-0.05,27.64
3647,0.2064,-0.0297,0.8899,-6.55,7.91,-0.03,27.61
3657,0.2081,-0.0298,0.8861,-6.56,7.88,0.05,27.63
3667,0.2037,-0.0299,0.8845,-6.63,7.98,-0.09,27.63
3677,0.2065,-0.0311,0.8829,-6.58,7.92,0.02,27.63
3687,0.2095,-0.03,0.887,-6.56,7.98,-0.03,27.64
3697,0.2067,-0.0287,0.8844,-6.55,7.97,-0.08,27.62
3707,0.2068,-0.0295,0.8871,-6.53,7.89,-0.06,27.63
3717,0.205,-0.0298,0.8892,-6.49,7.86,-0.02,27.6
3727,0.2076,-0.027,0.8851,-6.56,7.91,-0.02,27.63
3737,0.2091,-0.0287,0.8888,-6.55,7.94,-0.05,27.63
3747,0.2068,-0.0315,0.8885,-6.53,7.91,-0.02,27.63
3757,0.207,-0.0284,0.8876,-6.55,7.89,-0.05,27.62
3767,0.2069,-0.0295,0.8875,-6.64,7.86,-0.05,27.62
3777,0.2076,-0.0295,0.8834,-6.53,7.88,0.02,27.63
3787,0.2057,-0.0333,0.8865,-6.6,7.95,-0.02,27.64
3797,0.2064,-0.03,0.8833,-6.56,7.88,-0.05,27.63
3807,0.2085,-0.0304,0.8868,-6.55,7.98,-0.11,27.63
3817,0.2059,-0.0305,0.886,-6.49,8.02,0.0,27.63
3827,0.207,-0.0289,0.8894,-6.6,7.86,-0.02,27.64
3837,0.2075,-0.0311,0.8848,-6.56,7.85,-0.12,27.63
3847,0.2092,-0.0259,0.8887,-6.49,7.88,-0.06,27.62
3857,0.2061,-0.0282,0.8888,-6.49,8.02,-0.08,27.61
3867,0.2058,-0.0281,0.8862,-6.63,7.98,-0.06,27.62
3877,0.2078,-0.0291,0.8878,-6.49,7.91,-0.02,27.65
3887,0.21,-0.031,0.8848,-6.5,7.94,0.0,27.64
3897,0.2102,-0.0284,0.8894,-6.5,7.88,0.02,27.63
3907,0.2029,-0.0303,0.8887,-6.58,7.97,-0.08,27.65
3917,0.209,-0.0291,0.8876,-6.53,7.89,-0.06,27.64
3927,0.2057,-0.0277,0.8892,-6.58,7.91,-0.05,27.62
3937,0.2069,-0.0272,0.8889,-6.55,7.89,-0.03,27.63
3947,0.209,-0.0312,0.8894,-6.58,7.89,-0.11,27.66
3957,0.2042,-0.0347,0.8918,-6.53,7.94,-0.08,27.65
3967,0.2062,-0.04,0.8903,-6.52,7.98,0.03,27.64
3977,0.2065,-0.0334,0.8861,-6.46,7.92,0.03,27.66
3987,0.21,-0.025,0.8859,-6.43,7.88,-0.02,27.65
3997,0.2119,-0.02,0.8887,-6.49,7.82,0.02,27.66
4007,0.2054,-0.0203,0.8914,-6.47,7.98,-0.02,27.67
4017,0.208,-0.0222,0.8884,-6.63,7.97,-0.08,27.69
4027,0.21,-0.0239,0.8839,-6.56,7.97,-0.06,27.68
4037,0.208,-0.0233,0.8844,-6.6,7.95,-0.06,27.65
4047,0.2083,-0.0232,0.8795,-6.58,7.94,-0.06,27.66
4057,0.2063,-0.0278,0.8888,-6.72,7.89,0.03,27.66
4067,0.2052,-0.0295,0.8857,-6.67,7.79,-0.02,27.69
4077,0.2067,-0.0358,0.8881,-6.53,7.83,-0.08,27.66
4087,0.2063,-0.0352,0.8932,-6.58,7.86,-0.09,27.64
4097,0.2107,-0.0312,0.8922,-6.58,7.82,-0.03,27.65
4107,0.21,-0.0374,0.8884,-6.5,7.86,-0.08,27.67
4117,0.2122,-0.0383,0.8826,-6.49,7.79,-0.03,27.66
4127,0.2079,-0.0363,0.8787,-6.52,7.86,0.05,27.65
4137,0.2021,-0.0308,0.8798,-6.46,7.91,-0.02,27.67
4147,0.2076,-0.0248,0.8809,-6.5,7.89,-0.03,27.68
4157,0.2075,-0.0226,0.8832,-6.49,7.89,-0.06,27.66
4167,0.2059,-0.0154,0.892,-6.55,7.92,-0.03,27.67
4177,0.2098,-0.0183,0.8938,-6.53,7.85,-0.02,27.68
4187,0.2087,-0.0188,0.8951,-6.58,7.89,-0.06,27.64
4197,0.2097,-0.0312,0.8909,-6.72,7.92,0.03,27.65
4207,0.2089,-0.0447,0.8857,-6.56,7.94,-0.08,27.66
4217,0.207,-0.0479,0.8859,-6.46,7.86,-0.09,27.68
4227,0.2072,-0.035,0.8851,-6.41,7.89,0.02,27.67
4237,0.2072,-0.0265,0.8812,-6.5,7.91,0.06,27.69
4247,0.2054,-0.0255,0.8838,-6.64,7.88,-0.03,27.68
4257,0.2025,-0.0291,0.8832,-6.69,7.86,-0.08,27.69
4267,0.2054,-0.0337,0.8799,-6.55,7.89,-0.11,27.68
4277,0.2089,-0.0289,0.8925,-6.37,7.91,-0.11,27.67
4288,0.2094,-0.0238,0.8959,-6.43,7.89,-0.08,27.7
4298,0.2098,-0.0222,0.8884,-6.67,7.89,0.03,27.69
4308,0.2089,-0.0303,0.8855,-6.7,7.94,-0.03,27.67
4318,0.2078,-0.0303,0.8854,-6.58,7.95,0.0,27.67
4328,0.2078,-0.025,0.8857,-6.46,7.92,-0.12,27.67
4338,0.2056,-0.0233,0.8877,-6.52,7.95,-0.05,27.66
4348,0.2081,-0.032,0.8927,-6.66,7.91,-0.05,27.68
4358,0.1952,-0.037,0.8893,-6.6,7.94,0.18,27.67
4369,0.2078,-0.0461,0.8771,-6.67,7.85,-0.06,27.66
4379,0.2087,-0.0391,0.8839,-6.41,8.02,-0.06,27.66
4389,0.212,-0.0273,0.8818,-6.49,7.85,-0.08,27.68
4399,0.2094,-0.0251,0.8876,-6.56,7.88,0.02,27.67
4409,0.2072,-0.0249,0.8872,-6.56,7.97,-0.05,27.68
4419,0.2107,-0.0239,0.8899,-6.55,7.95,-0.15,27.67
4429,0.2079,-0.0237,0.8927,-6.49,7.86,-0.14,27.68
4439,0.2084,-0.0209,0.892,-6.61,7.95,-0.03,27.67
4449,0.2064,-0.0304,0.8871,-6.6,7.97,-0.02,27.7
4459,0.2064,-0.0337,0.8821,-6.58,7.92,0.02,27.66
4469,0.207,-0.0376,0.8781,-6.56,8.02,0.02,27.69
4479,0.209,-0.0327,0.8839,-6.47,7.92,-0.05,27.69
4489,0.2081,-0.0273,0.8885,-6.53,7.89,-0.03,27.7
4499,0.2073,-0.0294,0.8909,-6.64,8.02,-0.03,27.7
4509,0.2058,-0.0316,0.8895,-6.64,7.91,-0.06,27.66
4519,0.2051,-0.0354,0.886,-6.58,7.92,-0.09,27.67
4529,0.2048,-0.0319,0.889,-6.43,7.97,-0.12,27.66
4539,0.2073,-0.0289,0.8906,-6.53,7.91,-0.08,27.66
4549,0.2053,-0.0258,0.8861,-6.61,7.89,-0.08,27.68
4559,0.2045,-0.0255,0.884,-6.6,7.92,-0.02,27.68
4569,0.2076,-0.0258,0.8882,-6.63,7.88,-0.02,27.67
4579,0.2081,-0.0251,0.8856,-6.58,7.82,0.02,27.68
4589,0.2118,-0.026,0.8883,-6.56,7.89,-0.08,27.7
4599,0.2074,-0.0308,0.8876,-6.61,7.92,-0.06,27.71
4609,0.2076,-0.0352,0.8873,-6.53,8.03,0.0,27.69
4619,0.207,-0.0378,0.8824,-6.55,7.94,0.0,27.7
4629,0.2069,-0.0355,0.886,-6.5,7.89,0.06,27.7
4639,0.2069,-0.0312,0.8854,-6.49,7.86,0.0,27.68
4649,0.208,-0.0297,0.8906,-6.55,7.88,0.02,27.7
4659,0.208,-0.0262,0.8899,-6.58,7.95,-0.03,27.67
4669,0.2076,-0.0249,0.8907,-6.53,7.89,0.0,27.69
4679,0.2081,-0.0248,0.8884,-6.53,7.95,-0.09,27.7
4689,0.2102,-0.0281,0.8855,-6.52,7.94,-0.05,27.7
4699,0.207,-0.028,0.887,-6.5,7.94,0.0,27.68
4709,0.2054,-0.0317,0.8839,-6.53,7.89,-0.06,27.71
4719,0.2065,-0.0278,0.886,-6.58,7.82,0.02,27.72
4729,0.2081,-0.0251,0.8871,-6.55,7.95,-0.02,27.72
4739,0.2057,-0.0289,0.889,-6.61,7.94,-0.03,27.71
4749,0.208,-0.0315,0.8838,-6.61,7.94,-0.09,27.69
4759,0.2087,-0.0359,0.8895,-6.56,8.0,-0.03,27.71
4769,0.2076,-0.0367,0.8878,-6.5,7.91,-0.06,27.71
4779,0.2073,-0.0328,0.8856,-6.55,7.92,-0.06,27.69
4789,0.2069,-0.0311,0.8917,-6.6,7.94,-0.02,27.71
4799,0.2053,-0.0248,0.8879,-6.58,7.91,-0.05,27.7
4809,0.2073,-0.0212,0.8851,-6.52,7.85,-0.03,27.69
4819,0.2091,-0.0242,0.8811,-6.53,7.92,-0.03,27.7
4829,0.2074,-0.0236,0.8833,-6.52,8.0,-0.02,27.7
4839,0.2062,-0.028,0.8865,-6.56,7.92,-0.09,27.71
4849,0.2045,-0.0282,0.8892,-6.61,7.92,-0.06,27.72
4859,0.2069,-0.0326,0.886,-6.52,7.91,-0.02,27.72
4869,0.2083,-0.0316,0.8837,-6.47,8.0,0.06,27.72
4879,0.2081,-0.0309,0.8837,-6.55,7.92,-0.02,27.71
4889,0.2073,-0.0298,0.8895,-6.61,7.91,-0.03,27.69
4899,0.2057,-0.0291,0.8906,-6.52,7.88,0.03,27.72
4909,0.2064,-0.0309,0.8885,-6.52,7.91,-0.11,27.71
4919,0.2086,-0.0287,0.8853,-6.52,7.91,-0.05,27.72
4929,0.2053,-0.0306,0.8877,-6.53,7.94,-0.09,27.72
4939,0.2047,-0.031,0.8876,-6.46,7.94,-0.03,27.74
4949,0.2042,-0.0289,0.8855,-6.52,7.91,-0.08,27.73
4959,0.2084,-0.0275,0.8867,-6.53,7.92,-0.08,27.7
4969,0.2092,-0.0256,0.8872,-6.5,7.91,-0.05,27.72
4979,0.2065,-0.0267,0.8834,-6.6,7.92,-0.03,27.71
4989,0.2081,-0.0282,0.8873,-6.56,7.88,-0.09,27.75
4999,0.2037,-0.0291,0.8831,-6.55,7.91,0.02,27.73
5009,0.2069,-0.0336,0.8854,-6.63,7.91,-0.05,27.73
5019,0.2062,-0.0327,0.8835,-6.63,7.85,-0.06,27.71
5029,0.2101,-0.0287,0.8873,-6.52,7.94,-0.05,27.71
5039,0.2086,-0.0264,0.8883,-6.63,7.92,-0.02,27.72
5049,0.2078,-0.0294,0.887,-6.61,7.85,-0.03,27.74
5059,0.2074,-0.0276,0.8837,-6.53,7.91,-0.11,27.72
5069,0.2053,-0.0286,0.8873,-6.52,7.88,-0.05,27.72
5079,0.207,-0.027,0.8868,-6.49,7.95,-0.12,27.7
5089,0.2051,-0.0286,0.8884,-6.6,7.98,-0.05,27.73
5099,0.2069,-0.0269,0.8892,-6.61,7.88,-0.11,27.72
5109,0.2087,-0.027,0.8861,-6.58,7.89,0.02,27.71
5120,0.2065,-0.0286,0.8843,-6.53,7.94,0.0,27.73
5130,0.207,-0.0275,0.8895,-6.6,7.92,-0.08,27.71
5140,0.2043,-0.0287,0.889,-6.64,7.94,-0.11,27.7
5150,0.208,-0.033,0.8861,-6.47,7.92,-0.15,27.71
5160,0.209,-0.0311,0.8855,-6.53,7.98,-0.06,27.74
5170,0.2081,-0.0334,0.8862,-6.5,7.95,-0.02,27.72
5180,0.2057,-0.032,0.8845,-6.53,7.94,-0.02,27.75
5190,0.2083,-0.0294,0.8905,-6.61,7.94,-0.05,27.74
5200,0.2089,-0.0286,0.89,-6.63,7.88,0.0,27.71
5210,0.2034,-0.0291,0.8864,-6.46,7.86,0.05,27.75
5220,0.2083,-0.0283,0.8866,-6.53,7.91,-0.02,27.73
5230,0.2056,-0.0278,0.8878,-6.55,7.95,-0.03,27.73
5240,0.2059,-0.0284,0.8851,-6.5,7.89,-0.12,27.72
5250,0.2085,-0.0289,0.8881,-6.56,7.92,-0.06,27.71
5260,0.2089,-0.0311,0.8853,-6.66,7.97,-0.11,27.72
5270,0.2046,-0.0291,0.8804,-6.61,7.95,-0.12,27.74
5280,0.1996,-0.0294,0.8829,-6.73,7.92,-0.03,27.73
5290,0.2051,-0.0328,0.8752,-6.69,7.73,-0.03,27.73
5300,0.2057,-0.0356,0.8795,-6.61,7.95,-0.05,27.74
5310,0.2063,-0.0353,0.8839,-6.5,7.88,-0.08,27.75
5320,0.2087,-0.0308,0.8918,-6.5,7.91,-0.02,27.72
5330,0.2052,-0.0266,0.8969,-6.56,7.91,-0.08,27.72
5340,0.21,-0.0216,0.8951,-6.66,7.86,-0.03,27.73
5350,0.2079,-0.0216,0.8933,-6.63,7.85,-0.08,27.73
5360,0.2104,-0.0243,0.8851,-6.73,7.83,-0.08,27.73
5370,0.2106,-0.0254,0.8854,-6.58,7.86,-0.11,27.74
5380,0.2118,-0.0302,0.884,-6.56,7.91,-0.08,27.75
5390,0.2106,-0.0317,0.885,-6.52,7.95,-0.02,27.74
5400,0.2112,-0.0349,0.8833,-6.52,7.97,-0.03,27.72
5410,0.2098,-0.0347,0.8875,-6.58,7.89,0.05,27.72
5420,0.2051,-0.0327,0.89,-6.61,7.91,-0.05,27.74
5430,0.2052,-0.0333,0.8883,-6.58,7.89,0.06,27.76
5440,0.2029,-0.0321,0.8878,-6.55,7.91,-0.03,27.76
5450,0.2059,-0.0269,0.8857,-6.49,7.85,-0.12,27.79
5460,0.2051,-0.0288,0.8893,-6.43,7.85,-0.08,27.76
5470,0.2059,-0.0258,0.887,-6.58,7.89,-0.17,27.75
5480,0.2047,-0.0227,0.8877,-6.56,7.85,-0.03,27.74
5490,0.2087,-0.0229,0.8834,-6.55,7.98,-0.03,27.72
5500,0.2096,-0.0254,0.8861,-6.64,7.8,0.0,27.74
5510,0.2086,-0.0273,0.8823,-6.67,7.88,-0.02,27.71
5520,0.2089,-0.0288,0.8911,-6.52,7.83,-0.03,27.75
5530,0.2086,-0.0345,0.8884,-6.63,7.85,-0.08,27.71
5540,0.2086,-0.0341,0.8892,-6.63,7.83,-0.05,27.76
5550,0.2073,-0.0369,0.894,-6.6,7.86,-0.06,27.76
5560,0.2047,-0.0322,0.8875,-6.6,7.92,-0.12,27.72
5570,0.2084,-0.0323,0.8893,-6.52,7.92,-0.02,27.74
5580,0.2064,-0.0291,0.8851,-6.58,7.89,-0.12,27.74
5590,0.2084,-0.0299,0.8828,-6.55,7.89,-0.08,27.75
5600,0.2036,-0.0269,0.8899,-6.56,7.89,-0.05,27.74
5610,0.1997,-0.0254,0.8931,-6.53,8.21,-0.12,27.76
5620,0.2073,-0.0276,0.8821,-6.67,7.85,-0.06,27.78
5630,0.2063,-0.024,0.8824,-6.56,7.79,0.02,27.77
5640,0.2046,-0.0253,0.8846,-6.56,7.86,0.05,27.77
5650,0.2095,-0.0236,0.8846,-6.63,7.73,-0.08,27.77
5660,0.2133,-0.0303,0.8822,-6.55,7.8,-0.06,27.76
5670,0.2073,-0.0366,0.8921,-6.6,7.88,-0.02,27.76
5680,0.2097,-0.035,0.8834,-6.69,7.85,-0.06,27.77
5690,0.2091,-0.035,0.8883,-6.7,7.88,-0.03,27.78
5700,0.2079,-0.0354,0.8909,-6.6,7.94,0.0,27.78
5710,0.2076,-0.0288,0.8845,-6.61,7.88,0.03,27.77
5720,0.2062,-0.0249,0.8875,-6.49,8.02,-0.09,27.74
5730,0.207,-0.0275,0.8911,-6.55,7.88,-0.05,27.77
5740,0.2063,-0.0244,0.8867,-6.52,7.92,-0.05,27.77
5750,0.2047,-0.0269,0.8876,-6.6,7.92,-0.08,27.75
5760,0.207,-0.0258,0.8887,-6.61,7.88,-0.08,27.77
5770,0.2106,-0.0251,0.8861,-6.52,7.83,0.0,27.75
5780,0.2062,-0.0286,0.8888,-6.5,7.88,-0.05,27.76
5790,0.2047,-0.0272,0.8844,-6.52,7.88,-0.03,27.79
5800,0.2081,-0.0322,0.8885,-6.58,7.91,-0.08,27.78
5810,0.2067,-0.0383,0.8881,-6.56,7.88,-0.02,27.75
5820,0.2065,-0.038,0.8884,-6.58,7.8,-0.05,27.77
5830,0.2069,-0.0342,0.8909,-6.52,7.86,-0.11,27.75
5840,0.2073,-0.0259,0.8928,-6.56,7.83,-0.05,27.76
5850,0.2101,-0.0211,0.891,-6.55,7.89,-0.06,27.8
5860,0.2118,-0.0222,0.8877,-6.56,7.86,-0.09,27.77
5870,0.2118,-0.0231,0.8893,-6.56,7.92,-0.11,27.75
5880,0.2098,-0.0277,0.8878,-6.63,7.92,-0.08,27.74
5890,0.205,-0.0273,0.8824,-6.67,7.97,-0.02,27.76
5900,0.203,-0.028,0.88,-6.69,7.89,0.0,27.77
5910,0.2029,-0.0304,0.8798,-6.55,7.88,0.06,27.75
5920,0.2029,-0.0302,0.8842,-6.55,7.85,-0.02,27.76
5930,0.2084,-0.0319,0.8894,-6.56,7.8,0.02,27.78
5940,0.2124,-0.035,0.8943,-6.66,7.86,0.03,27.77
5950,0.2111,-0.0365,0.8944,-6.64,7.91,0.02,27.74
5960,0.2102,-0.0377,0.8921,-6.52,7.94,-0.03,27.75
5970,0.2083,-0.0356,0.8881,-6.47,7.92,0.0,27.78
5980,0.2079,-0.0314,0.8823,-6.55,7.97,-0.05,27.76
5990,0.2056,-0.0278,0.8812,-6.56,7.86,-0.06,27.77
6000,0.2074,-0.0219,0.8805,-6.55,7.92,-0.02,27.75
6010,0.2061,-0.0203,0.8831,-6.5,7.94,-0.05,27.78
6020,0.2054,-0.0208,0.885,-6.6,7.91,-0.05,27.78
6030,0.2069,-0.0232,0.8884,-6.55,7.98,0.05,27.76
6040,0.2085,-0.0289,0.8922,-6.61,7.88,-0.06,27.77
6050,0.2079,-0.0226,0.8964,-6.6,7.92,-0.03,27.73
6060,0.208,-0.0304,0.8854,-6.53,7.97,0.02,27.78
6070,0.2057,-0.033,0.8865,-6.52,7.92,-0.06,27.78
6080,0.2067,-0.0347,0.8843,-6.55,7.95,0.0,27.76
6090,0.2057,-0.0352,0.8857,-6.58,7.94,-0.12,27.77
6100,0.207,-0.0339,0.8896,-6.53,7.88,-0.05,27.77
6110,0.2069,-0.0312,0.887,-6.56,7.89,-0.03,27.77
6120,0.2076,-0.0276,0.8892,-6.53,7.97,-0.03,27.75
6130,0.2092,-0.0258,0.8895,-6.55,7.88,-0.03,27.77
6140,0.2086,-0.0261,0.8894,-6.56,7.98,-0.03,27.77
6150,0.2074,-0.0269,0.8862,-6.53,7.98,0.02,27.77
6160,0.2086,-0.031,0.8873,-6.46,7.94,0.0,27.78
6170,0.2057,-0.031,0.8911,-6.58,7.92,-0.06,27.76
6180,0.2078,-0.0312,0.8894,-6.58,7.91,-0.03,27.76
6190,0.2059,-0.0271,0.8892,-6.58,7.83,-0.08,27.79
6200,0.2078,-0.0282,0.8875,-6.63,7.89,-0.03,27.76
6210,0.2079,-0.0303,0.8855,-6.6,7.88,-0.05,27.79
6220,0.2086,-0.0336,0.887,-6.55,7.94,-0.06,27.77
6230,0.2112,-0.0341,0.8855,-6.56,7.79,-0.02,27.76
6240,0.2068,-0.0304,0.8839,-6.47,7.97,-0.03,27.77
6250,0.2059,-0.0327,0.8879,-6.61,7.97,-0.02,27.77
6260,0.2061,-0.0283,0.8884,-6.64,8.02,0.0,27.79
6270,0.2045,-0.0275,0.8914,-6.53,7.97,0.0,27.79
6280,0.2064,-0.0295,0.8866,-6.53,7.95,-0.08,27.77
6290,0.2057,-0.025,0.8853,-6.6,7.91,-0.05,27.78
6300,0.2052,-0.0302,0.8823,-6.53,7.94,-0.05,27.77
6310,0.2074,-0.0276,0.8833,-6.61,8.0,-0.06,27.79
6320,0.207,-0.0295,0.8876,-6.61,8.05,-0.02,27.78
6330,0.2087,-0.0317,0.8866,-6.61,7.98,-0.05,27.78
6340,0.2056,-0.0306,0.8866,-6.56,7.92,-0.03,27.77
6350,0.2078,-0.0275,0.8834,-6.56,7.91,-0.02,27.78
6361,0.2114,-0.0293,0.8892,-6.58,7.92,0.0,27.79
6371,0.2081,-0.0347,0.8885,-6.52,7.97,0.05,27.77
6381,0.2089,-0.0316,0.8876,-6.55,7.91,-0.08,27.78
6391,0.2095,-0.0288,0.8877,-6.55,7.97,0.03,27.77
6401,0.2057,-0.0281,0.8875,-6.64,7.98,0.0,27.77
6411,0.2054,-0.0282,0.8896,-6.64,7.95,0.0,27.79
6421,0.2073,-0.0292,0.8892,-6.58,7.89,-0.06,27.79
6431,0.2068,-0.0283,0.884,-6.56,7.89,-0.02,27.79
6446,0.2107,-0.0277,0.8859,-6.4,7.85,0.09,27.79
6456,0.2096,-0.0311,0.8851,-6.6,7.86,-0.05,27.81
6467,0.2102,-0.0339,0.8864,-6.64,7.94,-0.06,27.79
6477,0.2092,-0.0312,0.891,-6.61,7.89,-0.05,27.81
6487,0.205,-0.0275,0.8867,-6.64,8.0,-0.03,27.79
6497,0.2057,-0.0294,0.8877,-6.58,7.94,-0.06,27.78
6508,0.2057,-0.0292,0.8833,-6.58,7.89,-0.06,27.8
6518,0.2092,-0.0294,0.8857,-6.5,7.91,-0.03,27.79
6528,0.2056,-0.0283,0.8861,-6.63,7.89,-0.02,27.8
6538,0.2079,-0.0287,0.8843,-6.52,7.91,-0.11,27.81
6548,0.2061,-0.0242,0.8837,-6.66,8.0,-0.05,27.78
6558,0.2064,-0.0261,0.8827,-6.49,7.91,-0.02,27.79
6568,0.2053,-0.0283,0.8889,-6.56,7.92,-0.08,27.8
6578,0.205,-0.0289,0.8889,-6.53,7.86,-0.08,27.81
6588,0.2065,-0.0319,0.8872,-6.64,7.95,-0.08,27.8
6598,0.2096,-0.0287,0.8853,-6.53,7.86,-0.06,27.77
6608,0.209,-0.032,0.8912,-6.67,7.94,-0.06,27.8
6618,0.2079,-0.0302,0.8898,-6.61,7.91,0.0,27.83
6628,0.2094,-0.0299,0.8875,-6.56,7.91,-0.05,27.81
6639,0.2046,-0.0299,0.8867,-6.44,7.95,-0.08,27.8
6649,0.2039,-0.0289,0.8853,-6.6,7.97,-0.08,27.79
6659,0.2064,-0.0293,0.8827,-6.63,7.97,-0.08,27.8
6669,0.2063,-0.0284,0.8878,-6.63,7.95,-0.02,27.79
6679,0.2075,-0.0249,0.8879,-6.6,7.91,-0.12,27.78
6689,0.21,-0.031,0.8868,-6.61,7.92,-0.08,27.8
6699,0.2064,-0.0277,0.8934,-6.63,7.91,-0.08,27.79
6709,0.2061,-0.0277,0.8906,-6.58,7.85,-0.03,27.82
6719,0.2061,-0.0294,0.8871,-6.53,7.89,-0.06,27.8
6729,0.2058,-0.0293,0.8879,-6.64,7.88,0.02,27.79
6739,0.2087,-0.0304,0.8907,-6.6,7.89,0.02,27.81
6749,0.208,-0.0292,0.8854,-6.61,7.86,0.02,27.8
6759,0.2079,-0.03,0.8879,-6.58,7.88,-0.05,27.79
6769,0.2075,-0.03,0.8881,-6.53,7.92,-0.06,27.79
6779,0.2094,-0.0289,0.8883,-6.55,7.86,-0.11,27.78
6789,0.2068,-0.0271,0.8837,-6.56,7.89,-0.14,27.82
6799,0.2053,-0.0273,0.8873,-6.58,7.91,-0.02,27.82
6809,0.2052,-0.028,0.8855,-6.6,7.92,-0.14,27.81
6819,0.2068,-0.0291,0.8843,-6.5,7.92,-0.03,27.79
6829,0.2061,-0.0288,0.8844,-6.6,7.98,-0.09,27.8
6839,0.2067,-0.0302,0.8877,-6.6,7.88,-0.02,27.78
6849,0.2087,-0.03,0.8864,-6.58,7.94,-0.11,27.8
6859,0.2086,-0.031,0.8871,-6.66,7.94,-0.03,27.8
6869,0.2101,-0.0311,0.8901,-6.49,7.95,0.02,27.79
6879,0.2076,-0.0328,0.8854,-6.6,7.83,-0.05,27.79
6889,0.2068,-0.0317,0.8867,-6.61,7.89,-0.06,27.82
6899,0.2084,-0.0308,0.8866,-6.5,7.91,-0.05,27.82
6909,0.2076,-0.0297,0.8885,-6.56,7.98,0.02,27.81
6919,0.207,-0.0283,0.891,-6.56,7.94,-0.08,27.82
6929,0.2075,-0.0289,0.8888,-6.6,8.03,-0.12,27.81
6940,0.2045,-0.031,0.8888,-6.56,7.97,0.03,27.8
6950,0.2069,-0.0312,0.8883,-6.5,7.95,-0.05,27.81
6961,0.2085,-0.0303,0.8895,-6.53,7.95,-0.06,27.83
6971,0.2084,-0.0291,0.8848,-6.56,7.88,-0.09,27.81
6981,0.2103,-0.0316,0.885,-6.63,7.92,-0.05,27.81
6991,0.2104,-0.0327,0.8862,-6.64,7.97,-0.02,27.83
7001,0.2111,-0.0287,0.8862,-6.64,7.98,-0.05,27.82
7011,0.2101,-0.0293,0.889,-6.55,8.02,0.03,27.82
7021,0.2059,-0.0283,0.8894,-6.47,8.02,-0.05,27.79
7031,0.2087,-0.0278,0.8868,-6.67,7.91,-0.06,27.82
7041,0.1938,-0.0293,0.8907,-6.53,8.14,-0.05,27.8
7051,0.2054,-0.0245,0.8795,-6.67,7.88,-0.03,27.8
7061,0.2024,-0.0275,0.8792,-6.56,7.94,-0.02,27.82
7071,0.2047,-0.031,0.8898,-6.61,7.88,-0.06,27.8
7081,0.2046,-0.0266,0.8807,-6.69,7.91,-0.09,27.81
7091,0.2064,-0.0289,0.8865,-6.5,7.91,-0.08,27.82
7101,0.2086,-0.0342,0.8903,-6.58,7.94,-0.02,27.82
7111,0.208,-0.0306,0.8981,-6.64,8.0,-0.03,27.83
7121,0.2128,-0.0305,0.8939,-6.53,7.94,-0.08,27.79
7131,0.2098,-0.0319,0.8939,-6.61,7.97,-0.06,27.8
7141,0.2091,-0.0281,0.8876,-6.53,7.95,-0.11,27.84
7151,0.2092,-0.0292,0.8877,-6.56,7.89,-0.03,27.84
7161,0.2087,-0.0289,0.8848,-6.56,7.97,-0.12,27.83
7171,0.2061,-0.0248,0.8778,-6.61,7.89,0.0,27.83
7181,0.2056,-0.027,0.8806,-6.67,7.86,-0.06,27.83
7191,0.2026,-0.0293,0.8794,-6.66,7.86,-0.03,27.81
7201,0.2091,-0.0259,0.886,-6.61,7.83,-0.06,27.81
7211,0.2115,-0.0273,0.8853,-6.56,7.89,-0.06,27.8
7221,0.2096,-0.03,0.8878,-6.61,7.88,-0.02,27.84
7231,0.2115,-0.0293,0.8916,-6.56,7.91,-0.11,27.85
7241,0.2117,-0.0358,0.8906,-6.58,7.95,-0.06,27.82
7251,0.2067,-0.0289,0.8883,-6.63,7.91,-0.09,27.84
7261,0.2087,-0.0311,0.8909,-6.52,7.97,0.02,27.83
7271,0.2046,-0.0277,0.8905,-6.67,7.92,0.02,27.83
7281,0.2089,-0.0259,0.8854,-6.6,7.94,0.0,27.85
7291,0.2081,-0.0243,0.8855,-6.63,8.0,-0.09,27.82
7301,0.2034,-0.025,0.8805,-6.6,7.89,-0.08,27.83
7311,0.2036,-0.0291,0.8807,-6.63,7.82,-0.02,27.85
7321,0.2063,-0.0265,0.886,-6.64,7.97,-0.09,27.82
7331,0.2063,-0.0317,0.8875,-6.61,7.85,-0.06,27.82
7341,0.2076,-0.03,0.8882,-6.58,7.88,0.0,27.81
7351,0.2085,-0.0287,0.8849,-6.58,7.89,-0.05,27.82
7361,0.2085,-0.0284,0.8855,-6.64,7.95,-0.05,27.84
7371,0.2089,-0.031,0.8904,-6.61,7.92,-0.03,27.84
7381,0.2096,-0.0322,0.8877,-6.56,7.92,0.02,27.83
7391,0.2091,-0.0323,0.8909,-6.58,7.88,-0.06,27.83
7401,0.2075,-0.0315,0.8851,-6.6,7.92,-0.06,27.83
7411,0.2068,-0.0297,0.885,-6.56,7.88,-0.11,27.84
7421,0.2069,-0.0269,0.8877,-6.58,7.88,-0.03,27.83
7431,0.2026,-0.0266,0.886,-6.63,7.97,-0.02,27.82
7441,0.207,-0.0293,0.889,-6.52,7.91,-0.03,27.83
7451,0.2065,-0.0295,0.8773,-6.49,7.85,-0.11,27.84
7461,0.2051,-0.0334,0.8779,-6.55,7.89,-0.03,27.84
7471,0.2068,-0.0289,0.8866,-6.56,7.85,0.0,27.83
7481,0.2076,-0.0287,0.8899,-6.52,7.89,-0.09,27.83
7491,0.2134,-0.026,0.8899,-6.6,7.86,0.0,27.84
7501,0.2136,-0.0234,0.8938,-6.63,7.94,-0.08,27.81
7511,0.209,-0.0264,0.8934,-6.64,7.91,-0.08,27.82
7521,0.2118,-0.0277,0.8911,-6.53,7.85,-0.06,27.81
7531,0.2061,-0.0314,0.8876,-6.6,7.97,-0.12,27.81
7541,0.2032,-0.0334,0.8849,-6.6,7.92,-0.03,27.82
7551,0.2047,-0.0308,0.8799,-6.6,7.92,-0.03,27.82
7561,0.2012,-0.0306,0.8773,-6.63,7.79,0.02,27.85
7571,0.202,-0.0316,0.8801,-6.63,7.8,-0.09,27.83
7581,0.2042,-0.0288,0.88,-6.56,7.94,-0.11,27.82
7591,0.2072,-0.0322,0.8873,-6.52,7.89,-0.08,27.84
7601,0.209,-0.0348,0.8916,-6.6,7.89,-0.09,27.84
7611,0.2129,-0.0339,0.8931,-6.55,7.92,-0.05,27.83
7621,0.2108,-0.0337,0.8859,-6.55,7.88,-0.08,27.8
7631,0.2113,-0.0304,0.8909,-6.64,7.85,-0.05,27.84
7641,0.2108,-0.0264,0.8879,-6.56,7.97,-0.05,27.82
7651,0.2098,-0.0245,0.8882,-6.6,7.94,-0.06,27.83
7661,0.2078,-0.0216,0.8875,-6.63,7.88,0.0,27.84
7671,0.2057,-0.0264,0.8865,-6.66,7.94,0.02,27.82
7681,0.2073,-0.0289,0.8839,-6.61,7.94,-0.08,27.84
7691,0.2037,-0.0281,0.8843,-6.52,7.98,-0.03,27.84
7701,0.2063,-0.0341,0.8861,-6.61,7.97,0.0,27.83
7711,0.2062,-0.0333,0.8834,-6.58,7.88,-0.09,27.83
7721,0.2057,-0.0342,0.8885,-6.52,7.91,-0.06,27.85
7731,0.2097,-0.0349,0.8834,-6.56,7.83,-0.05,27.82
7741,0.2084,-0.0331,0.8884,-6.58,7.83,0.05,27.83
7751,0.2063,-0.0297,0.891,-6.52,7.86,0.0,27.83
7761,0.209,-0.0304,0.8939,-6.46,7.88,-0.05,27.82
7771,0.2109,-0.0253,0.8885,-6.5,7.89,-0.02,27.86
7781,0.2075,-0.0233,0.8857,-6.58,7.89,0.0,27.85
7791,0.2056,-0.0249,0.8867,-6.58,7.97,-0.03,27.85
7801,0.2048,-0.0261,0.8804,-6.58,7.92,-0.05,27.82
7811,0.2061,-0.03,0.881,-6.64,7.86,0.02,27.83
7821,0.2048,-0.0311,0.8894,-6.56,7.92,-0.05,27.85
7831,0.207,-0.0317,0.8888,-6.52,7.92,-0.06,27.83
7841,0.2083,-0.032,0.8926,-6.47,7.94,-0.02,27.84
7851,0.2106,-0.0321,0.89,-6.53,7.89,-0.06,27.84
7861,0.2073,-0.0336,0.8914,-6.52,7.89,-0.03,27.85
7871,0.2065,-0.0344,0.8879,-6.5,7.88,0.0,27.85
7881,0.2083,-0.0319,0.8835,-6.5,7.92,-0.08,27.83
7891,0.2075,-0.0323,0.8853,-6.61,7.94,-0.08,27.83
7901,0.2076,-0.0286,0.8822,-6.58,7.89,-0.05,27.85
7911,0.2028,-0.0278,0.8811,-6.6,7.88,-0.02,27.87
7921,0.2021,-0.0229,0.8871,-6.55,7.98,-0.03,27.85
7931,0.2041,-0.0222,0.8822,-6.47,7.98,-0.05,27.84
7941,0.2069,-0.02,0.8856,-6.53,7.94,-0.03,27.84
7951,0.1949,-0.0175,0.9039,-6.56,8.29,-0.03,27.84
7961,0.2006,-0.0238,0.9033,-6.5,8.27,-0.09,27.87
7971,0.2102,-0.0276,0.8925,-6.58,7.85,-0.03,27.86
7981,0.2069,-0.0311,0.8885,-6.6,7.86,0.0,27.85
7991,0.2118,-0.0344,0.8821,-6.53,7.69,0.08,27.86
8001,0.2109,-0.037,0.8748,-6.61,7.79,0.0,27.85
8011,0.2051,-0.0332,0.8777,-6.53,7.91,0.0,27.83
8021,0.2035,-0.0291,0.8752,-6.58,7.85,-0.02,27.87
8031,0.203,-0.0276,0.8837,-6.53,7.94,-0.05,27.84
8041,0.2018,-0.0291,0.8818,-6.6,7.98,-0.05,27.86
8051,0.2091,-0.0261,0.8866,-6.72,7.83,0.02,27.85
8061,0.2065,-0.0276,0.8884,-6.56,7.89,-0.12,27.86
8071,0.2089,-0.0278,0.8933,-6.58,7.91,-0.02,27.84
8081,0.2108,-0.0277,0.8901,-6.53,7.89,0.02,27.86
8091,0.212,-0.0295,0.8912,-6.6,7.82,-0.06,27.86
8101,0.209,-0.0262,0.8918,-6.63,7.88,-0.05,27.85
8111,0.2069,-0.0267,0.89,-6.58,7.94,-0.08,27.85
8121,0.208,-0.0319,0.8868,-6.49,7.92,0.0,27.85
8131,0.2073,-0.0341,0.8865,-6.63,7.89,-0.06,27.84
8141,0.204,-0.0371,0.8817,-6.56,7.92,-0.06,27.86
8151,0.2057,-0.0354,0.882,-6.63,7.86,-0.08,27.84
8161,0.2076,-0.0331,0.8774,-6.52,7.94,-0.11,27.87
8171,0.2043,-0.0291,0.8807,-6.55,7.91,-0.11,27.88
8181,0.2048,-0.0254,0.8862,-6.5,7.76,0.0,27.85
8191,0.2041,-0.0255,0.8905,-6.49,7.91,-0.08,27.85
8201,0.2043,-0.0243,0.8928,-6.5,7.88,-0.06,27.87
8211,0.2091,-0.0234,0.8876,-6.61,7.76,-0.06,27.88
8221,0.2106,-0.0269,0.8951,-6.52,7.89,-0.03,27.86
8231,0.2129,-0.028,0.8923,-6.61,7.88,-0.05,27.86
8241,0.2098,-0.0306,0.887,-6.6,7.89,0.0,27.85
8251,0.2114,-0.0302,0.8853,-6.66,7.95,-0.08,27.84
8261,0.2095,-0.0287,0.8873,-6.58,7.92,-0.03,27.87
8271,0.2078,-0.0255,0.8898,-6.58,8.03,-0.05,27.85
8281,0.2048,-0.0316,0.8892,-6.52,8.0,-0.09,27.87
8291,0.2046,-0.0291,0.8879,-6.69,8.02,-0.05,27.86
8301,0.2059,-0.0264,0.8878,-6.61,7.94,-0.02,27.86
8311,0.2059,-0.0261,0.8848,-6.64,7.95,-0.12,27.88
8321,0.2063,-0.0272,0.885,-6.58,7.94,-0.05,27.88
8331,0.2106,-0.0287,0.8864,-6.63,7.89,-0.09,27.83
8341,0.2069,-0.0269,0.8876,-6.61,7.85,-0.02,27.86
8351,0.2102,-0.0311,0.8843,-6.55,7.98,0.02,27.85
8361,0.2072,-0.0299,0.8865,-6.63,7.92,-0.03,27.86
8371,0.2085,-0.0342,0.8873,-6.61,7.97,-0.08,27.86
8381,0.2097,-0.0294,0.8859,-6.6,7.89,-0.03,27.85
8391,0.2054,-0.0305,0.8892,-6.64,7.95,-0.06,27.85
8401,0.2074,-0.0303,0.8867,-6.63,7.97,-0.06,27.83
8411,0.2078,-0.031,0.8844,-6.6,7.91,-0.06,27.85
8421,0.2031,-0.03,0.8855,-6.63,7.92,0.03,27.86
8431,0.2086,-0.0267,0.8868,-6.6,7.92,-0.08,27.87
8441,0.2073,-0.0247,0.8882,-6.58,7.86,-0.05,27.85
8451,0.21,-0.0309,0.8879,-6.66,7.86,-0.02,27.87
8461,0.2095,-0.0303,0.8867,-6.56,7.94,-0.03,27.88
8471,0.2046,-0.0323,0.8866,-6.53,7.95,-0.05,27.86
8481,0.1998,-0.032,0.8772,-6.63,7.88,-0.09,27.86
8491,0.1935,-0.032,0.8708,-6.66,7.89,-0.11,27.86
8501,0.1956,-0.0297,0.8706,-6.75,7.77,-0.02,27.88
8511,0.2046,-0.0321,0.8823,-6.66,7.73,-0.02,27.86
8521,0.2147,-0.0343,0.9048,-6.58,7.8,-0.03,27.86
8531,0.2261,-0.0322,0.9093,-6.47,7.79,-0.06,27.86
8541,0.2241,-0.0272,0.9182,-6.52,7.97,-0.08,27.84
8551,0.2213,-0.0269,0.9026,-6.64,7.88,-0.09,27.87
8561,0.2157,-0.0309,0.8872,-6.66,7.85,-0.08,27.86
8571,0.2112,-0.0292,0.8738,-6.66,7.94,-0.05,27.85
8581,0.2009,-0.0321,0.8658,-6.56,7.89,-0.05,27.88
8591,0.1987,-0.0309,0.8634,-6.52,7.91,-0.03,27.89
8601,0.1985,-0.0236,0.8746,-6.58,7.88,-0.02,27.86
8611,0.1992,-0.0226,0.8809,-6.66,7.94,-0.03,27.84
8621,0.2034,-0.0204,0.8932,-6.61,7.92,0.0,27.85
8631,0.2074,-0.0231,0.8997,-6.63,7.82,0.0,27.88
8641,0.2113,-0.0306,0.901,-6.61,7.86,-0.05,27.88
8651,0.2114,-0.0352,0.8983,-6.61,7.92,-0.08,27.87
8661,0.2098,-0.0372,0.8896,-6.6,7.86,-0.05,27.86
8671,0.21,-0.0374,0.8837,-6.6,7.89,-0.06,27.87
8681,0.2079,-0.0331,0.8815,-6.67,7.95,-0.02,27.89
8691,0.2069,-0.0311,0.8792,-6.63,7.91,-0.03,27.88
8701,0.2025,-0.0249,0.8759,-6.6,7.82,-0.09,27.88
8711,0.2031,-0.0244,0.8774,-6.63,7.86,-0.06,27.88
8721,0.2072,-0.0231,0.8776,-6.6,7.85,-0.09,27.9
8731,0.2056,-0.024,0.8817,-6.58,7.97,-0.12,27.87
8741,0.209,-0.0292,0.8899,-6.58,7.86,-0.05,27.88
8751,0.2096,-0.0291,0.8959,-6.7,7.86,-0.09,27.88
8761,0.2073,-0.0327,0.8928,-6.67,7.94,-0.08,27.89
8771,0.208,-0.0328,0.8988,-6.58,7.86,0.09,27.86
8781,0.21,-0.0293,0.8982,-6.58,7.86,-0.05,27.9
8791,0.2106,-0.0256,0.8931,-6.61,7.89,0.02,27.86
8801,0.2091,-0.0277,0.8868,-6.66,7.88,-0.03,27.88
8811,0.2089,-0.031,0.8831,-6.6,7.91,0.0,27.87
8821,0.2117,-0.0336,0.882,-6.63,7.94,0.05,27.86
8831,0.2118,-0.0355,0.8788,-6.49,7.98,-0.12,27.89
8841,0.2086,-0.0311,0.8857,-6.52,7.92,-0.03,27.87
8851,0.2085,-0.0273,0.8843,-6.55,7.98,0.0,27.85
8861,0.2054,-0.0253,0.8823,-6.61,7.91,-0.08,27.88
8871,0.2067,-0.0259,0.8875,-6.53,7.92,-0.09,27.87
8881,0.205,-0.0249,0.891,-6.53,7.86,-0.08,27.89
8891,0.2045,-0.0292,0.8927,-6.55,7.89,-0.02,27.85
8901,0.2081,-0.0305,0.8948,-6.61,7.98,-0.05,27.84
8911,0.2061,-0.0312,0.8887,-6.61,7.91,-0.06,27.87
8921,0.2106,-0.0314,0.8856,-6.61,7.83,0.06,27.88
8931,0.2112,-0.0316,0.8885,-6.52,7.95,0.03,27.87
8941,0.2075,-0.0298,0.8914,-6.7,7.97,0.02,27.89
8951,0.2068,-0.0309,0.8823,-6.52,7.98,-0.02,27.84
8961,0.2048,-0.0304,0.8848,-6.63,7.89,-0.02,27.86
8971,0.2076,-0.0289,0.8828,-6.55,7.97,-0.02,27.89
8981,0.2052,-0.0269,0.8823,-6.6,8.02,-0.08,27.88
8991,0.2064,-0.0277,0.885,-6.6,7.89,0.0,27.9
9001,0.2083,-0.0277,0.8842,-6.63,7.92,-0.11,27.87
9011,0.2057,-0.0292,0.89,-6.53,7.91,0.0,27.89
9021,0.2107,-0.0299,0.8898,-6.67,7.95,-0.08,27.88
9031,0.2083,-0.0308,0.8901,-6.61,7.91,-0.06,27.88
9041,0.2094,-0.0298,0.8898,-6.63,7.95,-0.14,27.89
9051,0.2113,-0.0283,0.8894,-6.64,7.91,0.0,27.84
9061,0.2085,-0.0312,0.8871,-6.63,7.91,-0.03,27.88
9071,0.2058,-0.0302,0.8813,-6.64,7.91,-0.03,27.88
9081,0.2064,-0.0294,0.8877,-6.63,7.92,-0.05,27.87
9091,0.204,-0.0289,0.8888,-6.52,7.98,-0.09,27.9
9101,0.2037,-0.0294,0.8872,-6.64,7.95,-0.03,27.91
9111,0.2072,-0.0277,0.886,-6.56,8.0,-0.05,27.88
9121,0.2061,-0.028,0.8875,-6.67,7.88,0.02,27.87
9131,0.207,-0.0292,0.8865,-6.58,7.88,0.0,27.86
9141,0.2059,-0.0326,0.887,-6.55,7.88,-0.02,27.86
9151,0.2085,-0.0281,0.8876,-6.53,7.92,-0.05,27.86
9161,0.2069,-0.0293,0.8826,-6.58,7.92,-0.06,27.89
9171,0.2096,-0.0281,0.8839,-6.58,7.94,-0.03,27.87
9181,0.2083,-0.0309,0.8849,-6.61,7.91,-0.06,27.87
9191,0.2074,-0.0338,0.8823,-6.6,7.98,-0.06,27.89
9201,0.2086,-0.031,0.8839,-6.53,7.89,-0.12,27.87
9211,0.2083,-0.0292,0.882,-6.56,7.95,-0.08,27.86
9221,0.2067,-0.0297,0.8864,-6.49,7.98,-0.03,27.88
9231,0.2035,-0.027,0.8866,-6.6,7.94,-0.05,27.89
9241,0.2076,-0.0277,0.8862,-6.61,7.86,-0.15,27.9
9251,0.2073,-0.0276,0.8893,-6.61,7.91,-0.03,27.87
9261,0.2079,-0.0288,0.8862,-6.64,7.86,-0.08,27.88
9271,0.2065,-0.0275,0.8802,-6.61,7.86,-0.08,27.87
9281,0.2046,-0.0292,0.8807,-6.55,7.91,-0.06,27.88
9291,0.2074,-0.0294,0.8853,-6.63,7.89,0.0,27.87
9301,0.2072,-0.0278,0.8894,-6.56,7.91,-0.09,27.89
9311,0.21,-0.0309,0.8864,-6.55,7.86,-0.02,27.89
9321,0.2076,-0.0284,0.8934,-6.6,7.95,-0.03,27.88
9331,0.2086,-0.0291,0.8868,-6.67,7.91,-0.06,27.89
9341,0.2092,-0.0319,0.8881,-6.53,7.91,-0.05,27.87
9351,0.2084,-0.0323,0.8853,-6.55,7.91,-0.03,27.89
9361,0.2085,-0.0325,0.8907,-6.61,7.89,-0.06,27.89
9371,0.2084,-0.0311,0.8845,-6.63,7.86,0.02,27.9
9381,0.2086,-0.0305,0.8842,-6.6,7.89,-0.08,27.89
9391,0.2048,-0.0271,0.8888,-6.6,7.92,-0.06,27.89
9401,0.2075,-0.0275,0.8857,-6.56,7.95,-0.06,27.89
9411,0.2112,-0.0248,0.887,-6.56,7.89,-0.09,27.91
9421,0.2103,-0.0276,0.8851,-6.61,7.91,-0.11,27.88
9431,0.2083,-0.0304,0.8854,-6.64,7.94,-0.05,27.87
9441,0.2109,-0.0359,0.8878,-6.61,7.91,0.0,27.91
9451,0.2068,-0.0328,0.8885,-6.5,7.92,-0.09,27.9
9461,0.2048,-0.0299,0.889,-6.52,7.91,-0.03,27.88
9471,0.2074,-0.0304,0.8844,-6.5,7.91,0.0,27.89
9481,0.2062,-0.0289,0.8835,-6.52,7.97,-0.03,27.91
9491,0.2052,-0.0289,0.8878,-6.5,7.88,-0.08,27.86
9501,0.2059,-0.027,0.8845,-6.63,7.94,-0.14,27.89
9511,0.2064,-0.0278,0.8851,-6.6,7.97,-0.09,27.91
9521,0.2091,-0.0298,0.8882,-6.64,7.97,-0.09,27.9
9531,0.2113,-0.0299,0.8877,-6.55,7.94,-0.06,27.9
9541,0.2063,-0.03,0.8909,-6.61,8.0,0.0,27.89
9551,0.21,-0.0261,0.887,-6.58,7.94,-0.02,27.9
9561,0.2078,-0.0303,0.8873,-6.55,7.92,0.02,27.91
9571,0.2074,-0.0294,0.8831,-6.63,7.91,-0.08,27.91
9581,0.2076,-0.0283,0.8835,-6.56,7.89,-0.11,27.94
9591,0.2079,-0.0309,0.8915,-6.6,7.92,-0.08,27.94
9601,0.2058,-0.0273,0.8849,-6.6,7.91,-0.11,27.91
9611,0.209,-0.027,0.8903,-6.55,7.95,-0.06,27.89
9621,0.2037,-0.0284,0.8889,-6.6,7.92,0.0,27.9
9631,0.209,-0.0289,0.8893,-6.53,7.94,-0.06,27.92
9641,0.2085,-0.0292,0.8876,-6.67,7.97,-0.05,27.91
9651,0.21,-0.0288,0.8875,-6.63,7.92,-0.06,27.9
9661,0.209,-0.0308,0.8905,-6.6,7.97,-0.11,27.9
9671,0.2084,-0.0314,0.8903,-6.58,7.91,-0.06,27.89
9681,0.2091,-0.0315,0.8896,-6.52,7.89,0.02,27.91
9691,0.2073,-0.0323,0.8882,-6.61,7.91,-0.03,27.92
9701,0.2091,-0.0305,0.8881,-6.66,7.91,-0.05,27.91
9711,0.2063,-0.027,0.8843,-6.61,7.97,-0.02,27.89
9721,0.205,-0.0255,0.882,-6.52,7.94,-0.03,27.93
9731,0.2048,-0.028,0.8876,-6.56,7.86,-0.05,27.92
9741,0.207,-0.0305,0.8837,-6.53,7.94,-0.08,27.88
9751,0.207,-0.03,0.8895,-6.66,8.02,-0.09,27.88
9761,0.2089,-0.0289,0.8884,-6.63,7.94,-0.03,27.88
9771,0.208,-0.0298,0.8872,-6.64,7.97,-0.08,27.9
9781,0.2064,-0.0308,0.8887,-6.64,7.97,-0.05,27.88
9791,0.208,-0.0298,0.8843,-6.67,7.91,0.05,27.9
9801,0.2079,-0.0297,0.8895,-6.63,7.88,-0.06,27.94
9811,0.2113,-0.0298,0.8873,-6.53,7.86,-0.03,27.93
9821,0.2074,-0.0303,0.8904,-6.63,7.98,0.02,27.91
9831,0.2123,-0.0304,0.8831,-6.63,7.89,-0.09,27.89
9841,0.21,-0.0305,0.8831,-6.56,7.94,-0.05,27.89
9851,0.2073,-0.0338,0.8851,-6.63,7.98,-0.05,27.92
9861,0.2067,-0.0289,0.8853,-6.61,7.97,-0.06,27.92
9871,0.2048,-0.0283,0.8884,-6.6,7.91,-0.09,27.91
9881,0.2073,-0.0284,0.8871,-6.63,7.94,0.0,27.92
9891,0.2097,-0.0299,0.8807,-6.61,7.8,-0.06,27.9
9901,0.2104,-0.0316,0.8842,-6.6,7.83,-0.08,27.92
9911,0.2073,-0.0325,0.8865,-6.58,7.92,-0.05,27.91
9921,0.2089,-0.0277,0.8872,-6.63,7.86,-0.06,27.92
9931,0.2076,-0.0288,0.8871,-6.58,7.86,-0.02,27.92
9941,0.207,-0.028,0.8865,-6.63,7.88,-0.05,27.92
9951,0.2094,-0.0303,0.8871,-6.67,7.88,-0.05,27.91
9961,0.2091,-0.0287,0.8867,-6.64,7.92,0.03,27.9
9971,0.2089,-0.032,0.8905,-6.61,7.95,-0.09,27.92
9981,0.205,-0.0327,0.8859,-6.52,7.94,0.02,27.89
9991,0.2078,-0.0292,0.8915,-6.55,7.88,-0.06,27.93
10001,0.2083,-0.0331,0.8853,-6.5,7.86,-0.03,27.92
10011,0.2059,-0.0298,0.889,-6.6,7.95,-0.03,27.91
10021,0.2059,-0.0259,0.8871,-6.58,7.91,-0.03,27.91
10031,0.2085,-0.0304,0.8872,-6.56,7.92,-0.02,27.92
10041,0.2079,-0.0286,0.8861,-6.58,7.94,0.0,27.93
10051,0.208,-0.028,0.8868,-6.66,7.92,-0.03,27.92
10061,0.2064,-0.0322,0.8871,-6.63,7.85,-0.05,27.92
10071,0.2091,-0.0339,0.8829,-6.6,7.92,0.0,27.92
10081,0.2079,-0.0312,0.8829,-6.64,7.88,-0.06,27.9
10091,0.2083,-0.0314,0.8906,-6.67,7.91,-0.05,27.89
10101,0.2106,-0.0314,0.8859,-6.61,7.94,0.0,27.93
10112,0.2072,-0.0308,0.8875,-6.61,7.86,-0.03,27.92
10122,0.2079,-0.0291,0.8824,-6.61,8.0,0.03,27.91
10132,0.2065,-0.0276,0.8898,-6.61,7.88,-0.05,27.93
10142,0.2065,-0.0315,0.8878,-6.58,7.88,-0.03,27.93
10152,0.2113,-0.0278,0.8845,-6.55,7.91,-0.05,27.91
10162,0.2079,-0.0286,0.8885,-6.63,7.89,-0.03,27.93
10172,0.2061,-0.0289,0.8843,-6.56,7.94,-0.03,27.9
10183,0.2089,-0.0308,0.8872,-6.66,7.92,0.0,27.92
10193,0.21,-0.0261,0.8875,-6.6,7.94,0.02,27.91
10203,0.207,-0.0286,0.8851,-6.61,7.94,0.03,27.91
10213,0.2078,-0.032,0.8872,-6.55,7.88,-0.06,27.92
10223,0.2083,-0.0289,0.8834,-6.6,7.83,-0.06,27.92
10233,0.2087,-0.0289,0.8853,-6.66,7.85,-0.06,27.91
10243,0.208,-0.0336,0.8883,-6.56,7.79,-0.02,27.94
10253,0.2098,-0.0309,0.8882,-6.55,7.91,-0.03,27.92
10263,0.2097,-0.0286,0.8888,-6.6,7.89,-0.08,27.91
10273,0.2081,-0.0316,0.8868,-6.55,7.8,-0.05,27.91
10283,0.2068,-0.0306,0.8861,-6.55,7.91,0.02,27.94
10295,0.2079,-0.0291,0.8843,-6.63,7.97,-0.06,27.91
10308,0.2072,-0.031,0.8811,-6.63,7.88,-0.08,27.92
10318,0.2089,-0.0284,0.8823,-6.6,7.94,-0.06,27.91
10330,0.209,-0.0281,0.8871,-6.53,7.92,-0.02,27.92
10340,0.2085,-0.0303,0.8881,-6.66,7.92,0.0,27.92
10350,0.2092,-0.0299,0.8896,-6.55,7.92,-0.02,27.91
10360,0.2096,-0.0289,0.8894,-6.61,7.89,-0.08,27.9
10370,0.2078,-0.0261,0.8876,-6.56,7.91,-0.02,27.92
10380,0.2053,-0.0315,0.8851,-6.61,7.92,-0.05,27.9
10390,0.2108,-0.0303,0.8846,-6.64,7.91,-0.03,27.9
10400,0.2101,-0.0293,0.8846,-6.52,7.91,-0.09,27.94
10410,0.2114,-0.0278,0.8848,-6.6,7.92,-0.06,27.95
10420,0.2053,-0.0295,0.892,-6.58,7.86,-0.09,27.94
10430,0.2084,-0.0299,0.8876,-6.58,7.88,-0.09,27.94
10440,0.2065,-0.028,0.8877,-6.58,7.94,-0.05,27.93
10450,0.2108,-0.0277,0.8839,-6.64,7.97,0.02,27.93
10460,0.2087,-0.0269,0.8805,-6.61,7.85,0.02,27.92
10470,0.2063,-0.0258,0.8848,-6.6,7.88,-0.03,27.95
10480,0.2081,-0.0293,0.8857,-6.6,7.91,-0.05,27.94
10490,0.2095,-0.0305,0.8833,-6.55,7.86,0.02,27.91
10500,0.2102,-0.027,0.8857,-6.64,7.98,0.0,27.93
10510,0.2085,-0.0293,0.8853,-6.61,7.91,-0.06,27.92
10520,0.2113,-0.0266,0.8892,-6.61,7.92,-0.05,27.93
10530,0.2056,-0.0311,0.8856,-6.63,7.91,-0.05,27.93
10540,0.2079,-0.0292,0.8865,-6.55,7.92,-0.06,27.95
10550,0.2057,-0.0288,0.885,-6.53,7.88,-0.03,27.95
10560,0.2106,-0.0264,0.8872,-6.55,7.91,-0.05,27.94
10570,0.2056,-0.0305,0.8866,-6.63,7.95,-0.05,27.94
10580,0.2068,-0.0292,0.8839,-6.49,7.88,-0.05,27.95
10590,0.2073,-0.0304,0.8893,-6.67,7.91,-0.06,27.94
10600,0.2086,-0.0287,0.8904,-6.61,7.86,-0.05,27.93
10610,0.2056,-0.0297,0.8875,-6.58,7.85,-0.02,27.94
10621,0.2061,-0.0308,0.8831,-6.58,7.91,-0.05,27.93
10631,0.2102,-0.0309,0.8881,-6.69,7.91,0.0,27.93
10641,0.2083,-0.0302,0.8843,-6.6,7.91,-0.05,27.93
10651,0.2059,-0.0289,0.8864,-6.6,7.92,-0.09,27.92
10661,0.2106,-0.0289,0.8871,-6.63,7.91,-0.11,27.91
10671,0.2098,-0.0304,0.8859,-6.66,7.8,-0.06,27.92
10681,0.2079,-0.0309,0.8837,-6.61,7.91,-0.05,27.94
10691,0.2069,-0.0315,0.8872,-6.55,7.88,-0.05,27.92
10701,0.2081,-0.0306,0.8845,-6.67,7.88,-0.05,27.92
10711,0.2075,-0.03,0.8844,-6.6,7.88,-0.06,27.92
10721,0.2075,-0.0282,0.8848,-6.6,7.92,-0.03,27.93
10731,0.21,-0.0315,0.8872,-6.69,7.92,-0.08,27.93
10741,0.2076,-0.0261,0.8884,-6.63,7.85,-0.08,27.94
10751,0.2075,-0.0293,0.8827,-6.6,7.88,-0.03,27.95
10761,0.2097,-0.0292,0.8898,-6.58,7.91,0.0,27.94
10771,0.2084,-0.0303,0.8862,-6.53,7.89,0.0,27.95
10781,0.21,-0.0316,0.8846,-6.67,7.95,0.03,27.92
10791,0.2084,-0.0284,0.8856,-6.58,7.91,-0.05,27.94
10801,0.2064,-0.0267,0.8834,-6.52,7.83,-0.02,27.95
10811,0.2076,-0.028,0.8875,-6.58,7.88,-0.03,27.93
10821,0.2097,-0.0286,0.8872,-6.61,7.88,-0.03,27.93
10831,0.2079,-0.0288,0.8873,-6.63,7.89,0.02,27.93
10841,0.2087,-0.0269,0.8844,-6.64,7.89,-0.02,27.93
10851,0.208,-0.0315,0.8845,-6.64,7.95,-0.05,27.94
10861,0.2064,-0.0299,0.8862,-6.66,7.92,-0.03,27.94
10871,0.2052,-0.0312,0.8892,-6.55,7.92,-0.03,27.92
10881,0.2092,-0.0295,0.889,-6.61,7.95,-0.06,27.93
10891,0.2101,-0.03,0.8881,-6.66,7.88,-0.02,27.94
10901,0.2094,-0.0269,0.8846,-6.55,7.91,-0.03,27.94
10911,0.2079,-0.0293,0.8916,-6.66,7.97,-0.06,27.91
10921,0.2062,-0.0292,0.886,-6.63,7.94,-0.03,27.95
10931,0.2061,-0.0275,0.8884,-6.63,7.91,-0.09,27.95
10941,0.2052,-0.0321,0.8817,-6.6,7.91,-0.06,27.97
10951,0.2079,-0.028,0.8898,-6.58,7.92,-0.06,27.95
10961,0.2084,-0.0308,0.8907,-6.64,7.92,-0.02,27.95
10971,0.2075,-0.0286,0.8859,-6.63,7.98,-0.03,27.95
10981,0.2069,-0.0272,0.886,-6.64,7.88,-0.09,27.94
10991,0.2056,-0.0304,0.8835,-6.63,7.95,0.0,27.96
11001,0.2081,-0.0293,0.8879,-6.66,7.94,-0.08,27.94
11011,0.209,-0.0306,0.8854,-6.61,7.89,-0.02,27.93
11021,0.2075,-0.0303,0.8849,-6.63,7.92,-0.06,27.93
11031,0.2048,-0.0282,0.8851,-6.7,7.91,-0.02,27.96
11041,0.209,-0.0284,0.8856,-6.52,7.95,-0.03,27.98
11051,0.207,-0.0299,0.886,-6.58,7.91,-0.03,27.97
11061,0.2067,-0.0309,0.8862,-6.53,7.86,-0.03,27.96
11071,0.2068,-0.0294,0.885,-6.58,7.91,-0.06,27.94
11081,0.2108,-0.0308,0.8857,-6.52,7.91,-0.06,27.95
11091,0.2094,-0.0294,0.8929,-6.63,7.86,-0.06,27.96
11101,0.2059,-0.0304,0.8851,-6.66,7.89,-0.09,27.95
11111,0.2096,-0.0294,0.8845,-6.58,7.91,0.0,27.95
11121,0.2095,-0.0289,0.8865,-6.64,7.95,-0.03,27.94
11131,0.2085,-0.0262,0.8853,-6.56,7.91,-0.11,27.94
11141,0.207,-0.0291,0.8845,-6.6,7.86,0.0,27.94
11151,0.2095,-0.0314,0.8842,-6.6,7.97,-0.09,27.94
11161,0.2104,-0.0286,0.8823,-6.55,7.95,-0.09,27.94
11171,0.2042,-0.0267,0.886,-6.55,7.91,-0.06,27.97
11181,0.2106,-0.0305,0.8898,-6.58,7.95,-0.08,27.94
11191,0.2098,-0.0269,0.8872,-6.6,7.83,-0.05,27.96
11201,0.2073,-0.0308,0.887,-6.67,7.89,0.02,27.94
11211,0.2101,-0.0305,0.886,-6.43,7.89,0.0,27.93
11221,0.2074,-0.0297,0.8883,-6.47,7.91,-0.02,27.93
11231,0.2098,-0.0315,0.8892,-6.6,7.95,0.02,27.95
11241,0.2056,-0.0284,0.8896,-6.58,7.92,-0.02,27.94
11251,0.2046,-0.0294,0.886,-6.56,7.92,-0.03,27.94
11261,0.2075,-0.0309,0.8829,-6.61,7.92,-0.05,27.93
11271,0.2029,-0.0297,0.8857,-6.55,7.89,-0.06,27.97
11281,0.2073,-0.0303,0.8843,-6.61,7.97,0.0,27.96
11291,0.2086,-0.0294,0.8857,-6.64,7.89,-0.03,27.98
11301,0.2102,-0.0287,0.8873,-6.67,7.89,-0.11,27.96
11311,0.207,-0.0304,0.8867,-6.53,7.94,-0.09,27.97
11321,0.2065,-0.0273,0.8881,-6.67,7.94,-0.05,27.97
11331,0.2098,-0.0258,0.8887,-6.64,7.97,-0.03,27.99
11341,0.2094,-0.0284,0.8877,-6.56,7.94,-0.12,27.97
11351,0.2096,-0.0309,0.8867,-6.6,7.92,-0.12,27.97
11361,0.2023,-0.0297,0.886,-6.6,7.98,-0.09,27.93
11371,0.2057,-0.03,0.8855,-6.56,7.91,-0.02,27.95
11381,0.2056,-0.0291,0.8835,-6.56,7.91,-0.05,27.95
11391,0.2067,-0.028,0.8845,-6.6,7.94,-0.06,27.96
11401,0.2068,-0.0277,0.8848,-6.66,7.89,-0.05,27.94
11411,0.205,-0.0305,0.8879,-6.52,7.92,-0.03,27.95
11421,0.2089,-0.0298,0.8887,-6.53,7.89,-0.03,27.95
11431,0.2057,-0.0294,0.8878,-6.56,7.89,-0.03,27.96
11441,0.2068,-0.0295,0.8876,-6.61,7.91,0.06,27.97
11451,0.2094,-0.0319,0.8859,-6.63,7.85,0.0,27.97
11461,0.2079,-0.0278,0.8881,-6.6,7.95,0.02,27.97
11471,0.2058,-0.028,0.8844,-6.61,7.92,-0.11,27.98
11481,0.2059,-0.0305,0.8864,-6.63,7.89,-0.03,27.96
11491,0.208,-0.0286,0.8861,-6.63,7.88,-0.08,27.97
11501,0.2067,-0.0284,0.8864,-6.56,7.91,-0.08,27.98
11511,0.2083,-0.0305,0.8901,-6.66,7.91,-0.08,27.97
11521,0.2072,-0.0288,0.885,-6.63,7.91,-0.09,27.96
11531,0.207,-0.0291,0.8823,-6.67,7.88,0.03,27.96
11541,0.2083,-0.0293,0.8881,-6.6,7.92,-0.02,27.97
11551,0.2084,-0.0311,0.8833,-6.61,7.89,-0.05,27.96
11561,0.2112,-0.0302,0.8843,-6.6,7.94,-0.03,27.96
11571,0.2091,-0.0295,0.8887,-6.56,7.88,-0.09,27.96
11581,0.2076,-0.0289,0.8856,-6.6,7.88,-0.06,27.97
11591,0.2076,-0.0302,0.8861,-6.66,7.97,0.0,27.96
11601,0.2081,-0.0302,0.8868,-6.61,7.92,-0.08,27.95
11611,0.2068,-0.032,0.8868,-6.6,7.98,-0.02,27.92
11621,0.2062,-0.0286,0.8864,-6.58,7.86,-0.09,27.98
11631,0.2068,-0.0298,0.8868,-6.52,7.92,-0.14,27.95
11641,0.2057,-0.0297,0.8853,-6.61,7.92,-0.11,27.96
11651,0.2064,-0.0302,0.8879,-6.55,7.92,-0.09,27.96
11661,0.2085,-0.0298,0.8848,-6.63,7.95,-0.08,27.97
11671,0.2072,-0.03,0.8872,-6.46,7.85,-0.06,27.95
11681,0.2108,-0.0271,0.8864,-6.58,7.94,-0.03,27.96
11691,0.209,-0.0306,0.8861,-6.64,7.92,-0.09,27.94
11701,0.2061,-0.0291,0.8885,-6.63,7.91,-0.02,27.97
11711,0.2063,-0.0294,0.8871,-6.56,7.94,-0.05,27.94
11721,0.2084,-0.0288,0.89,-6.64,7.97,0.0,27.96
11731,0.205,-0.0306,0.887,-6.56,7.92,-0.05,27.97
11741,0.2057,-0.0326,0.8918,-6.61,7.94,-0.05,27.95
11751,0.2051,-0.0289,0.8848,-6.67,8.03,-0.09,27.98
11761,0.2095,-0.0278,0.8851,-6.63,7.89,-0.06,27.98
11771,0.2089,-0.032,0.8815,-6.61,7.95,-0.06,27.97
11781,0.2073,-0.0295,0.8867,-6.61,7.88,0.03,27.98
11791,0.2068,-0.0297,0.8862,-6.64,7.83,0.02,27.98
11801,0.2087,-0.0302,0.8876,-6.6,7.88,-0.03,27.98
11811,0.2076,-0.0248,0.8912,-6.56,7.94,-0.11,27.97
11821,0.2057,-0.0273,0.8845,-6.52,7.86,-0.05,27.98
11831,0.2046,-0.0323,0.8856,-6.61,7.92,-0.06,27.98
11841,0.2068,-0.0289,0.8844,-6.63,7.92,-0.03,27.97
11851,0.2057,-0.0299,0.8889,-6.64,7.94,-0.05,27.96
11861,0.2085,-0.0302,0.8855,-6.61,7.91,-0.14,27.97
11871,0.2079,-0.027,0.8843,-6.58,7.88,-0.14,27.97
11881,0.2078,-0.0284,0.8883,-6.56,7.97,-0.09,27.97
11891,0.2067,-0.0298,0.8844,-6.58,7.92,-0.03,27.98
11901,0.2053,-0.0295,0.8829,-6.58,7.91,-0.03,27.99
11911,0.2078,-0.0305,0.882,-6.63,7.94,-0.08,27.97
11921,0.2107,-0.032,0.8862,-6.58,7.88,-0.03,27.97
11931,0.209,-0.032,0.8856,-6.61,7.85,0.03,27.98
11941,0.2083,-0.0303,0.8839,-6.55,7.95,-0.06,27.97
11953,0.2048,-0.032,0.8867,-6.55,7.92,-0.02,27.96
11963,0.208,-0.0295,0.886,-6.6,7.91,-0.02,27.96
11973,0.2092,-0.0281,0.8878,-6.63,7.88,-0.08,27.97
11983,0.2067,-0.0305,0.8898,-6.56,7.97,-0.05,27.96
11993,0.2075,-0.0276,0.8877,-6.58,7.91,-0.05,27.97
12003,0.2092,-0.0277,0.8892,-6.58,7.91,-0.05,27.98
12013,0.2109,-0.03,0.8855,-6.67,7.95,0.02,27.97
12023,0.2065,-0.0269,0.887,-6.56,7.94,-0.11,27.98
12033,0.205,-0.0287,0.8833,-6.52,7.97,0.0,27.97
12043,0.2056,-0.0276,0.8856,-6.53,7.85,-0.06,27.98
12053,0.2069,-0.0287,0.8854,-6.61,7.92,0.02,27.97
12063,0.2069,-0.0325,0.8839,-6.56,7.91,-0.05,27.97
12073,0.2076,-0.0303,0.8845,-6.6,7.95,-0.02,27.97
12083,0.2083,-0.0306,0.8884,-6.66,7.92,0.02,27.96
12093,0.2107,-0.031,0.8883,-6.56,7.88,-0.02,27.96
12103,0.2113,-0.028,0.8883,-6.67,7.91,-0.09,27.97
12113,0.209,-0.0282,0.8862,-6.64,7.83,-0.08,27.98
12123,0.2112,-0.0309,0.8885,-6.6,7.91,-0.03,27.99
12133,0.2078,-0.033,0.8867,-6.56,7.92,-0.05,27.96
12143,0.2061,-0.0326,0.8829,-6.67,7.89,-0.02,27.98
12153,0.2057,-0.0284,0.8879,-6.63,7.95,0.05,27.97
12163,0.2074,-0.0267,0.8865,-6.63,7.92,0.0,27.98
12173,0.2029,-0.0259,0.887,-6.63,7.94,-0.08,27.98
12183,0.2068,-0.031,0.8892,-6.64,7.94,-0.05,27.97
12193,0.2087,-0.0294,0.8868,-6.64,7.97,-0.08,27.96
12203,0.21,-0.0286,0.8857,-6.55,7.95,-0.03,27.97
12213,0.2101,-0.0293,0.8862,-6.55,7.86,-0.11,27.97
12223,0.209,-0.0286,0.886,-6.63,7.95,-0.08,27.97
12233,0.2089,-0.0269,0.884,-6.56,7.98,-0.05,28.0
12243,0.2054,-0.0289,0.8894,-6.67,7.94,-0.06,27.96
12253,0.2085,-0.0312,0.8857,-6.64,7.91,0.0,27.96
12263,0.2068,-0.0322,0.885,-6.56,7.91,-0.03,27.97
12273,0.2084,-0.0312,0.8888,-6.63,7.89,-0.06,27.98
12283,0.2058,-0.026,0.8862,-6.56,7.92,-0.08,27.95
12293,0.2076,-0.0275,0.8899,-6.56,7.91,0.0,27.99
12303,0.2074,-0.0298,0.8922,-6.63,7.94,-0.11,27.99
12313,0.2084,-0.028,0.8844,-6.64,7.95,0.03,27.99
12323,0.2068,-0.0297,0.8832,-6.58,7.92,-0.06,27.97
12333,0.2072,-0.0317,0.8837,-6.58,7.89,-0.05,27.99
12343,0.2075,-0.0286,0.8845,-6.64,7.88,-0.06,27.98
12353,0.2092,-0.0315,0.8888,-6.55,7.91,-0.08,28.0
12363,0.2083,-0.0291,0.8811,-6.6,7.94,-0.02,27.96
12373,0.2092,-0.0297,0.8864,-6.61,7.91,-0.06,27.99
12383,0.2086,-0.0288,0.8856,-6.64,7.94,-0.02,27.97
12393,0.2091,-0.0312,0.8849,-6.69,7.92,-0.06,27.99
12403,0.2094,-0.0299,0.8885,-6.58,7.89,0.02,27.97
12413,0.2087,-0.0321,0.8851,-6.63,7.88,0.0,27.98
12423,0.2098,-0.0311,0.8842,-6.58,7.86,-0.09,27.99
12433,0.2087,-0.0294,0.8879,-6.61,7.98,-0.02,27.98
12443,0.2091,-0.0302,0.8893,-6.61,7.95,-0.12,27.98
12453,0.2087,-0.0299,0.8844,-6.6,7.88,-0.14,27.99
12463,0.2064,-0.0302,0.8828,-6.64,7.97,-0.06,28.0
12473,0.2073,-0.0273,0.885,-6.58,7.92,-0.11,27.98
12483,0.2091,-0.0281,0.8894,-6.53,7.86,-0.02,27.98
12493,0.2062,-0.0254,0.8873,-6.66,7.88,-0.08,28.0
12503,0.2061,-0.0284,0.8851,-6.6,7.8,-0.08,27.99
12513,0.2119,-0.0288,0.885,-6.56,7.94,0.02,27.99
12523,0.2065,-0.0293,0.8901,-6.53,7.91,0.0,27.99
12533,0.2067,-0.0327,0.8848,-6.5,7.92,-0.08,27.98
12543,0.2069,-0.0303,0.8898,-6.61,7.89,-0.09,27.97
12553,0.2112,-0.0339,0.8878,-6.61,7.89,-0.05,27.98
12563,0.2083,-0.0287,0.8862,-6.61,7.91,-0.06,27.98
12573,0.2063,-0.0322,0.8881,-6.56,7.91,0.03,27.98
12583,0.2069,-0.0284,0.8895,-6.6,7.89,0.0,27.96
12593,0.2068,-0.0287,0.8907,-6.64,7.88,-0.08,27.99
12603,0.2089,-0.0292,0.8898,-6.61,7.94,-0.12,27.97
12613,0.2098,-0.0294,0.8883,-6.58,7.92,0.02,27.99
12623,0.2074,-0.0327,0.8875,-6.67,7.91,-0.05,27.98
12633,0.2085,-0.031,0.8896,-6.55,7.91,-0.06,28.02
12643,0.2085,-0.0317,0.8892,-6.6,7.92,-0.11,27.99
12653,0.2096,-0.0311,0.8864,-6.61,7.89,0.0,27.99
12663,0.2104,-0.0283,0.8866,-6.56,7.91,-0.03,27.99
12673,0.2084,-0.0293,0.8834,-6.63,7.86,-0.08,27.98
12683,0.2064,-0.0302,0.8859,-6.52,7.91,-0.11,27.98
12693,0.2064,-0.0314,0.8883,-6.53,7.94,0.03,27.98
12703,0.2091,-0.0308,0.8853,-6.58,7.98,-0.03,27.95
12713,0.2078,-0.0288,0.8807,-6.63,7.98,-0.11,27.95
12723,0.205,-0.0277,0.8829,-6.53,7.91,-0.02,27.97
12733,0.2074,-0.0275,0.8853,-6.56,7.88,-0.09,28.0
12743,0.2086,-0.0266,0.8882,-6.56,7.91,-0.09,27.97
12753,0.2075,-0.0302,0.8855,-6.5,7.88,-0.06,27.99
12763,0.2074,-0.028,0.8882,-6.6,7.89,-0.09,27.99
12773,0.2087,-0.0311,0.8861,-6.69,7.92,-0.08,28.0
12783,0.208,-0.0289,0.8889,-6.66,7.91,0.02,27.99
12793,0.2086,-0.0283,0.8853,-6.56,7.92,-0.05,27.99
12803,0.2054,-0.0284,0.8888,-6.5,7.95,0.0,28.0
12813,0.2068,-0.0288,0.8892,-6.63,7.91,0.03,28.0
12823,0.2101,-0.0272,0.8843,-6.61,7.94,-0.11,27.97
12833,0.2109,-0.0295,0.8877,-6.55,7.86,-0.08,27.99
12843,0.2057,-0.0283,0.8876,-6.66,8.0,-0.05,27.97
12853,0.2092,-0.0291,0.8878,-6.58,7.91,-0.06,27.98
12863,0.2067,-0.0286,0.8834,-6.56,7.88,-0.05,27.97
12873,0.2092,-0.0288,0.8842,-6.64,7.91,-0.11,28.0
12883,0.2081,-0.0316,0.8884,-6.64,7.89,-0.12,28.0
12893,0.2084,-0.0306,0.8872,-6.64,7.94,-0.05,27.97
12903,0.2079,-0.0317,0.8893,-6.64,7.92,-0.03,27.98
12913,0.2067,-0.0272,0.8928,-6.56,7.88,0.0,27.99
12923,0.2081,-0.0288,0.8907,-6.55,7.94,-0.05,27.97
12933,0.2078,-0.0314,0.8888,-6.55,7.92,-0.06,28.0
12943,0.2094,-0.0316,0.8846,-6.49,7.95,-0.03,27.99
12953,0.2045,-0.0299,0.8851,-6.58,7.86,0.02,27.99
12963,0.2062,-0.0309,0.8862,-6.6,7.95,-0.03,28.0
12973,0.2085,-0.0302,0.8895,-6.56,7.91,-0.05,27.99
12983,0.209,-0.0281,0.8848,-6.5,7.88,-0.06,28.01
12993,0.2078,-0.0266,0.8861,-6.53,7.89,0.02,27.98
13003,0.2092,-0.0289,0.8851,-6.58,7.91,-0.05,27.96
13013,0.2056,-0.0254,0.8868,-6.53,7.97,-0.06,27.98
13023,0.2068,-0.0295,0.8848,-6.58,7.92,-0.06,27.99
13033,0.2063,-0.0286,0.8882,-6.63,7.91,-0.05,27.99
13043,0.2058,-0.0295,0.8855,-6.55,7.95,-0.06,28.0
13053,0.2083,-0.03,0.8851,-6.55,7.89,0.02,28.02
13063,0.2085,-0.0271,0.8859,-6.55,7.89,-0.05,28.02
13073,0.209,-0.0309,0.8864,-6.52,7.89,-0.09,28.01
13083,0.2083,-0.0295,0.887,-6.61,7.94,-0.05,28.01
13093,0.2085,-0.0281,0.8871,-6.61,7.89,-0.09,27.99
13103,0.2075,-0.0276,0.8848,-6.6,7.92,-0.02,27.99
13113,0.2073,-0.0267,0.8922,-6.49,7.86,-0.06,28.0
13123,0.2084,-0.0281,0.8912,-6.58,7.86,-0.08,28.04
13133,0.2091,-0.0293,0.8837,-6.67,7.97,-0.08,27.99
13143,0.21,-0.0305,0.8928,-6.63,7.94,-0.08,27.98
13153,0.2058,-0.0283,0.8859,-6.63,7.86,-0.02,27.98
13163,0.208,-0.0276,0.887,-6.56,7.89,-0.02,27.99
13173,0.2047,-0.0281,0.886,-6.61,7.94,0.0,27.98
13183,0.2048,-0.0289,0.8845,-6.64,8.0,-0.05,27.97
13193,0.2084,-0.0297,0.8855,-6.53,7.86,-0.09,27.97
13204,0.209,-0.0289,0.8871,-6.58,7.95,-0.02,27.99
13214,0.2076,-0.0277,0.8857,-6.55,7.98,-0.09,27.96
13224,0.2083,-0.0302,0.889,-6.56,7.88,-0.08,27.98
13234,0.2068,-0.03,0.8899,-6.63,7.94,-0.05,28.0
13244,0.2057,-0.0288,0.8916,-6.56,7.91,-0.05,28.02
13254,0.2068,-0.0291,0.8871,-6.58,7.89,-0.08,28.0
13264,0.2094,-0.0289,0.8883,-6.56,7.91,-0.05,27.99
13274,0.2081,-0.0286,0.885,-6.63,7.88,-0.03,27.99
13284,0.2098,-0.0297,0.8845,-6.67,7.89,-0.05,28.0
13294,0.2056,-0.0332,0.8855,-6.56,7.94,-0.08,28.01
13304,0.2097,-0.0336,0.8853,-6.56,7.89,-0.06,27.99
13314,0.2064,-0.0286,0.8861,-6.58,7.92,-0.02,27.99
13324,0.2089,-0.0284,0.8862,-6.64,7.91,-0.03,27.99
13334,0.2104,-0.0286,0.8861,-6.6,7.88,-0.08,28.02
13345,0.2085,-0.0309,0.8921,-6.52,7.94,-0.06,28.01
13355,0.2072,-0.0292,0.8881,-6.67,7.98,-0.05,28.0
13365,0.2086,-0.0316,0.8875,-6.64,7.92,-0.06,28.01
13375,0.2107,-0.027,0.885,-6.6,7.95,-0.05,28.04
13387,0.2084,-0.0253,0.8865,-6.66,7.83,-0.06,28.0
13397,0.2079,-0.0278,0.8904,-6.56,7.89,-0.02,28.02
13408,0.2089,-0.0292,0.889,-6.61,7.89,-0.03,28.02
13418,0.2086,-0.0277,0.8873,-6.6,7.85,-0.12,28.02
13428,0.2083,-0.0317,0.8907,-6.55,7.91,-0.14,28.01
13438,0.2084,-0.0295,0.8912,-6.6,7.94,-0.03,27.99
13448,0.208,-0.031,0.8865,-6.63,7.89,-0.05,28.01
13458,0.2059,-0.0297,0.8844,-6.58,7.98,-0.03,28.02
13468,0.2052,-0.028,0.8835,-6.6,7.94,-0.12,28.0
13478,0.2079,-0.0282,0.8817,-6.61,7.95,-0.08,28.01
13488,0.2054,-0.031,0.8884,-6.58,7.94,-0.06,27.99
13498,0.2046,-0.0292,0.8822,-6.49,7.97,0.02,27.99
13508,0.2094,-0.0309,0.8854,-6.66,7.92,-0.02,27.98
13518,0.2095,-0.0284,0.8859,-6.58,7.89,-0.06,28.02
13528,0.2078,-0.0305,0.8834,-6.58,7.86,-0.08,28.01
13538,0.2096,-0.0287,0.8893,-6.6,7.95,-0.08,28.01
13548,0.2102,-0.0295,0.8873,-6.58,7.94,-0.11,28.04
13558,0.209,-0.0312,0.8866,-6.53,7.89,-0.02,28.02
13568,0.2053,-0.03,0.8851,-6.56,7.92,-0.09,28.0
13578,0.2073,-0.0339,0.8867,-6.6,7.86,0.06,28.01
13588,0.2074,-0.0314,0.8867,-6.58,7.92,-0.02,28.02
13598,0.2095,-0.0282,0.8865,-6.53,7.91,-0.02,28.01
13608,0.2058,-0.0255,0.89,-6.6,7.95,-0.05,27.99
13618,0.2106,-0.0286,0.8872,-6.56,7.86,-0.02,28.01
13628,0.2087,-0.0292,0.885,-6.61,7.91,-0.02,28.03
13638,0.2086,-0.0267,0.8888,-6.5,7.89,-0.02,28.03
13648,0.2083,-0.0295,0.8835,-6.55,7.83,-0.06,28.04
13658,0.2054,-0.03,0.8855,-6.56,7.94,-0.05,28.04
13668,0.208,-0.0295,0.8829,-6.58,7.89,-0.06,28.02
13678,0.2081,-0.0294,0.8881,-6.53,7.91,-0.11,28.02
13688,0.2062,-0.027,0.8879,-6.53,7.88,0.03,28.03
13698,0.2073,-0.0297,0.8871,-6.55,7.86,-0.12,28.02
13708,0.2087,-0.0304,0.8888,-6.61,7.97,-0.05,28.01
13718,0.207,-0.0303,0.8906,-6.56,7.92,-0.06,27.99
13728,0.2078,-0.0309,0.8856,-6.61,7.86,-0.03,28.03
13738,0.2045,-0.0282,0.8865,-6.5,7.91,-0.02,28.02
13748,0.2068,-0.0309,0.8849,-6.6,7.94,-0.02,28.03
13758,0.2079,-0.0319,0.8898,-6.56,7.89,-0.02,28.01
13768,0.2072,-0.0293,0.8882,-6.6,7.88,0.0,28.0
13778,0.2062,-0.0277,0.8876,-6.58,7.95,-0.15,28.02
13788,0.2061,-0.026,0.8892,-6.55,7.94,-0.06,28.01
13798,0.2065,-0.0266,0.8873,-6.56,7.92,0.0,28.02
13808,0.2102,-0.024,0.8878,-6.61,7.83,0.05,28.02
13818,0.2096,-0.0267,0.8862,-6.58,7.92,-0.03,28.03
13828,0.2085,-0.0306,0.8862,-6.63,7.91,0.06,28.03
13838,0.208,-0.031,0.89,-6.6,7.92,-0.05,28.03
13848,0.2102,-0.0305,0.8866,-6.61,7.95,-0.03,28.02
13858,0.2108,-0.0295,0.8848,-6.56,7.94,0.05,28.03
13868,0.2065,-0.031,0.8872,-6.55,7.8,-0.03,28.02
13879,0.2053,-0.0321,0.8887,-6.53,7.92,-0.05,28.02
13889,0.2072,-0.0281,0.8893,-6.52,7.97,-0.03,28.03
13899,0.2065,-0.0305,0.8911,-6.58,7.94,-0.06,28.02
13909,0.2123,-0.0288,0.8846,-6.61,7.91,-0.02,28.02
13919,0.2087,-0.0322,0.8861,-6.56,7.92,-0.02,28.02
13929,0.2086,-0.0304,0.8909,-6.53,7.92,-0.03,28.01
13939,0.2095,-0.0295,0.8906,-6.58,7.86,-0.06,28.02
13949,0.2094,-0.0275,0.8879,-6.64,7.89,-0.03,28.02
13959,0.2087,-0.0314,0.8892,-6.53,7.91,-0.06,28.03
13969,0.2094,-0.0283,0.8843,-6.55,7.92,-0.03,28.02
13979,0.207,-0.0282,0.8846,-6.6,7.92,-0.03,28.01
13989,0.203,-0.0294,0.8892,-6.61,7.94,-0.09,28.02
13999,0.2064,-0.0288,0.8849,-6.56,7.88,-0.03,28.01
14009,0.2092,-0.0305,0.8877,-6.56,7.94,-0.05,28.02
14019,0.2084,-0.0295,0.8848,-6.6,7.85,0.0,28.03
14030,0.2079,-0.0299,0.8876,-6.6,7.89,-0.09,28.03
14040,0.2063,-0.0314,0.886,-6.55,7.91,-0.03,28.03
14050,0.2074,-0.0298,0.89,-6.56,7.88,-0.05,28.04
14060,0.2101,-0.0272,0.89,-6.58,7.92,-0.08,28.04
14070,0.2074,-0.03,0.8861,-6.53,7.88,-0.03,28.03
14080,0.2076,-0.0278,0.8845,-6.61,7.95,-0.06,28.06
14090,0.2061,-0.0297,0.8849,-6.6,7.98,-0.15,28.04
14100,0.2094,-0.0309,0.8854,-6.63,7.98,-0.06,28.04
14110,0.2086,-0.0272,0.8873,-6.67,7.83,-0.05,28.01
14120,0.2134,-0.0278,0.8904,-6.6,7.89,-0.05,28.04
14130,0.2091,-0.0286,0.8907,-6.6,7.95,-0.15,28.05
14140,0.2087,-0.0304,0.8883,-6.53,7.88,-0.11,28.03
14150,0.2091,-0.0315,0.8889,-6.5,7.88,-0.08,28.04
14160,0.2061,-0.0289,0.8895,-6.66,7.89,-0.06,28.04
14170,0.207,-0.03,0.8868,-6.53,7.92,-0.02,28.05
14180,0.2106,-0.0295,0.8845,-6.53,7.88,-0.09,28.04
14190,0.209,-0.0289,0.8879,-6.56,7.92,-0.11,28.03
14200,0.205,-0.0306,0.8867,-6.6,7.91,-0.05,28.03
14210,0.2074,-0.0302,0.8876,-6.63,7.88,-0.03,28.02
14220,0.208,-0.0276,0.8871,-6.6,7.89,-0.03,28.04
14230,0.209,-0.028,0.8844,-6.52,7.91,-0.09,28.04
14240,0.2091,-0.0288,0.8887,-6.55,7.92,-0.02,28.0
14250,0.2064,-0.0311,0.8826,-6.61,7.83,0.0,28.03
14260,0.2107,-0.0275,0.8867,-6.64,7.88,0.02,28.02
14270,0.2058,-0.0326,0.8821,-6.55,7.89,-0.05,28.05
14281,0.2065,-0.0277,0.8862,-6.66,7.92,0.0,28.02
14293,0.209,-0.0272,0.8811,-6.5,7.94,0.02,28.04
14303,0.2076,-0.0289,0.8838,-6.64,7.88,-0.08,28.05
14313,0.2068,-0.0302,0.8834,-6.55,7.92,-0.02,28.03
14323,0.2043,-0.0286,0.8877,-6.52,7.89,-0.06,28.02
14333,0.2068,-0.0276,0.8884,-6.63,7.89,-0.02,28.03
14343,0.2068,-0.0304,0.889,-6.63,7.92,-0.02,28.04
14353,0.2092,-0.0275,0.889,-6.64,7.92,0.02,28.04
14363,0.2103,-0.0272,0.8867,-6.55,7.95,-0.03,28.02
14373,0.2083,-0.0265,0.8822,-6.53,7.94,-0.06,28.05
14383,0.2075,-0.028,0.886,-6.6,7.95,0.0,28.02
14393,0.2068,-0.0309,0.8881,-6.56,7.94,-0.02,28.02
14403,0.2095,-0.0281,0.8865,-6.58,7.94,0.0,28.02
14413,0.2084,-0.028,0.887,-6.66,7.91,-0.02,28.04
14423,0.2078,-0.0291,0.8861,-6.58,7.91,-0.05,28.03
14433,0.2079,-0.0297,0.8838,-6.58,7.86,-0.06,28.03
14443,0.2079,-0.0276,0.8877,-6.61,7.92,-0.08,28.03
14453,0.2052,-0.0322,0.8868,-6.63,7.88,-0.14,28.03
14463,0.2074,-0.0302,0.8834,-6.6,7.94,-0.09,28.02
14473,0.2062,-0.0299,0.8894,-6.61,7.92,-0.06,28.02
14483,0.2083,-0.0277,0.8845,-6.53,7.91,-0.05,28.03
14493,0.2059,-0.0286,0.8854,-6.63,7.86,-0.06,28.04
14503,0.2107,-0.0306,0.8845,-6.6,7.91,-0.06,28.04
14513,0.208,-0.0314,0.8822,-6.49,7.89,0.03,28.04
14523,0.2094,-0.0308,0.8877,-6.58,7.97,-0.05,28.05
14533,0.2078,-0.03,0.8907,-6.64,7.92,0.0,28.07
14543,0.2114,-0.0282,0.8882,-6.58,7.94,-0.06,28.02
14553,0.2048,-0.0295,0.8818,-6.58,7.89,0.02,28.03
14563,0.208,-0.0302,0.8827,-6.63,7.95,-0.02,28.03
14573,0.2081,-0.03,0.8888,-6.66,7.92,-0.09,28.04
14583,0.2075,-0.0309,0.8872,-6.67,7.92,-0.06,28.02
14593,0.2057,-0.0293,0.8889,-6.6,7.89,0.0,28.04
14603,0.208,-0.0315,0.8848,-6.58,7.91,-0.05,28.03
14613,0.2074,-0.0299,0.8857,-6.61,7.88,0.0,28.05
14623,0.2069,-0.0267,0.8905,-6.6,7.91,-0.09,28.05
14633,0.2106,-0.0286,0.8873,-6.6,7.92,-0.03,28.05
14643,0.2083,-0.031,0.8873,-6.61,7.89,-0.06,28.06
14653,0.2089,-0.0287,0.8876,-6.6,7.95,0.03,28.05
14663,0.2061,-0.0297,0.8909,-6.67,7.86,-0.02,28.07
14673,0.2062,-0.0305,0.8887,-6.56,7.92,-0.08,28.04
14683,0.2112,-0.0304,0.8872,-6.55,7.92,-0.02,28.03
14693,0.2086,-0.0298,0.8853,-6.53,7.91,-0.06,28.04
14703,0.2079,-0.0284,0.8898,-6.63,7.92,-0.11,28.06
14713,0.2107,-0.0283,0.8867,-6.6,7.91,-0.09,28.05
14723,0.2052,-0.0291,0.8895,-6.6,7.94,0.02,28.02
14733,0.2054,-0.0309,0.885,-6.52,7.95,0.0,28.04
14743,0.2086,-0.0295,0.8878,-6.63,7.88,0.0,28.05
14753,0.2015,-0.0293,0.8871,-6.61,7.89,-0.06,28.04
14763,0.2106,-0.0292,0.8876,-6.63,7.94,-0.17,28.03
14773,0.209,-0.0308,0.885,-6.55,7.86,-0.02,28.04
14783,0.2074,-0.0298,0.8846,-6.56,7.89,-0.05,28.04
14793,0.2091,-0.0333,0.8838,-6.53,7.91,-0.06,28.02
14803,0.2106,-0.0321,0.885,-6.6,7.88,-0.02,28.08
14813,0.2045,-0.0292,0.8867,-6.69,7.91,-0.09,28.06
14823,0.2081,-0.0271,0.8872,-6.58,7.95,-0.05,28.06
14833,0.2083,-0.0295,0.8881,-6.58,7.91,-0.03,28.05
14843,0.2042,-0.0254,0.8856,-6.66,7.97,-0.08,28.06
14853,0.208,-0.0288,0.8835,-6.58,7.86,0.0,28.08
14863,0.204,-0.0311,0.8878,-6.6,7.89,-0.02,28.06
14873,0.2096,-0.0275,0.8826,-6.53,7.94,-0.02,28.05
14883,0.2069,-0.0291,0.8862,-6.55,7.91,0.03,28.05
14893,0.2065,-0.0299,0.887,-6.53,7.92,-0.02,28.07
14903,0.2094,-0.0299,0.8838,-6.63,7.92,-0.03,28.03
14913,0.2084,-0.0282,0.8922,-6.58,7.92,-0.06,28.04
14923,0.208,-0.0278,0.8885,-6.58,7.95,-0.02,28.04
14933,0.2094,-0.027,0.8866,-6.63,7.89,-0.02,28.05
14943,0.2075,-0.0294,0.8911,-6.58,7.94,-0.06,28.07
14953,0.2098,-0.0281,0.8896,-6.58,7.85,-0.03,28.05
14963,0.2084,-0.0304,0.8893,-6.47,7.95,-0.06,28.06
14973,0.2078,-0.031,0.8806,-6.56,7.92,-0.06,28.06
14983,0.2078,-0.0308,0.8881,-6.5,7.86,0.03,28.05
14993,0.2111,-0.0286,0.8881,-6.46,7.91,-0.03,28.05
15003,0.2076,-0.0309,0.8888,-6.61,7.88,-0.12,28.06
15013,0.2079,-0.0275,0.8857,-6.58,7.94,-0.02,28.06
15023,0.2095,-0.0273,0.8846,-6.6,7.89,0.05,28.07
15033,0.2075,-0.0308,0.8878,-6.55,7.94,-0.06,28.06
15043,0.2094,-0.0283,0.8867,-6.6,7.91,-0.09,28.06
15053,0.2118,-0.0287,0.8885,-6.64,7.91,-0.02,28.05
15063,0.2106,-0.0284,0.8856,-6.6,7.86,-0.05,28.04
15073,0.2068,-0.0253,0.8883,-6.63,7.89,-0.09,28.04
15083,0.2062,-0.0287,0.8856,-6.61,7.95,-0.11,28.03
15093,0.2081,-0.0299,0.8845,-6.58,7.92,-0.12,28.04
15103,0.209,-0.0293,0.8838,-6.56,7.88,-0.06,28.06
15113,0.208,-0.0292,0.887,-6.52,7.91,0.02,28.04
15123,0.2083,-0.0322,0.8859,-6.55,7.89,-0.06,28.05
15133,0.208,-0.0302,0.8826,-6.63,7.94,-0.05,28.04
15143,0.21,-0.0277,0.8871,-6.6,7.88,-0.02,28.05
15153,0.2074,-0.0302,0.8873,-6.61,7.89,-0.06,28.07
15163,0.2115,-0.0292,0.8865,-6.63,7.83,0.0,28.03
15173,0.2107,-0.0295,0.8832,-6.61,7.86,-0.08,28.05
15183,0.2072,-0.028,0.8855,-6.63,7.92,0.0,28.05
15193,0.2094,-0.0291,0.8865,-6.63,7.92,-0.06,28.04
15203,0.2057,-0.0303,0.8855,-6.55,7.91,-0.08,28.06
15213,0.2045,-0.0287,0.8883,-6.55,7.95,0.02,28.07
15223,0.2061,-0.0283,0.8846,-6.64,7.92,-0.03,28.08
15233,0.2084,-0.0283,0.882,-6.63,7.91,0.02,28.07
15243,0.2092,-0.0302,0.8877,-6.56,7.95,-0.05,28.07
15253,0.2065,-0.0262,0.8877,-6.46,7.85,-0.05,28.07
15263,0.2089,-0.0309,0.8879,-6.6,7.97,-0.05,28.06
15273,0.2085,-0.0305,0.8844,-6.66,7.94,0.0,28.05
15283,0.2065,-0.0294,0.887,-6.64,8.0,-0.06,28.04
15293,0.2076,-0.0299,0.8855,-6.64,7.94,-0.09,28.05
15303,0.2091,-0.0309,0.8854,-6.5,7.95,-0.06,28.04
15313,0.2054,-0.031,0.8882,-6.63,7.97,-0.05,28.04
15323,0.2056,-0.0281,0.8856,-6.55,7.94,0.0,28.07
15333,0.207,-0.0286,0.8883,-6.63,7.95,0.0,28.06
15343,0.2047,-0.0314,0.8879,-6.6,7.88,-0.09,28.08
15353,0.2073,-0.0292,0.8882,-6.63,7.98,0.02,28.06
15363,0.207,-0.0289,0.8849,-6.56,7.91,-0.03,28.04
15373,0.2067,-0.0253,0.8871,-6.55,7.88,0.02,28.03
15383,0.2073,-0.0292,0.8887,-6.61,7.86,0.0,28.06
15393,0.2096,-0.0305,0.8937,-6.61,7.95,0.0,28.08
15403,0.205,-0.0294,0.8844,-6.7,7.91,-0.02,28.03
15413,0.2079,-0.03,0.8864,-6.58,7.98,-0.06,28.04
15423,0.2112,-0.0319,0.8894,-6.56,7.88,-0.08,28.07
15433,0.2068,-0.0288,0.8889,-6.58,7.92,-0.03,28.08
15443,0.2056,-0.0298,0.8864,-6.52,7.91,-0.06,28.07
15453,0.2036,-0.0287,0.8846,-6.58,7.92,-0.06,28.05
15463,0.2064,-0.0298,0.8875,-6.56,8.02,-0.11,28.06
15473,0.2087,-0.027,0.8877,-6.6,7.88,-0.08,28.07
15483,0.2083,-0.0291,0.8865,-6.6,7.86,-0.02,28.09
15493,0.2098,-0.0281,0.8877,-6.56,7.94,0.0,28.07
15503,0.208,-0.0305,0.8904,-6.53,7.97,0.0,28.07
15513,0.2092,-0.032,0.8875,-6.55,7.89,-0.05,28.06
15523,0.2091,-0.03,0.8878,-6.58,7.89,-0.02,28.07
15533,0.2061,-0.0299,0.889,-6.63,7.89,-0.02,28.07
15543,0.2083,-0.028,0.8849,-6.58,7.94,-0.05,28.06
15553,0.2056,-0.0245,0.884,-6.58,7.89,-0.06,28.07
15563,0.2067,-0.03,0.8896,-6.52,7.92,-0.09,28.07
15573,0.2092,-0.0284,0.8824,-6.53,7.88,-0.05,28.06
15583,0.2069,-0.0275,0.8842,-6.63,7.92,0.0,28.07
15593,0.2098,-0.026,0.8893,-6.56,7.92,-0.03,28.07
15603,0.2084,-0.0266,0.8895,-6.66,7.83,-0.06,28.06
15613,0.2087,-0.0283,0.8834,-6.58,7.95,-0.06,28.06
15623,0.2113,-0.0317,0.8894,-6.56,7.95,-0.06,28.08
15633,0.2087,-0.0272,0.8882,-6.55,7.85,-0.03,28.07
15643,0.2097,-0.0302,0.8865,-6.58,7.97,0.0,28.1
15653,0.2073,-0.0281,0.885,-6.56,7.92,-0.05,28.08
15663,0.2052,-0.0291,0.8883,-6.67,7.91,-0.06,28.06
15673,0.2059,-0.0289,0.8851,-6.61,7.89,-0.03,28.07
15683,0.2054,-0.0312,0.8818,-6.66,7.86,-0.08,28.08
15693,0.209,-0.0277,0.885,-6.63,7.88,-0.08,28.07
15703,0.2103,-0.0266,0.8859,-6.63,8.0,0.03,28.09
15714,0.2094,-0.0328,0.8855,-6.55,7.97,-0.06,28.08
15724,0.2095,-0.0286,0.8855,-6.67,7.95,0.0,28.08
15734,0.2091,-0.0302,0.8857,-6.64,8.02,0.02,28.08
15744,0.2092,-0.0275,0.8865,-6.63,7.92,-0.06,28.08
15754,0.2073,-0.0299,0.8856,-6.6,7.91,-0.09,28.07
15764,0.2097,-0.0287,0.887,-6.61,7.89,0.03,28.05
15774,0.2085,-0.03,0.8915,-6.58,7.97,-0.05,28.07
15784,0.2073,-0.0298,0.8848,-6.7,7.92,-0.08,28.08
15794,0.2059,-0.0294,0.886,-6.63,7.88,-0.11,28.08
15804,0.2051,-0.0295,0.8848,-6.64,7.91,-0.02,28.06
15814,0.209,-0.0293,0.8878,-6.58,7.85,-0.05,28.07
15824,0.2094,-0.0292,0.8853,-6.61,7.98,0.0,28.08
15834,0.2098,-0.0321,0.8873,-6.58,7.94,0.0,28.07
15844,0.2076,-0.031,0.8829,-6.6,7.97,0.0,28.06
15854,0.2051,-0.0336,0.8829,-6.66,7.89,-0.08,28.05
15865,0.2053,-0.0311,0.8831,-6.6,7.91,-0.06,28.08
15875,0.2062,-0.0312,0.8868,-6.61,7.88,0.05,28.05
15885,0.2079,-0.0289,0.8872,-6.63,7.91,0.02,28.09
15895,0.2069,-0.0277,0.8936,-6.67,7.89,0.0,28.07
15905,0.2081,-0.0291,0.8884,-6.6,7.88,0.0,28.05
15915,0.2085,-0.0286,0.8889,-6.6,7.86,-0.06,28.04
15925,0.208,-0.0289,0.8878,-6.53,7.89,-0.03,28.06
15935,0.2085,-0.0276,0.8849,-6.7,7.89,-0.03,28.07
15945,0.2067,-0.0287,0.8857,-6.7,7.89,-0.03,28.07
15955,0.2072,-0.0319,0.8878,-6.66,7.97,0.02,28.07
15967,0.2091,-0.0288,0.8875,-6.66,7.88,-0.02,28.07
15977,0.2081,-0.0282,0.8866,-6.64,7.92,-0.02,28.09
15987,0.2047,-0.0298,0.8862,-6.6,7.95,-0.06,28.07
15997,0.208,-0.0273,0.8834,-6.58,7.95,-0.06,28.07
16008,0.2048,-0.0317,0.8885,-6.58,7.89,-0.05,28.07
16018,0.2076,-0.0277,0.885,-6.66,7.91,-0.06,28.08
16028,0.207,-0.0325,0.8883,-6.58,7.92,-0.12,28.09
16038,0.2074,-0.0286,0.8867,-6.66,7.94,-0.05,28.05
16048,0.2062,-0.0266,0.8873,-6.64,7.91,0.03,28.07
16058,0.209,-0.026,0.8861,-6.49,7.88,0.03,28.07
16068,0.2089,-0.0284,0.8882,-6.64,7.91,-0.02,28.06
16078,0.2086,-0.0292,0.8872,-6.64,8.0,-0.02,28.07
16088,0.2067,-0.0288,0.8899,-6.61,7.92,-0.05,28.08
16098,0.2081,-0.0286,0.8855,-6.56,7.92,-0.02,28.07
16108,0.2103,-0.0303,0.8875,-6.6,7.94,0.0,28.07
16118,0.2083,-0.0305,0.8867,-6.64,7.91,0.0,28.09
16128,0.208,-0.0298,0.8872,-6.61,7.86,0.0,28.06
16138,0.2087,-0.0292,0.8838,-6.61,7.86,0.02,28.07
16148,0.2087,-0.0293,0.8842,-6.6,7.94,0.03,28.07
16158,0.2085,-0.0302,0.8862,-6.52,7.92,-0.09,28.08
16168,0.2075,-0.028,0.8907,-6.53,7.89,-0.05,28.08
16178,0.2034,-0.0311,0.8851,-6.53,7.94,-0.03,28.07
16188,0.2092,-0.0275,0.8859,-6.61,7.97,-0.06,28.08
16198,0.2086,-0.0293,0.8883,-6.63,7.89,-0.03,28.07
16208,0.2094,-0.0308,0.8883,-6.6,7.91,-0.05,28.06
16218,0.2085,-0.0291,0.889,-6.66,7.94,-0.08,28.07
16231,0.2076,-0.0306,0.8896,-6.61,7.91,-0.15,28.09
16241,0.2086,-0.0288,0.884,-6.56,7.91,-0.11,28.09
16251,0.2064,-0.0299,0.8861,-6.64,7.95,0.03,28.09
16261,0.2059,-0.0304,0.8832,-6.53,7.95,-0.02,28.08
16271,0.2058,-0.0289,0.8862,-6.6,7.89,-0.02,28.06
16281,0.2084,-0.0315,0.8845,-6.66,7.82,-0.14,28.07
16291,0.2065,-0.0326,0.8883,-6.56,7.92,-0.02,28.08
16301,0.2068,-0.0282,0.8817,-6.58,7.95,-0.09,28.09
16311,0.208,-0.0286,0.8846,-6.64,7.94,-0.03,28.07
16321,0.2092,-0.0295,0.8842,-6.63,7.91,-0.06,28.09
16331,0.2063,-0.0299,0.8855,-6.6,7.91,-0.05,28.07
16341,0.2058,-0.0305,0.8881,-6.58,7.95,-0.02,28.07
16351,0.2061,-0.0284,0.8857,-6.56,7.94,0.02,28.07
16361,0.2078,-0.0314,0.8868,-6.64,7.92,-0.05,28.07
16371,0.205,-0.0302,0.8904,-6.55,7.98,-0.08,28.07
16381,0.2085,-0.0304,0.8845,-6.64,8.0,-0.05,28.07
16391,0.2057,-0.0273,0.8901,-6.56,8.02,-0.08,28.07
16401,0.2087,-0.0275,0.8872,-6.61,7.95,0.0,28.08
16411,0.2092,-0.0283,0.8909,-6.61,7.92,0.03,28.06
16421,0.2107,-0.0286,0.8938,-6.53,7.92,-0.05,28.07
16431,0.2074,-0.0289,0.8895,-6.56,7.97,-0.03,28.06
16441,0.2059,-0.0269,0.8883,-6.55,7.91,0.02,28.1
16451,0.2067,-0.0292,0.8849,-6.63,7.88,-0.14,28.06
16461,0.2073,-0.0297,0.8843,-6.63,7.92,-0.11,28.08
16471,0.2029,-0.0272,0.8872,-6.58,7.97,-0.06,28.09
16481,0.2094,-0.026,0.8871,-6.49,7.85,-0.09,28.07
16491,0.2079,-0.0287,0.8918,-6.6,7.94,-0.08,28.08
16501,0.2086,-0.0297,0.8837,-6.6,7.88,-0.14,28.09
16511,0.2073,-0.0283,0.8824,-6.63,7.92,-0.05,28.07
16521,0.2085,-0.0316,0.8873,-6.56,7.91,-0.03,28.06
16531,0.2075,-0.0308,0.8884,-6.53,7.89,-0.02,28.09
16541,0.209,-0.0308,0.8864,-6.55,7.89,-0.08,28.08
16551,0.2079,-0.0267,0.8917,-6.58,7.94,-0.06,28.08
16561,0.2062,-0.0299,0.8885,-6.58,7.97,0.0,28.05
16571,0.2076,-0.0261,0.8859,-6.66,7.91,0.03,28.05
16581,0.2095,-0.0281,0.8885,-6.58,7.89,-0.02,28.07
16591,0.208,-0.0308,0.886,-6.67,7.91,-0.05,28.07
16601,0.2052,-0.0293,0.885,-6.64,7.85,-0.03,28.08
16611,0.2083,-0.0303,0.8876,-6.58,7.94,-0.06,28.07
16621,0.2085,-0.0317,0.8871,-6.56,7.97,-0.09,28.06
16631,0.2106,-0.0258,0.8889,-6.6,7.91,0.0,28.05
16641,0.2091,-0.0292,0.8894,-6.66,7.98,-0.06,28.06
16651,0.2085,-0.0304,0.8877,-6.6,7.89,0.0,28.06
16661,0.2086,-0.031,0.8872,-6.66,7.89,-0.06,28.09
16671,0.2051,-0.0294,0.8875,-6.63,8.05,-0.11,28.05
16681,0.2064,-0.0315,0.8883,-6.58,7.94,-0.12,28.08
16691,0.2067,-0.0314,0.8894,-6.6,7.97,-0.05,28.09
16701,0.2062,-0.0287,0.887,-6.58,7.89,-0.06,28.09
16711,0.2056,-0.0303,0.8882,-6.61,7.92,0.03,28.07
16721,0.2104,-0.0266,0.8861,-6.6,7.89,-0.03,28.08
16731,0.2048,-0.0288,0.8884,-6.58,7.74,-0.03,28.08
16741,0.2037,-0.0276,0.8927,-6.64,7.89,0.0,28.07
16751,0.208,-0.0316,0.8834,-6.69,7.83,-0.11,28.08
16761,0.2108,-0.0325,0.8804,-6.64,7.83,-0.02,28.08
16771,0.2101,-0.0328,0.8862,-6.64,7.88,0.0,28.08
16781,0.2083,-0.0273,0.8894,-6.7,7.83,-0.06,28.05
16791,0.2089,-0.0259,0.8857,-6.6,7.88,-0.08,28.09
16801,0.2076,-0.0272,0.8878,-6.61,7.92,-0.11,28.08
16811,0.2063,-0.0277,0.8894,-6.56,7.92,-0.06,28.08
16821,0.2085,-0.0288,0.8862,-6.55,7.89,-0.03,28.1
16831,0.2091,-0.0304,0.8899,-6.63,7.86,0.03,28.07
16841,0.2102,-0.0277,0.8866,-6.49,7.91,0.03,28.08
16851,0.2109,-0.0269,0.887,-6.61,7.86,-0.03,28.11
16861,0.2085,-0.0264,0.8843,-6.6,7.91,0.0,28.08
16871,0.2085,-0.0271,0.8875,-6.63,7.83,-0.05,28.13
16881,0.2107,-0.0289,0.8884,-6.64,7.86,-0.11,28.09
16891,0.2075,-0.027,0.887,-6.55,7.97,-0.02,28.09
16901,0.2089,-0.0309,0.8862,-6.6,7.91,-0.09,28.12
16911,0.2092,-0.0289,0.8903,-6.5,7.89,-0.05,28.08
16921,0.2078,-0.0305,0.8846,-6.61,7.95,0.02,28.07
16931,0.2101,-0.0278,0.885,-6.7,7.91,-0.02,28.06
16941,0.208,-0.0306,0.8909,-6.58,7.92,-0.09,28.07
16951,0.2073,-0.0291,0.8884,-6.55,7.95,-0.05,28.08
16961,0.2107,-0.032,0.8864,-6.63,7.92,0.02,28.08
16971,0.2108,-0.0316,0.8854,-6.61,7.86,-0.02,28.07
16981,0.2107,-0.0302,0.8876,-6.58,7.89,-0.08,28.07
16991,0.2073,-0.0291,0.8876,-6.6,7.98,-0.05,28.07
17001,0.2068,-0.0289,0.8854,-6.61,7.94,-0.08,28.11
17011,0.2065,-0.028,0.884,-6.61,7.92,-0.12,28.09
17021,0.2086,-0.0278,0.8832,-6.61,7.94,-0.05,28.11
17031,0.2076,-0.0298,0.8875,-6.61,7.94,-0.08,28.11
17042,0.208,-0.0293,0.8899,-6.67,7.89,-0.12,28.12
17053,0.2057,-0.0286,0.8871,-6.63,7.95,-0.06,28.09
17063,0.2081,-0.0265,0.8864,-6.63,7.89,-0.06,28.09
17073,0.2087,-0.0283,0.8834,-6.6,7.91,-0.05,28.11
17083,0.2053,-0.0291,0.8868,-6.61,7.97,-0.03,28.09
17093,0.2059,-0.0306,0.8922,-6.58,7.95,-0.14,28.11
17103,0.2059,-0.0278,0.889,-6.49,7.92,-0.03,28.1
17113,0.2083,-0.0293,0.8862,-6.53,7.97,-0.03,28.11
17123,0.2084,-0.0321,0.8883,-6.58,7.95,-0.03,28.11
17133,0.2097,-0.0284,0.887,-6.56,7.94,-0.09,28.12
17143,0.2092,-0.0293,0.8896,-6.55,7.97,-0.09,28.11
17153,0.2078,-0.0304,0.8882,-6.55,8.02,-0.08,28.09
17163,0.2059,-0.0289,0.8876,-6.63,7.94,-0.05,28.1
17173,0.2094,-0.0312,0.885,-6.58,8.0,0.02,28.12
17183,0.2067,-0.0314,0.8872,-6.58,7.98,-0.09,28.09
17193,0.2078,-0.0311,0.8889,-6.52,7.94,-0.02,28.09
17203,0.2083,-0.0297,0.8877,-6.55,7.97,-0.03,28.09
17213,0.2083,-0.0304,0.891,-6.6,7.92,-0.02,28.11
17223,0.2054,-0.0282,0.8889,-6.61,7.91,-0.05,28.08
17233,0.2089,-0.0272,0.8892,-6.63,7.88,0.02,28.09
17243,0.2091,-0.0277,0.8879,-6.55,7.92,-0.02,28.1
17253,0.2087,-0.0302,0.8867,-6.6,7.97,-0.11,28.1
17263,0.2053,-0.0303,0.8875,-6.69,7.92,-0.06,28.1
17273,0.2062,-0.0302,0.887,-6.58,7.95,-0.03,28.09
17283,0.2062,-0.0302,0.8887,-6.67,7.85,-0.06,28.08
17293,0.2056,-0.0281,0.8862,-6.56,7.95,-0.06,28.09
17303,0.2097,-0.0304,0.8888,-6.63,7.94,-0.09,28.11
17313,0.2067,-0.0325,0.8894,-6.6,7.95,-0.08,28.12
17323,0.2078,-0.0309,0.8873,-6.55,7.95,0.0,28.1
17333,0.2069,-0.0323,0.8899,-6.6,7.92,0.0,28.1
17343,0.204,-0.0299,0.8848,-6.56,7.86,0.0,28.1
17353,0.2054,-0.0288,0.8871,-6.56,7.89,-0.03,28.09
17363,0.2074,-0.0267,0.8842,-6.63,7.89,-0.03,28.1
17373,0.2091,-0.0282,0.886,-6.66,7.97,0.02,28.09
17383,0.2062,-0.0303,0.8893,-6.53,7.92,-0.05,28.09
17393,0.2057,-0.0271,0.8904,-6.55,7.94,-0.06,28.1
17403,0.2051,-0.03,0.8873,-6.6,7.94,-0.06,28.1
17413,0.2072,-0.0303,0.8882,-6.64,7.98,-0.06,28.1
17423,0.2081,-0.0302,0.8893,-6.61,7.89,-0.11,28.1
17433,0.2046,-0.0305,0.8864,-6.52,7.91,-0.05,28.08
17443,0.2087,-0.0297,0.8883,-6.64,7.86,0.03,28.09
17453,0.2117,-0.0305,0.8859,-6.64,7.95,-0.08,28.11
17463,0.2063,-0.0284,0.8856,-6.63,7.86,0.0,28.11
17473,0.2079,-0.0298,0.886,-6.56,7.91,-0.02,28.12
17483,0.207,-0.0259,0.8834,-6.55,7.92,0.02,28.12
17493,0.2073,-0.0314,0.8878,-6.55,7.89,-0.05,28.12
17503,0.2096,-0.0298,0.8895,-6.66,7.97,-0.03,28.09
17513,0.2084,-0.0299,0.8849,-6.63,7.88,-0.05,28.09
17523,0.2057,-0.0298,0.8878,-6.5,7.95,-0.03,28.12
17533,0.2081,-0.0281,0.8887,-6.63,7.95,0.0,28.1
17543,0.2091,-0.0286,0.8822,-6.61,7.91,0.0,28.09
17553,0.209,-0.0315,0.8861,-6.53,7.86,-0.05,28.11
17563,0.2091,-0.0283,0.8833,-6.7,7.94,-0.02,28.14
17573,0.2072,-0.0297,0.8867,-6.6,7.89,0.0,28.12
17583,0.2086,-0.0312,0.885,-6.58,7.89,-0.05,28.11
17593,0.2059,-0.0298,0.882,-6.63,7.92,-0.05,28.11
17603,0.2076,-0.0304,0.8823,-6.63,7.88,-0.09,28.11
17613,0.2083,-0.0336,0.8855,-6.58,7.98,-0.06,28.09
17623,0.2076,-0.0287,0.8896,-6.63,8.02,-0.02,28.12
17633,0.2111,-0.0298,0.889,-6.63,7.95,-0.06,28.1
17643,0.2079,-0.0323,0.8896,-6.63,8.0,-0.03,28.1
17653,0.2106,-0.028,0.8862,-6.55,7.92,0.02,28.13
17663,0.2072,-0.0295,0.8889,-6.55,7.97,-0.05,28.13
17673,0.209,-0.0283,0.887,-6.53,7.89,0.02,28.12
17683,0.2052,-0.0284,0.8881,-6.61,8.03,-0.02,28.13
17693,0.2078,-0.028,0.886,-6.64,7.91,-0.08,28.11
17703,0.2062,-0.0345,0.8859,-6.6,7.92,-0.05,28.13
17713,0.2084,-0.0311,0.8864,-6.61,7.94,-0.05,28.11
17723,0.2035,-0.0309,0.8844,-6.6,7.94,-0.08,28.11
17733,0.2064,-0.03,0.8873,-6.55,7.95,-0.03,28.12
17743,0.2048,-0.0298,0.8806,-6.66,7.97,-0.02,28.1
17753,0.2096,-0.0287,0.8834,-6.6,7.94,0.02,28.12
17763,0.2113,-0.0273,0.8828,-6.69,7.92,-0.06,28.1
17773,0.21,-0.0303,0.8906,-6.64,7.89,-0.05,28.09
17783,0.2084,-0.0304,0.8818,-6.61,7.86,-0.09,28.12
17793,0.2059,-0.026,0.8839,-6.53,7.92,-0.06,28.12
17803,0.2078,-0.0277,0.8853,-6.61,7.91,-0.03,28.11
17813,0.2087,-0.0287,0.8833,-6.6,7.95,-0.05,28.12
17823,0.2102,-0.0304,0.8879,-6.58,8.05,-0.03,28.12
17833,0.2102,-0.0321,0.8857,-6.6,7.92,0.02,28.13
17843,0.2058,-0.0283,0.8864,-6.56,7.92,-0.06,28.12
17853,0.2072,-0.0322,0.8873,-6.63,7.88,-0.08,28.12
17863,0.2096,-0.0298,0.8884,-6.6,7.92,-0.08,28.11
17873,0.2073,-0.0315,0.8918,-6.63,7.98,-0.05,28.14
17883,0.2079,-0.0293,0.889,-6.56,7.94,-0.05,28.13
17893,0.2063,-0.03,0.8876,-6.66,7.97,-0.06,28.12
17903,0.2057,-0.0286,0.8881,-6.52,7.94,-0.06,28.11
17913,0.2069,-0.0283,0.8853,-6.55,7.89,-0.03,28.1
17923,0.208,-0.0292,0.8875,-6.67,7.94,-0.06,28.12
17933,0.2098,-0.0288,0.8883,-6.66,7.97,-0.02,28.13
17943,0.2085,-0.0271,0.8892,-6.69,7.94,-0.09,28.11
17953,0.2063,-0.0297,0.8873,-6.52,7.88,0.0,28.1
17963,0.2029,-0.0319,0.8883,-6.64,7.95,-0.11,28.11
17973,0.207,-0.0273,0.8862,-6.63,7.95,-0.08,28.13
17983,0.2081,-0.0262,0.8856,-6.64,7.98,0.0,28.12
17993,0.2063,-0.031,0.8864,-6.61,7.92,-0.08,28.12
18003,0.209,-0.0293,0.8876,-6.56,7.91,-0.06,28.11
18013,0.2086,-0.0293,0.8844,-6.67,7.95,0.0,28.13
18023,0.2064,-0.0327,0.886,-6.6,7.98,-0.09,28.12
18033,0.2046,-0.0302,0.885,-6.67,7.98,-0.12,28.14
18043,0.2046,-0.0309,0.8817,-6.64,7.95,0.02,28.13
18053,0.2064,-0.0302,0.8898,-6.67,7.92,-0.03,28.11
18063,0.2048,-0.027,0.8875,-6.6,7.88,-0.06,28.12
18073,0.2065,-0.0275,0.8875,-6.53,7.91,-0.09,28.1
18083,0.2086,-0.0304,0.8824,-6.66,7.97,-0.05,28.11
18093,0.2087,-0.0322,0.8838,-6.64,7.94,-0.08,28.12
18103,0.2075,-0.0321,0.8892,-6.66,7.89,-0.06,28.1
18113,0.2107,-0.0316,0.8848,-6.67,7.95,-0.05,28.11
18123,0.2081,-0.0325,0.8843,-6.6,7.97,-0.05,28.09
18133,0.2053,-0.0299,0.8856,-6.58,7.89,0.02,28.11
18143,0.2052,-0.0253,0.8851,-6.61,7.88,0.02,28.13
18153,0.2046,-0.0273,0.8845,-6.6,7.91,-0.06,28.11
18163,0.209,-0.0267,0.8857,-6.63,7.89,0.05,28.14
18173,0.2062,-0.0237,0.8864,-6.67,7.94,0.0,28.12
18183,0.2074,-0.0275,0.8896,-6.63,7.89,-0.12,28.13
18193,0.2118,-0.0341,0.8855,-6.56,7.94,-0.08,28.11
18203,0.2052,-0.0305,0.8883,-6.66,7.88,-0.09,28.11
18213,0.2078,-0.0304,0.8865,-6.64,7.95,0.0,28.12
18223,0.207,-0.031,0.8888,-6.61,7.98,-0.08,28.12
18233,0.21,-0.031,0.8872,-6.61,7.92,-0.02,28.11
18243,0.2102,-0.0293,0.887,-6.64,7.92,-0.02,28.14
18253,0.2054,-0.0283,0.8871,-6.6,7.91,-0.05,28.12
18263,0.2057,-0.028,0.8888,-6.56,7.92,-0.09,28.09
18273,0.2069,-0.0303,0.8882,-6.6,7.92,-0.02,28.1
18283,0.2042,-0.0305,0.8907,-6.64,7.91,-0.05,28.13
18293,0.2084,-0.0292,0.886,-6.6,7.89,0.03,28.11
18303,0.2069,-0.0273,0.8856,-6.61,7.91,-0.05,28.14
18313,0.2062,-0.0277,0.8898,-6.64,7.95,-0.12,28.12
18323,0.2064,-0.0287,0.8824,-6.64,7.91,-0.14,28.13
18333,0.2091,-0.0292,0.881,-6.64,7.98,-0.11,28.12
18343,0.2047,-0.03,0.8867,-6.66,7.91,-0.09,28.14
18353,0.2062,-0.0306,0.8861,-6.61,7.83,-0.03,28.13
18363,0.2072,-0.0325,0.8851,-6.6,7.92,-0.06,28.12
18373,0.2079,-0.0269,0.8855,-6.64,7.88,-0.05,28.14
18383,0.2062,-0.0291,0.8889,-6.6,7.88,-0.08,28.14
18393,0.2063,-0.0277,0.8901,-6.61,7.91,-0.08,28.13
18403,0.2048,-0.026,0.891,-6.63,7.89,-0.11,28.08
18413,0.2086,-0.0277,0.8878,-6.64,7.97,-0.03,28.13
18423,0.2086,-0.0308,0.8867,-6.66,7.91,-0.03,28.1
18433,0.207,-0.0287,0.8879,-6.66,7.91,-0.06,28.11
18443,0.2086,-0.0294,0.8866,-6.61,7.94,0.0,28.15
18453,0.2087,-0.033,0.8878,-6.64,7.89,-0.06,28.14
18463,0.2072,-0.0283,0.8842,-6.67,7.95,-0.03,28.13
18473,0.2051,-0.0275,0.8835,-6.6,7.95,-0.03,28.14
18483,0.2062,-0.0309,0.885,-6.63,7.92,0.03,28.12
18493,0.2072,-0.03,0.8915,-6.66,7.89,-0.05,28.12
18503,0.2058,-0.0331,0.8917,-6.55,7.95,-0.09,28.12
18513,0.2083,-0.0308,0.8882,-6.61,7.94,0.0,28.12
18523,0.2084,-0.0309,0.8873,-6.6,7.92,-0.08,28.14
18533,0.2067,-0.0299,0.8873,-6.63,7.95,-0.06,28.14
18543,0.21,-0.0291,0.887,-6.56,7.85,-0.03,28.14
18553,0.2096,-0.0295,0.8855,-6.61,7.98,0.03,28.14
18563,0.2061,-0.0303,0.8832,-6.7,8.05,0.0,28.14
18573,0.2087,-0.0272,0.8843,-6.55,7.98,-0.02,28.12
18583,0.2076,-0.0308,0.8876,-6.6,7.89,-0.06,28.14
18593,0.2062,-0.0303,0.891,-6.56,7.92,0.0,28.13
18603,0.2076,-0.0276,0.8846,-6.58,7.97,-0.05,28.13
18613,0.2067,-0.0259,0.8862,-6.63,7.85,-0.05,28.13
18623,0.2108,-0.0267,0.889,-6.58,7.89,-0.03,28.14
18633,0.2069,-0.0288,0.8849,-6.72,7.94,-0.02,28.14
18643,0.2062,-0.0299,0.8875,-6.67,7.89,-0.02,28.14
18653,0.209,-0.0306,0.8864,-6.64,7.88,-0.03,28.12
18663,0.2076,-0.0312,0.8879,-6.63,7.92,0.03,28.14
18673,0.207,-0.0295,0.885,-6.64,7.92,-0.02,28.16
18683,0.2063,-0.0259,0.8844,-6.53,7.94,0.02,28.11
18693,0.2064,-0.0304,0.8835,-6.6,7.94,-0.05,28.12
18703,0.2064,-0.0282,0.8857,-6.64,8.0,-0.06,28.13
18713,0.209,-0.0314,0.8865,-6.63,7.91,-0.06,28.11
18723,0.2087,-0.026,0.8892,-6.66,7.98,-0.05,28.12
18733,0.2098,-0.0314,0.8877,-6.63,7.89,-0.09,28.15
18743,0.2098,-0.0292,0.8889,-6.6,7.86,-0.06,28.16
18753,0.2076,-0.0289,0.8887,-6.61,7.89,-0.05,28.14
18763,0.2095,-0.0293,0.8899,-6.64,7.92,-0.08,28.13
18773,0.2065,-0.03,0.8898,-6.6,7.89,-0.05,28.12
18783,0.2086,-0.0297,0.8831,-6.67,7.98,-0.08,28.13
18793,0.2075,-0.0299,0.8864,-6.66,7.94,-0.03,28.15
18803,0.205,-0.0299,0.8878,-6.64,7.97,-0.08,28.12
18813,0.2096,-0.0294,0.8875,-6.6,7.98,-0.02,28.12
18823,0.2075,-0.0293,0.8829,-6.61,7.95,-0.03,28.12
18833,0.2073,-0.0297,0.885,-6.6,7.92,-0.09,28.14
18843,0.2097,-0.0319,0.884,-6.66,7.88,-0.06,28.13
18853,0.2065,-0.0293,0.8868,-6.69,7.94,0.0,28.14
18863,0.2047,-0.0288,0.8879,-6.67,7.92,-0.05,28.14
18873,0.2064,-0.027,0.8839,-6.6,7.97,-0.09,28.15
18883,0.2089,-0.0271,0.8838,-6.6,7.86,-0.09,28.14
18893,0.208,-0.0282,0.8855,-6.63,7.94,0.0,28.15
18903,0.2069,-0.0305,0.8856,-6.61,7.89,-0.05,28.13
18913,0.2072,-0.031,0.8849,-6.63,7.89,-0.15,28.15
18923,0.2057,-0.0288,0.8892,-6.67,7.89,-0.02,28.16
18933,0.2061,-0.03,0.8912,-6.69,7.98,-0.05,28.16
18943,0.2073,-0.0302,0.8838,-6.64,7.95,0.0,28.13
18953,0.208,-0.0299,0.8868,-6.64,7.92,0.02,28.15
18963,0.2072,-0.0321,0.8882,-6.67,7.89,-0.05,28.14
18973,0.2063,-0.0317,0.884,-6.56,7.94,0.0,28.13
18983,0.2097,-0.0283,0.8871,-6.6,7.94,-0.09,28.14
18993,0.2081,-0.0305,0.8857,-6.61,7.91,-0.06,28.15
19003,0.208,-0.0298,0.8872,-6.56,7.89,-0.05,28.17
19013,0.2057,-0.0298,0.8866,-6.67,7.91,-0.08,28.15
19023,0.209,-0.0283,0.8872,-6.56,8.0,-0.08,28.14
19033,0.2074,-0.0315,0.8837,-6.6,7.85,-0.03,28.15
19043,0.2097,-0.0277,0.886,-6.53,7.95,-0.03,28.16
19053,0.2081,-0.0297,0.8883,-6.53,8.0,-0.11,28.14
19063,0.2048,-0.0294,0.8864,-6.58,7.92,0.0,28.17
19073,0.2083,-0.0302,0.8855,-6.61,7.91,-0.06,28.14
19083,0.2089,-0.0293,0.8854,-6.73,7.91,0.03,28.12
19093,0.2036,-0.0309,0.8888,-6.63,8.0,-0.08,28.14
19103,0.2087,-0.0289,0.8881,-6.6,7.92,0.0,28.12
19113,0.2108,-0.0294,0.8872,-6.6,7.92,-0.09,28.17
19123,0.2089,-0.0288,0.8876,-6.6,7.98,-0.08,28.16
19133,0.2076,-0.0303,0.8872,-6.6,7.86,-0.05,28.15
19143,0.207,-0.0289,0.8844,-6.64,8.02,-0.08,28.12
19153,0.2097,-0.0288,0.886,-6.61,7.91,-0.06,28.14
19163,0.2078,-0.028,0.8871,-6.6,7.95,-0.09,28.13
19173,0.2087,-0.0281,0.8853,-6.58,7.89,-0.03,28.13
19183,0.2054,-0.0282,0.8845,-6.6,7.91,-0.09,28.17
19193,0.2058,-0.0281,0.8867,-6.6,7.92,-0.08,28.16
19203,0.208,-0.0293,0.8856,-6.64,7.94,-0.05,28.15
19213,0.2086,-0.0288,0.885,-6.66,7.89,-0.06,28.13
19223,0.2074,-0.0319,0.8888,-6.61,7.92,-0.06,28.16
19233,0.2081,-0.0305,0.8893,-6.64,7.95,-0.05,28.15
19243,0.2091,-0.031,0.8881,-6.67,7.97,0.03,28.16
19253,0.205,-0.0319,0.8889,-6.63,7.92,-0.03,28.14
19263,0.2107,-0.032,0.8894,-6.63,7.89,-0.08,28.13
19273,0.2068,-0.0298,0.8876,-6.69,7.89,-0.06,28.12
19283,0.2075,-0.0309,0.887,-6.6,7.86,-0.08,28.14
19293,0.2085,-0.0293,0.8864,-6.64,7.83,0.02,28.16
19303,0.2098,-0.0278,0.8845,-6.55,7.92,-0.03,28.14
19313,0.2053,-0.0286,0.8878,-6.6,7.91,-0.05,28.14
19323,0.2052,-0.028,0.8864,-6.63,7.92,-0.06,28.13
19333,0.2047,-0.0284,0.8842,-6.7,7.94,-0.06,28.14
19343,0.2051,-0.0299,0.8868,-6.61,7.92,-0.08,28.14
19353,0.2063,-0.0306,0.8911,-6.61,7.88,-0.06,28.14
19363,0.2064,-0.0289,0.8857,-6.55,7.92,0.0,28.14
19373,0.2073,-0.0297,0.8872,-6.46,8.03,-0.05,28.15
19383,0.2098,-0.0305,0.8884,-6.61,7.92,-0.05,28.16
19393,0.2092,-0.0265,0.8873,-6.61,8.0,-0.05,28.18
19403,0.2056,-0.0294,0.8851,-6.58,7.94,-0.09,28.15
19413,0.2101,-0.0291,0.8864,-6.6,7.89,-0.09,28.16
19423,0.2065,-0.0255,0.8871,-6.63,7.89,-0.09,28.15
19433,0.2062,-0.0299,0.8857,-6.58,7.92,-0.08,28.17
19443,0.209,-0.031,0.8887,-6.55,7.88,-0.06,28.16
19453,0.2084,-0.0294,0.89,-6.64,7.85,-0.03,28.14
19463,0.2078,-0.0287,0.8906,-6.56,7.88,0.0,28.13
19473,0.2113,-0.0316,0.8872,-6.53,7.97,-0.06,28.16
19483,0.2087,-0.0298,0.8889,-6.6,7.92,-0.02,28.15
19493,0.21,-0.0271,0.8823,-6.58,7.89,-0.05,28.14
19503,0.2059,-0.0283,0.8866,-6.58,7.89,-0.02,28.16
19513,0.205,-0.0294,0.8851,-6.67,7.95,-0.08,28.16
19523,0.2064,-0.0281,0.8824,-6.58,7.95,-0.02,28.15
19533,0.2072,-0.0283,0.8844,-6.6,7.91,-0.05,28.17
19543,0.2032,-0.0277,0.881,-6.6,7.85,-0.06,28.15
19553,0.2053,-0.0295,0.8873,-6.6,7.94,-0.03,28.15
19563,0.2073,-0.027,0.8888,-6.7,7.95,-0.09,28.15
19573,0.2073,-0.0282,0.8866,-6.61,7.85,-0.03,28.15
19583,0.2083,-0.0312,0.8838,-6.58,7.91,-0.06,28.16
19593,0.2073,-0.0294,0.8884,-6.56,7.94,-0.12,28.16
19603,0.2089,-0.028,0.8851,-6.61,7.94,-0.03,28.16
19613,0.204,-0.0316,0.8864,-6.67,7.91,-0.08,28.15
19623,0.2057,-0.0277,0.8857,-6.63,7.86,-0.02,28.17
19633,0.2076,-0.0295,0.8868,-6.6,7.91,-0.05,28.15
19643,0.2064,-0.0281,0.8887,-6.67,7.89,-0.03,28.16
19653,0.2057,-0.0278,0.8849,-6.63,7.97,-0.15,28.16
19663,0.2053,-0.0291,0.8872,-6.63,7.92,-0.11,28.15
19673,0.2084,-0.0304,0.8862,-6.58,7.94,-0.09,28.16
19683,0.2094,-0.0327,0.887,-6.63,7.89,0.02,28.18
19693,0.208,-0.032,0.8882,-6.6,7.97,-0.06,28.18
19703,0.2094,-0.0287,0.8883,-6.6,7.89,-0.06,28.17
19713,0.2081,-0.0262,0.8853,-6.55,7.91,-0.09,28.16
19723,0.2059,-0.0247,0.8866,-6.55,7.91,-0.09,28.15
19733,0.2053,-0.0283,0.8881,-6.55,7.92,-0.06,28.15
19743,0.207,-0.0311,0.8889,-6.53,8.02,-0.06,28.17
19753,0.2089,-0.0312,0.8854,-6.67,7.97,-0.11,28.17
19763,0.2084,-0.0281,0.8867,-6.52,7.91,0.0,28.16
19773,0.2078,-0.0309,0.8824,-6.69,7.91,-0.05,28.16
19783,0.205,-0.0291,0.8871,-6.58,7.91,-0.08,28.15
19793,0.2085,-0.0298,0.8823,-6.63,7.92,0.02,28.15
19803,0.2091,-0.0306,0.8911,-6.66,7.94,-0.02,28.14
19813,0.2103,-0.0284,0.8866,-6.61,7.95,-0.05,28.16
19823,0.2094,-0.0284,0.8848,-6.61,7.91,-0.02,28.16
19833,0.2096,-0.031,0.8856,-6.69,7.86,-0.06,28.17
19843,0.2081,-0.0316,0.8871,-6.66,7.95,-0.02,28.18
19853,0.2051,-0.0308,0.8878,-6.56,7.91,-0.09,28.15
19863,0.2065,-0.0287,0.8857,-6.63,7.88,-0.03,28.16
19873,0.2064,-0.0278,0.8879,-6.58,7.92,-0.06,28.17
19883,0.2067,-0.0319,0.8834,-6.61,7.85,-0.11,28.16
19893,0.2083,-0.0298,0.8882,-6.6,7.91,-0.03,28.17
19903,0.2112,-0.0265,0.8888,-6.6,7.89,0.0,28.15
19913,0.2083,-0.0333,0.8837,-6.7,7.86,0.0,28.16
19923,0.2107,-0.0327,0.8827,-6.6,7.98,0.0,28.16
19933,0.2087,-0.0291,0.8859,-6.6,7.97,-0.02,28.14
19943,0.2083,-0.0291,0.89,-6.64,7.94,-0.06,28.16
19953,0.2085,-0.0289,0.8859,-6.64,7.95,-0.06,28.17
19963,0.2086,-0.0276,0.8802,-6.58,7.91,-0.03,28.15
19973,0.2081,-0.0305,0.8857,-6.6,7.94,-0.08,28.14
19983,0.2095,-0.0269,0.8866,-6.63,7.95,0.02,28.16
19993,0.209,-0.03,0.8849,-6.63,7.83,-0.08,28.15
20003,0.2078,-0.025,0.8864,-6.53,7.91,-0.02,28.15
20013,0.2061,-0.0272,0.8851,-6.58,7.91,-0.02,28.14
20023,0.2108,-0.0273,0.8898,-6.56,7.92,-0.02,28.16
20033,0.2091,-0.0298,0.8877,-6.6,7.95,-0.02,28.16
20043,0.2118,-0.0295,0.8889,-6.61,7.95,-0.05,28.14
20053,0.209,-0.0312,0.889,-6.56,8.0,0.0,28.17
20063,0.2061,-0.0298,0.8857,-6.63,7.91,-0.02,28.16
20073,0.2089,-0.0292,0.8846,-6.58,7.94,-0.02,28.16
20083,0.2081,-0.0302,0.8857,-6.61,7.94,-0.02,28.17
20093,0.2085,-0.0294,0.8859,-6.61,7.94,-0.02,28.17
20103,0.2062,-0.0315,0.8864,-6.6,7.94,-0.09,28.17
20113,0.207,-0.0293,0.8885,-6.69,7.92,-0.08,28.14
20123,0.208,-0.0289,0.8845,-6.64,7.91,-0.06,28.16
20133,0.2079,-0.0304,0.8865,-6.6,7.89,-0.03,28.15
20143,0.208,-0.0284,0.8867,-6.63,7.83,-0.03,28.18
20153,0.2064,-0.0321,0.8899,-6.64,7.91,0.0,28.14
20163,0.2092,-0.0294,0.8868,-6.53,7.95,-0.05,28.17
20173,0.2081,-0.0266,0.8867,-6.63,7.98,-0.11,28.16
20183,0.2057,-0.0306,0.8868,-6.63,7.91,-0.08,28.19
20193,0.2074,-0.0292,0.8871,-6.61,7.88,-0.03,28.17
20203,0.2086,-0.0292,0.8909,-6.61,7.94,-0.05,28.15
20213,0.2069,-0.028,0.8898,-6.55,7.92,-0.05,28.17
20223,0.2069,-0.0306,0.8884,-6.6,7.92,-0.08,28.17
20233,0.2087,-0.0316,0.8876,-6.66,7.94,-0.14,28.14
20243,0.2067,-0.031,0.8865,-6.66,7.94,-0.06,28.17
20253,0.2075,-0.0272,0.8873,-6.7,7.97,-0.08,28.18
20263,0.2076,-0.0261,0.8876,-6.55,7.91,-0.09,28.16
20273,0.2045,-0.0272,0.8856,-6.58,7.92,-0.08,28.18
20283,0.209,-0.0267,0.8906,-6.7,7.92,-0.09,28.16
20293,0.209,-0.0315,0.8873,-6.49,7.86,-0.02,28.14
20303,0.2081,-0.0325,0.8865,-6.52,7.88,0.02,28.16
20313,0.2084,-0.0292,0.8872,-6.66,7.94,-0.11,28.15
20323,0.207,-0.0292,0.8879,-6.56,7.89,-0.11,28.16
20333,0.2043,-0.0287,0.8895,-6.63,7.94,-0.06,28.17
20343,0.2058,-0.0259,0.8878,-6.64,7.94,-0.05,28.16
20353,0.2032,-0.0316,0.8867,-6.7,7.94,-0.05,28.18
20363,0.2074,-0.0289,0.8885,-6.6,7.97,-0.03,28.18
20373,0.2061,-0.031,0.8846,-6.58,7.92,-0.06,28.16
20383,0.2103,-0.031,0.8876,-6.58,7.95,-0.02,28.17
20393,0.2111,-0.0275,0.8845,-6.6,7.77,0.02,28.17
20403,0.2084,-0.0314,0.8839,-6.66,7.91,-0.03,28.16
20413,0.2106,-0.0287,0.8877,-6.61,7.89,-0.03,28.15
20423,0.2102,-0.0308,0.8828,-6.53,7.95,-0.08,28.18
20433,0.2091,-0.0293,0.8895,-6.61,7.92,-0.05,28.18
20443,0.2043,-0.0306,0.8865,-6.6,7.97,-0.08,28.18
20453,0.2041,-0.033,0.889,-6.56,7.91,-0.05,28.17
20463,0.209,-0.0294,0.8904,-6.53,7.86,-0.05,28.17
20473,0.2083,-0.0306,0.8876,-6.63,7.91,0.02,28.17
20483,0.2086,-0.0319,0.8859,-6.66,7.94,-0.05,28.16
20493,0.2102,-0.033,0.8865,-6.76,7.94,0.05,28.18
20503,0.2069,-0.0314,0.8893,-6.6,7.91,-0.06,28.17
20513,0.2057,-0.0308,0.8845,-6.7,7.97,-0.06,28.18
20523,0.2037,-0.0304,0.8914,-6.53,7.98,-0.11,28.17
20533,0.2052,-0.0288,0.8878,-6.61,7.92,-0.02,28.17
20543,0.2068,-0.0282,0.8875,-6.61,7.95,0.0,28.18
20553,0.2051,-0.0325,0.8871,-6.64,7.88,-0.05,28.15
20563,0.2026,-0.0282,0.8864,-6.66,7.97,-0.05,28.15
20573,0.2054,-0.0328,0.8866,-6.53,7.92,-0.03,28.16
20583,0.21,-0.0325,0.889,-6.56,7.92,0.0,28.15
20593,0.2113,-0.0292,0.8889,-6.55,7.91,-0.02,28.16
20603,0.2089,-0.0314,0.8872,-6.6,7.95,-0.02,28.16
20613,0.21,-0.0289,0.8903,-6.63,7.97,0.02,28.18
20623,0.208,-0.0288,0.89,-6.63,7.92,-0.12,28.2
20633,0.2086,-0.0281,0.8853,-6.63,8.0,-0.05,28.18
20643,0.2078,-0.0278,0.8843,-6.66,7.97,-0.03,28.18
20653,0.2096,-0.0306,0.8888,-6.63,7.94,-0.03,28.17
20663,0.2052,-0.0295,0.8894,-6.55,7.97,-0.03,28.16
20673,0.205,-0.0298,0.8892,-6.58,7.94,-0.03,28.17
20683,0.2087,-0.0281,0.8839,-6.63,7.91,-0.02,28.18
20693,0.2097,-0.0302,0.8883,-6.61,7.86,-0.08,28.18
20703,0.2074,-0.0297,0.8867,-6.58,7.94,-0.11,28.19
20713,0.2086,-0.0291,0.8859,-6.55,7.92,-0.05,28.19
20723,0.207,-0.0306,0.8888,-6.55,7.92,-0.06,28.19
20733,0.21,-0.032,0.8859,-6.61,7.91,-0.11,28.16
20743,0.2068,-0.0315,0.8883,-6.58,7.91,-0.05,28.19
20753,0.2087,-0.0317,0.8857,-6.6,7.98,-0.08,28.2
20763,0.2095,-0.0275,0.8857,-6.56,7.91,-0.08,28.16
20773,0.2079,-0.0298,0.8893,-6.63,7.92,-0.03,28.19
20783,0.2059,-0.0297,0.886,-6.66,7.98,-0.03,28.2
20793,0.2073,-0.0302,0.8876,-6.66,7.92,-0.08,28.18
20803,0.207,-0.0276,0.8904,-6.56,7.97,-0.03,28.17
20813,0.2085,-0.0297,0.8901,-6.63,7.91,-0.05,28.17
20823,0.2076,-0.0299,0.89,-6.58,7.95,-0.05,28.19
20833,0.2068,-0.0287,0.8884,-6.61,7.85,0.0,28.16
20843,0.2072,-0.0273,0.8826,-6.6,7.91,-0.05,28.19
20853,0.2096,-0.0288,0.8844,-6.67,7.95,-0.09,28.19
20863,0.2075,-0.0317,0.8888,-6.55,7.86,-0.12,28.17
20873,0.2089,-0.0287,0.8922,-6.64,7.94,-0.05,28.17
20883,0.2106,-0.0264,0.8877,-6.72,7.86,-0.08,28.2
20893,0.2064,-0.0298,0.8884,-6.6,7.85,-0.03,28.18
20903,0.2074,-0.0299,0.8865,-6.6,7.88,-0.02,28.19
20913,0.2048,-0.0283,0.8839,-6.64,7.91,-0.05,28.18
20923,0.2101,-0.0298,0.8826,-6.67,7.97,-0.06,28.21
20933,0.2086,-0.0276,0.8887,-6.5,7.97,0.06,28.19
20943,0.2052,-0.0273,0.8861,-6.63,7.95,-0.05,28.2
20953,0.2079,-0.03,0.8896,-6.64,7.92,-0.05,28.19
20963,0.2102,-0.03,0.8899,-6.55,7.95,0.03,28.17
20973,0.2095,-0.0277,0.8898,-6.56,7.95,-0.02,28.19
20983,0.2092,-0.03,0.8868,-6.67,7.88,-0.09,28.17
20993,0.2108,-0.028,0.8873,-6.72,7.94,-0.11,28.21
21003,0.2058,-0.0269,0.886,-6.63,8.0,-0.03,28.19
21013,0.2083,-0.0291,0.8866,-6.66,7.94,-0.08,28.21
21023,0.2091,-0.0289,0.8876,-6.66,7.92,-0.08,28.2
21033,0.2111,-0.0297,0.8848,-6.56,7.95,-0.17,28.2
21043,0.2106,-0.0282,0.8849,-6.66,7.89,-0.08,28.17
21053,0.2101,-0.0294,0.8878,-6.56,7.98,-0.09,28.19
21063,0.2089,-0.0293,0.8893,-6.56,7.91,-0.09,28.18
21073,0.2081,-0.0294,0.8876,-6.6,7.95,-0.05,28.17
21083,0.2084,-0.0277,0.8866,-6.64,7.86,-0.02,28.17
21093,0.208,-0.0287,0.8856,-6.53,7.98,-0.02,28.16
21103,0.21,-0.031,0.8853,-6.61,7.91,-0.02,28.2
21113,0.2118,-0.0281,0.8854,-6.63,7.85,-0.15,28.19
21123,0.2087,-0.0317,0.8861,-6.58,7.91,0.0,28.18
21133,0.2065,-0.0311,0.8892,-6.6,7.97,0.0,28.17
21143,0.2085,-0.0297,0.8817,-6.58,7.94,-0.06,28.19
21153,0.2073,-0.03,0.8828,-6.6,7.95,-0.06,28.18
21163,0.2085,-0.0264,0.8854,-6.61,7.91,-0.12,28.17
21173,0.2084,-0.028,0.8872,-6.61,7.94,-0.15,28.22
21183,0.2086,-0.0319,0.8864,-6.63,7.92,-0.09,28.18
21193,0.2065,-0.0284,0.8884,-6.58,7.85,-0.08,28.16
21203,0.2078,-0.0282,0.8839,-6.6,7.89,-0.05,28.19
21213,0.2075,-0.0304,0.8845,-6.56,7.91,0.0,28.22
21223,0.2075,-0.0276,0.8881,-6.6,7.91,-0.05,28.2
21233,0.2092,-0.0315,0.887,-6.6,7.94,-0.09,28.19
21243,0.2084,-0.0295,0.8855,-6.58,7.91,-0.08,28.2
21253,0.208,-0.0281,0.8855,-6.52,7.89,-0.05,28.19
21263,0.2056,-0.0292,0.8832,-6.61,7.92,-0.09,28.17
21273,0.2067,-0.0298,0.8851,-6.53,7.92,-0.14,28.18
21283,0.2092,-0.0302,0.8876,-6.63,7.94,-0.02,28.19
21294,0.2079,-0.0306,0.8884,-6.56,7.95,-0.05,28.19
21304,0.2051,-0.0309,0.8905,-6.56,7.97,-0.05,28.17
21314,0.2092,-0.0311,0.8884,-6.69,7.88,-0.11,28.21
21324,0.2086,-0.0283,0.8838,-6.56,7.92,-0.09,28.2
21334,0.2063,-0.0308,0.8859,-6.66,7.92,-0.12,28.19
21344,0.2073,-0.0291,0.885,-6.7,7.89,-0.03,28.19
21354,0.207,-0.0311,0.8862,-6.6,7.91,-0.03,28.19
21364,0.2084,-0.0289,0.8885,-6.53,7.92,-0.09,28.19
21374,0.2106,-0.0264,0.891,-6.61,7.97,-0.14,28.19
21384,0.209,-0.0287,0.8879,-6.56,7.98,0.02,28.19
21394,0.2086,-0.0303,0.8832,-6.63,7.95,-0.05,28.18
21404,0.2086,-0.0281,0.8873,-6.6,7.92,-0.08,28.22
21414,0.2106,-0.0272,0.8864,-6.58,7.94,0.0,28.2
21424,0.2056,-0.0291,0.8878,-6.63,7.86,-0.06,28.19
21434,0.2058,-0.026,0.8813,-6.63,7.89,-0.11,28.2
21444,0.2064,-0.0276,0.8832,-6.69,7.86,-0.05,28.21
21454,0.208,-0.0282,0.8839,-6.6,7.92,-0.02,28.19
21464,0.2096,-0.0295,0.8813,-6.66,8.0,0.0,28.19
21474,0.2072,-0.03,0.8871,-6.63,7.98,-0.02,28.2
21484,0.2089,-0.028,0.8875,-6.6,7.95,-0.06,28.19
21494,0.2096,-0.0298,0.8905,-6.58,7.88,-0.09,28.2
21504,0.2113,-0.0309,0.8881,-6.58,7.94,-0.02,28.2
21514,0.2083,-0.0302,0.8864,-6.64,8.0,-0.05,28.18
21524,0.2052,-0.0281,0.8848,-6.64,7.97,0.0,28.2
21534,0.2046,-0.0259,0.8871,-6.64,7.95,-0.11,28.19
21544,0.2079,-0.0248,0.8911,-6.69,7.91,-0.08,28.18
21554,0.2061,-0.0275,0.887,-6.66,8.0,0.02,28.19
21564,0.2057,-0.0303,0.8884,-6.64,7.97,-0.08,28.19
21574,0.2083,-0.0286,0.887,-6.61,7.92,-0.06,28.22
21584,0.2109,-0.0305,0.8856,-6.61,7.91,-0.02,28.17
21594,0.2139,-0.0316,0.8882,-6.52,7.94,0.0,28.2
21604,0.2094,-0.0292,0.8884,-6.58,7.95,-0.06,28.22
21614,0.2073,-0.0295,0.8871,-6.6,7.95,-0.05,28.18
21624,0.2085,-0.0288,0.887,-6.63,7.97,0.0,28.2
21634,0.2086,-0.0258,0.8875,-6.66,7.91,-0.06,28.19
21644,0.2081,-0.0264,0.8848,-6.7,7.86,-0.05,28.18
21654,0.208,-0.0289,0.8843,-6.66,7.92,-0.02,28.2
21664,0.2075,-0.028,0.8829,-6.61,7.86,0.0,28.2
21674,0.208,-0.0291,0.8867,-6.53,7.97,-0.11,28.2
21684,0.2089,-0.0284,0.889,-6.52,7.94,-0.08,28.2
21694,0.2089,-0.0283,0.889,-6.61,7.88,-0.02,28.19
21704,0.207,-0.0275,0.8876,-6.58,7.95,-0.03,28.2
21714,0.2075,-0.0299,0.8916,-6.64,7.94,-0.05,28.18
21724,0.2095,-0.026,0.8893,-6.63,7.98,0.02,28.22
21734,0.2072,-0.0281,0.8872,-6.61,7.92,0.0,28.21
21744,0.2097,-0.0284,0.8853,-6.61,7.85,0.0,28.21
21754,0.2072,-0.0281,0.8833,-6.63,7.97,-0.06,28.22
21764,0.2065,-0.0297,0.8871,-6.55,7.88,-0.05,28.2
21775,0.21,-0.0295,0.8866,-6.61,7.97,-0.03,28.19
21785,0.2091,-0.0276,0.8844,-6.63,7.92,-0.05,28.19
21795,0.2087,-0.0312,0.8901,-6.56,7.97,-0.03,28.21
21805,0.2087,-0.0305,0.8878,-6.63,7.95,0.0,28.21
21815,0.2083,-0.0286,0.8853,-6.55,7.88,-0.08,28.23
21825,0.209,-0.0302,0.8832,-6.75,7.89,-0.08,28.22
21835,0.204,-0.0299,0.8855,-6.63,7.98,-0.02,28.22
21845,0.2083,-0.0277,0.884,-6.6,7.97,-0.06,28.19
21855,0.2125,-0.0283,0.8837,-6.53,7.83,-0.06,28.2
21865,0.2101,-0.0308,0.8872,-6.6,7.94,-0.03,28.2
21875,0.208,-0.0293,0.8868,-6.61,7.92,0.0,28.18
21885,0.2058,-0.0287,0.8884,-6.56,7.97,-0.03,28.21
21895,0.2084,-0.0292,0.887,-6.61,7.89,0.0,28.19
21905,0.2073,-0.0283,0.8878,-6.67,7.95,-0.02,28.2
21915,0.2089,-0.0302,0.887,-6.64,8.02,0.02,28.2
21925,0.205,-0.0316,0.885,-6.52,7.86,-0.05,28.2
21935,0.2058,-0.0291,0.8838,-6.58,7.94,0.02,28.2
21945,0.2085,-0.0278,0.8867,-6.56,7.92,-0.05,28.2
21955,0.2095,-0.0254,0.8907,-6.61,7.94,-0.08,28.18
21965,0.2067,-0.0288,0.8864,-6.66,7.89,-0.08,28.18
21975,0.2108,-0.0309,0.8865,-6.6,7.95,-0.09,28.21
21985,0.2089,-0.03,0.8843,-6.61,7.95,-0.03,28.2
21995,0.2084,-0.0289,0.8861,-6.6,7.88,-0.05,28.22
22005,0.2076,-0.0277,0.8867,-6.52,7.95,-0.03,28.19
22015,0.207,-0.0298,0.8875,-6.56,7.95,-0.03,28.19
22025,0.2062,-0.0287,0.885,-6.63,7.86,-0.02,28.2
22035,0.2085,-0.0312,0.8896,-6.61,7.92,0.03,28.22
22045,0.207,-0.0284,0.8906,-6.67,7.95,-0.02,28.21
22055,0.2065,-0.0304,0.8865,-6.61,7.98,-0.14,28.2
22065,0.2084,-0.0304,0.8875,-6.63,7.91,-0.09,28.21
22075,0.2058,-0.0302,0.8849,-6.5,7.86,-0.03,28.22
22085,0.2054,-0.0303,0.8859,-6.63,7.89,-0.05,28.21
22095,0.2074,-0.0293,0.8842,-6.69,8.02,-0.02,28.19
22105,0.2043,-0.0295,0.8843,-6.64,7.88,0.0,28.2
22115,0.2073,-0.0289,0.8879,-6.58,7.89,0.0,28.21
22125,0.2056,-0.0273,0.8846,-6.61,7.98,-0.05,28.22
22135,0.2062,-0.0292,0.8882,-6.66,7.98,-0.03,28.2
22145,0.2086,-0.0303,0.8846,-6.6,7.94,-0.03,28.22
22155,0.2096,-0.0261,0.8875,-6.63,7.94,-0.03,28.21
22165,0.2092,-0.0297,0.886,-6.64,7.89,-0.05,28.19
22175,0.2097,-0.0271,0.8907,-6.64,7.94,-0.11,28.2
22185,0.2101,-0.0306,0.8915,-6.67,7.95,0.05,28.23
22195,0.2094,-0.03,0.886,-6.55,7.89,-0.06,28.21
22205,0.207,-0.0297,0.8875,-6.56,7.88,-0.06,28.19
22215,0.2072,-0.0322,0.8842,-6.63,7.91,0.02,28.23
22225,0.2063,-0.0292,0.8824,-6.66,7.94,-0.09,28.21
22235,0.2051,-0.0288,0.8845,-6.53,7.95,-0.02,28.2
22245,0.205,-0.0289,0.8833,-6.58,7.91,-0.03,28.2
22255,0.2069,-0.0288,0.8855,-6.6,7.92,0.03,28.24
22265,0.2085,-0.0323,0.8856,-6.64,7.85,-0.05,28.22
22275,0.208,-0.0305,0.8861,-6.58,7.89,-0.05,28.22
22285,0.2053,-0.0317,0.8879,-6.53,7.94,-0.12,28.23
22295,0.2087,-0.0302,0.892,-6.55,7.89,-0.03,28.21
22305,0.2103,-0.0295,0.8889,-6.56,7.94,-0.03,28.19
22315,0.2095,-0.0295,0.8893,-6.58,7.91,-0.03,28.19
22325,0.2072,-0.0298,0.8885,-6.6,7.89,-0.02,28.21
22335,0.2083,-0.0317,0.889,-6.64,7.94,0.03,28.22
22345,0.2045,-0.0311,0.8838,-6.63,8.02,0.02,28.2
22355,0.2072,-0.031,0.8865,-6.63,7.94,0.0,28.23
22365,0.2057,-0.032,0.8867,-6.64,7.98,-0.06,28.2
22375,0.2063,-0.0283,0.8851,-6.63,7.89,-0.03,28.22
22385,0.2087,-0.0284,0.8871,-6.49,7.91,-0.05,28.21
22395,0.2095,-0.0282,0.8877,-6.55,7.92,-0.03,28.23
22405,0.2113,-0.0259,0.8876,-6.64,7.86,0.02,28.23
22415,0.2111,-0.0288,0.8878,-6.52,7.94,-0.09,28.2
22425,0.2106,-0.0289,0.886,-6.61,7.92,-0.09,28.22
22435,0.21,-0.0305,0.8855,-6.61,7.91,-0.06,28.22
22445,0.2094,-0.028,0.8882,-6.7,7.91,-0.05,28.19
22455,0.2076,-0.0289,0.8813,-6.58,8.0,-0.05,28.21
22465,0.2054,-0.03,0.8873,-6.55,7.94,-0.08,28.24
22475,0.2053,-0.0273,0.8876,-6.63,7.88,0.02,28.2
22485,0.2039,-0.0277,0.8929,-6.64,7.91,-0.06,28.22
22495,0.205,-0.0289,0.891,-6.56,7.89,-0.05,28.21
22505,0.2062,-0.0297,0.8884,-6.63,7.97,-0.02,28.22
22515,0.208,-0.0291,0.8894,-6.63,7.92,-0.03,28.21
22525,0.2075,-0.0283,0.8911,-6.64,7.94,0.06,28.22
22535,0.2107,-0.0311,0.8877,-6.56,7.91,-0.06,28.21
22545,0.2084,-0.0287,0.8828,-6.63,7.94,-0.03,28.23
22555,0.2075,-0.0303,0.8876,-6.61,7.89,-0.09,28.23
22565,0.2095,-0.0271,0.8837,-6.56,7.91,-0.03,28.22
22575,0.2051,-0.0316,0.884,-6.56,7.86,0.02,28.23
22585,0.2076,-0.0326,0.8829,-6.63,7.94,-0.03,28.22
22595,0.2074,-0.0302,0.8881,-6.6,7.88,-0.05,28.22
22605,0.2078,-0.0286,0.8859,-6.64,7.88,-0.09,28.23
22615,0.207,-0.0299,0.8856,-6.75,7.94,-0.05,28.23
22625,0.2095,-0.0304,0.8898,-6.6,7.92,-0.08,28.19
22635,0.2109,-0.0277,0.8887,-6.55,7.94,-0.08,28.19
22645,0.2074,-0.0306,0.8865,-6.66,7.88,-0.03,28.19
22655,0.2078,-0.0298,0.8842,-6.58,7.92,-0.09,28.22
22665,0.2076,-0.0282,0.8883,-6.63,7.91,-0.03,28.22
22675,0.2065,-0.0316,0.8834,-6.64,7.92,-0.08,28.23
22685,0.2094,-0.0288,0.8875,-6.67,7.91,0.03,28.23
22695,0.2058,-0.0302,0.8862,-6.58,7.94,-0.02,28.23
22705,0.2074,-0.0278,0.8856,-6.56,7.94,-0.09,28.23
22715,0.2068,-0.0291,0.8884,-6.55,7.88,-0.03,28.21
22725,0.2081,-0.027,0.8911,-6.72,7.94,0.03,28.25
22735,0.2063,-0.0295,0.8865,-6.6,7.89,-0.03,28.23
22745,0.2064,-0.0286,0.8851,-6.64,7.92,-0.06,28.24
22755,0.2086,-0.0293,0.8894,-6.63,7.98,-0.09,28.22
22765,0.2102,-0.0292,0.8854,-6.61,8.02,-0.12,28.2
22775,0.2107,-0.0312,0.8876,-6.6,7.97,-0.08,28.22
22785,0.208,-0.0288,0.885,-6.61,7.94,-0.08,28.22
22795,0.2075,-0.0303,0.8889,-6.6,7.92,-0.03,28.25
22805,0.2087,-0.0282,0.8871,-6.6,7.91,-0.02,28.26
22815,0.2045,-0.0258,0.8849,-6.67,7.94,-0.08,28.23
22825,0.2068,-0.0312,0.8831,-6.61,7.97,-0.08,28.21
22835,0.2068,-0.0297,0.8894,-6.67,7.92,-0.08,28.22
22845,0.2056,-0.0315,0.8872,-6.61,7.92,-0.02,28.24
22855,0.2091,-0.0305,0.8907,-6.58,7.95,-0.06,28.22
22865,0.2051,-0.03,0.8845,-6.67,8.0,0.0,28.23
22875,0.2085,-0.0319,0.8859,-6.61,7.92,-0.02,28.22
22885,0.2057,-0.0334,0.887,-6.66,7.94,-0.11,28.23
22895,0.2068,-0.0322,0.885,-6.56,7.92,-0.08,28.24
22905,0.2085,-0.0306,0.884,-6.61,7.94,-0.08,28.25
22915,0.2091,-0.0306,0.8853,-6.61,7.91,-0.08,28.22
22925,0.2073,-0.0286,0.8851,-6.66,7.95,-0.02,28.23
22935,0.2069,-0.0302,0.8853,-6.64,7.88,-0.02,28.22
22945,0.2067,-0.0309,0.8866,-6.6,7.95,0.0,28.22
22955,0.2102,-0.0292,0.8854,-6.61,7.97,-0.05,28.23
22965,0.2092,-0.0293,0.8866,-6.58,7.89,-0.09,28.22
22975,0.2062,-0.028,0.8859,-6.55,7.97,-0.02,28.23
22985,0.2062,-0.0303,0.8845,-6.58,7.86,-0.06,28.24
22995,0.2045,-0.0309,0.8889,-6.58,7.92,-0.03,28.25
23005,0.2083,-0.0309,0.8865,-6.64,7.94,-0.03,28.27
23015,0.2087,-0.0311,0.8853,-6.6,7.97,-0.11,28.22
23025,0.2058,-0.0305,0.8844,-6.61,7.94,-0.09,28.24
23035,0.207,-0.032,0.8868,-6.61,7.83,-0.05,28.23
23045,0.2107,-0.0282,0.8842,-6.53,8.0,-0.06,28.24
23055,0.2114,-0.0264,0.8892,-6.56,7.95,-0.08,28.24
23065,0.2079,-0.0283,0.8859,-6.56,7.94,-0.06,28.24
23075,0.2061,-0.0314,0.8875,-6.61,7.92,-0.09,28.22
23085,0.2053,-0.0284,0.8855,-6.6,7.89,-0.03,28.24
23095,0.2076,-0.0299,0.8826,-6.63,8.02,0.03,28.24
23105,0.2067,-0.0287,0.8868,-6.61,8.02,-0.08,28.24
23115,0.2064,-0.0304,0.8865,-6.6,7.89,-0.05,28.24
23125,0.2079,-0.0314,0.8845,-6.55,7.98,-0.08,28.25
23135,0.2079,-0.0304,0.8871,-6.58,7.97,-0.08,28.24
23145,0.2102,-0.03,0.8888,-6.63,7.92,-0.05,28.24
23155,0.2106,-0.0295,0.8914,-6.63,7.98,-0.11,28.24
23165,0.21,-0.0267,0.8927,-6.6,7.95,-0.03,28.24
23175,0.2062,-0.0275,0.8944,-6.61,7.92,-0.08,28.24
23185,0.2089,-0.0262,0.8887,-6.69,7.97,-0.08,28.22
23195,0.2061,-0.0295,0.8867,-6.58,7.95,-0.05,28.24
23205,0.2083,-0.0293,0.8877,-6.63,7.86,0.03,28.24
23215,0.2074,-0.028,0.8885,-6.61,7.92,-0.08,28.23
23225,0.2078,-0.0336,0.8839,-6.58,7.83,-0.06,28.22
23235,0.2096,-0.0299,0.8823,-6.61,7.91,0.0,28.24
23245,0.2102,-0.0304,0.8871,-6.66,7.91,0.0,28.27
23255,0.2079,-0.031,0.8892,-6.64,7.97,0.0,28.27
23265,0.2094,-0.032,0.8914,-6.6,7.92,-0.02,28.27
23275,0.2075,-0.0298,0.8876,-6.58,8.06,-0.03,28.24
23285,0.2078,-0.0302,0.8866,-6.55,7.88,0.05,28.24
23295,0.2064,-0.0303,0.887,-6.55,7.95,-0.09,28.24
23305,0.2059,-0.0278,0.8851,-6.53,8.02,-0.06,28.25
23315,0.2048,-0.0277,0.8855,-6.61,7.97,0.02,28.27
23325,0.2063,-0.0276,0.8835,-6.67,7.91,-0.02,28.26
23335,0.2048,-0.0273,0.8855,-6.63,7.88,0.02,28.25
23345,0.2063,-0.0286,0.8864,-6.58,7.88,0.05,28.25
23355,0.2065,-0.0278,0.8865,-6.53,7.95,-0.08,28.22
23365,0.2057,-0.0289,0.8879,-6.66,7.89,-0.02,28.24
23375,0.2068,-0.0306,0.8878,-6.67,7.91,-0.08,28.25
23385,0.2068,-0.0298,0.8883,-6.61,7.95,-0.06,28.24
23395,0.2076,-0.0295,0.8888,-6.58,7.91,-0.06,28.25
23405,0.2056,-0.0293,0.8895,-6.6,7.94,-0.03,28.24
23415,0.2079,-0.0283,0.8859,-6.49,7.94,-0.05,28.24
23425,0.2064,-0.0297,0.8868,-6.58,7.89,-0.05,28.25
23435,0.2089,-0.028,0.884,-6.6,7.97,-0.06,28.24
23445,0.2089,-0.0295,0.8866,-6.6,7.95,-0.06,28.24
23455,0.2057,-0.0253,0.8849,-6.58,7.95,-0.09,28.24
23465,0.2085,-0.0292,0.8871,-6.64,7.89,-0.08,28.24
23475,0.2067,-0.0304,0.884,-6.67,7.88,-0.08,28.25
23485,0.2072,-0.0309,0.8835,-6.64,7.91,-0.08,28.27
23495,0.2095,-0.0332,0.8871,-6.56,7.91,-0.09,28.25
23505,0.2069,-0.0311,0.8871,-6.66,7.89,-0.03,28.26
23515,0.2084,-0.0302,0.8861,-6.67,7.89,0.0,28.26
23525,0.2051,-0.0319,0.8889,-6.64,7.92,-0.03,28.26
23535,0.208,-0.0317,0.8857,-6.58,7.94,0.0,28.26
23545,0.2094,-0.0312,0.8857,-6.6,7.97,-0.08,28.22
23555,0.2074,-0.0287,0.8853,-6.61,7.97,-0.15,28.23
23565,0.2079,-0.0308,0.8845,-6.6,7.86,-0.09,28.23
23575,0.2058,-0.0272,0.8878,-6.61,7.88,-0.05,28.26
23585,0.2108,-0.0266,0.89,-6.67,7.92,-0.09,28.27
23595,0.2065,-0.0245,0.8856,-6.52,7.94,-0.06,28.27
23605,0.2059,-0.0269,0.89,-6.67,7.95,-0.03,28.22
23615,0.2064,-0.0292,0.8856,-6.66,7.88,0.05,28.26
23625,0.2059,-0.0299,0.8879,-6.6,7.92,-0.06,28.21
23635,0.2043,-0.0302,0.8876,-6.64,7.92,0.0,28.21
23645,0.2068,-0.0298,0.8882,-6.63,7.95,-0.06,28.24
23655,0.2096,-0.0299,0.8883,-6.61,7.92,0.0,28.25
23665,0.2085,-0.0289,0.8859,-6.63,8.0,-0.15,28.26
23675,0.2073,-0.0287,0.8875,-6.6,7.92,0.0,28.25
23685,0.2101,-0.028,0.8907,-6.55,7.91,-0.02,28.28
23695,0.2098,-0.03,0.887,-6.61,7.89,0.02,28.26
23705,0.2052,-0.0309,0.8876,-6.6,7.92,0.0,28.24
23715,0.2051,-0.0267,0.8842,-6.63,7.89,0.05,28.27
23725,0.2059,-0.0259,0.8868,-6.63,7.89,-0.05,28.24
23735,0.2095,-0.0287,0.8827,-6.66,7.91,0.0,28.25
23745,0.2075,-0.0294,0.8871,-6.69,7.94,-0.02,28.25
23755,0.2064,-0.0299,0.887,-6.66,7.88,-0.08,28.25
23765,0.2087,-0.0333,0.8854,-6.6,8.02,-0.03,28.21
23775,0.2074,-0.0278,0.8856,-6.66,7.94,-0.11,28.25
23785,0.2096,-0.0272,0.887,-6.53,7.97,-0.02,28.27
23795,0.2067,-0.0278,0.8857,-6.63,7.88,-0.09,28.25
23805,0.2104,-0.0288,0.8824,-6.6,8.0,0.05,28.23
23815,0.2073,-0.0281,0.8888,-6.61,7.95,0.02,28.27
23825,0.2073,-0.0289,0.8892,-6.63,7.92,0.0,28.27
23835,0.207,-0.0328,0.8872,-6.58,7.94,-0.11,28.28
23845,0.2086,-0.0298,0.8818,-6.56,7.91,-0.05,28.28
23855,0.2068,-0.0293,0.885,-6.66,7.89,-0.03,28.25
23865,0.2086,-0.0297,0.8873,-6.66,7.97,-0.12,28.26
23875,0.2061,-0.0294,0.8884,-6.56,7.94,-0.03,28.27
23885,0.2095,-0.0284,0.8849,-6.63,7.91,-0.09,28.27
23895,0.2094,-0.0306,0.8894,-6.63,7.95,-0.11,28.27
23905,0.2069,-0.0295,0.8867,-6.6,7.91,-0.05,28.23
23915,0.2072,-0.0303,0.8855,-6.61,7.91,-0.05,28.24
23925,0.2042,-0.0283,0.8857,-6.6,7.98,0.05,28.24
23935,0.2048,-0.0277,0.8884,-6.66,7.95,0.05,28.25
23945,0.207,-0.0303,0.8894,-6.66,7.95,-0.02,28.25
23955,0.2075,-0.03,0.8896,-6.6,7.88,-0.02,28.27
23965,0.2085,-0.0322,0.8862,-6.58,7.95,-0.03,28.26
23975,0.2086,-0.0283,0.884,-6.53,7.94,-0.09,28.24
23985,0.2048,-0.0273,0.8862,-6.6,7.89,-0.02,28.25
23995,0.2062,-0.0298,0.8844,-6.63,7.95,-0.09,28.26
24005,0.2057,-0.0283,0.8845,-6.67,7.94,-0.03,28.28
24015,0.2106,-0.0311,0.8862,-6.69,7.92,-0.05,28.24
24025,0.2069,-0.0311,0.8875,-6.64,7.91,-0.11,28.26
24035,0.2083,-0.0299,0.8903,-6.64,7.89,0.0,28.27
24045,0.2098,-0.0283,0.8844,-6.64,7.92,-0.02,28.28
24055,0.2058,-0.0284,0.8887,-6.64,7.92,-0.14,28.26
24065,0.2068,-0.0294,0.8899,-6.66,7.94,0.02,28.27
24075,0.2081,-0.0317,0.8862,-6.67,7.97,-0.06,28.22
24085,0.2078,-0.028,0.8845,-6.6,7.95,-0.03,28.27
24095,0.2085,-0.0295,0.8854,-6.61,7.89,-0.11,28.26
24105,0.2031,-0.0271,0.8851,-6.64,7.94,-0.03,28.27
24115,0.2069,-0.0321,0.8875,-6.58,7.94,-0.03,28.27
24125,0.208,-0.0284,0.8906,-6.67,7.95,-0.02,28.25
24135,0.2062,-0.0311,0.8844,-6.67,7.95,-0.05,28.25
24145,0.2094,-0.0316,0.887,-6.56,7.92,-0.05,28.26
24155,0.2086,-0.0288,0.8864,-6.61,7.89,0.03,28.26
24165,0.2086,-0.0304,0.8838,-6.55,8.0,0.0,28.22
24175,0.2076,-0.0288,0.8862,-6.56,7.88,-0.02,28.26
24186,0.2063,-0.0299,0.8854,-6.56,7.91,-0.06,28.23
24196,0.2047,-0.0273,0.8871,-6.6,7.91,-0.06,28.26
24208,0.208,-0.0288,0.89,-6.64,8.0,-0.02,28.25
24218,0.2057,-0.0293,0.8827,-6.58,7.88,0.02,28.27
24228,0.2068,-0.0293,0.8844,-6.67,7.91,-0.03,28.26
24238,0.209,-0.027,0.8835,-6.67,7.91,-0.06,28.26
24248,0.2101,-0.0281,0.8901,-6.64,7.88,0.05,28.27
24259,0.2065,-0.0294,0.887,-6.61,7.88,-0.06,28.27
24269,0.209,-0.0341,0.887,-6.63,7.82,-0.11,28.24
24279,0.2096,-0.0284,0.8918,-6.63,7.91,0.0,28.26
24289,0.207,-0.031,0.889,-6.6,7.88,-0.05,28.25
24299,0.2074,-0.0276,0.8888,-6.67,7.88,0.0,28.23
24309,0.2083,-0.03,0.8867,-6.64,7.91,-0.08,28.24
24319,0.2068,-0.0276,0.8867,-6.64,7.91,-0.05,28.26
24329,0.2064,-0.0298,0.8892,-6.6,7.95,0.02,28.23
24339,0.2074,-0.0289,0.8844,-6.52,7.89,-0.02,28.26
24349,0.2075,-0.0282,0.8865,-6.64,7.97,-0.09,28.27
24359,0.2072,-0.0312,0.8864,-6.64,7.91,-0.03,28.24
24369,0.2086,-0.0308,0.8881,-6.6,7.91,-0.03,28.27
24379,0.208,-0.0306,0.8917,-6.61,7.86,-0.06,28.25
24389,0.2076,-0.0299,0.8892,-6.53,7.92,-0.03,28.25
24399,0.209,-0.0287,0.8871,-6.66,7.89,-0.02,28.27
24409,0.2081,-0.0271,0.8878,-6.53,7.89,-0.02,28.27
24419,0.2079,-0.0321,0.8842,-6.6,7.92,-0.06,28.26
24429,0.2087,-0.0288,0.8826,-6.64,7.95,-0.03,28.26
24439,0.2073,-0.028,0.8851,-6.56,7.92,0.02,28.26
24449,0.2076,-0.0292,0.8881,-6.64,7.91,-0.09,28.23
24459,0.2074,-0.0267,0.8833,-6.67,7.95,0.02,28.26
24469,0.208,-0.0302,0.8835,-6.61,8.05,-0.08,28.28
24479,0.208,-0.0299,0.8889,-6.58,7.88,-0.02,28.26
24489,0.2095,-0.0331,0.8898,-6.61,7.89,0.02,28.28
24499,0.2096,-0.0304,0.8893,-6.64,7.89,-0.06,28.26
24509,0.2075,-0.0293,0.8849,-6.6,7.91,-0.02,28.27
24519,0.2073,-0.031,0.891,-6.6,7.91,-0.06,28.28
24529,0.2098,-0.0288,0.8903,-6.64,7.98,-0.17,28.28
24539,0.2104,-0.03,0.8861,-6.69,7.89,-0.06,28.28
24550,0.2074,-0.0271,0.8923,-6.56,7.97,-0.03,28.27
24560,0.205,-0.0278,0.8861,-6.63,7.92,-0.06,28.26
24570,0.2098,-0.0276,0.8839,-6.7,7.92,-0.08,28.25
24580,0.2046,-0.0304,0.8835,-6.58,7.92,-0.06,28.29
24590,0.2052,-0.0302,0.885,-6.64,7.95,-0.12,28.28
24600,0.2063,-0.031,0.8887,-6.64,7.95,0.0,28.27
24610,0.2119,-0.0314,0.8883,-6.64,7.91,-0.05,28.28
24620,0.2056,-0.0309,0.8873,-6.56,7.92,-0.06,28.26
24631,0.2078,-0.0293,0.8898,-6.55,7.97,-0.02,28.26
24641,0.2083,-0.0289,0.8865,-6.66,7.92,-0.08,28.27
24651,0.2112,-0.0291,0.8851,-6.56,7.95,-0.08,28.25
24661,0.2075,-0.0312,0.8888,-6.6,7.95,-0.09,28.25
24671,0.2063,-0.0297,0.8849,-6.63,7.98,-0.11,28.29
24681,0.2052,-0.0311,0.8879,-6.6,7.89,-0.03,28.27
24691,0.2031,-0.0272,0.8845,-6.64,7.88,-0.09,28.28
24701,0.207,-0.0304,0.8887,-6.6,7.91,-0.02,28.27
24711,0.2062,-0.0312,0.8843,-6.58,7.95,-0.08,28.27
24721,0.207,-0.0277,0.8888,-6.69,7.92,-0.06,28.25
24731,0.2101,-0.0275,0.8857,-6.6,7.91,-0.06,28.28
24741,0.2035,-0.026,0.8872,-6.55,7.94,-0.05,28.26
24751,0.21,-0.0315,0.8865,-6.61,7.92,-0.05,28.25
24761,0.2058,-0.0337,0.8887,-6.6,7.91,-0.09,28.28
24771,0.2056,-0.033,0.8844,-6.64,7.91,-0.09,28.3
24781,0.2056,-0.03,0.8883,-6.66,7.98,-0.03,28.26
24791,0.207,-0.0302,0.8857,-6.61,7.92,-0.06,28.27
24801,0.2078,-0.0261,0.8892,-6.61,7.91,-0.14,28.26
24811,0.2085,-0.03,0.8878,-6.6,7.97,-0.08,28.27
24821,0.2065,-0.0282,0.8864,-6.66,7.92,-0.08,28.27
24831,0.2075,-0.0277,0.8879,-6.63,7.94,-0.08,28.27
24841,0.2091,-0.0311,0.8885,-6.6,7.88,-0.03,28.27
24851,0.2098,-0.031,0.8859,-6.63,7.91,-0.09,28.28
24861,0.2086,-0.0315,0.8815,-6.63,7.89,-0.02,28.27
24871,0.2065,-0.0317,0.8829,-6.56,7.95,-0.11,28.29
24881,0.208,-0.0303,0.887,-6.63,7.89,-0.05,28.28
24891,0.2054,-0.0273,0.8888,-6.58,7.91,0.0,28.29
24901,0.2062,-0.0317,0.8901,-6.6,7.89,-0.08,28.28
24911,0.2097,-0.0288,0.8903,-6.6,7.97,-0.05,28.27
24921,0.2083,-0.0308,0.8893,-6.61,7.89,-0.05,28.27
24931,0.2078,-0.0321,0.8857,-6.6,7.91,-0.02,28.28
24941,0.2089,-0.0293,0.8887,-6.66,7.91,-0.08,28.25
24951,0.2089,-0.0294,0.8855,-6.6,7.86,-0.12,28.27
24961,0.2073,-0.0304,0.891,-6.63,7.91,0.0,28.27
24971,0.2078,-0.0299,0.887,-6.56,7.91,-0.08,28.27
24981,0.2096,-0.0316,0.884,-6.63,7.88,-0.03,28.26
24991,0.208,-0.0295,0.8853,-6.6,7.92,-0.02,28.27
25001,0.2067,-0.0302,0.8898,-6.61,7.91,-0.06,28.27
25011,0.2057,-0.031,0.8883,-6.55,7.88,-0.09,28.29
25021,0.2059,-0.0332,0.8889,-6.63,7.92,0.02,28.27
25031,0.2061,-0.031,0.8899,-6.64,7.89,-0.03,28.26
25041,0.2111,-0.0304,0.8895,-6.58,7.91,0.02,28.27
25051,0.2111,-0.0264,0.8907,-6.61,7.95,-0.06,28.28
25061,0.2092,-0.0288,0.8877,-6.5,7.91,-0.09,28.27
25071,0.2076,-0.0251,0.8843,-6.55,7.95,-0.06,28.29
25081,0.2061,-0.0275,0.8872,-6.6,7.95,-0.02,28.27
25091,0.2037,-0.0294,0.8856,-6.56,7.94,-0.05,28.26
25101,0.2059,-0.0302,0.8838,-6.55,7.94,-0.03,28.27
25111,0.2045,-0.0332,0.8843,-6.75,7.88,0.0,28.29
25121,0.204,-0.0306,0.8876,-6.58,7.89,-0.05,28.25
25131,0.2085,-0.0344,0.8867,-6.63,7.91,0.02,28.26
25141,0.2076,-0.0331,0.8877,-6.53,7.92,-0.05,28.3
25151,0.2111,-0.0309,0.8895,-6.58,7.91,-0.02,28.27
25161,0.2122,-0.0273,0.8961,-6.52,8.0,0.02,28.29
25171,0.2112,-0.0223,0.8931,-6.53,7.94,-0.03,28.29
25181,0.2123,-0.0204,0.8888,-6.63,7.91,-0.08,28.29
25191,0.21,-0.0264,0.8857,-6.5,7.91,-0.08,28.3
25201,0.2094,-0.024,0.8868,-6.6,7.94,0.02,28.26
25211,0.2069,-0.0281,0.8818,-6.61,7.98,0.05,28.27
25221,0.2042,-0.0277,0.8821,-6.64,7.92,0.02,28.3
25231,0.2041,-0.0273,0.8832,-6.63,7.95,0.0,28.27
25241,0.2028,-0.0286,0.8854,-6.56,8.02,-0.08,28.28
25251,0.2063,-0.0292,0.8829,-6.61,7.91,-0.02,28.31
25261,0.208,-0.0309,0.8817,-6.63,8.0,-0.03,28.28
25271,0.2072,-0.032,0.8871,-6.63,8.0,-0.03,28.27
25281,0.2102,-0.0331,0.8914,-6.63,7.91,-0.06,28.26
25292,0.2136,-0.0344,0.9003,-6.56,7.91,-0.11,28.29
25302,0.2146,-0.0302,0.897,-6.63,8.0,-0.08,28.26
25312,0.2128,-0.0283,0.8939,-6.56,7.98,-0.03,28.28
25322,0.2098,-0.0273,0.8866,-6.61,7.98,-0.08,28.29
25332,0.2069,-0.027,0.8812,-6.58,7.95,-0.08,28.29
25342,0.2054,-0.0243,0.8756,-6.52,7.97,-0.05,28.27
25352,0.2057,-0.0297,0.8778,-6.67,7.92,0.03,28.29
25362,0.2042,-0.0293,0.8794,-6.64,7.91,-0.03,28.27
25372,0.201,-0.0284,0.8801,-6.53,7.91,-0.12,28.29
25382,0.2039,-0.0349,0.8872,-6.72,8.0,-0.02,28.29
25392,0.2064,-0.0316,0.8893,-6.61,7.92,-0.02,28.31
25402,0.209,-0.0365,0.8876,-6.55,7.91,-0.02,28.31
25412,0.212,-0.0343,0.8906,-6.55,7.94,0.06,28.28
25423,0.2126,-0.0303,0.8954,-6.46,7.97,-0.14,28.28
25433,0.2119,-0.0299,0.8981,-6.5,7.95,-0.11,28.28
25443,0.2113,-0.0273,0.896,-6.55,7.95,-0.03,28.31
25453,0.2197,-0.0237,0.89,-6.49,7.94,-0.06,28.28
25463,0.215,-0.0201,0.8827,-6.5,7.88,-0.03,28.3
25473,0.2051,-0.0256,0.8766,-6.72,7.98,0.02,28.27
25483,0.2002,-0.0231,0.8776,-6.72,8.05,0.11,28.28
25493,0.1985,-0.0222,0.8756,-6.66,7.85,0.05,28.29
25503,0.2024,-0.0238,0.8787,-6.64,7.86,-0.05,28.29
25513,0.2021,-0.0283,0.8871,-6.67,7.83,0.02,28.3
25523,0.2072,-0.0319,0.8901,-6.67,7.88,0.0,28.29
25533,0.2068,-0.0356,0.8927,-6.67,7.89,-0.05,28.29
25543,0.2091,-0.0337,0.8936,-6.64,7.83,0.02,28.27
25553,0.2102,-0.0339,0.8992,-6.61,7.86,-0.08,28.3
25563,0.2102,-0.0333,0.8883,-6.61,7.94,-0.08,28.27
25573,0.2084,-0.0315,0.8888,-6.52,7.95,0.02,28.31
25583,0.2131,-0.0282,0.8837,-6.6,7.88,-0.05,28.3
25593,0.2075,-0.0305,0.8845,-6.6,7.91,-0.11,28.3
25603,0.2065,-0.0281,0.8826,-6.56,7.94,-0.11,28.3
25613,0.2036,-0.0287,0.8801,-6.66,8.0,-0.06,28.27
25623,0.202,-0.027,0.8848,-6.66,7.95,-0.02,28.27
25633,0.2034,-0.0291,0.8834,-6.63,7.89,-0.06,28.27
25643,0.2068,-0.0294,0.8835,-6.61,7.95,-0.08,28.3
25653,0.2073,-0.0306,0.8912,-6.61,7.91,-0.09,28.27
25663,0.2096,-0.0281,0.8911,-6.67,7.85,-0.06,28.3
25673,0.2052,-0.0323,0.8859,-6.66,7.85,-0.06,28.31
25683,0.2042,-0.0322,0.8766,-6.64,7.8,0.0,28.32
25693,0.198,-0.0284,0.8694,-6.64,7.77,-0.18,28.29
25703,0.1985,-0.0275,0.8717,-6.67,7.8,0.03,28.26
25713,0.2045,-0.0292,0.8759,-6.69,7.8,0.03,28.3
25723,0.2095,-0.0244,0.8954,-6.6,7.82,-0.06,28.31
25733,0.2166,-0.0255,0.9091,-6.6,7.86,-0.09,28.29
25743,0.2183,-0.0231,0.9099,-6.66,7.98,-0.11,28.27
25753,0.2156,-0.0259,0.9128,-6.63,8.0,-0.12,28.27
25763,0.2122,-0.0338,0.8932,-6.7,7.92,-0.06,28.28
25773,0.2079,-0.0388,0.8853,-6.67,7.94,-0.11,28.29
25783,0.205,-0.0411,0.8696,-6.63,7.98,-0.06,28.27
25793,0.2017,-0.0372,0.8705,-6.58,7.92,-0.11,28.29
25803,0.2032,-0.0342,0.8712,-6.67,7.94,0.03,28.29
25813,0.2072,-0.0273,0.8843,-6.53,7.94,-0.02,28.3
25823,0.2064,-0.0194,0.8844,-6.58,7.91,0.05,28.3
25833,0.214,-0.0208,0.8882,-6.61,7.97,-0.02,28.3
25843,0.2031,-0.0175,0.903,-6.63,8.03,-0.08,28.31
25853,0.2113,-0.0223,0.8882,-6.76,7.94,-0.08,28.28
25863,0.2037,-0.0322,0.895,-6.63,8.0,-0.11,28.31
25873,0.2043,-0.0375,0.8993,-6.72,7.94,-0.09,28.29
25883,0.2064,-0.0419,0.887,-6.63,8.0,-0.02,28.31
25893,0.2061,-0.035,0.8865,-6.58,7.83,0.03,28.29
25903,0.2023,-0.0331,0.8787,-6.52,7.79,-0.03,28.28
25913,0.2131,-0.0266,0.8951,-6.63,7.82,0.02,28.3
25923,0.2037,-0.0167,0.8932,-6.7,7.98,-0.08,28.29
25933,0.2042,-0.0256,0.8715,-6.7,8.02,-0.03,28.28
25943,0.2056,-0.0323,0.8793,-6.53,8.05,-0.15,28.3
25953,0.2089,-0.0325,0.8921,-6.61,8.03,-0.09,28.29
25963,0.21,-0.0361,0.8956,-6.56,8.09,-0.05,28.31
25973,0.2098,-0.0328,0.8905,-6.7,8.05,-0.03,28.3
25983,0.2076,-0.0328,0.8879,-6.66,7.91,-0.06,28.3
25993,0.2087,-0.0249,0.8951,-6.6,7.88,-0.05,28.31
26003,0.2067,-0.0245,0.8816,-6.67,7.97,-0.05,28.31
26013,0.2046,-0.0282,0.889,-6.56,7.94,0.0,28.29
26023,0.2098,-0.0293,0.8857,-6.53,7.83,-0.09,28.28
26033,0.2065,-0.0308,0.8862,-6.61,7.88,-0.05,28.29
26043,0.2072,-0.037,0.8849,-6.63,7.97,-0.09,28.28
26053,0.2072,-0.0347,0.8801,-6.64,7.94,-0.06,28.29
26063,0.2081,-0.0317,0.8815,-6.64,7.95,0.0,28.28
26073,0.2069,-0.0284,0.8778,-6.66,7.95,0.0,28.31
26083,0.2018,-0.0284,0.8859,-6.64,7.89,-0.11,28.3
26093,0.2084,-0.0223,0.8962,-6.58,7.89,-0.06,28.29
26103,0.2075,-0.0231,0.8984,-6.61,7.89,0.0,28.29
26113,0.2107,-0.0259,0.884,-6.79,8.23,-0.03,28.3
26123,0.1962,-0.0197,0.8977,-6.67,8.34,-0.03,28.3
26133,0.2036,-0.0323,0.8876,-6.64,7.76,-0.06,28.27
26143,0.2109,-0.0278,0.8816,-6.73,7.71,-0.02,28.3
26153,0.2137,-0.0341,0.8876,-6.56,7.98,0.0,28.29
26163,0.2114,-0.0364,0.8859,-6.75,7.94,-0.08,28.31
26173,0.21,-0.0363,0.8864,-6.58,7.97,-0.06,28.31
26183,0.208,-0.0366,0.8898,-6.69,7.94,0.02,28.31
26193,0.2068,-0.0356,0.8817,-6.6,8.0,0.0,28.29
26203,0.2063,-0.0309,0.8837,-6.63,7.91,-0.03,28.3
26213,0.2053,-0.0284,0.8865,-6.6,7.92,-0.03,28.27
26223,0.2052,-0.0245,0.8911,-6.58,7.91,-0.08,28.29
26233,0.2053,-0.0258,0.8832,-6.69,7.95,-0.05,28.32
26243,0.2089,-0.0278,0.8896,-6.58,7.85,-0.11,28.29
26253,0.207,-0.0298,0.8893,-6.72,7.88,-0.09,28.31
26263,0.1929,-0.0236,0.8873,-6.76,8.0,-0.09,28.31
26273,0.2191,-0.0311,0.8468,-6.64,7.34,0.05,28.3
26283,0.2159,-0.0295,0.8679,-6.55,7.79,0.05,28.32
26308,0.2158,-0.0321,0.8997,-6.73,7.86,0.05,28.31
26318,0.2196,-0.0367,0.89,-6.56,7.94,-0.05,28.31
26328,0.2094,-0.0358,0.8914,-6.63,7.92,-0.09,28.32
26338,0.2107,-0.0343,0.8888,-6.64,7.85,-0.06,28.3
26348,0.2086,-0.0282,0.8848,-6.69,8.0,-0.02,28.31
26358,0.2018,-0.0305,0.8768,-6.61,8.05,0.05,28.31
26368,0.2017,-0.0272,0.8772,-6.52,7.88,-0.11,28.31
26378,0.2046,-0.0266,0.884,-6.64,7.89,-0.02,28.3
26388,0.2051,-0.0271,0.8893,-6.52,7.88,-0.11,28.33
26398,0.2056,-0.0265,0.8889,-6.58,7.89,-0.08,28.31
26408,0.21,-0.0258,0.8922,-6.64,7.94,-0.05,28.29
26418,0.2128,-0.0217,0.8915,-6.66,8.0,-0.03,28.32
26428,0.2115,-0.0272,0.8857,-6.61,7.95,-0.06,28.32
26438,0.2107,-0.0299,0.8923,-6.55,8.0,-0.11,28.32
26448,0.2103,-0.0337,0.8887,-6.63,7.94,-0.06,28.32
26458,0.2079,-0.0352,0.8864,-6.7,7.91,-0.06,28.32
26468,0.2045,-0.033,0.8851,-6.6,7.94,-0.05,28.31
26478,0.2047,-0.0319,0.8802,-6.66,7.83,-0.08,28.3
26488,0.207,-0.0309,0.8892,-6.69,7.92,-0.02,28.32
26498,0.2086,-0.0294,0.8846,-6.6,7.92,-0.05,28.29
26508,0.2075,-0.0303,0.8864,-6.66,7.92,-0.09,28.32
26518,0.2054,-0.0278,0.8865,-6.66,7.92,-0.15,28.31
26528,0.2084,-0.0276,0.8894,-6.61,7.94,-0.05,28.32
26538,0.2091,-0.0288,0.8928,-6.63,7.85,-0.03,28.32
26548,0.2076,-0.0292,0.8873,-6.64,7.95,0.0,28.32
26558,0.2101,-0.0293,0.885,-6.7,7.91,-0.03,28.31
26568,0.2065,-0.0304,0.8877,-6.63,7.97,-0.06,28.32
26578,0.2072,-0.031,0.8807,-6.6,7.92,-0.05,28.3
26588,0.2076,-0.0305,0.8875,-6.61,7.98,0.0,28.31
26598,0.2079,-0.0277,0.8828,-6.72,7.97,-0.05,28.33
26608,0.2057,-0.0289,0.8837,-6.63,7.94,-0.09,28.32
26618,0.2046,-0.0277,0.8867,-6.72,7.89,-0.09,28.29
26628,0.2081,-0.0289,0.8856,-6.72,7.88,-0.12,28.31
26638,0.2131,-0.0299,0.8875,-6.63,7.91,-0.09,28.31
26648,0.209,-0.0289,0.8925,-6.58,7.97,-0.14,28.33
26658,0.2126,-0.0326,0.8916,-6.61,7.98,-0.05,28.3
26668,0.2081,-0.0291,0.8929,-6.66,7.85,-0.11,28.3
26678,0.2081,-0.0289,0.8859,-6.61,7.91,-0.03,28.31
26688,0.2026,-0.0303,0.8787,-6.64,7.89,-0.08,28.32
26698,0.2053,-0.0298,0.8793,-6.69,7.89,-0.03,28.3
26708,0.2046,-0.0311,0.8829,-6.69,7.88,0.05,28.3
26718,0.2065,-0.0298,0.8827,-6.55,7.89,-0.06,28.33
26728,0.2061,-0.0333,0.8842,-6.49,7.79,-0.06,28.33
26738,0.2089,-0.03,0.8889,-6.64,7.92,-0.02,28.32
26748,0.2122,-0.0291,0.8856,-6.61,7.88,0.0,28.31
26758,0.2104,-0.027,0.8845,-6.64,7.98,-0.05,28.32
26768,0.21,-0.03,0.8917,-6.67,7.85,-0.09,28.33
26778,0.2106,-0.0293,0.8885,-6.66,7.89,-0.08,28.3
26788,0.207,-0.0302,0.8861,-6.67,7.85,-0.06,28.31
26798,0.2087,-0.0293,0.8898,-6.63,7.91,-0.08,28.31
26808,0.2115,-0.0317,0.885,-6.76,7.92,0.03,28.32
26818,0.2048,-0.0287,0.8828,-6.66,7.95,-0.02,28.29
26828,0.208,-0.0258,0.8866,-6.64,7.92,-0.05,28.32
26838,0.2068,-0.0306,0.8859,-6.69,7.92,0.0,28.3
26848,0.2101,-0.0302,0.8842,-6.66,7.88,-0.03,28.3
26858,0.2076,-0.0295,0.8882,-6.64,7.92,-0.02,28.3
26868,0.2103,-0.0306,0.8879,-6.7,7.92,-0.02,28.31
26878,0.2074,-0.0311,0.8879,-6.58,7.91,-0.06,28.32
26888,0.2084,-0.0289,0.889,-6.63,7.97,-0.05,28.28
26898,0.2076,-0.0298,0.8894,-6.61,7.95,-0.08,28.32
26908,0.2069,-0.0304,0.8878,-6.61,7.91,-0.12,28.3
26918,0.2073,-0.028,0.8816,-6.6,7.94,-0.05,28.33
26929,0.2037,-0.0299,0.8807,-6.6,7.95,-0.06,28.31
26939,0.2087,-0.0302,0.8833,-6.69,7.92,-0.05,28.32
26949,0.205,-0.0309,0.8853,-6.63,7.97,-0.05,28.29
26959,0.2056,-0.0309,0.8856,-6.58,7.89,-0.06,28.3
26969,0.2074,-0.0316,0.8873,-6.61,7.91,-0.03,28.3
26979,0.2112,-0.0292,0.8916,-6.67,7.95,-0.06,28.28
26989,0.212,-0.0272,0.8879,-6.63,7.94,-0.09,28.3
26999,0.2117,-0.0283,0.8873,-6.63,7.91,-0.2,28.3
27009,0.207,-0.0294,0.8848,-6.56,7.95,-0.03,28.3
27019,0.2113,-0.0306,0.8904,-6.69,7.95,-0.08,28.31
27029,0.2085,-0.0308,0.89,-6.63,8.02,-0.02,28.32
27039,0.2072,-0.0308,0.8822,-6.58,7.89,0.06,28.31
27049,0.2048,-0.0295,0.8848,-6.53,7.88,-0.06,28.31
27059,0.2061,-0.0273,0.887,-6.58,7.89,-0.02,28.3
27069,0.2084,-0.0295,0.8866,-6.67,7.91,-0.02,28.28
27079,0.2079,-0.027,0.8887,-6.66,7.89,-0.09,28.31
27089,0.2086,-0.0293,0.89,-6.67,7.94,-0.06,28.32
27099,0.2085,-0.0277,0.886,-6.66,7.89,-0.03,28.32
27109,0.2079,-0.0304,0.8865,-6.69,7.89,-0.02,28.31
27119,0.2067,-0.0284,0.8828,-6.69,7.86,-0.08,28.3
27129,0.2061,-0.0293,0.8802,-6.63,7.91,0.0,28.32
27139,0.2062,-0.0289,0.885,-6.55,7.92,-0.02,28.33
27149,0.2078,-0.0286,0.8845,-6.6,7.85,-0.08,28.3
27159,0.2087,-0.0258,0.8916,-6.6,7.91,-0.11,28.32
27169,0.2096,-0.0278,0.8868,-6.56,7.91,-0.08,28.32
27179,0.2086,-0.0271,0.8925,-6.64,7.88,-0.08,28.33
27189,0.2083,-0.0302,0.8862,-6.6,7.94,-0.03,28.31
27199,0.2081,-0.0302,0.889,-6.69,7.88,-0.03,28.29
27209,0.2097,-0.03,0.8892,-6.61,7.92,-0.05,28.3
27219,0.2114,-0.0294,0.8864,-6.63,7.94,0.02,28.32
27229,0.2087,-0.0283,0.8806,-6.61,7.94,-0.09,28.31
27240,0.2073,-0.0293,0.8824,-6.56,7.94,-0.03,28.31
27250,0.209,-0.03,0.8856,-6.66,7.91,-0.03,28.31
27260,0.21,-0.0317,0.8876,-6.61,7.89,-0.05,28.31
27270,0.2067,-0.031,0.8843,-6.64,7.91,-0.05,28.34
27280,0.2054,-0.0304,0.891,-6.63,7.98,-0.03,28.32
27290,0.2072,-0.0267,0.89,-6.66,7.91,-0.05,28.3
27301,0.2037,-0.0289,0.8884,-6.64,7.86,-0.03,28.28
27311,0.2045,-0.0303,0.889,-6.63,7.86,-0.02,28.34
27321,0.2072,-0.0287,0.8846,-6.63,7.91,-0.02,28.32
27331,0.2079,-0.0298,0.8896,-6.56,7.89,-0.02,28.31
27341,0.2087,-0.0284,0.8864,-6.6,7.85,-0.08,28.29
27351,0.21,-0.032,0.8834,-6.61,7.89,-0.09,28.3
27361,0.208,-0.0299,0.8828,-6.64,7.94,-0.11,28.33
27371,0.2079,-0.0315,0.8872,-6.64,7.94,-0.06,28.32
27381,0.2072,-0.032,0.8893,-6.6,7.95,0.0,28.31
27391,0.2045,-0.0322,0.8901,-6.64,7.97,-0.05,28.33
27401,0.2058,-0.0276,0.8904,-6.58,7.94,-0.08,28.33
27411,0.2074,-0.0314,0.8862,-6.56,7.92,-0.03,28.31
27421,0.2122,-0.0327,0.889,-6.67,7.91,-0.02,28.33
