t_ms,accel_x_g,accel_y_g,accel_z_g,gyro_x_dps,gyro_y_dps,gyro_z_dps,imu_temp_c
3270,0.2286,-0.0366,0.8972,-6.17,9.18,-0.11,23.32
3282,0.2378,-0.0439,0.8846,-6.14,8.69,-0.09,23.32
3292,0.2458,-0.0525,0.8778,-6.12,7.34,-0.05,23.32
3302,0.2306,-0.0565,0.884,-5.98,8.0,-0.09,23.32
3312,0.2386,-0.0579,0.8685,-6.03,8.11,-0.12,23.34
3322,0.2579,-0.0521,0.8634,-5.92,6.46,-0.08,23.33
3332,0.213,-0.0457,0.903,-6.0,6.85,-0.06,23.31
3342,0.2186,-0.0409,0.9047,-6.17,10.31,-0.05,23.34
3352,0.2715,-0.0402,0.8453,-6.02,6.95,-0.05,23.3
3362,0.2208,-0.0452,0.8859,-6.02,5.71,-0.06,23.33
3372,0.2051,-0.0482,0.9048,-6.11,10.55,-0.06,23.32
3382,0.2632,-0.0461,0.8616,-6.06,7.65,0.06,23.34
3392,0.2371,-0.0493,0.8815,-6.12,6.17,-0.06,23.33
3402,0.2096,-0.0431,0.9049,-6.15,9.22,-0.09,23.33
3412,0.25,-0.0414,0.8671,-6.06,8.82,-0.02,23.33
3422,0.265,-0.0435,0.8549,-6.09,6.87,-0.06,23.36
3432,0.2244,-0.0466,0.895,-6.09,6.46,-0.02,23.34
3442,0.2117,-0.049,0.9038,-6.12,10.43,-0.06,23.34
3452,0.2717,-0.0514,0.8459,-6.09,6.52,-0.05,23.36
3462,0.2216,-0.0507,0.8927,-6.11,6.11,0.02,23.33
3472,0.2098,-0.049,0.8999,-6.0,10.56,-0.05,23.33
3482,0.2726,-0.0459,0.8533,-6.03,6.58,0.05,23.36
3492,0.2327,-0.0422,0.8909,-6.08,5.68,-0.05,23.35
3502,0.2144,-0.0421,0.9036,-6.11,10.17,-0.03,23.36
3512,0.2618,-0.0482,0.851,-6.0,7.45,0.0,23.36
3522,0.2241,-0.0477,0.8877,-6.02,5.76,-0.06,23.34
3532,0.21,-0.048,0.9132,-6.14,10.93,0.0,23.34
3542,0.2688,-0.046,0.8564,-6.09,7.24,0.0,23.34
3552,0.2352,-0.0565,0.8793,-6.12,5.53,0.0,23.32
3562,0.1968,-0.0569,0.9027,-6.09,10.56,0.03,23.37
3572,0.2764,-0.0521,0.8368,-5.89,6.89,0.0,23.35
3582,0.2241,-0.0479,0.8928,-6.06,5.21,-0.03,23.35
3592,0.2103,-0.0437,0.912,-6.15,10.64,0.02,23.36
3602,0.2653,-0.0385,0.8596,-6.21,7.77,0.11,23.33
3612,0.2418,-0.0476,0.8722,-5.91,4.92,0.05,23.35
3623,0.2039,-0.0498,0.9042,-6.11,7.08,0.0,23.35
3633,0.2329,-0.0411,0.8894,-6.06,10.41,-0.03,23.34
3643,0.2804,-0.0483,0.8395,-5.95,4.31,-0.08,23.36
3653,0.1969,-0.046,0.9125,-6.12,7.98,-0.03,23.32
3663,0.2396,-0.0406,0.8824,-6.12,9.91,0.02,23.36
3673,0.2665,-0.0488,0.856,-6.02,5.56,-0.09,23.34
3683,0.2194,-0.0533,0.8973,-6.08,6.78,-0.12,23.34
3693,0.2117,-0.0582,0.9012,-6.14,10.6,-0.09,23.35
3703,0.2684,-0.0594,0.8547,-6.03,7.11,-0.06,23.35
3713,0.2285,-0.0548,0.8867,-6.15,5.47,-0.09,23.36
3723,0.2074,-0.0527,0.9048,-6.08,10.61,0.02,23.36
3733,0.2665,-0.0436,0.8583,-5.98,7.15,-0.09,23.35
3743,0.2407,-0.0493,0.8781,-5.92,5.62,-0.14,23.36
3753,0.1926,-0.0499,0.918,-6.23,9.77,-0.11,23.35
3763,0.2548,-0.0421,0.8657,-6.14,8.78,-0.06,23.36
3773,0.2505,-0.0487,0.8667,-6.05,4.79,-0.14,23.37
3783,0.1969,-0.0459,0.9274,-6.17,10.03,-0.06,23.36
3793,0.2424,-0.0446,0.873,-6.12,9.11,-0.03,23.37
3803,0.257,-0.0485,0.865,-6.11,6.31,-0.05,23.35
3813,0.2164,-0.0471,0.8965,-6.02,6.52,-0.03,23.38
3823,0.2041,-0.0483,0.9088,-6.2,10.53,-0.09,23.37
3833,0.2567,-0.049,0.8522,-5.98,8.32,-0.06,23.36
3843,0.2452,-0.05,0.8661,-6.06,5.19,-0.06,23.38
3853,0.2095,-0.0463,0.9114,-6.03,9.19,-0.18,23.35
3863,0.248,-0.0396,0.874,-6.03,8.6,-0.03,23.37
3873,0.2552,-0.0367,0.8669,-6.12,6.02,-0.03,23.33
3883,0.2283,-0.0441,0.902,-6.11,6.73,-0.09,23.37
3893,0.21,-0.0421,0.9083,-6.2,10.09,-0.11,23.36
3903,0.2623,-0.051,0.8535,-6.0,8.05,-0.03,23.37
3913,0.2402,-0.056,0.859,-6.05,4.66,-0.12,23.36
3923,0.2015,-0.0564,0.9055,-6.05,9.04,-0.11,23.37
3933,0.2344,-0.0454,0.8915,-6.17,9.36,-0.11,23.35
3943,0.2614,-0.0454,0.8651,-6.11,6.9,-0.15,23.37
3953,0.2264,-0.0531,0.8832,-6.12,6.21,-0.02,23.38
3963,0.2087,-0.0568,0.9015,-6.03,9.63,0.05,23.37
3973,0.2384,-0.0548,0.8717,-6.06,8.61,-0.08,23.36
3983,0.2479,-0.0516,0.8679,-6.0,6.73,-0.03,23.37
3993,0.2382,-0.0491,0.8798,-5.98,6.23,0.03,23.4
4003,0.2123,-0.0417,0.9056,-6.15,7.65,-0.02,23.39
4013,0.2177,-0.0392,0.9027,-6.08,9.74,0.05,23.37
4023,0.2552,-0.0376,0.8701,-6.15,7.66,-0.08,23.37
4033,0.2368,-0.0483,0.8766,-6.11,6.09,-0.08,23.38
4043,0.2102,-0.057,0.9036,-6.09,8.89,-0.09,23.39
4053,0.2411,-0.0538,0.8585,-6.02,8.5,-0.08,23.37
4063,0.2439,-0.0568,0.8542,-5.97,6.61,-0.09,23.37
4073,0.2157,-0.0522,0.8929,-6.02,7.4,-0.05,23.37
4083,0.2238,-0.0409,0.8824,-6.14,9.5,-0.05,23.38
4093,0.2561,-0.0308,0.8586,-6.2,6.81,-0.15,23.35
4103,0.2278,-0.0295,0.8934,-6.14,7.39,-0.11,23.37
4113,0.2397,-0.0348,0.8929,-6.15,7.71,-0.03,23.36
4123,0.2352,-0.0399,0.8872,-6.34,7.57,-0.11,23.36
4133,0.2346,-0.0538,0.8802,-6.15,7.56,-0.02,23.36
4143,0.2211,-0.0548,0.889,-6.05,8.34,0.02,23.38
4153,0.2393,-0.051,0.8787,-6.05,9.18,0.0,23.38
4163,0.252,-0.048,0.8635,-6.06,6.49,0.02,23.35
4173,0.2104,-0.0488,0.8942,-6.05,8.17,0.02,23.38
4183,0.2317,-0.0474,0.8693,-6.2,8.52,0.12,23.35
4193,0.2354,-0.0475,0.8717,-6.26,7.33,-0.02,23.38
4203,0.2189,-0.0499,0.8877,-6.15,8.29,-0.03,23.38
4213,0.2306,-0.0493,0.8816,-6.15,8.29,0.03,23.38
4223,0.2325,-0.0543,0.8901,-6.18,8.11,0.06,23.37
4233,0.2374,-0.0463,0.8917,-6.11,8.32,0.05,23.4
4243,0.246,-0.0477,0.8917,-6.14,7.83,-0.09,23.39
4253,0.251,-0.0507,0.8912,-6.12,7.45,-0.03,23.39
4263,0.2278,-0.0494,0.9012,-6.05,7.33,-0.05,23.38
4273,0.2306,-0.0497,0.8969,-6.17,9.28,0.0,23.37
4283,0.2578,-0.0551,0.8647,-6.0,7.11,-0.09,23.37
4293,0.2249,-0.0563,0.8848,-6.08,6.78,-0.06,23.38
4303,0.2148,-0.0581,0.8844,-6.05,8.92,-0.03,23.39
4313,0.2373,-0.0543,0.8611,-6.02,7.88,-0.14,23.37
4323,0.226,-0.0508,0.8772,-6.05,7.48,-0.15,23.37
4333,0.2294,-0.0447,0.8757,-6.0,7.74,-0.11,23.39
4343,0.2249,-0.0439,0.8855,-6.09,8.15,-0.12,23.38
4353,0.2351,-0.0426,0.8711,-6.21,7.56,0.63,23.38
4363,0.2365,-0.0437,0.8806,-6.09,7.19,0.09,23.38
4373,0.2303,-0.0461,0.8887,-6.08,7.36,-0.14,23.39
4383,0.2269,-0.0428,0.8912,-6.24,8.31,-0.11,23.39
4393,0.2432,-0.0481,0.8696,-6.11,7.92,0.02,23.39
4403,0.2389,-0.0498,0.876,-6.03,6.66,-0.06,23.38
4413,0.2188,-0.046,0.8999,-5.97,8.23,0.02,23.38
4423,0.2426,-0.0427,0.8707,-5.98,8.95,0.03,23.4
4433,0.2609,-0.0411,0.8513,-5.97,6.0,0.02,23.39
4443,0.2341,-0.0419,0.8711,-6.05,6.4,-0.03,23.41
4453,0.2242,-0.0437,0.8824,-6.11,8.06,-0.11,23.39
4463,0.2267,-0.0428,0.8792,-6.02,8.15,0.0,23.39
4473,0.2434,-0.0398,0.8782,-6.11,6.93,-0.11,23.41
4483,0.2352,-0.0421,0.8925,-6.14,7.25,-0.11,23.4
4493,0.2377,-0.0496,0.8879,-6.17,8.24,-0.11,23.38
4504,0.2455,-0.0515,0.8812,-6.09,8.12,-0.05,23.38
4514,0.2373,-0.0553,0.89,-6.09,7.27,-0.12,23.39
4524,0.231,-0.0544,0.9031,-6.12,8.63,-0.08,23.4
4534,0.2546,-0.0529,0.8759,-6.11,7.94,-0.09,23.37
4544,0.2372,-0.0559,0.8778,-6.02,6.9,-0.06,23.4
4554,0.219,-0.0535,0.8912,-6.02,8.63,-0.12,23.39
4564,0.2422,-0.0504,0.87,-5.92,7.95,0.0,23.39
4574,0.2384,-0.0442,0.8704,-6.03,7.21,-0.09,23.4
4584,0.2278,-0.0436,0.8813,-6.0,7.82,-0.05,23.38
4595,0.2185,-0.0465,0.8844,-5.98,8.14,-0.09,23.41
4605,0.2291,-0.045,0.8739,-6.12,8.24,-0.11,23.39
4615,0.2393,-0.0452,0.8755,-5.97,7.57,-0.03,23.39
4625,0.244,-0.041,0.8783,-6.09,6.96,-0.05,23.41
4635,0.2275,-0.0452,0.8976,-6.08,7.48,-0.06,23.41
4645,0.2363,-0.0453,0.8965,-6.09,8.55,0.05,23.4
4655,0.2433,-0.0479,0.8875,-6.2,8.18,0.03,23.41
4665,0.2285,-0.0515,0.9016,-6.06,7.51,0.03,23.4
4675,0.2268,-0.0516,0.8959,-6.02,8.78,0.03,23.41
4685,0.2437,-0.0535,0.8715,-6.02,7.8,0.14,23.41
4695,0.2472,-0.0548,0.8727,-5.97,7.42,0.02,23.43
4705,0.2198,-0.0486,0.8894,-6.06,8.12,0.06,23.4
4715,0.2175,-0.0519,0.8944,-6.12,9.05,0.08,23.39
4725,0.2543,-0.0469,0.8566,-5.97,6.78,-0.06,23.42
4735,0.2465,-0.051,0.8583,-6.03,6.66,-0.03,23.41
4745,0.225,-0.0513,0.8884,-6.09,7.77,0.05,23.43
4755,0.2288,-0.0496,0.8868,-6.15,8.53,-0.02,23.41
4765,0.2473,-0.0483,0.8702,-6.08,8.09,0.03,23.41
4775,0.2419,-0.0544,0.8727,-6.15,6.64,-0.05,23.44
4785,0.2185,-0.0546,0.894,-6.08,8.18,0.05,23.41
4795,0.234,-0.0511,0.877,-6.09,9.13,0.05,23.38
4805,0.2526,-0.0519,0.8582,-5.98,6.26,-0.03,23.41
4815,0.2241,-0.046,0.8872,-6.08,7.24,-0.08,23.4
4825,0.2246,-0.0426,0.8875,-6.12,9.07,-0.09,23.41
4835,0.2548,-0.0405,0.8579,-6.06,7.11,-0.09,23.4
4845,0.2317,-0.0439,0.8832,-6.09,6.55,-0.09,23.4
4855,0.214,-0.0466,0.892,-6.09,8.38,0.05,23.4
4865,0.2401,-0.0485,0.8677,-6.05,8.02,-0.15,23.42
4875,0.2335,-0.042,0.8743,-6.03,7.24,-0.12,23.41
4885,0.2227,-0.048,0.8801,-6.06,7.85,-0.11,23.41
4895,0.2308,-0.0447,0.8739,-6.08,8.31,-0.02,23.41
4905,0.2377,-0.0479,0.8657,-6.09,6.5,-0.08,23.39
4915,0.2332,-0.0387,0.8838,-6.08,7.54,-0.03,23.41
4925,0.2422,-0.041,0.8727,-6.11,6.47,-0.09,23.42
4935,0.2179,-0.0437,0.8999,-6.14,7.36,-0.05,23.41
4945,0.2183,-0.0419,0.9041,-6.09,9.6,0.02,23.41
4955,0.2664,-0.0426,0.8666,-6.12,7.11,-0.05,23.42
4965,0.2332,-0.0385,0.8914,-6.11,6.05,-0.08,23.41
4975,0.2091,-0.0479,0.9048,-6.11,9.74,-0.08,23.4
4985,0.2599,-0.0499,0.8611,-6.08,7.71,-0.08,23.38
4995,0.2407,-0.0482,0.8785,-6.11,6.12,-0.18,23.41
5005,0.2173,-0.05,0.8965,-6.0,8.67,-0.05,23.42
5015,0.24,-0.0499,0.8735,-6.09,8.38,-0.09,23.42
5025,0.2461,-0.0485,0.8639,-6.06,7.02,-0.08,23.41
5035,0.2321,-0.0481,0.8866,-6.17,7.11,-0.12,23.42
5045,0.233,-0.0458,0.88,-6.05,7.74,-0.15,23.4
5055,0.2318,-0.0491,0.8809,-6.06,7.77,-0.05,23.4
5065,0.2328,-0.0477,0.8832,-6.14,7.53,-0.11,23.44
5075,0.2344,-0.0424,0.8909,-6.09,8.08,-0.09,23.43
5085,0.248,-0.041,0.8795,-6.14,7.45,-0.17,23.42
5095,0.2356,-0.0476,0.901,-6.09,7.25,-0.14,23.4
5105,0.2346,-0.047,0.8944,-6.09,8.73,-0.17,23.42
5115,0.2389,-0.0475,0.8851,-6.09,8.18,-0.09,23.42
5125,0.2313,-0.0487,0.9052,-6.17,8.23,-0.11,23.39
5135,0.2496,-0.054,0.8848,-6.15,8.0,-0.11,23.41
5145,0.2423,-0.0564,0.8834,-6.11,6.72,-0.14,23.41
5155,0.2174,-0.0581,0.8997,-6.2,8.03,-0.05,23.39
5165,0.2219,-0.0588,0.8928,-6.02,9.68,-0.02,23.41
5175,0.2559,-0.0536,0.8613,-5.91,7.3,0.03,23.41
5185,0.2173,-0.054,0.8881,-5.95,6.82,0.05,23.38
5195,0.2015,-0.0537,0.8944,-6.11,10.26,0.02,23.42
5205,0.2528,-0.0425,0.8541,-5.94,8.02,-0.03,23.41
5215,0.229,-0.0414,0.8766,-5.97,6.49,-0.02,23.4
5225,0.2133,-0.0367,0.9005,-6.02,8.92,0.0,23.4
5235,0.2506,-0.0415,0.8712,-6.03,8.11,-0.11,23.42
5245,0.2375,-0.0432,0.8783,-6.17,6.53,-0.03,23.44
5255,0.2224,-0.0497,0.8947,-6.03,8.18,0.03,23.42
5265,0.2362,-0.0525,0.8809,-6.05,8.6,0.02,23.4
5275,0.2448,-0.0516,0.874,-6.08,6.99,0.06,23.4
5285,0.2186,-0.0525,0.887,-6.14,7.62,-0.03,23.42
5295,0.2257,-0.049,0.8861,-6.17,9.13,0.09,23.43
5305,0.2461,-0.0447,0.8707,-6.08,7.57,0.03,23.42
5315,0.2386,-0.0453,0.8757,-6.09,7.34,0.02,23.41
5325,0.2308,-0.0461,0.8875,-6.12,7.95,0.05,23.42
5335,0.2311,-0.0457,0.8784,-6.09,7.97,0.0,23.43
5345,0.2368,-0.0465,0.8901,-6.12,7.98,-0.03,23.41
5355,0.2432,-0.0421,0.8884,-6.2,7.48,-0.06,23.4
5365,0.2352,-0.0483,0.8925,-6.0,7.34,0.03,23.41
5375,0.2185,-0.0535,0.9005,-6.08,8.11,-0.05,23.42
5385,0.2181,-0.0543,0.9001,-6.14,8.4,-0.02,23.39
5395,0.2448,-0.0515,0.8813,-6.12,7.97,-0.08,23.39
5405,0.2456,-0.0508,0.8776,-6.18,7.63,-0.05,23.4
5415,0.2295,-0.0529,0.8809,-6.11,7.48,-0.09,23.4
5425,0.2218,-0.056,0.8894,-6.02,8.56,0.02,23.41
5435,0.2323,-0.0511,0.8727,-6.08,8.12,-0.05,23.41
5445,0.2344,-0.051,0.8763,-6.2,7.62,-0.06,23.4
5455,0.2341,-0.0474,0.8793,-6.05,7.57,-0.03,23.42
5465,0.2263,-0.0514,0.8846,-6.11,7.85,-0.02,23.41
5475,0.2301,-0.05,0.877,-6.02,7.85,-0.05,23.42
5485,0.22,-0.0472,0.8901,-6.06,8.29,-0.06,23.39
5495,0.2394,-0.0444,0.8794,-6.03,8.46,-0.05,23.4
5505,0.2563,-0.0441,0.8674,-6.03,6.67,-0.05,23.43
5515,0.2321,-0.0438,0.8846,-6.08,6.53,-0.05,23.42
5526,0.2297,-0.0424,0.891,-6.12,7.3,-0.03,23.4
5536,0.2377,-0.0413,0.891,-6.17,8.08,-0.18,23.42
5546,0.2406,-0.0453,0.8798,-6.14,7.47,-0.17,23.41
5556,0.2222,-0.0508,0.8899,-6.09,7.94,-0.09,23.42
5566,0.2229,-0.0479,0.8962,-6.09,9.16,-0.14,23.42
5576,0.2581,-0.0532,0.8729,-6.11,7.51,-0.06,23.42
5586,0.2368,-0.056,0.8864,-6.08,6.44,-0.06,23.42
5596,0.2113,-0.0541,0.8958,-6.12,9.86,-0.08,23.42
5606,0.2511,-0.0544,0.8562,-6.06,8.23,-0.06,23.41
5616,0.2449,-0.046,0.8658,-5.94,5.62,-0.11,23.42
5627,0.2253,-0.0471,0.8866,-5.98,6.89,-0.02,23.42
5637,0.2205,-0.0486,0.9,-6.11,9.31,-0.03,23.44
5647,0.2422,-0.0448,0.8687,-6.06,8.05,-0.14,23.43
5657,0.238,-0.0428,0.876,-6.12,7.02,-0.05,23.44
5667,0.2379,-0.0447,0.8815,-5.97,6.96,-0.08,23.44
5677,0.2241,-0.0476,0.903,-6.06,7.88,-0.14,23.44
5687,0.2263,-0.0511,0.9048,-6.02,8.64,-0.11,23.43
5697,0.2413,-0.051,0.879,-6.06,7.04,-0.06,23.43
5707,0.2191,-0.054,0.892,-6.12,7.91,-0.11,23.44
5717,0.2229,-0.0504,0.8831,-5.94,8.78,-0.06,23.42
5727,0.2418,-0.047,0.8654,-6.09,7.48,0.0,23.44
5737,0.2305,-0.0417,0.8698,-6.08,6.84,-0.03,23.43
5747,0.222,-0.0426,0.8788,-6.09,7.04,-0.05,23.43
5757,0.2458,-0.0333,0.8624,-6.12,8.7,0.0,23.44
5767,0.2596,-0.0336,0.8617,-6.12,4.85,-0.11,23.43
5777,0.2104,-0.031,0.9164,-6.12,7.92,-0.08,23.42
5787,0.249,-0.041,0.8942,-6.26,9.01,0.0,23.44
5797,0.2539,-0.0493,0.8799,-6.18,6.06,-0.11,23.42
5807,0.2006,-0.0571,0.9105,-6.12,9.66,-0.05,23.42
5817,0.2535,-0.0592,0.8527,-6.0,8.73,0.0,23.41
5827,0.24,-0.0537,0.8676,-6.05,5.69,0.05,23.42
5837,0.2007,-0.0519,0.8955,-6.09,9.65,-0.09,23.42
5847,0.2404,-0.0469,0.8591,-6.11,8.98,0.02,23.43
5857,0.2535,-0.0424,0.8539,-6.02,6.26,-0.02,23.42
5867,0.2549,-0.0421,0.8564,-5.97,5.66,-0.05,23.43
5877,0.2113,-0.0436,0.9104,-6.23,9.21,0.03,23.44
5887,0.2506,-0.0492,0.8781,-6.18,8.63,0.05,23.42
5897,0.2471,-0.0554,0.8807,-6.17,6.37,-0.08,23.43
5907,0.2234,-0.0568,0.8925,-6.15,7.92,0.02,23.43
5917,0.2267,-0.0619,0.8895,-6.02,8.89,0.02,23.44
5927,0.2267,-0.0604,0.8856,-5.97,8.92,0.0,23.44
5937,0.2476,-0.0494,0.8584,-6.09,7.18,-0.03,23.45
5947,0.2321,-0.0437,0.8773,-6.18,6.46,-0.06,23.4
5957,0.2178,-0.0383,0.9055,-6.2,8.69,0.05,23.44
5967,0.2599,-0.0424,0.8807,-6.29,7.97,-0.03,23.44
5977,0.2511,-0.0508,0.8729,-6.12,5.54,-0.05,23.42
5987,0.1919,-0.0615,0.9143,-6.26,10.11,-0.03,23.43
5997,0.2617,-0.0608,0.8503,-5.94,8.32,-0.09,23.43
6007,0.2673,-0.0576,0.8508,-5.95,5.89,-0.05,23.43
6017,0.2211,-0.0494,0.8939,-5.97,6.79,-0.06,23.43
6027,0.2236,-0.0443,0.8857,-6.05,8.82,0.06,23.42
6037,0.2317,-0.0297,0.8854,-6.06,7.27,-0.03,23.44
6047,0.2236,-0.0289,0.907,-6.2,8.93,-0.05,23.42
6057,0.2725,-0.0338,0.8597,-6.27,7.08,-0.17,23.45
6067,0.2338,-0.0525,0.8783,-6.14,5.76,-0.11,23.43
6077,0.1973,-0.0576,0.9019,-6.14,10.47,0.0,23.44
6087,0.2725,-0.0585,0.8396,-6.0,6.93,0.08,23.44
6097,0.2218,-0.0507,0.8993,-6.11,5.27,-0.05,23.44
6107,0.2148,-0.0398,0.9192,-6.21,10.6,0.0,23.45
6117,0.2727,-0.0375,0.8582,-6.05,7.39,-0.09,23.44
6127,0.2285,-0.0504,0.8809,-6.05,5.42,-0.09,23.44
6137,0.1956,-0.049,0.9,-6.23,10.64,0.05,23.43
6147,0.2628,-0.0492,0.8494,-6.05,8.15,0.02,23.42
6157,0.245,-0.053,0.8734,-5.98,3.76,0.02,23.44
6167,0.1973,-0.0521,0.9189,-6.17,10.5,-0.02,23.43
6177,0.2531,-0.0472,0.8683,-6.06,8.5,-0.09,23.46
6187,0.2478,-0.0466,0.8719,-6.05,5.34,-0.06,23.45
6197,0.2096,-0.0485,0.9117,-6.08,8.61,-0.14,23.42
6207,0.2246,-0.0541,0.8846,-6.08,9.71,-0.09,23.42
6217,0.2537,-0.0575,0.8531,-6.08,7.05,-0.08,23.44
6227,0.2252,-0.0513,0.89,-6.03,6.41,-0.12,23.45
6237,0.2161,-0.045,0.9056,-6.08,10.35,-0.02,23.46
6247,0.2656,-0.0464,0.8574,-6.11,7.02,-0.06,23.45
6257,0.2217,-0.0479,0.8933,-6.05,6.44,-0.05,23.46
6267,0.204,-0.0526,0.8978,-6.06,10.4,-0.02,23.46
6277,0.2601,-0.0487,0.8525,-6.0,7.69,-0.14,23.44
6287,0.2402,-0.0449,0.8748,-6.08,5.48,-0.12,23.48
6297,0.2144,-0.0472,0.9036,-6.05,8.7,-0.02,23.44
6307,0.239,-0.0428,0.876,-6.17,8.73,-0.11,23.46
6317,0.2546,-0.0367,0.8668,-6.2,6.52,-0.06,23.45
6327,0.2354,-0.0419,0.8912,-6.11,6.64,-0.03,23.43
6337,0.2146,-0.0477,0.9021,-6.17,8.69,-0.12,23.45
6347,0.2367,-0.0531,0.8657,-6.09,9.11,-0.02,23.47
6357,0.256,-0.0511,0.8496,-6.0,5.53,-0.03,23.44
6367,0.2147,-0.0454,0.9042,-6.08,6.84,0.0,23.45
6377,0.2251,-0.0408,0.9124,-6.21,10.21,-0.02,23.47
6387,0.2589,-0.0419,0.8613,-6.27,7.16,-0.12,23.44
6397,0.235,-0.0466,0.8773,-5.94,6.31,-0.05,23.44
6407,0.2156,-0.0525,0.9044,-6.08,8.41,-0.03,23.49
6417,0.2385,-0.0527,0.886,-6.09,9.71,0.08,23.44
6427,0.2628,-0.0544,0.8441,-6.0,6.79,-0.05,23.46
6437,0.233,-0.0521,0.8708,-6.09,5.08,-0.05,23.47
6450,0.245,-0.0581,0.8561,-6.12,8.56,0.12,23.46
6460,0.2208,-0.0522,0.8911,-5.98,6.6,0.0,23.43
6470,0.2163,-0.0455,0.8972,-6.14,9.98,0.05,23.45
6480,0.2551,-0.0408,0.8628,-6.14,7.48,-0.08,23.48
6490,0.2365,-0.0393,0.881,-6.09,6.67,-0.12,23.47
6500,0.2389,-0.0413,0.8887,-6.15,7.79,-0.06,23.48
6510,0.2422,-0.049,0.8832,-6.03,6.89,-0.08,23.46
6520,0.2184,-0.0549,0.892,-6.2,8.11,-0.08,23.47
6530,0.2385,-0.0592,0.8677,-6.05,8.64,0.02,23.46
6540,0.24,-0.0527,0.8652,-5.95,7.01,-0.03,23.49
6550,0.2338,-0.0465,0.8721,-6.12,7.6,-0.05,23.44
6560,0.2252,-0.042,0.881,-6.15,7.08,-0.03,23.47
6570,0.2109,-0.0406,0.8962,-6.18,9.31,-0.02,23.46
6580,0.2461,-0.0387,0.8674,-6.11,7.31,-0.06,23.46
6590,0.2168,-0.042,0.9117,-6.12,7.3,-0.05,23.47
6600,0.2322,-0.0476,0.9014,-6.23,9.98,-0.09,23.44
6610,0.2626,-0.0544,0.8574,-6.15,6.41,-0.06,23.44
6620,0.2139,-0.0594,0.8965,-6.02,7.54,-0.06,23.47
6630,0.2224,-0.0543,0.8875,-6.08,9.28,0.0,23.46
6640,0.2554,-0.0485,0.8518,-5.98,7.22,-0.08,23.47
6650,0.2539,-0.0521,0.858,-5.97,6.81,-0.05,23.45
6660,0.2118,-0.0431,0.8844,-5.98,8.76,-0.06,23.47
6670,0.2467,-0.0343,0.8542,-6.0,8.17,-0.05,23.45
6680,0.2551,-0.0391,0.8531,-5.98,7.4,0.0,23.49
6690,0.2412,-0.0413,0.8672,-6.09,6.64,0.06,23.48
6700,0.2235,-0.0439,0.8784,-6.03,7.98,-0.09,23.48
6710,0.2362,-0.0428,0.8724,-6.11,7.92,-0.05,23.47
6720,0.2484,-0.0416,0.8683,-6.17,7.11,-0.08,23.47
6730,0.2292,-0.0422,0.8892,-6.08,6.96,-0.03,23.48
6740,0.2318,-0.0394,0.8851,-6.15,8.08,-0.05,23.48
6750,0.2456,-0.04,0.8796,-6.2,8.11,-0.09,23.48
6760,0.2552,-0.0316,0.8638,-6.17,7.02,-0.09,23.45
6770,0.2397,-0.0369,0.8733,-6.14,6.73,-0.18,23.46
6780,0.2302,-0.0444,0.8893,-6.17,7.79,-0.11,23.46
6790,0.24,-0.0438,0.8883,-6.17,8.44,-0.05,23.46
6800,0.2432,-0.0459,0.8779,-6.15,7.65,-0.11,23.44
6810,0.2415,-0.0497,0.87,-6.03,7.04,-0.03,23.48
6820,0.2286,-0.0488,0.8796,-6.08,6.96,-0.02,23.45
6830,0.2239,-0.0499,0.8943,-6.09,7.8,-0.08,23.45
6840,0.2244,-0.0496,0.8845,-6.14,8.9,0.02,23.47
6850,0.2445,-0.0453,0.8651,-6.21,7.5,-0.03,23.45
6860,0.2372,-0.0443,0.8724,-6.03,6.58,-0.12,23.48
6870,0.2228,-0.0414,0.8895,-6.05,7.91,0.02,23.45
6880,0.2303,-0.0439,0.8806,-6.14,8.47,-0.02,23.47
6890,0.2449,-0.0417,0.8586,-6.14,6.87,-0.06,23.47
6900,0.2286,-0.0398,0.8911,-6.17,7.18,0.0,23.49
6910,0.235,-0.0397,0.8813,-6.11,7.59,-0.02,23.48
6920,0.2318,-0.0386,0.8829,-6.14,7.57,-0.03,23.48
6930,0.2341,-0.0432,0.8893,-6.11,7.74,0.03,23.48
6941,0.23,-0.0494,0.8879,-6.08,7.8,0.0,23.45
6952,0.233,-0.0457,0.8861,-6.11,7.83,-0.06,23.46
6962,0.2269,-0.0492,0.8873,-6.12,7.94,-0.02,23.49
6972,0.2283,-0.0482,0.8893,-6.06,8.35,0.02,23.47
6982,0.2438,-0.048,0.8828,-6.09,8.11,-0.05,23.47
6992,0.2485,-0.0493,0.8687,-6.08,6.76,-0.05,23.46
7002,0.2288,-0.0496,0.8833,-6.12,7.07,-0.05,23.44
7012,0.222,-0.0438,0.8937,-6.08,8.64,-0.05,23.46
7022,0.2461,-0.0433,0.8751,-6.09,7.85,0.02,23.45
7032,0.2412,-0.0459,0.8746,-6.11,6.82,-0.03,23.45
7042,0.223,-0.048,0.8901,-6.14,7.82,-0.08,23.48
7052,0.2336,-0.0455,0.8823,-6.09,8.61,-0.06,23.47
7062,0.2455,-0.0465,0.876,-6.06,7.3,-0.02,23.46
7072,0.233,-0.0499,0.886,-6.05,7.39,-0.12,23.46
7082,0.2194,-0.0488,0.8911,-6.06,8.55,-0.06,23.49
7092,0.2388,-0.0513,0.8774,-6.12,7.89,-0.08,23.48
7102,0.2338,-0.0533,0.8723,-6.03,7.25,-0.06,23.48
7112,0.2244,-0.0485,0.8894,-6.08,8.02,-0.02,23.46
7122,0.233,-0.0459,0.8765,-6.12,8.41,-0.12,23.47
7132,0.2374,-0.0442,0.8734,-6.15,7.76,-0.02,23.47
7142,0.2404,-0.0444,0.8691,-6.06,7.42,-0.05,23.5
7152,0.231,-0.042,0.87,-6.06,7.45,-0.06,23.48
7162,0.2408,-0.0374,0.8822,-6.17,7.5,-0.03,23.46
7172,0.2285,-0.0404,0.8905,-6.18,7.68,0.02,23.49
7182,0.2308,-0.0436,0.8962,-6.21,7.98,-0.02,23.47
7192,0.2324,-0.0466,0.8876,-6.21,8.06,-0.05,23.49
7202,0.2288,-0.0494,0.8838,-6.09,8.05,-0.06,23.49
7212,0.2451,-0.0476,0.8738,-6.02,7.82,0.03,23.49
7222,0.2419,-0.0449,0.8738,-6.11,6.81,-0.03,23.47
7232,0.222,-0.046,0.8889,-6.08,8.17,-0.02,23.47
7242,0.2358,-0.0443,0.8781,-6.21,8.67,-0.02,23.46
7253,0.225,-0.0465,0.8774,-6.15,8.6,-0.05,23.47
7263,0.2439,-0.0383,0.8693,-6.17,6.69,-0.08,23.48
7274,0.2375,-0.0403,0.8738,-6.15,7.37,-0.05,23.48
7284,0.2223,-0.0464,0.8879,-6.21,7.48,-0.02,23.49
7294,0.2207,-0.0446,0.8899,-6.21,8.41,-0.09,23.49
7304,0.239,-0.0461,0.8766,-6.08,7.92,-0.03,23.47
7314,0.2356,-0.0436,0.886,-6.18,6.82,-0.03,23.49
7325,0.2424,-0.0433,0.8756,-6.14,6.49,-0.12,23.48
7335,0.2236,-0.0394,0.8947,-6.08,8.2,-0.02,23.47
7345,0.2416,-0.0431,0.8813,-6.17,7.71,-0.09,23.47
7355,0.2374,-0.0413,0.8821,-5.97,7.59,-0.08,23.47
7365,0.2377,-0.0399,0.8923,-6.14,8.0,0.0,23.48
7375,0.2382,-0.0461,0.8872,-6.17,8.56,-0.06,23.49
7385,0.2441,-0.0486,0.869,-6.12,7.45,-0.14,23.47
7395,0.2244,-0.0514,0.8846,-6.0,7.98,-0.17,23.49
7405,0.2335,-0.0502,0.8741,-6.06,8.73,-0.08,23.48
7415,0.2373,-0.0516,0.8669,-6.14,7.19,0.02,23.49
7425,0.2228,-0.0469,0.8783,-6.06,7.45,-0.06,23.5
7435,0.2266,-0.0479,0.8842,-6.02,8.37,0.0,23.49
7445,0.2454,-0.0422,0.8715,-6.09,7.85,-0.05,23.48
7455,0.2461,-0.0402,0.8776,-6.11,7.04,-0.12,23.49
7465,0.2397,-0.0385,0.8914,-6.21,7.15,-0.12,23.49
7475,0.2325,-0.0435,0.902,-6.23,8.37,-0.02,23.48
7485,0.245,-0.0521,0.8865,-6.05,8.6,-0.08,23.49
7495,0.2546,-0.0499,0.8674,-6.03,6.58,-0.15,23.49
7505,0.2174,-0.0549,0.9066,-6.17,7.57,-0.12,23.48
7515,0.2312,-0.0537,0.8879,-6.2,9.36,-0.05,23.48
7525,0.2518,-0.0544,0.8677,-6.09,7.37,0.0,23.49
7535,0.2317,-0.0544,0.8759,-6.02,6.81,-0.06,23.49
7545,0.2128,-0.0499,0.8949,-6.05,8.98,-0.03,23.48
7555,0.2484,-0.0488,0.8619,-6.05,8.38,-0.02,23.47
7565,0.2527,-0.0466,0.8604,-6.15,5.89,-0.06,23.5
7575,0.2146,-0.05,0.8956,-6.15,8.0,-0.03,23.48
7585,0.2374,-0.0435,0.8785,-6.15,8.5,0.0,23.48
7595,0.2451,-0.0431,0.8772,-6.17,6.73,-0.05,23.45
7605,0.2317,-0.0421,0.8906,-6.08,7.28,0.02,23.48
7615,0.2358,-0.045,0.8889,-6.09,7.68,-0.05,23.48
7625,0.2375,-0.0496,0.8824,-6.09,7.71,-0.17,23.48
7635,0.2332,-0.0468,0.8849,-6.14,7.65,-0.06,23.49
7645,0.2312,-0.0458,0.8904,-6.15,8.41,-0.05,23.47
7655,0.2469,-0.0476,0.8754,-5.95,8.2,-0.03,23.47
7665,0.2483,-0.0457,0.8693,-6.09,5.98,-0.11,23.49
7675,0.2104,-0.048,0.91,-6.02,8.32,-0.09,23.5
7685,0.2312,-0.0461,0.8881,-6.02,9.31,0.05,23.49
7695,0.2444,-0.049,0.8779,-6.14,7.69,-0.03,23.48
7705,0.2368,-0.0516,0.877,-6.11,7.45,0.02,23.49
7715,0.2251,-0.0513,0.8866,-6.06,8.11,-0.08,23.48
7725,0.2356,-0.0509,0.8719,-6.08,7.83,-0.08,23.49
7735,0.2299,-0.0481,0.8734,-6.03,7.54,-0.05,23.48
7745,0.2224,-0.0425,0.8832,-6.14,8.11,-0.02,23.51
7755,0.236,-0.0366,0.8739,-6.06,8.31,-0.06,23.48
7765,0.254,-0.0385,0.8678,-6.12,6.41,-0.03,23.49
7775,0.2219,-0.048,0.8976,-6.11,6.99,-0.03,23.49
7785,0.2184,-0.0505,0.9077,-6.12,9.5,-0.08,23.49
7795,0.2535,-0.0425,0.8772,-6.2,7.74,-0.11,23.49
7805,0.2469,-0.047,0.8914,-6.18,6.7,-0.05,23.5
7815,0.2107,-0.0544,0.9056,-6.24,8.95,0.03,23.45
7825,0.2263,-0.063,0.8707,-6.24,9.73,-0.06,23.49
7835,0.2549,-0.0565,0.8398,-6.15,6.47,-0.11,23.48
7845,0.2333,-0.0431,0.8781,-5.98,6.18,-0.02,23.5
7855,0.2163,-0.0394,0.9066,-6.11,9.22,-0.09,23.49
7865,0.2231,-0.0328,0.8977,-6.05,9.8,-0.05,23.49
7875,0.2542,-0.0344,0.8674,-6.14,6.05,-0.09,23.49
7885,0.2241,-0.0475,0.9005,-6.03,7.54,-0.06,23.49
7895,0.2228,-0.0535,0.8967,-6.12,9.36,-0.03,23.49
7905,0.2556,-0.0564,0.856,-6.09,8.26,-0.05,23.5
7915,0.2456,-0.0536,0.856,-5.97,4.9,0.0,23.49
7925,0.1951,-0.047,0.9144,-6.08,9.28,-0.05,23.49
7935,0.257,-0.0385,0.8715,-6.11,9.27,0.03,23.49
7945,0.2587,-0.0382,0.8656,-6.05,4.95,-0.11,23.48
7955,0.1992,-0.0413,0.9098,-6.06,8.15,-0.03,23.47
7965,0.1979,-0.0433,0.918,-6.17,9.88,-0.08,23.47
7975,0.2698,-0.0538,0.8497,-6.12,6.4,0.02,23.5
7985,0.2509,-0.0527,0.8606,-6.12,5.13,-0.03,23.51
7995,0.2006,-0.0497,0.9108,-6.17,8.67,-0.14,23.5
8005,0.2484,-0.0482,0.8727,-6.08,9.25,-0.03,23.48
8015,0.2455,-0.0497,0.8684,-6.03,5.85,-0.08,23.49
8025,0.2046,-0.0475,0.9053,-6.0,8.64,0.0,23.49
8035,0.2389,-0.0497,0.8766,-5.92,9.28,0.11,23.51
8045,0.2511,-0.0471,0.8639,-6.05,5.71,-0.05,23.49
8055,0.2115,-0.0438,0.9099,-6.2,8.08,0.02,23.5
8065,0.2493,-0.0461,0.8778,-6.14,8.89,0.0,23.52
8075,0.24,-0.0562,0.8768,-6.15,5.88,-0.02,23.47
8085,0.1978,-0.0527,0.9115,-6.06,10.52,0.12,23.51
8095,0.2633,-0.051,0.8497,-6.03,7.82,0.15,23.49
8105,0.2356,-0.0481,0.8832,-6.05,5.31,-0.14,23.49
8115,0.2007,-0.0396,0.9315,-6.14,10.78,0.0,23.51
8125,0.2706,-0.0394,0.8583,-6.14,7.88,-0.03,23.52
8135,0.238,-0.0487,0.8708,-6.11,5.45,-0.08,23.48
8145,0.1957,-0.0483,0.9088,-6.12,10.08,-0.09,23.5
8155,0.2646,-0.0498,0.8511,-6.12,7.88,-0.09,23.47
8165,0.2428,-0.0533,0.8787,-6.05,5.31,-0.06,23.49
8175,0.2006,-0.0424,0.9187,-6.24,10.24,-0.08,23.52
8185,0.2766,-0.0441,0.8485,-6.05,7.5,-0.05,23.52
8195,0.2346,-0.0487,0.8806,-5.89,5.71,-0.09,23.51
8205,0.2079,-0.0507,0.9086,-6.12,9.79,0.03,23.5
8215,0.2601,-0.0486,0.859,-6.05,8.56,0.02,23.49
8225,0.2543,-0.0514,0.8611,-6.08,4.81,-0.02,23.49
8235,0.2072,-0.052,0.9113,-6.23,8.31,-0.11,23.5
8245,0.2373,-0.0435,0.8839,-6.15,10.05,0.06,23.53
8255,0.2675,-0.0408,0.8556,-6.0,5.94,-0.08,23.52
8265,0.2155,-0.0468,0.902,-6.09,6.64,-0.06,23.47
8275,0.1979,-0.0503,0.9194,-6.18,9.18,-0.05,23.5
8285,0.2725,-0.0492,0.8395,-6.06,6.43,-0.02,23.51
8295,0.2288,-0.0538,0.8828,-6.02,5.28,-0.03,23.49
8305,0.2036,-0.0466,0.9105,-6.12,9.34,0.0,23.5
8315,0.2458,-0.0425,0.8838,-6.09,9.39,0.05,23.5
8325,0.2666,-0.0471,0.8628,-6.06,5.18,-0.09,23.49
8335,0.2133,-0.0548,0.9038,-6.08,7.56,-0.12,23.49
8345,0.214,-0.0532,0.8893,-6.15,10.46,0.03,23.48
8355,0.2616,-0.0533,0.8545,-5.97,8.09,-0.08,23.49
8365,0.2518,-0.052,0.864,-6.0,4.38,-0.06,23.48
8375,0.2014,-0.0474,0.9193,-6.15,8.79,-0.06,23.51
8385,0.2352,-0.0435,0.8831,-6.14,9.69,-0.02,23.51
8395,0.2523,-0.0394,0.8655,-6.12,6.92,-0.18,23.52
8405,0.235,-0.0421,0.8868,-6.14,6.92,-0.14,23.51
8415,0.2299,-0.0472,0.8979,-6.17,7.69,-0.09,23.51
8425,0.2185,-0.0532,0.8925,-6.14,9.24,-0.06,23.53
8435,0.2445,-0.0544,0.8585,-5.98,8.87,-0.15,23.52
8445,0.2666,-0.05,0.8387,-5.85,4.81,-0.05,23.52
8455,0.21,-0.0413,0.9146,-6.15,7.19,-0.11,23.5
8465,0.2347,-0.0354,0.9027,-6.11,10.29,0.0,23.51
8475,0.2653,-0.0365,0.8545,-6.17,5.76,-0.12,23.47
8485,0.2231,-0.0437,0.8928,-6.24,6.78,-0.17,23.49
8495,0.2321,-0.0454,0.8936,-6.15,8.56,-0.12,23.51
8505,0.243,-0.0468,0.8868,-6.11,7.88,0.02,23.51
8515,0.2429,-0.0531,0.8724,-5.98,7.37,-0.05,23.5
8525,0.2281,-0.0503,0.8699,-6.0,7.68,-0.05,23.5
8535,0.2294,-0.0457,0.8719,-6.05,8.08,0.03,23.5
8545,0.2472,-0.0393,0.873,-6.18,6.4,-0.03,23.47
8555,0.2234,-0.0385,0.9026,-6.23,7.4,-0.11,23.5
8565,0.23,-0.0526,0.8977,-6.23,8.87,-0.09,23.5
8575,0.2509,-0.0554,0.8706,-6.08,7.45,-0.05,23.53
8585,0.2389,-0.0532,0.8813,-6.23,7.1,-0.03,23.51
8595,0.2272,-0.0627,0.8901,-6.02,9.05,-0.03,23.52
8605,0.2443,-0.0599,0.8756,-6.09,7.71,0.02,23.51
8615,0.2371,-0.0524,0.8691,-5.91,7.36,0.03,23.52
8625,0.2316,-0.0455,0.8678,-6.08,6.78,-0.05,23.49
8635,0.2284,-0.0443,0.8723,-6.06,6.81,-0.03,23.49
8645,0.2114,-0.0427,0.8933,-6.0,7.95,-0.08,23.52
8655,0.2346,-0.0383,0.8749,-6.14,8.81,-0.06,23.52
8665,0.2502,-0.0396,0.8594,-6.08,6.17,-0.17,23.5
8675,0.2196,-0.0428,0.9012,-6.08,7.45,-0.18,23.5
8685,0.2338,-0.0436,0.9073,-6.08,9.42,-0.11,23.5
8695,0.2582,-0.0525,0.8812,-6.24,7.5,-0.15,23.51
8705,0.2421,-0.053,0.8873,-6.11,7.08,-0.09,23.51
8715,0.2261,-0.0543,0.895,-6.14,8.12,0.0,23.51
8725,0.2346,-0.0537,0.8816,-6.06,8.87,-0.03,23.51
8735,0.2504,-0.0488,0.8633,-6.18,6.78,0.02,23.51
8745,0.2209,-0.0449,0.8818,-6.05,7.31,-0.06,23.49
8755,0.226,-0.04,0.8832,-6.12,8.53,-0.02,23.52
8765,0.245,-0.0394,0.8737,-6.15,7.54,-0.03,23.51
8775,0.2327,-0.0393,0.8861,-6.18,7.19,-0.05,23.52
8785,0.2269,-0.0439,0.8984,-6.24,8.5,0.0,23.54
8795,0.2445,-0.053,0.8798,-6.14,8.4,0.0,23.51
8805,0.2469,-0.051,0.871,-6.11,6.56,-0.11,23.5
8815,0.2136,-0.0547,0.9032,-6.12,8.44,0.0,23.49
8825,0.2336,-0.0552,0.8773,-6.14,9.15,-0.02,23.52
8835,0.2416,-0.0496,0.8734,-5.95,7.27,0.03,23.51
8845,0.2201,-0.0481,0.8881,-5.98,7.92,-0.02,23.52
8855,0.2328,-0.0503,0.8726,-5.97,7.91,0.05,23.52
8865,0.2356,-0.0493,0.8654,-5.98,6.2,0.09,23.48
8875,0.2119,-0.0448,0.9021,-6.06,7.79,0.09,23.53
8885,0.229,-0.0458,0.885,-6.14,8.93,0.06,23.52
8895,0.2438,-0.0522,0.8718,-6.05,7.19,0.09,23.51
8905,0.2253,-0.0475,0.8827,-6.12,7.19,-0.02,23.5
8915,0.2217,-0.0432,0.9015,-5.95,8.61,-0.03,23.52
8925,0.245,-0.0414,0.8824,-6.11,8.35,-0.12,23.51
8935,0.2477,-0.0421,0.8776,-6.11,6.87,-0.08,23.49
8945,0.228,-0.0458,0.8961,-6.11,7.53,-0.02,23.52
8955,0.2277,-0.0472,0.8936,-6.11,8.38,0.02,23.5
8965,0.233,-0.0469,0.8905,-6.03,8.26,-0.08,23.52
8975,0.229,-0.0469,0.8868,-6.12,8.4,-0.05,23.52
8985,0.2328,-0.048,0.886,-6.08,8.35,-0.11,23.49
8995,0.2391,-0.0494,0.8812,-6.11,7.02,-0.09,23.49
9005,0.2305,-0.0427,0.8909,-6.06,7.82,-0.06,23.51
9015,0.244,-0.0487,0.8748,-6.08,7.68,-0.03,23.52
9025,0.2449,-0.0507,0.8716,-5.97,6.17,0.03,23.5
9035,0.2195,-0.0454,0.9054,-6.08,7.59,0.05,23.5
9045,0.226,-0.0503,0.8988,-6.12,8.93,-0.05,23.51
9055,0.2416,-0.0536,0.8739,-6.11,7.73,-0.03,23.51
9065,0.233,-0.0515,0.881,-6.14,6.82,-0.08,23.51
9075,0.2157,-0.0466,0.9004,-6.11,8.69,0.0,23.51
9085,0.2408,-0.049,0.8861,-6.12,8.79,-0.08,23.52
9095,0.2552,-0.0483,0.8668,-6.05,6.61,-0.03,23.5
9105,0.2205,-0.0522,0.8965,-6.08,7.6,0.0,23.52
9115,0.2283,-0.0511,0.8807,-6.14,9.37,-0.08,23.51
9125,0.2565,-0.0493,0.8594,-6.17,7.13,0.0,23.52
9135,0.2311,-0.0476,0.8851,-6.08,7.24,-0.05,23.52
9145,0.2333,-0.0513,0.8782,-6.12,8.24,-0.05,23.54
9155,0.2357,-0.0521,0.8843,-6.08,8.15,0.0,23.53
9165,0.2478,-0.0509,0.869,-6.09,7.18,-0.08,23.52
9175,0.2166,-0.0547,0.8998,-6.15,7.63,-0.08,23.52
9185,0.2316,-0.0564,0.8804,-6.05,9.3,0.06,23.52
9195,0.2498,-0.0577,0.8676,-6.29,6.82,-0.02,23.52
9205,0.2261,-0.0568,0.8845,-6.06,7.53,0.03,23.51
9215,0.2239,-0.0526,0.8844,-6.15,8.41,0.0,23.52
9225,0.2369,-0.0469,0.8779,-6.09,8.85,0.11,23.52
9235,0.262,-0.0417,0.8536,-6.03,6.66,0.08,23.51
9245,0.2523,-0.0403,0.8612,-6.11,6.14,0.0,23.5
9255,0.2196,-0.0382,0.8872,-5.94,8.89,0.0,23.5
9265,0.2402,-0.0398,0.8745,-6.12,7.63,-0.14,23.5
9275,0.2397,-0.0376,0.868,-6.06,6.56,-0.2,23.53
9285,0.2218,-0.0431,0.8861,-6.12,7.44,-0.18,23.52
9295,0.2136,-0.0492,0.9003,-6.17,8.03,-0.09,23.52
9305,0.2427,-0.0461,0.8577,-6.2,8.09,-0.06,23.53
9315,0.2483,-0.0546,0.8571,-6.03,7.22,-0.2,23.53
9325,0.2365,-0.0505,0.8767,-5.95,6.79,-0.15,23.5
9335,0.2184,-0.0527,0.8993,-6.05,8.26,-0.03,23.5
9345,0.2368,-0.0498,0.8865,-6.11,9.11,-0.09,23.52
9355,0.2549,-0.0415,0.8613,-6.06,6.46,-0.09,23.54
9365,0.2267,-0.0468,0.8965,-6.11,6.75,-0.03,23.52
9375,0.2198,-0.0441,0.8988,-6.09,9.54,0.0,23.51
9385,0.2441,-0.0408,0.8826,-6.2,8.27,-0.02,23.52
9395,0.2427,-0.0415,0.8784,-6.11,7.37,0.0,23.54
9405,0.2278,-0.0428,0.8918,-6.14,7.51,-0.09,23.55
9415,0.2314,-0.0416,0.8867,-6.08,8.37,-0.03,23.52
9425,0.2386,-0.0487,0.8833,-6.05,7.53,-0.12,23.52
9435,0.2328,-0.0511,0.8899,-6.15,7.83,-0.05,23.51
9445,0.2465,-0.0551,0.8696,-6.11,7.89,-0.05,23.5
9455,0.2467,-0.0582,0.8612,-6.15,5.76,-0.06,23.51
9465,0.2123,-0.0568,0.8931,-6.06,7.8,-0.09,23.52
9475,0.2329,-0.0518,0.8752,-6.11,8.49,-0.02,23.5
9485,0.2393,-0.049,0.8713,-6.06,7.25,-0.08,23.56
9495,0.2346,-0.0433,0.8772,-6.03,7.22,0.02,23.52
9505,0.2308,-0.0387,0.8801,-6.05,7.28,-0.09,23.53
9515,0.2257,-0.0343,0.8918,-6.06,8.14,-0.11,23.53
9525,0.2438,-0.038,0.8737,-6.17,7.62,-0.11,23.52
9535,0.2382,-0.0367,0.8839,-6.17,6.87,-0.09,23.51
9545,0.223,-0.0345,0.8905,-6.14,8.0,-0.14,23.53
9555,0.2303,-0.0406,0.895,-6.26,8.67,-0.2,23.52
9565,0.2419,-0.0442,0.8861,-6.2,7.69,-0.09,23.54
9575,0.2273,-0.051,0.8932,-6.17,8.14,-0.08,23.52
9585,0.2336,-0.0469,0.8906,-6.06,8.53,-0.11,23.54
9595,0.2512,-0.0502,0.8828,-6.2,7.77,-0.06,23.52
9605,0.2355,-0.0505,0.8849,-6.06,7.01,-0.08,23.53
9615,0.2235,-0.0488,0.8893,-6.12,8.41,-0.03,23.52
9625,0.2501,-0.05,0.865,-6.11,7.8,0.02,23.51
9635,0.2391,-0.0475,0.8743,-6.14,5.97,0.02,23.53
9645,0.2054,-0.0441,0.9056,-6.14,8.87,0.12,23.53
9655,0.243,-0.048,0.8655,-6.12,8.31,0.0,23.53
9665,0.2355,-0.0422,0.8864,-6.15,6.73,-0.14,23.53
9675,0.2283,-0.0426,0.8987,-6.14,8.11,-0.09,23.51
9685,0.2341,-0.0502,0.8912,-6.15,7.73,-0.05,23.54
9695,0.228,-0.0541,0.8994,-6.08,8.29,-0.09,23.55
9705,0.2341,-0.057,0.8862,-6.11,8.35,-0.03,23.56
9715,0.2369,-0.0577,0.8816,-6.06,8.03,-0.03,23.54
9725,0.245,-0.0564,0.889,-6.06,7.91,-0.02,23.53
9735,0.2257,-0.0544,0.8804,-6.03,7.28,0.03,23.5
9745,0.2186,-0.0525,0.887,-5.95,9.08,0.02,23.51
9755,0.2388,-0.0438,0.8607,-6.11,8.23,-0.06,23.51
9765,0.2372,-0.0424,0.8771,-6.0,6.98,-0.08,23.51
9775,0.2334,-0.0408,0.8843,-6.11,7.76,-0.08,23.54
9785,0.2281,-0.0411,0.8873,-6.17,7.91,-0.03,23.51
9795,0.2368,-0.0443,0.874,-6.17,7.71,-0.06,23.53
9805,0.2338,-0.043,0.8889,-6.08,7.3,-0.11,23.53
9815,0.2312,-0.0468,0.8879,-6.15,8.37,-0.08,23.52
9825,0.2455,-0.048,0.8718,-6.12,7.71,-0.03,23.53
9835,0.2346,-0.0448,0.8833,-6.15,7.54,-0.09,23.54
9845,0.2432,-0.0436,0.8815,-6.2,7.39,-0.02,23.52
9855,0.2329,-0.0425,0.8962,-6.02,8.29,-0.09,23.51
9865,0.2487,-0.0439,0.8738,-6.06,7.74,-0.12,23.54
9875,0.2454,-0.0426,0.8793,-6.08,6.92,-0.05,23.52
9885,0.2308,-0.0422,0.8868,-6.05,7.54,-0.02,23.55
9895,0.2288,-0.0443,0.8917,-6.03,7.97,-0.06,23.51
9905,0.2301,-0.048,0.8901,-6.21,8.18,0.02,23.5
9915,0.2401,-0.0485,0.8755,-6.15,6.95,-0.12,23.53
9925,0.2308,-0.0514,0.8885,-6.12,7.11,-0.14,23.54
9935,0.2385,-0.0497,0.8794,-6.02,8.52,-0.08,23.54
9945,0.2432,-0.0493,0.8822,-6.09,6.78,-0.11,23.54
9955,0.2303,-0.0509,0.8911,-6.08,7.51,-0.09,23.53
9965,0.2253,-0.0598,0.8822,-6.18,8.27,0.03,23.52
9975,0.2267,-0.0586,0.8805,-6.08,8.31,0.08,23.52
9985,0.2344,-0.0549,0.8695,-6.08,7.66,0.06,23.54
9995,0.2313,-0.0502,0.8801,-6.17,7.68,-0.06,23.56
10005,0.229,-0.0514,0.8818,-6.15,8.53,0.03,23.52
10015,0.2474,-0.0425,0.8687,-6.2,7.48,-0.05,23.53
10025,0.2406,-0.0442,0.8842,-6.11,6.52,-0.03,23.55
10035,0.2217,-0.0472,0.903,-6.11,8.0,-0.03,23.52
10045,0.2344,-0.052,0.8936,-6.14,8.46,-0.08,23.54
10055,0.2339,-0.0573,0.8909,-6.14,8.58,-0.05,23.56
10065,0.2518,-0.0511,0.8712,-6.11,7.24,-0.09,23.52
10075,0.2256,-0.0518,0.8879,-6.12,7.92,-0.05,23.53
10085,0.2402,-0.0455,0.8846,-6.11,8.63,-0.03,23.52
10095,0.235,-0.0441,0.8755,-6.15,7.66,-0.08,23.53
10105,0.2322,-0.0455,0.8824,-5.98,8.08,-0.08,23.53
10115,0.2393,-0.042,0.8654,-6.12,7.5,-0.08,23.53
10125,0.233,-0.0443,0.8772,-6.08,7.39,-0.09,23.51
10135,0.2363,-0.043,0.8809,-6.21,7.4,-0.11,23.53
10145,0.2314,-0.0466,0.894,-6.12,7.66,-0.02,23.51
10155,0.2391,-0.0427,0.8918,-6.09,8.05,-0.05,23.54
10165,0.2386,-0.0464,0.8971,-6.12,8.23,-0.06,23.53
10175,0.2427,-0.045,0.8928,-6.09,7.71,-0.12,23.54
10185,0.2284,-0.0465,0.8964,-6.08,8.67,-0.06,23.54
10195,0.2408,-0.054,0.869,-6.05,8.53,-0.05,23.54
10205,0.2386,-0.0531,0.8633,-6.08,6.79,-0.06,23.55
10215,0.2148,-0.0494,0.8777,-6.02,7.86,-0.08,23.53
10225,0.228,-0.0455,0.87,-6.11,8.09,-0.06,23.53
10235,0.2362,-0.0396,0.8691,-6.12,7.4,-0.18,23.54
10245,0.2393,-0.04,0.8744,-6.15,6.78,-0.12,23.53
10255,0.228,-0.0426,0.9076,-6.21,7.28,-0.14,23.53
10265,0.2374,-0.0458,0.9042,-6.27,8.58,-0.02,23.52
10276,0.2382,-0.0482,0.8995,-6.23,8.29,-0.12,23.55
10286,0.24,-0.0592,0.8888,-6.11,8.84,0.0,23.52
10296,0.2607,-0.0588,0.8619,-6.21,6.43,-0.08,23.52
10306,0.2126,-0.057,0.9004,-6.15,7.05,0.0,23.52
10316,0.2008,-0.0552,0.9066,-6.17,8.84,0.02,23.54
10326,0.2572,-0.046,0.8369,-6.12,7.15,-0.17,23.54
10336,0.2196,-0.045,0.8792,-6.05,5.95,-0.09,23.53
10346,0.2078,-0.0361,0.9104,-6.12,9.79,-0.15,23.54
10356,0.2472,-0.0398,0.882,-6.21,8.7,-0.06,23.54
10366,0.2523,-0.0516,0.8713,-6.21,6.21,-0.11,23.56
10376,0.2063,-0.0568,0.9031,-6.12,8.6,-0.02,23.54
10386,0.234,-0.058,0.8762,-6.09,9.97,-0.02,23.56
10396,0.2745,-0.053,0.8452,-6.02,5.18,-0.03,23.56
10406,0.2031,-0.0503,0.9214,-6.18,8.12,-0.15,23.54
10416,0.2299,-0.0366,0.8896,-6.18,11.11,-0.06,23.53
10426,0.2684,-0.0394,0.8478,-5.98,4.38,-0.03,23.54
10436,0.2009,-0.0417,0.8986,-6.06,7.76,-0.06,23.53
10446,0.198,-0.0499,0.9152,-6.06,10.41,-0.05,23.53
10456,0.2672,-0.0564,0.8568,-6.02,5.8,-0.03,23.54
10466,0.2217,-0.051,0.8915,-6.17,6.89,0.05,23.56
10476,0.2266,-0.0469,0.8988,-6.18,9.33,0.03,23.55
10486,0.2683,-0.0507,0.8629,-6.0,7.05,0.06,23.56
10496,0.2239,-0.0502,0.9042,-6.15,6.6,0.0,23.53
10506,0.2253,-0.0472,0.8843,-5.94,10.06,0.08,23.55
10516,0.2684,-0.0448,0.8463,-6.06,4.98,-0.05,23.54
10526,0.2075,-0.042,0.9115,-6.14,7.47,-0.2,23.54
10536,0.2249,-0.0417,0.9016,-6.18,9.73,-0.08,23.53
10546,0.2559,-0.0391,0.8583,-6.21,6.72,-0.08,23.56
10556,0.2198,-0.0479,0.8939,-6.12,6.58,-0.03,23.55
10566,0.2157,-0.0472,0.8965,-6.11,9.79,0.0,23.54
10576,0.2635,-0.0543,0.8568,-6.09,7.6,-0.14,23.57
10586,0.2378,-0.0546,0.8804,-6.18,5.07,-0.08,23.56
10596,0.2183,-0.0573,0.8986,-6.15,7.21,-0.08,23.55
10606,0.2286,-0.0547,0.9048,-6.15,9.86,0.0,23.54
10616,0.2529,-0.0594,0.8625,-6.12,5.4,-0.03,23.57
10626,0.2185,-0.0562,0.885,-6.09,6.21,-0.03,23.54
10636,0.2074,-0.0505,0.9,-6.03,10.11,0.12,23.56
10646,0.2761,-0.046,0.8518,-5.97,6.5,0.05,23.55
10656,0.2196,-0.0466,0.8899,-6.08,5.42,0.0,23.53
10666,0.2004,-0.0397,0.9125,-6.17,10.7,-0.09,23.57
10676,0.2694,-0.0381,0.8634,-6.05,7.5,-0.05,23.53
10686,0.2404,-0.042,0.8901,-6.09,5.08,-0.05,23.55
10696,0.2057,-0.0541,0.9155,-6.18,10.56,-0.03,23.56
10706,0.2568,-0.0546,0.8599,-6.06,8.38,0.06,23.53
10716,0.2451,-0.0544,0.8677,-6.02,5.95,-0.08,23.54
10726,0.2144,-0.0513,0.8975,-6.09,7.66,-0.06,23.56
10736,0.2147,-0.0471,0.8962,-6.24,9.97,-0.02,23.54
10746,0.2642,-0.0386,0.8635,-6.08,7.42,0.05,23.56
10757,0.2683,-0.0385,0.8645,-6.15,5.44,-0.09,23.57
10767,0.2101,-0.047,0.9003,-6.08,7.3,0.06,23.57
10777,0.2118,-0.0419,0.8866,-6.14,10.63,0.09,23.57
10787,0.2717,-0.043,0.8484,-6.0,6.44,-0.05,23.54
10797,0.2297,-0.0417,0.9023,-6.15,5.53,-0.03,23.55
10807,0.2145,-0.0422,0.9202,-6.26,10.47,0.06,23.56
10817,0.2667,-0.047,0.8496,-6.06,7.5,-0.09,23.57
10827,0.233,-0.0466,0.8755,-6.05,5.73,-0.14,23.55
10837,0.2081,-0.0493,0.9037,-6.0,9.07,-0.12,23.58
10847,0.2388,-0.0491,0.8754,-6.09,9.4,-0.05,23.54
10857,0.2582,-0.0486,0.8484,-5.98,6.23,-0.03,23.53
10867,0.2216,-0.0454,0.8895,-6.12,6.31,-0.14,23.55
10877,0.2133,-0.0405,0.907,-6.27,9.65,-0.06,23.57
10887,0.2521,-0.0399,0.8804,-6.32,8.35,0.0,23.57
10897,0.2662,-0.0499,0.8635,-6.12,5.44,-0.02,23.56
10907,0.2147,-0.0577,0.8918,-6.08,6.87,0.02,23.54
10917,0.2021,-0.0568,0.9031,-6.2,11.39,0.03,23.55
10927,0.2776,-0.0547,0.8441,-6.11,6.64,0.06,23.56
10937,0.2308,-0.0525,0.8818,-6.15,5.68,0.05,23.56
10947,0.2069,-0.0381,0.9089,-6.17,9.63,-0.05,23.54
10957,0.2496,-0.0356,0.8712,-6.21,8.75,-0.05,23.55
10967,0.2493,-0.0391,0.8788,-6.24,6.73,-0.12,23.55
10977,0.2378,-0.0474,0.8739,-6.18,7.36,-0.15,23.57
10987,0.2251,-0.0526,0.889,-6.11,7.1,-0.12,23.54
10997,0.2163,-0.0546,0.9016,-6.15,7.62,-0.11,23.54
11007,0.2469,-0.0554,0.8623,-6.14,8.63,-0.06,23.55
11017,0.2506,-0.0521,0.8572,-6.09,6.29,-0.06,23.55
11027,0.224,-0.0485,0.8912,-5.92,6.87,-0.17,23.57
11037,0.2189,-0.0417,0.9038,-6.15,9.3,-0.03,23.55
11047,0.2567,-0.0415,0.8745,-6.18,8.05,-0.06,23.54
11057,0.2449,-0.0459,0.8781,-6.18,5.89,-0.08,23.53
11067,0.2178,-0.0559,0.9011,-6.2,8.24,-0.06,23.55
11077,0.2349,-0.0569,0.8857,-6.14,9.15,-0.08,23.55
11087,0.2533,-0.0609,0.8612,-6.02,7.13,0.09,23.54
11097,0.2355,-0.0574,0.8811,-6.05,6.52,0.08,23.56
11107,0.2157,-0.0499,0.8894,-5.95,8.79,-0.03,23.55
11117,0.2234,-0.0453,0.8905,-6.09,8.93,0.0,23.57
11127,0.2401,-0.0396,0.8647,-6.08,6.84,0.0,23.54
11137,0.2104,-0.0413,0.8915,-6.2,8.03,0.02,23.55
11147,0.241,-0.0367,0.8816,-6.15,8.53,-0.03,23.57
11157,0.255,-0.0361,0.8772,-6.2,6.69,0.0,23.58
11167,0.233,-0.0475,0.8948,-6.09,7.04,-0.12,23.56
11177,0.2231,-0.0475,0.9034,-6.26,8.29,-0.08,23.56
11187,0.2428,-0.0505,0.8895,-6.11,8.96,-0.05,23.56
11197,0.267,-0.0491,0.8765,-6.18,6.06,-0.15,23.56
11207,0.2167,-0.0538,0.9125,-6.11,7.71,-0.05,23.54
11217,0.2239,-0.0541,0.8895,-6.14,9.77,-0.08,23.54
11227,0.2522,-0.0557,0.8646,-5.98,7.42,-0.03,23.56
11237,0.2513,-0.0508,0.8649,-6.15,6.78,0.0,23.56
11247,0.2191,-0.0551,0.8882,-5.94,7.51,-0.02,23.57
11257,0.2294,-0.048,0.8707,-6.03,8.56,-0.05,23.57
11267,0.2391,-0.0459,0.8606,-6.14,7.25,-0.05,23.58
11277,0.2418,-0.0449,0.8582,-5.98,7.39,-0.12,23.57
11287,0.2396,-0.0483,0.8562,-6.08,6.46,-0.09,23.54
11297,0.2212,-0.0425,0.8905,-6.09,7.39,0.03,23.57
11307,0.2347,-0.0375,0.8759,-6.08,8.61,-0.15,23.57
11317,0.2543,-0.0389,0.8595,-6.09,6.37,-0.12,23.58
11327,0.2247,-0.0425,0.8824,-6.14,6.7,-0.03,23.55
11337,0.2191,-0.0428,0.9019,-6.17,8.49,-0.03,23.58
11347,0.2418,-0.0411,0.882,-6.23,8.14,-0.05,23.55
11357,0.2365,-0.0453,0.8868,-6.24,6.5,-0.18,23.55
11367,0.2087,-0.0494,0.9058,-6.11,8.66,-0.02,23.55
11377,0.2378,-0.0514,0.8843,-6.26,8.73,-0.08,23.56
11387,0.2482,-0.0488,0.8795,-6.09,7.21,-0.09,23.57
11397,0.2289,-0.0526,0.8923,-6.09,7.66,-0.02,23.56
11407,0.2296,-0.0543,0.8853,-6.06,8.7,0.02,23.54
11417,0.2448,-0.0544,0.8689,-6.12,7.51,0.09,23.56
11427,0.2335,-0.0507,0.8757,-6.05,6.98,0.08,23.56
11437,0.228,-0.049,0.8877,-6.09,7.97,0.03,23.57
11447,0.2365,-0.0504,0.8888,-6.12,8.14,0.09,23.57
11457,0.2408,-0.0476,0.8839,-6.09,7.8,0.02,23.56
11467,0.2297,-0.0508,0.8848,-6.12,7.18,-0.02,23.59
11477,0.2305,-0.0492,0.896,-6.14,7.94,0.02,23.54
11487,0.2402,-0.0529,0.891,-6.06,7.57,-0.09,23.55
11497,0.2242,-0.0546,0.8948,-6.17,7.97,0.02,23.56
11507,0.2218,-0.0549,0.8878,-6.02,9.56,-0.03,23.57
11517,0.2505,-0.0475,0.86,-6.06,7.71,0.02,23.56
11527,0.2371,-0.0481,0.8616,-6.06,7.25,-0.03,23.57
11537,0.2324,-0.043,0.8634,-6.05,6.73,-0.05,23.57
11547,0.2145,-0.0435,0.8866,-6.11,8.17,-0.05,23.56
11557,0.2367,-0.0394,0.8751,-6.09,8.49,-0.11,23.57
11567,0.2479,-0.0382,0.863,-6.15,5.98,-0.15,23.58
11577,0.2096,-0.0481,0.9005,-6.17,7.21,-0.11,23.55
11587,0.2152,-0.0485,0.899,-6.11,9.62,0.02,23.57
11597,0.2256,-0.0498,0.8883,-6.03,9.39,-0.12,23.56
11607,0.2355,-0.045,0.8798,-6.15,6.53,-0.12,23.57
11617,0.2288,-0.0457,0.8816,-6.15,8.18,-0.08,23.54
11627,0.2365,-0.04,0.8804,-6.09,7.79,-0.09,23.59
11638,0.2303,-0.0387,0.889,-6.08,8.2,0.0,23.59
11648,0.2386,-0.0376,0.8783,-6.11,8.34,0.0,23.55
11658,0.2478,-0.0437,0.8602,-6.09,6.38,0.02,23.55
11668,0.2186,-0.0458,0.895,-6.09,7.25,0.0,23.54
11678,0.2269,-0.0465,0.8936,-6.23,9.39,0.0,23.56
11688,0.2523,-0.0508,0.8647,-6.05,7.44,0.03,23.54
11698,0.239,-0.0535,0.8706,-6.03,5.66,0.03,23.57
11708,0.2004,-0.0547,0.9164,-6.15,8.61,-0.02,23.56
11718,0.2365,-0.049,0.8828,-6.09,10.02,0.02,23.56
11728,0.251,-0.0486,0.8602,-6.08,6.64,-0.03,23.59
11738,0.2155,-0.0508,0.8953,-5.92,7.39,0.0,23.58
11748,0.2242,-0.0481,0.8873,-6.06,9.16,-0.05,23.56
11758,0.2388,-0.0431,0.8735,-6.08,7.73,0.03,23.55
11768,0.2307,-0.0431,0.8815,-6.12,8.02,-0.09,23.55
11778,0.2419,-0.0446,0.8643,-6.18,7.27,-0.06,23.57
11789,0.2463,-0.0444,0.8633,-6.06,6.72,0.0,23.56
11799,0.223,-0.0447,0.8879,-6.06,7.15,0.02,23.55
11809,0.2202,-0.043,0.8961,-6.06,8.61,-0.02,23.55
11819,0.2487,-0.0394,0.8724,-6.12,7.97,-0.09,23.55
11829,0.2451,-0.0416,0.8738,-6.15,6.12,-0.17,23.57
11839,0.2183,-0.0438,0.9054,-6.12,7.94,-0.12,23.6
11850,0.2242,-0.0459,0.8944,-6.03,7.3,-0.06,23.56
11861,0.2142,-0.0432,0.8993,-6.06,8.06,0.02,23.56
11871,0.2466,-0.0466,0.8738,-6.05,8.06,-0.14,23.56
11881,0.2415,-0.0447,0.879,-6.09,6.84,-0.05,23.56
11891,0.2216,-0.0472,0.8892,-6.11,7.74,-0.11,23.57
11901,0.225,-0.0472,0.8947,-6.05,8.05,-0.03,23.56
11911,0.241,-0.0482,0.8785,-6.14,8.08,-0.09,23.57
11921,0.2422,-0.0513,0.8773,-6.09,7.89,-0.03,23.57
11931,0.2423,-0.0519,0.874,-6.06,6.93,-0.06,23.57
11941,0.2242,-0.0525,0.889,-6.08,7.37,-0.02,23.57
11951,0.2263,-0.0537,0.8965,-6.11,8.78,0.02,23.55
11961,0.2416,-0.0515,0.8759,-6.15,7.8,0.0,23.55
11971,0.2284,-0.0492,0.8846,-6.05,7.39,-0.06,23.58
11981,0.2196,-0.0514,0.8907,-6.06,8.08,-0.08,23.57
11991,0.2333,-0.0497,0.8812,-6.12,8.2,-0.09,23.55
12001,0.2372,-0.0496,0.8728,-6.14,7.54,-0.05,23.57
12011,0.2318,-0.0475,0.8824,-6.12,7.3,-0.06,23.57
12021,0.233,-0.0419,0.8778,-6.06,7.6,-0.02,23.57
12031,0.2316,-0.0452,0.8829,-6.05,7.97,-0.17,23.56
12041,0.2424,-0.0433,0.8732,-6.17,7.24,-0.03,23.58
12051,0.2203,-0.0457,0.8965,-6.21,7.59,-0.08,23.59
12061,0.2223,-0.0487,0.887,-6.09,9.1,0.02,23.57
12071,0.2421,-0.0498,0.8718,-6.09,7.63,-0.11,23.56
12081,0.2328,-0.0474,0.8756,-6.05,7.36,-0.05,23.57
12091,0.23,-0.0465,0.8806,-6.03,8.18,-0.06,23.58
12101,0.2439,-0.0421,0.8644,-6.08,7.31,-0.03,23.57
12111,0.2262,-0.0404,0.8854,-6.11,7.11,0.02,23.56
12121,0.2203,-0.0355,0.8862,-6.2,8.58,0.0,23.56
12131,0.244,-0.0358,0.8693,-6.18,7.85,-0.06,23.59
12141,0.2441,-0.0382,0.8843,-6.29,6.46,-0.09,23.54
12151,0.2267,-0.0391,0.8949,-6.24,7.05,-0.08,23.57
12161,0.235,-0.0504,0.8857,-6.24,8.81,-0.02,23.56
12171,0.2415,-0.0511,0.882,-6.17,7.94,-0.08,23.57
12181,0.2433,-0.0503,0.8866,-6.21,7.98,-0.03,23.57
12191,0.2496,-0.0491,0.8787,-6.2,7.1,-0.06,23.56
12201,0.2369,-0.0466,0.8879,-6.17,7.05,0.0,23.58
12211,0.2244,-0.0449,0.906,-6.26,8.82,-0.08,23.59
12221,0.2479,-0.0487,0.8766,-6.18,8.17,-0.03,23.58
12231,0.2377,-0.0547,0.8867,-6.09,6.55,0.0,23.57
12241,0.2115,-0.0586,0.8986,-6.09,9.39,-0.03,23.56
12251,0.2192,-0.0665,0.8947,-6.03,9.62,-0.02,23.57
12261,0.2444,-0.0582,0.8521,-5.97,6.82,-0.09,23.6
12271,0.2378,-0.054,0.8619,-5.98,6.92,-0.05,23.57
12281,0.231,-0.0449,0.8766,-6.03,7.33,-0.05,23.57
12291,0.2339,-0.0425,0.8789,-6.15,8.11,0.0,23.59
12301,0.2416,-0.0382,0.8667,-6.14,6.73,0.02,23.57
12311,0.2311,-0.0386,0.8899,-6.21,7.07,-0.03,23.58
12321,0.236,-0.0388,0.896,-6.23,7.91,0.0,23.57
12331,0.2504,-0.0452,0.8806,-6.21,7.05,-0.03,23.57
12341,0.2242,-0.052,0.8965,-6.21,7.5,-0.03,23.57
12351,0.2223,-0.0569,0.8961,-6.11,9.31,-0.03,23.58
12361,0.2554,-0.0522,0.866,-6.02,7.44,-0.02,23.57
12371,0.2336,-0.0518,0.8802,-6.05,7.04,-0.02,23.57
12381,0.224,-0.0479,0.8768,-6.09,8.34,-0.02,23.58
12391,0.236,-0.0475,0.8699,-5.95,7.89,-0.05,23.57
12401,0.2354,-0.0472,0.8687,-5.97,7.24,0.02,23.56
12411,0.2234,-0.043,0.9009,-6.26,8.15,-0.08,23.59
12421,0.2405,-0.0443,0.8822,-6.2,8.15,-0.03,23.58
12431,0.245,-0.0448,0.8856,-6.26,7.11,0.02,23.6
12441,0.2318,-0.0532,0.8993,-6.06,7.57,-0.11,23.56
12451,0.2275,-0.053,0.9072,-6.2,8.29,-0.06,23.57
12461,0.2319,-0.0514,0.9003,-6.2,8.55,-0.05,23.56
12471,0.2352,-0.0519,0.8715,-6.09,7.83,-0.15,23.57
12481,0.2296,-0.0553,0.8749,-6.08,8.06,0.05,23.55
12491,0.2318,-0.0479,0.8719,-6.12,7.62,-0.12,23.57
12501,0.2251,-0.0494,0.871,-6.08,8.32,-0.06,23.57
12511,0.2454,-0.0474,0.848,-6.17,7.16,0.0,23.57
12521,0.2268,-0.0481,0.8693,-6.05,6.76,-0.05,23.57
12531,0.2235,-0.0386,0.892,-6.09,8.08,-0.08,23.59
12541,0.2474,-0.04,0.8854,-6.17,8.37,-0.06,23.59
12551,0.2596,-0.0405,0.8726,-6.17,5.62,-0.08,23.58
12561,0.2299,-0.0446,0.8956,-6.06,6.05,-0.05,23.55
12571,0.2358,-0.0454,0.8911,-6.05,10.05,-0.03,23.56
12581,0.2623,-0.0492,0.8644,-6.15,6.63,-0.14,23.57
12591,0.219,-0.0466,0.9015,-6.17,7.66,-0.06,23.57
12601,0.2174,-0.0494,0.9025,-6.14,9.11,-0.09,23.56
12611,0.2438,-0.0452,0.879,-6.2,8.7,-0.08,23.57
12621,0.2435,-0.0448,0.8744,-6.06,7.62,-0.05,23.59
12631,0.2325,-0.0457,0.884,-6.06,7.5,-0.03,23.57
12641,0.2241,-0.0492,0.887,-6.17,8.55,-0.09,23.58
12651,0.238,-0.0527,0.8685,-5.97,8.49,-0.06,23.58
12661,0.2452,-0.0524,0.8606,-5.98,6.14,-0.02,23.57
12671,0.2166,-0.0446,0.8938,-6.05,7.85,-0.03,23.57
12681,0.2341,-0.0457,0.881,-6.15,8.49,-0.02,23.58
12691,0.2418,-0.0428,0.8761,-6.05,7.79,-0.09,23.59
12701,0.2443,-0.0396,0.8641,-6.06,6.75,-0.08,23.56
12711,0.228,-0.0385,0.8932,-6.26,7.24,-0.11,23.58
12721,0.2393,-0.0377,0.8923,-6.18,8.79,-0.09,23.59
12731,0.2634,-0.0414,0.8772,-6.18,6.08,-0.14,23.59
12741,0.2247,-0.0504,0.9038,-6.2,7.1,-0.15,23.57
12751,0.2195,-0.0575,0.9014,-6.12,9.56,-0.03,23.59
12761,0.2524,-0.0552,0.8671,-6.06,7.82,-0.08,23.57
12771,0.2434,-0.0549,0.8568,-5.95,6.32,0.02,23.57
12781,0.2079,-0.0547,0.8906,-6.06,7.89,-0.02,23.58
12791,0.2214,-0.0471,0.8745,-6.11,9.94,0.03,23.59
12801,0.2516,-0.0374,0.8522,-6.14,7.01,-0.03,23.57
12811,0.24,-0.0372,0.8744,-6.15,5.4,-0.11,23.57
12821,0.2064,-0.0372,0.9191,-6.23,8.32,-0.02,23.58
12831,0.2367,-0.0378,0.8951,-6.17,9.76,-0.12,23.58
12841,0.2579,-0.0504,0.869,-6.12,6.73,-0.08,23.55
12851,0.222,-0.0609,0.8905,-6.05,6.81,-0.02,23.58
12861,0.2023,-0.0623,0.9113,-6.12,10.41,-0.05,23.61
12871,0.2554,-0.059,0.8525,-6.14,8.7,-0.08,23.58
12881,0.2423,-0.0491,0.8615,-6.17,4.98,-0.03,23.58
12891,0.1969,-0.0403,0.9104,-6.18,9.34,0.0,23.59
12901,0.2485,-0.0314,0.8802,-6.17,9.3,-0.06,23.57
12911,0.2628,-0.0364,0.8689,-6.21,5.59,-0.06,23.57
12921,0.2113,-0.0485,0.9066,-6.14,7.62,-0.03,23.59
12931,0.2173,-0.0547,0.896,-6.24,10.73,0.0,23.58
12941,0.267,-0.0576,0.8473,-6.09,6.55,-0.02,23.59
12951,0.2367,-0.0533,0.8813,-6.03,5.56,-0.05,23.58
12961,0.2026,-0.0477,0.9163,-6.2,9.1,-0.12,23.58
12971,0.2474,-0.04,0.875,-6.14,9.79,-0.02,23.59
12981,0.2583,-0.0433,0.8588,-6.08,4.81,-0.11,23.58
12991,0.1996,-0.0448,0.9164,-6.2,8.34,-0.05,23.6
13001,0.2377,-0.0511,0.8854,-6.18,10.05,0.02,23.58
13011,0.2639,-0.0546,0.856,-6.09,5.53,-0.03,23.56
13021,0.2043,-0.0511,0.9155,-6.18,8.24,0.02,23.56
13031,0.2537,-0.0463,0.8783,-6.09,9.16,-0.02,23.57
13041,0.2551,-0.0457,0.8782,-6.15,5.77,-0.03,23.59
13051,0.2103,-0.0502,0.905,-6.14,8.81,-0.08,23.59
13061,0.2106,-0.0504,0.9058,-6.14,9.45,-0.05,23.59
13071,0.2592,-0.0514,0.8528,-5.98,6.96,-0.11,23.59
13081,0.2144,-0.0514,0.89,-6.18,6.69,-0.06,23.57
13091,0.2183,-0.0464,0.9061,-6.17,10.56,-0.09,23.6
13101,0.27,-0.0487,0.8583,-6.14,6.82,-0.03,23.58
13111,0.2062,-0.0543,0.9047,-6.11,7.13,-0.08,23.58
13121,0.1947,-0.0573,0.9086,-6.14,10.26,-0.02,23.58
13131,0.2703,-0.0582,0.8422,-5.95,5.08,-0.02,23.59
13141,0.2,-0.0526,0.9174,-6.17,7.42,-0.06,23.6
13151,0.2277,-0.0413,0.8997,-6.18,11.28,-0.03,23.57
13161,0.2762,-0.0397,0.8503,-5.95,5.18,-0.05,23.59
13171,0.2156,-0.0406,0.9065,-6.08,7.22,-0.09,23.57
13181,0.2281,-0.0353,0.8976,-6.26,10.31,-0.06,23.59
13191,0.2664,-0.0424,0.851,-6.14,6.6,-0.03,23.59
13202,0.2615,-0.05,0.8442,-6.09,6.5,-0.15,23.59
13212,0.2003,-0.0515,0.9139,-6.15,8.72,-0.12,23.62
13222,0.2053,-0.0502,0.9174,-6.15,10.35,-0.08,23.59
13232,0.2592,-0.0563,0.855,-6.02,6.05,-0.11,23.59
13242,0.2301,-0.0625,0.8806,-5.98,5.21,-0.06,23.57
13252,0.202,-0.0504,0.9111,-6.15,10.23,0.08,23.58
13262,0.2694,-0.0455,0.8519,-6.06,7.66,0.02,23.56
13272,0.2308,-0.0426,0.8864,-6.24,5.22,0.02,23.6
13282,0.2094,-0.041,0.9116,-6.18,11.13,-0.11,23.6
13292,0.2684,-0.0361,0.8552,-6.03,6.96,-0.03,23.59
13302,0.2323,-0.04,0.8832,-6.08,5.6,-0.05,23.59
13312,0.1996,-0.0444,0.9138,-6.18,9.95,-0.02,23.59
13322,0.2456,-0.0465,0.8641,-6.12,8.96,-0.06,23.58
13332,0.26,-0.0474,0.8538,-5.92,5.54,-0.15,23.58
13343,0.2402,-0.0518,0.8678,-5.98,5.1,-0.11,23.62
13353,0.1998,-0.0493,0.9124,-6.06,8.75,-0.09,23.58
13363,0.2367,-0.0425,0.89,-6.15,9.86,-0.02,23.59
13373,0.2749,-0.0499,0.8601,-6.05,5.91,-0.03,23.59
13383,0.2156,-0.0491,0.9003,-6.21,6.73,-0.08,23.61
13393,0.2197,-0.0529,0.8912,-6.2,10.44,0.0,23.59
13403,0.2655,-0.0508,0.849,-6.2,6.18,0.02,23.57
13413,0.2271,-0.0475,0.8896,-6.11,6.43,0.0,23.59
13423,0.2065,-0.0453,0.9031,-6.18,9.5,-0.09,23.61
13433,0.2388,-0.0431,0.8781,-6.05,9.11,-0.03,23.61
13443,0.257,-0.0425,0.8575,-6.02,5.76,-0.05,23.59
13453,0.203,-0.046,0.9086,-6.15,7.68,-0.18,23.59
13463,0.224,-0.0476,0.8878,-6.14,10.5,-0.03,23.6
13473,0.2612,-0.0504,0.8521,-6.17,6.63,-0.03,23.57
13483,0.2321,-0.0511,0.8856,-6.11,6.41,-0.15,23.6
13493,0.2123,-0.046,0.9023,-6.11,8.53,-0.03,23.61
13503,0.2274,-0.0422,0.8965,-6.26,9.25,-0.09,23.61
13513,0.2501,-0.0459,0.8809,-6.12,8.29,-0.08,23.59
13523,0.2399,-0.0546,0.8843,-6.06,6.95,-0.05,23.59
13533,0.2137,-0.0583,0.8911,-6.06,8.75,-0.02,23.59
13543,0.2476,-0.0593,0.8606,-5.92,8.24,0.0,23.59
13553,0.2482,-0.0509,0.8718,-6.09,5.82,0.05,23.57
13563,0.2054,-0.0482,0.9078,-6.12,10.02,0.0,23.57
13573,0.2644,-0.0387,0.8379,-6.17,6.93,-0.06,23.59
13583,0.2241,-0.0435,0.8826,-6.18,5.22,-0.02,23.61
13593,0.2084,-0.0414,0.9221,-6.23,9.91,-0.06,23.6
13603,0.2662,-0.0413,0.8781,-6.17,8.38,-0.12,23.6
13613,0.2423,-0.0558,0.881,-6.26,6.53,-0.08,23.59
13623,0.2072,-0.0641,0.905,-6.18,9.5,-0.14,23.61
13633,0.2467,-0.0581,0.8621,-5.95,9.47,-0.03,23.58
13643,0.2568,-0.0477,0.8551,-6.0,5.16,-0.05,23.59
13653,0.2126,-0.0419,0.9,-6.24,7.94,-0.11,23.61
13663,0.2377,-0.0413,0.8767,-6.11,9.08,-0.08,23.59
13673,0.2578,-0.0397,0.8677,-6.11,5.65,-0.15,23.58
13683,0.2192,-0.0388,0.9073,-6.17,7.54,-0.11,23.59
13693,0.2333,-0.0542,0.8989,-6.11,9.28,-0.03,23.6
13703,0.2521,-0.0548,0.8672,-6.15,7.3,-0.05,23.58
13713,0.2363,-0.062,0.8835,-6.11,6.92,-0.03,23.57
13723,0.2229,-0.058,0.8793,-5.98,7.8,-0.05,23.59
13733,0.2212,-0.0503,0.8888,-6.06,9.18,0.03,23.59
13743,0.2513,-0.0403,0.8547,-6.05,7.47,0.06,23.6
13753,0.2335,-0.0322,0.8693,-6.12,5.34,-0.05,23.59
13763,0.2021,-0.0341,0.9064,-6.06,9.13,-0.02,23.59
13773,0.2496,-0.036,0.8711,-6.21,7.95,-0.05,23.6
13783,0.2439,-0.0444,0.8818,-6.08,6.08,-0.05,23.59
13793,0.225,-0.0498,0.8981,-6.17,7.68,-0.09,23.6
13803,0.2375,-0.052,0.8939,-6.17,8.29,0.02,23.59
13813,0.2511,-0.0531,0.8916,-6.14,7.73,-0.08,23.58
13823,0.256,-0.0529,0.8859,-6.11,7.44,-0.05,23.56
13833,0.2205,-0.0603,0.9041,-6.14,7.94,-0.09,23.6
13843,0.2238,-0.0573,0.8994,-6.11,9.86,-0.11,23.59
13853,0.2449,-0.0549,0.8661,-6.21,8.72,0.06,23.58
13863,0.246,-0.054,0.8521,-6.06,6.87,-0.05,23.59
13873,0.2358,-0.051,0.8572,-6.14,6.58,-0.02,23.6
13883,0.2234,-0.0447,0.8813,-6.08,8.75,-0.03,23.59
13893,0.2334,-0.0433,0.8737,-5.98,8.29,0.02,23.61
13903,0.2371,-0.0392,0.8766,-6.11,7.08,0.0,23.58
13913,0.2349,-0.0389,0.8859,-6.03,7.76,-0.03,23.61
13923,0.2388,-0.0425,0.8892,-6.23,7.92,-0.14,23.59
13933,0.2378,-0.0503,0.8859,-6.11,7.1,-0.09,23.61
13943,0.218,-0.0526,0.9084,-6.2,8.05,-0.08,23.6
13953,0.2294,-0.052,0.8866,-6.17,9.13,0.02,23.61
13963,0.2427,-0.052,0.8748,-6.15,7.59,-0.05,23.57
13973,0.2244,-0.0548,0.8853,-6.11,8.26,-0.09,23.6
13983,0.2333,-0.0502,0.8711,-6.15,8.17,0.03,23.61
13993,0.2455,-0.047,0.8647,-5.98,7.31,0.0,23.58
14003,0.2338,-0.0355,0.8752,-6.12,6.27,0.0,23.58
14013,0.2162,-0.0386,0.8976,-6.15,8.75,0.0,23.58
14023,0.2466,-0.0398,0.8713,-6.21,8.06,0.02,23.58
14033,0.2421,-0.0448,0.8837,-6.15,6.47,-0.06,23.61
14043,0.2278,-0.0458,0.8979,-6.11,7.57,-0.08,23.58
14053,0.2363,-0.0457,0.9064,-6.12,8.14,0.02,23.58
14063,0.2385,-0.0477,0.8859,-6.23,7.71,-0.03,23.58
14073,0.2262,-0.0555,0.896,-6.12,7.71,-0.02,23.57
14083,0.2286,-0.0626,0.8906,-6.11,8.29,0.0,23.61
14093,0.2339,-0.0555,0.8802,-6.08,8.24,-0.06,23.58
14103,0.229,-0.0536,0.865,-6.05,7.56,-0.08,23.61
14113,0.2224,-0.051,0.8707,-6.09,7.76,-0.02,23.59
14123,0.2251,-0.0516,0.8723,-6.11,7.83,-0.05,23.59
14133,0.2288,-0.0452,0.8772,-6.11,7.83,-0.02,23.58
14143,0.2356,-0.0453,0.8806,-6.06,8.26,-0.03,23.61
14153,0.2474,-0.0413,0.8616,-6.05,6.78,-0.06,23.58
14163,0.2249,-0.0411,0.884,-6.02,7.07,-0.11,23.59
14173,0.2247,-0.0396,0.8955,-6.05,8.38,-0.11,23.59
14183,0.2281,-0.0448,0.8994,-6.2,8.66,-0.06,23.59
14193,0.2411,-0.0424,0.8842,-6.17,7.97,-0.15,23.6
14203,0.2372,-0.038,0.8795,-6.15,7.33,-0.08,23.58
14213,0.23,-0.042,0.8888,-6.11,7.89,-0.17,23.61
14223,0.2274,-0.0469,0.8845,-6.12,8.56,-0.11,23.61
14233,0.2476,-0.0452,0.8756,-6.17,7.74,-0.15,23.58
14243,0.2404,-0.0433,0.8866,-6.03,7.68,-0.14,23.59
14253,0.2454,-0.0365,0.8726,-6.12,7.68,-0.03,23.6
14263,0.2496,-0.0406,0.8741,-6.38,6.85,-0.06,23.61
14274,0.248,-0.045,0.8586,-6.06,7.63,-0.06,23.6
14284,0.2134,-0.0526,0.8944,-6.2,7.51,-0.02,23.59
14294,0.2319,-0.0465,0.8862,-6.05,9.51,0.02,23.59
14304,0.2495,-0.0433,0.8743,-6.06,6.89,-0.15,23.59
14315,0.2223,-0.0417,0.8911,-6.18,6.92,-0.11,23.6
14325,0.2095,-0.0496,0.9031,-6.27,10.03,0.0,23.57
14335,0.2556,-0.0463,0.8755,-6.14,7.77,-0.02,23.6
14345,0.2306,-0.045,0.8975,-6.14,7.27,0.0,23.6
14355,0.226,-0.0448,0.9005,-6.29,9.04,-0.02,23.59
14365,0.2461,-0.0457,0.871,-6.12,8.58,-0.15,23.57
14375,0.2627,-0.0475,0.8762,-6.24,6.73,-0.08,23.59
14385,0.239,-0.0549,0.8857,-6.08,6.64,-0.08,23.6
14395,0.2196,-0.0543,0.8943,-6.12,8.15,-0.09,23.59
14405,0.2266,-0.0577,0.8839,-6.05,8.72,0.02,23.62
14415,0.2386,-0.0593,0.8685,-6.03,7.16,-0.08,23.62
14425,0.22,-0.0535,0.8954,-6.06,8.14,-0.05,23.61
14435,0.2172,-0.0555,0.884,-6.12,8.32,-0.12,23.6
14445,0.2421,-0.0458,0.871,-6.14,7.47,-0.12,23.58
14455,0.2402,-0.0405,0.8772,-6.09,6.87,-0.06,23.59
14465,0.2177,-0.0447,0.8984,-6.2,7.79,-0.09,23.61
14475,0.2241,-0.0452,0.9042,-6.21,9.65,0.06,23.6
14485,0.2593,-0.0542,0.8635,-6.09,7.19,0.0,23.6
14495,0.2502,-0.0497,0.8745,-6.17,6.29,-0.08,23.61
14505,0.2166,-0.0514,0.903,-6.03,9.6,-0.06,23.58
14515,0.2546,-0.0474,0.8575,-6.03,8.26,-0.03,23.59
14525,0.246,-0.0521,0.8615,-6.05,7.31,-0.06,23.61
14535,0.2306,-0.0491,0.8668,-5.92,7.22,-0.08,23.57
14545,0.2256,-0.0416,0.8856,-6.23,7.73,-0.08,23.58
14555,0.2371,-0.0375,0.8898,-6.21,8.61,-0.03,23.61
14565,0.2502,-0.0377,0.8545,-6.23,6.82,-0.03,23.6
14575,0.2212,-0.048,0.8878,-6.14,6.76,0.08,23.59
14585,0.2363,-0.0432,0.892,-6.26,8.96,-0.08,23.59
14596,0.2726,-0.0428,0.861,-6.14,5.73,-0.03,23.59
14606,0.2294,-0.0529,0.9023,-6.24,5.91,-0.08,23.61
14616,0.2021,-0.0609,0.9047,-6.14,10.31,0.03,23.6
14627,0.2229,-0.0531,0.9086,-6.06,8.75,0.03,23.59
14637,0.2405,-0.0508,0.9045,-6.2,8.09,-0.05,23.59
14647,0.2319,-0.0569,0.8884,-6.08,8.75,-0.08,23.6
14657,0.2408,-0.0577,0.8623,-6.09,7.59,-0.03,23.55
14667,0.2373,-0.0619,0.8561,-5.83,6.63,-0.05,23.59
14677,0.2223,-0.0568,0.8893,-6.0,6.87,-0.08,23.6
14687,0.2159,-0.0483,0.9023,-6.08,9.39,-0.02,23.59
14697,0.2543,-0.0452,0.8556,-6.09,7.74,-0.08,23.59
14707,0.2328,-0.0477,0.8832,-6.11,6.43,-0.11,23.6
14717,0.2262,-0.0464,0.9008,-6.11,8.37,-0.03,23.58
14727,0.2456,-0.0487,0.8875,-6.23,7.95,0.08,23.61
14737,0.2384,-0.05,0.8853,-6.21,7.34,0.03,23.61
14747,0.2317,-0.0475,0.8762,-6.17,7.53,-0.08,23.59
14757,0.2281,-0.0465,0.8977,-6.18,7.98,-0.02,23.62
14767,0.234,-0.0446,0.8804,-6.08,8.11,-0.11,23.59
14777,0.2362,-0.04,0.8899,-6.2,7.56,-0.03,23.61
14787,0.2241,-0.0427,0.8876,-6.14,8.21,-0.12,23.6
14797,0.2295,-0.0472,0.8801,-6.17,8.37,-0.15,23.59
14807,0.2438,-0.049,0.8629,-6.02,7.47,-0.09,23.6
14817,0.241,-0.053,0.8671,-6.08,6.43,-0.08,23.58
14827,0.2168,-0.047,0.8931,-6.12,7.86,-0.03,23.63
14837,0.2313,-0.0426,0.8752,-6.06,8.87,-0.08,23.6
14847,0.2559,-0.0403,0.8678,-6.05,6.69,-0.03,23.6
14857,0.238,-0.0389,0.8882,-6.12,6.61,-0.06,23.59
14867,0.2253,-0.0453,0.8962,-6.23,7.51,0.05,23.59
14877,0.2216,-0.0471,0.9075,-6.14,8.73,-0.05,23.6
14887,0.2404,-0.0476,0.8881,-6.14,8.67,0.02,23.61
14897,0.2461,-0.0475,0.8751,-6.11,7.6,0.0,23.6
14907,0.225,-0.0475,0.8967,-6.14,8.15,0.06,23.59
14917,0.2382,-0.0497,0.8735,-6.0,8.84,0.06,23.6
14927,0.2563,-0.0496,0.8514,-6.0,6.08,0.05,23.62
14937,0.2168,-0.0492,0.8898,-6.0,6.81,-0.08,23.6
14947,0.2103,-0.0442,0.9031,-6.17,9.85,-0.05,23.58
14957,0.2491,-0.0439,0.8698,-6.11,8.67,-0.03,23.61
14967,0.2435,-0.0472,0.8647,-6.12,6.14,-0.11,23.61
14977,0.2101,-0.0455,0.8994,-6.09,8.76,-0.12,23.61
14987,0.245,-0.0493,0.8737,-6.21,8.55,-0.09,23.59
14997,0.2517,-0.051,0.8696,-6.24,6.27,-0.15,23.61
15007,0.2216,-0.0507,0.8986,-6.18,7.51,-0.12,23.59
15017,0.2286,-0.046,0.8915,-6.2,8.73,-0.05,23.61
15027,0.2388,-0.0448,0.8871,-6.11,7.76,-0.06,23.59
15037,0.231,-0.0461,0.8896,-6.09,8.08,-0.14,23.61
15047,0.2338,-0.0449,0.8885,-6.09,8.53,-0.06,23.62
15057,0.2395,-0.051,0.879,-6.12,7.24,-0.03,23.6
15067,0.2318,-0.0497,0.8784,-6.08,8.08,-0.03,23.61
15077,0.2323,-0.0555,0.8645,-6.08,7.95,-0.06,23.61
15087,0.2303,-0.0504,0.8638,-5.92,7.45,-0.09,23.62
15097,0.2301,-0.0413,0.8785,-6.06,7.31,-0.02,23.61
15107,0.2358,-0.0336,0.8877,-6.27,7.86,-0.08,23.62
15117,0.243,-0.0361,0.8845,-6.12,7.89,-0.08,23.62
15127,0.2394,-0.0377,0.8884,-6.18,6.93,-0.17,23.6
15137,0.226,-0.0477,0.9148,-6.23,8.17,-0.12,23.59
15147,0.2246,-0.0531,0.9022,-6.23,9.22,-0.05,23.61
15157,0.2423,-0.0576,0.8721,-6.14,8.32,-0.06,23.61
15167,0.2467,-0.0585,0.8625,-6.03,6.76,-0.11,23.62
15177,0.2397,-0.0553,0.8767,-6.05,6.58,-0.08,23.61
15187,0.2175,-0.0487,0.9045,-6.03,8.75,-0.05,23.62
15197,0.2356,-0.0468,0.8759,-6.06,8.84,0.03,23.59
15207,0.2422,-0.0463,0.8613,-6.11,7.76,-0.08,23.64
15217,0.2408,-0.0508,0.8624,-6.08,5.92,-0.08,23.61
15227,0.2091,-0.0466,0.9114,-6.21,8.21,-0.02,23.62
15237,0.2399,-0.0508,0.8967,-6.32,9.24,-0.05,23.61
15247,0.2413,-0.0542,0.8739,-6.12,6.89,-0.11,23.6
15257,0.2169,-0.0608,0.8866,-5.98,7.89,-0.02,23.62
15267,0.2384,-0.0608,0.8826,-5.94,7.82,-0.02,23.62
15277,0.2383,-0.0544,0.8837,-6.05,7.79,-0.03,23.6
15287,0.2281,-0.049,0.8745,-6.09,8.6,-0.05,23.62
15297,0.2429,-0.045,0.8534,-6.11,7.15,0.0,23.61
15307,0.2312,-0.0372,0.8831,-6.08,6.72,0.0,23.61
15317,0.2239,-0.0302,0.8989,-6.23,8.73,-0.03,23.61
15327,0.2543,-0.0327,0.8752,-6.18,7.79,-0.11,23.6
15337,0.2299,-0.0479,0.8916,-6.18,6.73,-0.11,23.62
15347,0.2137,-0.0604,0.9087,-6.14,9.77,-0.02,23.63
15357,0.2616,-0.0659,0.8589,-6.11,8.46,-0.08,23.63
15367,0.2522,-0.0684,0.8546,-6.06,5.59,-0.02,23.62
15377,0.209,-0.0616,0.8887,-6.0,7.59,0.05,23.61
15387,0.2185,-0.0442,0.8895,-6.0,9.08,0.03,23.61
15397,0.2513,-0.0272,0.87,-6.08,7.65,0.03,23.63
15407,0.2581,-0.0299,0.8763,-6.15,6.0,0.03,23.62
15417,0.2318,-0.0385,0.8982,-6.18,6.37,-0.14,23.62
15427,0.2097,-0.0461,0.9144,-6.17,9.47,-0.02,23.64
15437,0.2495,-0.0509,0.8811,-6.17,9.08,-0.03,23.61
15447,0.2531,-0.0586,0.8633,-6.06,6.11,-0.09,23.62
15457,0.213,-0.0579,0.9005,-6.02,7.33,-0.11,23.62
15467,0.2113,-0.0499,0.8977,-6.05,9.91,-0.06,23.63
15477,0.2576,-0.0435,0.8577,-5.98,7.65,-0.06,23.63
15487,0.2478,-0.0431,0.8574,-6.12,5.07,-0.05,23.61
15497,0.202,-0.0498,0.9083,-6.2,8.31,0.0,23.62
15507,0.2183,-0.0446,0.8956,-6.17,9.19,0.03,23.63
15517,0.2614,-0.0553,0.869,-6.11,5.82,-0.06,23.62
15527,0.2205,-0.0573,0.9001,-6.05,7.6,0.03,23.63
15537,0.2172,-0.0552,0.8939,-6.06,9.56,-0.02,23.63
15547,0.2515,-0.042,0.8673,-6.09,8.38,0.03,23.62
15557,0.2473,-0.0392,0.8726,-6.02,6.03,-0.02,23.62
15567,0.2119,-0.032,0.9014,-6.15,8.21,0.03,23.64
15577,0.2407,-0.0265,0.8785,-6.17,9.18,-0.08,23.64
15587,0.2537,-0.0299,0.8762,-6.29,6.55,-0.11,23.62
15597,0.2379,-0.0419,0.887,-6.2,7.31,-0.12,23.64
15607,0.2318,-0.0579,0.8785,-6.21,7.11,-0.17,23.62
15617,0.2172,-0.0605,0.8915,-6.06,9.13,-0.14,23.63
15627,0.2465,-0.0579,0.8699,-5.95,8.03,-0.08,23.59
15637,0.2439,-0.0573,0.8716,-6.0,6.35,-0.06,23.62
15647,0.2213,-0.0488,0.8931,-6.08,7.6,0.05,23.63
15657,0.2238,-0.0381,0.9054,-6.18,8.9,0.03,23.59
15667,0.2571,-0.0361,0.8789,-6.15,8.43,0.09,23.6
15677,0.2435,-0.0497,0.8738,-6.08,5.28,-0.09,23.65
15687,0.192,-0.053,0.8995,-6.17,10.34,0.05,23.66
15697,0.2577,-0.0507,0.8464,-6.06,8.05,-0.03,23.64
15707,0.2445,-0.0455,0.875,-6.09,4.66,-0.12,23.62
15717,0.2019,-0.0392,0.924,-6.27,9.71,-0.06,23.62
15727,0.2495,-0.0397,0.8766,-6.24,9.51,-0.05,23.64
15737,0.2593,-0.0472,0.855,-6.08,5.21,-0.12,23.64
15747,0.2042,-0.0525,0.9133,-6.17,7.77,-0.09,23.62
15757,0.2185,-0.051,0.8934,-6.23,10.21,-0.09,23.62
15767,0.2722,-0.0537,0.8477,-6.17,6.46,-0.02,23.63
15777,0.2174,-0.0579,0.8918,-6.02,6.23,-0.05,23.61
15787,0.2134,-0.0472,0.9062,-6.08,10.14,-0.03,23.62
15797,0.2671,-0.0419,0.8536,-6.11,7.68,-0.08,23.64
15807,0.2374,-0.0415,0.8806,-6.11,5.24,-0.08,23.63
15817,0.2063,-0.0444,0.9104,-6.27,9.91,-0.02,23.63
15827,0.252,-0.0453,0.8657,-6.17,7.95,-0.03,23.62
15837,0.2313,-0.0453,0.874,-6.18,6.55,-0.05,23.62
15847,0.222,-0.0511,0.8903,-6.08,6.98,-0.05,23.61
15857,0.2301,-0.0485,0.8905,-6.15,9.27,-0.02,23.62
15867,0.2513,-0.0397,0.8793,-6.15,8.89,-0.09,23.62
15877,0.2574,-0.0472,0.8624,-6.11,5.31,-0.09,23.61
15887,0.1917,-0.0525,0.9189,-6.18,9.34,-0.09,23.63
15897,0.2377,-0.0496,0.875,-6.21,9.92,-0.11,23.63
15907,0.2692,-0.0477,0.8469,-6.12,5.59,-0.03,23.63
15917,0.2413,-0.0514,0.8701,-6.14,5.21,-0.09,23.62
15927,0.2224,-0.0469,0.8942,-6.21,10.43,-0.05,23.64
15937,0.2617,-0.0477,0.8503,-6.14,6.82,0.0,23.61
15947,0.2625,-0.0503,0.8478,-6.03,5.47,-0.11,23.61
15957,0.196,-0.05,0.9154,-6.18,10.41,-0.03,23.63
15967,0.2583,-0.0498,0.8568,-6.03,8.26,0.02,23.6
15977,0.246,-0.0525,0.8662,-5.98,5.34,0.05,23.63
15987,0.2007,-0.05,0.918,-6.11,8.82,-0.05,23.62
15997,0.2474,-0.0427,0.8823,-6.2,9.76,0.02,23.63
16007,0.2676,-0.0457,0.8542,-6.12,5.53,-0.06,23.62
16017,0.2195,-0.0461,0.8878,-6.14,6.56,-0.02,23.63
16027,0.2091,-0.0503,0.9038,-6.18,9.98,-0.08,23.64
16037,0.2614,-0.0452,0.8575,-6.11,7.39,-0.03,23.63
16047,0.2407,-0.0439,0.8805,-6.02,6.24,-0.11,23.62
16057,0.233,-0.0472,0.8838,-6.12,7.59,-0.23,23.62
16067,0.2222,-0.0529,0.8929,-6.08,7.89,-0.05,23.63
16077,0.2262,-0.0421,0.8899,-6.15,9.02,-0.09,23.62
16087,0.26,-0.0457,0.8688,-6.15,7.45,0.02,23.62
16097,0.2299,-0.0494,0.8893,-6.21,5.92,-0.14,23.63
16107,0.1997,-0.056,0.9061,-6.09,10.31,0.02,23.61
16117,0.2517,-0.0507,0.8606,-6.03,9.1,-0.03,23.64
16127,0.254,-0.0471,0.8564,-6.03,5.48,0.02,23.65
16137,0.2017,-0.0426,0.913,-6.09,7.98,-0.02,23.65
16147,0.2302,-0.0369,0.8964,-6.14,10.37,-0.06,23.62
16157,0.265,-0.0339,0.865,-6.21,7.1,-0.06,23.63
16167,0.2366,-0.0446,0.8885,-6.27,6.2,-0.09,23.64
16177,0.1995,-0.0519,0.9128,-6.18,9.34,-0.09,23.61
16187,0.2343,-0.0521,0.8728,-6.17,10.03,-0.06,23.62
16197,0.2699,-0.0537,0.8405,-6.03,5.4,-0.15,23.62
16207,0.2089,-0.0537,0.9044,-6.08,6.82,-0.02,23.62
16217,0.214,-0.045,0.9097,-6.12,10.55,0.06,23.62
16227,0.2704,-0.041,0.859,-6.12,7.31,-0.02,23.63
16237,0.2432,-0.043,0.8746,-6.03,5.68,-0.05,23.63
16247,0.2173,-0.0472,0.8998,-6.06,6.92,0.02,23.62
16257,0.2435,-0.0472,0.8784,-6.17,9.16,0.03,23.62
16267,0.2627,-0.0483,0.8472,-6.24,6.41,-0.11,23.64
16277,0.2343,-0.0518,0.8788,-6.21,6.03,-0.05,23.64
16287,0.2095,-0.0446,0.9078,-6.12,8.95,-0.03,23.65
16297,0.2411,-0.0439,0.8799,-6.17,9.33,0.02,23.62
16307,0.2673,-0.0439,0.8599,-6.15,5.5,-0.02,23.62
16317,0.2206,-0.051,0.8936,-6.11,6.92,-0.06,23.62
16327,0.2057,-0.0579,0.9025,-6.2,9.63,-0.09,23.62
16337,0.2437,-0.0546,0.8643,-6.05,8.85,0.0,23.63
16347,0.2574,-0.0469,0.8651,-6.06,5.48,-0.06,23.64
16357,0.2156,-0.0447,0.9026,-6.09,7.88,-0.11,23.62
16367,0.2245,-0.0391,0.899,-6.18,8.24,-0.06,23.63
16377,0.2612,-0.0385,0.8634,-6.08,6.67,-0.18,23.62
16387,0.226,-0.0437,0.8905,-6.09,6.34,-0.17,23.64
16397,0.2191,-0.0518,0.8887,-6.09,8.35,-0.08,23.63
16407,0.2178,-0.0485,0.8929,-6.03,8.67,-0.12,23.63
16417,0.2313,-0.0521,0.8856,-6.09,9.11,-0.09,23.65
16427,0.2642,-0.0549,0.8428,-6.02,6.85,-0.06,23.63
16437,0.214,-0.0566,0.8932,-6.11,6.0,0.02,23.63
16447,0.2114,-0.0452,0.9004,-6.15,10.67,0.0,23.62
16457,0.2642,-0.0383,0.8702,-6.18,7.5,0.0,23.63
16467,0.2675,-0.0363,0.8727,-6.18,6.56,-0.06,23.63
16477,0.2025,-0.0502,0.9156,-6.11,8.99,0.05,23.64
16487,0.208,-0.0438,0.9104,-6.14,10.03,0.05,23.64
16497,0.2505,-0.051,0.8573,-5.97,8.82,-0.05,23.64
16507,0.2483,-0.0525,0.8578,-6.05,5.5,-0.05,23.65
16517,0.2015,-0.0503,0.9039,-6.17,8.79,-0.03,23.63
16527,0.2406,-0.0417,0.8672,-6.21,8.85,-0.03,23.63
16537,0.2506,-0.0361,0.8672,-6.15,6.0,-0.12,23.65
16547,0.2285,-0.0413,0.8936,-6.21,7.22,-0.15,23.61
16557,0.224,-0.0493,0.897,-6.23,8.2,-0.15,23.62
16567,0.223,-0.0601,0.8984,-6.21,9.76,-0.09,23.64
16577,0.2561,-0.066,0.8708,-6.12,7.85,0.03,23.64
16587,0.2411,-0.0677,0.8767,-6.14,6.9,-0.05,23.62
16597,0.2295,-0.0624,0.8816,-6.05,7.82,0.03,23.62
16607,0.2324,-0.0525,0.8693,-6.12,8.08,0.12,23.65
16617,0.2314,-0.046,0.8676,-5.98,7.25,0.12,23.62
16627,0.2211,-0.0358,0.8912,-6.08,7.68,0.02,23.61
16637,0.2305,-0.0352,0.8842,-6.11,8.44,0.03,23.62
16647,0.2516,-0.0341,0.8644,-6.18,6.95,-0.09,23.65
16657,0.2357,-0.0432,0.8879,-6.2,6.76,-0.12,23.62
16667,0.222,-0.0469,0.9041,-6.21,8.4,-0.09,23.62
16677,0.2352,-0.0492,0.8975,-6.2,9.18,-0.09,23.61
16687,0.2571,-0.0513,0.8806,-6.21,7.25,-0.11,23.61
16697,0.2318,-0.0546,0.8939,-6.15,7.51,-0.05,23.64
16707,0.223,-0.0511,0.8883,-6.11,9.65,-0.02,23.66
16717,0.2512,-0.0558,0.853,-6.08,7.73,-0.03,23.62
16727,0.2432,-0.0479,0.8755,-6.08,6.21,-0.05,23.62
16737,0.2195,-0.0503,0.8882,-6.11,8.17,0.02,23.63
16747,0.2343,-0.0482,0.868,-6.14,8.49,-0.03,23.61
16757,0.2432,-0.0435,0.8621,-6.12,7.27,0.0,23.61
16767,0.2427,-0.0446,0.8739,-6.03,6.93,-0.03,23.64
16777,0.2391,-0.0427,0.8888,-6.23,6.92,-0.03,23.62
16787,0.2302,-0.0417,0.9102,-6.15,7.95,-0.09,23.64
16797,0.2466,-0.04,0.8899,-6.17,7.69,-0.02,23.65
16807,0.236,-0.0475,0.9056,-6.14,7.59,0.02,23.63
16817,0.228,-0.05,0.9016,-6.23,8.96,0.05,23.64
16827,0.2468,-0.0568,0.8693,-6.06,8.53,0.05,23.64
16838,0.2664,-0.0592,0.8405,-6.06,7.16,-0.15,23.64
16848,0.2336,-0.0602,0.8717,-6.02,5.42,0.0,23.64
16858,0.2009,-0.0475,0.899,-6.2,8.98,-0.12,23.64
16868,0.2385,-0.0443,0.8717,-6.12,9.37,0.06,23.65
16878,0.2605,-0.0337,0.8588,-6.23,5.68,-0.05,23.61
16888,0.2253,-0.0421,0.8975,-6.11,6.82,-0.08,23.62
16898,0.2241,-0.0466,0.8955,-6.15,8.85,-0.05,23.67
16908,0.2522,-0.0533,0.8773,-6.2,7.95,-0.09,23.64
16918,0.2444,-0.0552,0.8867,-6.15,6.67,-0.14,23.63
16928,0.2244,-0.0568,0.9014,-6.21,8.75,-0.11,23.64
16938,0.2289,-0.0565,0.8889,-6.14,8.56,-0.09,23.63
16948,0.2357,-0.0515,0.8752,-6.09,8.46,-0.02,23.62
16958,0.249,-0.0488,0.8591,-6.02,7.07,-0.08,23.64
16968,0.2185,-0.0469,0.8899,-6.03,7.37,-0.09,23.62
16979,0.2076,-0.0496,0.9017,-6.11,8.69,0.06,23.64
16989,0.2261,-0.0461,0.8782,-6.08,9.44,-0.06,23.64
16999,0.2433,-0.0411,0.8589,-6.09,7.16,-0.02,23.63
17009,0.2361,-0.0386,0.8771,-6.09,7.05,-0.11,23.62
17019,0.2231,-0.0391,0.8905,-6.14,8.29,-0.06,23.64
17029,0.2373,-0.0424,0.8892,-6.27,8.2,-0.11,23.64
17039,0.2329,-0.0408,0.8848,-6.15,8.12,-0.06,23.64
17049,0.2405,-0.0476,0.8903,-6.21,7.42,-0.14,23.66
17059,0.2297,-0.0488,0.8947,-6.24,8.11,-0.03,23.64
17069,0.2288,-0.058,0.9006,-6.18,8.81,0.09,23.63
17079,0.2338,-0.0568,0.8896,-6.27,8.27,-0.03,23.66
17089,0.2273,-0.0543,0.886,-6.17,8.85,0.03,23.64
17099,0.2302,-0.0546,0.8848,-5.98,9.1,0.05,23.63
17109,0.238,-0.0519,0.8622,-6.0,7.24,-0.03,23.67
17119,0.2284,-0.0476,0.8728,-6.06,6.9,-0.08,23.64
17129,0.2167,-0.0399,0.8926,-6.06,8.4,0.03,23.64
17140,0.2112,-0.0454,0.8871,-6.11,8.2,0.09,23.63
17150,0.228,-0.0385,0.8778,-6.18,9.8,0.02,23.63
17160,0.2637,-0.0376,0.85,-6.21,6.24,-0.09,23.64
17171,0.2609,-0.0388,0.8577,-6.29,5.16,-0.11,23.64
17181,0.2159,-0.0439,0.9103,-6.05,7.16,-0.03,23.63
17191,0.2206,-0.0474,0.9053,-6.11,9.56,-0.06,23.65
17201,0.2584,-0.0511,0.8756,-6.14,7.62,-0.12,23.65
17211,0.2377,-0.0547,0.8866,-6.23,6.32,-0.05,23.61
17221,0.2108,-0.0586,0.9124,-6.12,9.04,-0.09,23.64
17231,0.2357,-0.0565,0.8813,-6.09,9.16,-0.02,23.64
17241,0.2521,-0.0516,0.8618,-5.97,7.16,0.02,23.63
17251,0.2288,-0.0509,0.864,-6.0,6.84,-0.02,23.66
17261,0.2152,-0.0492,0.8818,-6.12,8.18,-0.03,23.66
17271,0.2316,-0.0437,0.8688,-6.03,8.41,0.08,23.63
17283,0.223,-0.0448,0.8757,-6.11,8.12,-0.02,23.63
17293,0.2196,-0.0334,0.8883,-6.08,9.27,-0.09,23.64
17303,0.2662,-0.026,0.8531,-6.18,7.56,-0.02,23.64
17313,0.2632,-0.035,0.8744,-6.15,4.7,-0.24,23.63
17323,0.2065,-0.0413,0.9221,-6.21,7.51,-0.15,23.66
17333,0.2186,-0.0521,0.9147,-6.18,11.07,-0.08,23.63
17343,0.2433,-0.0551,0.8845,-6.21,9.74,-0.02,23.63
17353,0.2334,-0.0637,0.8877,-6.11,6.32,0.02,23.63
17363,0.2216,-0.0649,0.8866,-6.06,9.08,-0.02,23.64
17373,0.2371,-0.0548,0.8672,-5.97,8.06,0.05,23.65
17383,0.2378,-0.0455,0.8643,-6.08,7.53,0.02,23.65
17393,0.2357,-0.0358,0.8662,-6.15,7.24,-0.02,23.63
17403,0.2361,-0.0303,0.8777,-6.09,7.4,-0.09,23.66
17413,0.2351,-0.036,0.8802,-6.26,7.24,-0.06,23.65
17423,0.2231,-0.0399,0.9033,-6.2,7.89,-0.06,23.63
17433,0.2373,-0.0496,0.8888,-6.26,8.49,-0.14,23.67
17443,0.2465,-0.0558,0.8779,-6.09,6.98,-0.09,23.67
17453,0.2209,-0.0573,0.8917,-6.0,7.74,-0.05,23.64
17463,0.2209,-0.0529,0.8916,-6.05,8.35,-0.09,23.65
17473,0.2303,-0.0463,0.8815,-6.06,8.98,-0.06,23.66
17483,0.2638,-0.0405,0.8511,-6.06,6.76,-0.15,23.64
17493,0.2284,-0.0455,0.8844,-6.21,6.18,-0.09,23.65
17503,0.2113,-0.0497,0.9116,-6.17,10.08,0.0,23.65
17513,0.2496,-0.0485,0.8708,-6.32,8.41,0.02,23.65
17523,0.2555,-0.0597,0.8668,-6.15,6.0,-0.02,23.65
17533,0.2106,-0.0608,0.9001,-6.11,6.95,-0.05,23.64
17543,0.1945,-0.0558,0.9111,-6.11,8.99,-0.06,23.67
17553,0.2589,-0.0496,0.851,-6.08,7.44,0.06,23.65
17563,0.2369,-0.0426,0.8843,-6.05,5.01,0.0,23.65
17573,0.199,-0.0375,0.9321,-6.24,10.53,-0.02,23.66
17583,0.2545,-0.0298,0.8729,-6.37,8.93,0.0,23.65
17593,0.2578,-0.0393,0.8562,-6.24,5.69,-0.09,23.66
17603,0.203,-0.0531,0.9062,-6.18,7.77,-0.05,23.66
17613,0.2283,-0.0593,0.8798,-6.2,10.56,-0.17,23.64
17623,0.2705,-0.0599,0.8474,-6.0,5.22,-0.11,23.64
17633,0.2004,-0.0546,0.9132,-6.21,7.13,-0.03,23.65
17643,0.2321,-0.0474,0.8995,-6.09,10.69,0.03,23.64
17653,0.2706,-0.0505,0.8557,-6.17,5.53,-0.03,23.62
17663,0.2075,-0.0559,0.9052,-6.03,7.56,-0.02,23.64
17673,0.2214,-0.0505,0.8883,-6.12,10.18,-0.03,23.64
17683,0.2635,-0.0415,0.8533,-5.97,6.73,0.0,23.65
17693,0.2363,-0.0452,0.8788,-6.11,5.62,-0.03,23.64
17703,0.2015,-0.0396,0.9155,-6.14,9.6,-0.03,23.64
17713,0.2567,-0.0361,0.8746,-6.15,9.53,-0.08,23.63
17723,0.2821,-0.0374,0.8534,-6.03,6.37,-0.12,23.63
17733,0.1874,-0.0475,0.9252,-6.23,9.76,-0.14,23.64
17743,0.2477,-0.052,0.8668,-6.14,9.5,-0.11,23.65
17753,0.2595,-0.0521,0.8542,-6.11,4.93,-0.14,23.65
17763,0.2043,-0.0554,0.9116,-6.21,7.77,-0.15,23.65
17773,0.2274,-0.049,0.8994,-6.18,10.49,-0.09,23.63
17783,0.2628,-0.0438,0.8641,-6.14,8.92,-0.09,23.64
17793,0.2217,-0.0519,0.8923,-6.18,5.97,-0.09,23.65
17803,0.2059,-0.0504,0.911,-6.03,8.31,-0.06,23.63
17813,0.2646,-0.0483,0.8607,-5.95,7.63,-0.08,23.65
17823,0.269,-0.052,0.8536,-5.97,5.83,-0.03,23.65
17833,0.2083,-0.0463,0.9033,-6.11,7.05,-0.08,23.62
17843,0.2314,-0.0441,0.8898,-6.18,10.37,-0.05,23.67
17853,0.2682,-0.0486,0.8551,-6.02,5.01,-0.03,23.67
17863,0.1984,-0.047,0.9146,-6.26,8.44,-0.11,23.66
17873,0.2354,-0.0498,0.8812,-6.15,9.82,-0.05,23.66
17883,0.2574,-0.0513,0.8553,-6.05,5.66,-0.09,23.67
17893,0.2037,-0.0493,0.9097,-6.14,7.91,0.02,23.65
17903,0.2428,-0.0487,0.8816,-6.12,9.77,0.03,23.62
17913,0.2627,-0.0524,0.8593,-6.09,5.33,0.05,23.67
17923,0.201,-0.048,0.9171,-6.23,8.98,0.02,23.66
17933,0.2595,-0.0463,0.8585,-6.03,9.31,0.02,23.65
17943,0.2439,-0.0448,0.8679,-6.14,4.46,-0.06,23.63
17953,0.1997,-0.0399,0.9193,-6.11,9.97,-0.03,23.67
17963,0.2589,-0.0387,0.8589,-6.09,8.43,-0.03,23.69
17973,0.2419,-0.0374,0.8751,-6.14,4.78,-0.11,23.64
17983,0.2035,-0.0409,0.9086,-6.18,9.76,-0.15,23.67
17993,0.2542,-0.0447,0.8583,-6.18,8.4,-0.09,23.67
18003,0.2441,-0.0513,0.8678,-6.15,5.59,-0.06,23.66
18013,0.2013,-0.0498,0.9125,-6.29,9.45,-0.17,23.64
18023,0.2588,-0.0529,0.858,-6.14,8.31,-0.12,23.64
18033,0.2411,-0.0522,0.8779,-6.18,5.3,-0.02,23.66
18043,0.2061,-0.052,0.9076,-6.11,10.24,0.11,23.68
18053,0.2679,-0.0494,0.8502,-6.14,7.11,-0.08,23.67
18063,0.2242,-0.0455,0.8921,-6.08,6.24,0.03,23.67
18073,0.2153,-0.0444,0.8947,-6.24,9.88,-0.02,23.67
18083,0.2466,-0.042,0.8729,-6.2,8.89,0.03,23.67
18093,0.2208,-0.0474,0.8916,-6.21,6.46,0.0,23.64
18103,0.2098,-0.0494,0.905,-6.26,10.18,-0.06,23.66
18113,0.2581,-0.0515,0.8623,-6.09,7.91,-0.03,23.64
18123,0.2346,-0.05,0.8857,-6.24,6.03,0.06,23.65
18133,0.2102,-0.0502,0.9037,-6.18,9.89,-0.02,23.66
18143,0.2659,-0.0511,0.8528,-6.17,7.34,-0.03,23.67
18153,0.2233,-0.0509,0.8947,-6.15,7.02,-0.08,23.67
18163,0.2334,-0.0468,0.8846,-6.11,9.76,-0.08,23.66
18173,0.2662,-0.0453,0.8516,-6.09,5.57,-0.09,23.67
18183,0.2091,-0.0409,0.9122,-6.15,7.92,-0.06,23.64
18193,0.2385,-0.0435,0.8887,-6.14,9.83,-0.02,23.66
18203,0.2615,-0.0453,0.8521,-6.11,5.27,-0.11,23.68
18213,0.208,-0.0508,0.9087,-6.14,8.09,-0.09,23.66
18223,0.2479,-0.0491,0.8676,-6.09,8.96,-0.08,23.67
18233,0.2501,-0.0496,0.8722,-6.12,5.3,-0.08,23.64
18243,0.2019,-0.0519,0.9109,-6.14,9.51,-0.02,23.68
18253,0.27,-0.048,0.8505,-6.09,7.62,-0.05,23.67
18263,0.2303,-0.0491,0.8907,-6.08,4.82,0.0,23.66
18273,0.2168,-0.0504,0.9045,-6.14,9.66,0.11,23.67
18283,0.264,-0.0492,0.8575,-5.98,6.96,0.06,23.67
18293,0.2262,-0.0472,0.8876,-6.08,5.82,-0.02,23.67
18303,0.2136,-0.0438,0.9094,-6.12,9.94,0.05,23.67
18313,0.2623,-0.0438,0.8594,-6.06,7.1,-0.03,23.65
18323,0.2236,-0.0459,0.8911,-6.03,6.24,-0.08,23.66
18333,0.2087,-0.0455,0.9031,-6.03,10.31,-0.02,23.67
18343,0.2677,-0.0505,0.8452,-6.09,6.37,-0.05,23.68
18353,0.2061,-0.0487,0.9076,-6.15,6.96,-0.09,23.68
18363,0.1986,-0.0464,0.9203,-6.17,10.73,-0.09,23.67
18373,0.266,-0.0496,0.8497,-6.11,4.76,-0.06,23.64
18383,0.2306,-0.0548,0.8889,-6.15,5.95,-0.02,23.67
18393,0.2423,-0.051,0.8722,-6.09,9.47,-0.02,23.69
18403,0.2576,-0.0531,0.8668,-6.09,5.24,-0.06,23.65
18413,0.203,-0.042,0.915,-6.23,8.37,-0.12,23.68
18423,0.2429,-0.0443,0.8822,-6.15,10.06,-0.03,23.66
18433,0.272,-0.0427,0.8417,-6.14,6.52,-0.06,23.66
18443,0.1997,-0.0444,0.9222,-6.17,9.71,-0.11,23.65
18453,0.2257,-0.0461,0.8885,-6.12,10.55,-0.14,23.67
18463,0.2616,-0.0488,0.8568,-6.02,5.8,-0.05,23.67
18473,0.2031,-0.0465,0.907,-6.17,7.56,-0.08,23.66
18483,0.2279,-0.0464,0.8945,-6.21,10.35,-0.05,23.68
18493,0.267,-0.0466,0.8535,-6.03,6.08,-0.08,23.67
18503,0.207,-0.0486,0.9064,-6.2,7.24,-0.14,23.65
18513,0.2283,-0.0474,0.8896,-6.17,10.49,-0.05,23.67
18523,0.2715,-0.051,0.8463,-6.15,5.05,-0.11,23.67
18533,0.2047,-0.0526,0.91,-6.26,7.51,-0.06,23.67
18543,0.2236,-0.0449,0.8965,-6.17,10.38,-0.02,23.66
18553,0.2715,-0.0494,0.8502,-6.09,6.2,-0.03,23.65
18563,0.2183,-0.0518,0.8907,-6.06,5.92,-0.02,23.66
18573,0.212,-0.048,0.9047,-6.08,10.73,-0.03,23.69
18583,0.2725,-0.0431,0.8413,-6.05,6.27,0.0,23.64
18593,0.2173,-0.0448,0.8999,-6.12,5.97,-0.09,23.66
18603,0.2141,-0.0411,0.9071,-6.18,10.69,-0.02,23.66
18613,0.2681,-0.0446,0.8527,-6.15,6.72,-0.06,23.69
18623,0.2196,-0.0526,0.8917,-6.12,6.44,-0.08,23.67
18633,0.2067,-0.0498,0.9022,-6.2,10.75,-0.06,23.66
18643,0.2698,-0.0563,0.8427,-6.14,7.24,-0.05,23.67
18653,0.2257,-0.0553,0.8834,-6.15,5.42,-0.17,23.66
18663,0.2069,-0.0519,0.9166,-6.09,11.01,-0.06,23.66
18673,0.2705,-0.0497,0.849,-6.11,6.63,-0.09,23.68
18683,0.2173,-0.0503,0.9011,-6.17,6.43,0.02,23.67
18693,0.2184,-0.0485,0.8949,-6.15,10.96,-0.02,23.66
18703,0.2729,-0.0452,0.8451,-6.14,5.83,0.03,23.65
18713,0.213,-0.0488,0.8986,-6.27,6.89,-0.03,23.66
18723,0.2203,-0.0432,0.8958,-6.2,10.32,-0.08,23.66
18733,0.2681,-0.0437,0.8584,-6.05,6.46,-0.09,23.65
18743,0.2244,-0.0443,0.8931,-6.15,6.38,-0.09,23.67
18753,0.2185,-0.0427,0.8973,-6.21,9.89,-0.03,23.64
18763,0.2654,-0.0469,0.8499,-6.2,6.81,-0.09,23.66
18773,0.2295,-0.0463,0.887,-6.2,5.97,0.03,23.65
18783,0.2148,-0.0459,0.9058,-6.12,9.83,0.03,23.66
18793,0.2704,-0.052,0.8488,-6.11,6.56,-0.06,23.68
18803,0.2196,-0.0546,0.8922,-6.2,6.0,-0.08,23.67
18813,0.2181,-0.0519,0.9,-6.15,10.23,0.05,23.65
18823,0.2687,-0.0513,0.8484,-6.08,6.49,0.09,23.66
18833,0.2137,-0.0477,0.9058,-6.17,6.75,-0.03,23.65
18843,0.2256,-0.0471,0.8955,-6.12,10.2,0.02,23.67
18853,0.2609,-0.0477,0.8595,-6.02,6.37,-0.05,23.67
18863,0.2104,-0.046,0.9077,-6.2,7.69,-0.12,23.65
18873,0.2351,-0.0444,0.8842,-6.17,10.24,-0.03,23.66
18883,0.2681,-0.0497,0.8551,-6.17,5.31,-0.09,23.66
18893,0.2098,-0.0487,0.9049,-6.15,7.54,-0.12,23.65
18903,0.23,-0.046,0.8905,-6.12,10.38,0.0,23.67
18913,0.2657,-0.0504,0.8507,-6.12,5.36,-0.08,23.69
18923,0.202,-0.0544,0.9159,-6.17,7.89,-0.02,23.65
18933,0.2352,-0.0521,0.879,-6.12,10.23,0.03,23.67
18944,0.269,-0.0487,0.8457,-6.11,7.27,-0.06,23.66
18954,0.2289,-0.0515,0.8884,-6.2,5.15,-0.03,23.67
18964,0.2054,-0.0437,0.9087,-6.24,10.53,-0.03,23.67
18974,0.2659,-0.0453,0.8567,-6.03,7.74,-0.15,23.66
18984,0.2628,-0.0496,0.848,-6.14,4.67,-0.14,23.64
18995,0.1936,-0.0482,0.9203,-6.23,8.99,-0.09,23.68
19005,0.2476,-0.047,0.8737,-6.06,9.47,-0.05,23.67
19015,0.2532,-0.0532,0.8657,-6.18,4.82,-0.09,23.64
19025,0.1938,-0.0494,0.9199,-6.23,9.65,0.03,23.66
19035,0.2555,-0.0472,0.8682,-6.14,8.98,0.02,23.67
19045,0.2499,-0.051,0.8636,-6.06,4.95,0.05,23.68
19055,0.2086,-0.0503,0.9061,-6.09,6.82,-0.12,23.67
19065,0.2565,-0.0453,0.8633,-6.15,8.81,-0.14,23.67
19075,0.2449,-0.0457,0.869,-6.03,5.39,-0.09,23.68
19085,0.2007,-0.0455,0.9166,-6.24,9.68,0.05,23.65
19095,0.2605,-0.0463,0.86,-6.23,8.35,0.0,23.69
19105,0.2405,-0.0481,0.879,-6.23,5.79,-0.05,23.67
19115,0.2014,-0.0502,0.9094,-6.18,8.26,-0.11,23.69
19125,0.2654,-0.0503,0.8549,-6.05,7.45,-0.06,23.66
19135,0.2599,-0.05,0.8568,-5.98,5.6,-0.03,23.66
19145,0.2025,-0.0502,0.9139,-6.26,8.05,-0.08,23.68
19155,0.2357,-0.046,0.8843,-6.15,9.98,0.0,23.66
19165,0.26,-0.0492,0.8577,-6.03,6.12,0.0,23.68
19175,0.209,-0.0494,0.9066,-6.15,7.6,-0.05,23.67
19185,0.238,-0.0438,0.8754,-6.14,10.03,-0.02,23.68
19195,0.2642,-0.0448,0.856,-5.98,4.43,-0.09,23.68
19205,0.1938,-0.0435,0.918,-6.05,9.16,-0.02,23.67
19215,0.2631,-0.0396,0.8655,-6.11,9.21,-0.03,23.66
19225,0.2471,-0.0454,0.8669,-6.11,4.67,-0.09,23.69
19235,0.1984,-0.0488,0.918,-6.23,9.91,-0.05,23.68
19245,0.2646,-0.0507,0.8528,-5.95,8.55,-0.06,23.67
19255,0.2382,-0.0538,0.8698,-6.11,4.82,0.05,23.69
19265,0.2023,-0.0494,0.9098,-6.15,10.05,-0.14,23.67
19275,0.2664,-0.0444,0.8544,-6.05,7.79,-0.06,23.65
19285,0.2369,-0.0464,0.8828,-6.12,5.54,-0.02,23.65
19295,0.212,-0.0442,0.9065,-6.14,9.95,-0.06,23.67
19305,0.2672,-0.0422,0.8533,-6.11,7.22,-0.09,23.68
19315,0.2257,-0.0481,0.8889,-6.2,5.8,-0.06,23.67
19325,0.2048,-0.0431,0.9127,-6.23,10.49,-0.05,23.67
19335,0.2667,-0.0468,0.8566,-6.12,7.6,-0.03,23.67
19345,0.2356,-0.0474,0.8839,-6.21,5.62,-0.09,23.66
19355,0.2047,-0.0504,0.9109,-6.09,10.17,0.05,23.67
19365,0.2642,-0.0505,0.8507,-6.09,7.48,-0.06,23.66
19375,0.2284,-0.0493,0.8888,-6.08,5.83,-0.08,23.68
19386,0.2283,-0.0497,0.89,-6.11,6.27,-0.03,23.65
19396,0.2507,-0.0438,0.8706,-6.15,8.81,-0.02,23.66
19406,0.246,-0.0469,0.8732,-6.11,5.53,0.0,23.67
19416,0.1991,-0.0438,0.9054,-6.32,9.36,-0.06,23.66
19426,0.2561,-0.0496,0.8514,-6.0,8.11,-0.05,23.66
19436,0.2296,-0.0477,0.8829,-6.08,5.08,-0.08,23.65
19446,0.2,-0.0458,0.921,-6.21,11.01,-0.03,23.66
19456,0.267,-0.046,0.8519,-6.11,7.19,-0.08,23.65
19466,0.2253,-0.051,0.8884,-6.11,5.66,-0.09,23.67
19476,0.2089,-0.0518,0.9039,-6.18,11.15,-0.08,23.64
19486,0.2756,-0.0477,0.8475,-6.17,6.38,-0.03,23.65
19496,0.2214,-0.0538,0.8978,-6.15,6.37,-0.02,23.66
19506,0.2131,-0.0477,0.9034,-6.24,10.44,-0.11,23.64
19516,0.2638,-0.0497,0.8529,-6.03,7.02,-0.05,23.64
19526,0.2202,-0.0507,0.8998,-6.21,6.32,0.03,23.66
19536,0.2188,-0.0493,0.8989,-6.21,10.56,0.02,23.65
19546,0.2722,-0.0479,0.8535,-6.11,5.92,-0.03,23.68
19556,0.2209,-0.0466,0.896,-6.18,6.82,-0.12,23.68
19566,0.2144,-0.0446,0.9062,-6.23,10.4,-0.08,23.67
19576,0.2684,-0.0463,0.8456,-6.08,6.67,-0.06,23.67
19586,0.2264,-0.0471,0.8937,-6.21,6.46,-0.11,23.69
19596,0.2177,-0.0485,0.8979,-6.14,10.11,-0.05,23.65
19606,0.2677,-0.0498,0.8505,-6.12,6.56,-0.12,23.66
19616,0.2225,-0.0503,0.899,-6.12,6.55,-0.06,23.67
19626,0.2311,-0.0491,0.8933,-6.09,9.63,-0.03,23.69
19636,0.2645,-0.0509,0.8542,-6.06,5.59,-0.03,23.67
19646,0.2087,-0.0499,0.908,-6.14,7.95,-0.06,23.68
19656,0.2406,-0.047,0.8771,-6.14,10.02,0.05,23.69
19666,0.2645,-0.0458,0.8556,-6.11,4.89,-0.14,23.69
19676,0.1985,-0.0453,0.9188,-6.21,8.55,-0.08,23.69
19686,0.2129,-0.0406,0.9055,-6.09,10.35,0.03,23.64
19696,0.2482,-0.0496,0.8639,-6.15,5.15,-0.03,23.66
19706,0.1938,-0.0474,0.9218,-6.14,9.77,0.02,23.66
19716,0.2552,-0.0475,0.8564,-6.06,8.52,-0.09,23.67
19726,0.2383,-0.0537,0.8802,-6.12,5.33,-0.12,23.66
19736,0.2053,-0.051,0.9149,-6.12,10.17,-0.06,23.67
19746,0.2627,-0.0532,0.8618,-6.11,8.31,-0.02,23.65
19756,0.2367,-0.0516,0.884,-6.09,5.56,-0.08,23.67
19766,0.1997,-0.051,0.9188,-6.24,10.67,0.0,23.68
19776,0.2327,-0.0443,0.8876,-6.21,10.17,-0.02,23.67
19786,0.2626,-0.0522,0.8562,-6.15,5.73,-0.12,23.66
19796,0.2036,-0.0485,0.9136,-6.18,7.83,-0.11,23.67
19806,0.2391,-0.0494,0.8813,-6.17,10.2,-0.14,23.67
19816,0.2626,-0.0496,0.8596,-6.12,5.19,0.02,23.68
19826,0.1989,-0.0479,0.9161,-6.2,8.89,-0.11,23.69
19836,0.2471,-0.0458,0.871,-6.08,9.47,-0.05,23.69
19846,0.2584,-0.0508,0.8619,-6.06,5.08,-0.03,23.68
19856,0.2062,-0.0508,0.9069,-6.11,8.55,-0.05,23.67
19866,0.2533,-0.0479,0.8676,-6.12,8.67,-0.02,23.67
19876,0.2423,-0.0485,0.8762,-6.02,5.62,-0.02,23.67
19886,0.2061,-0.0441,0.9037,-6.09,9.39,-0.03,23.68
19896,0.2695,-0.0447,0.848,-6.0,7.21,-0.06,23.7
19906,0.2195,-0.0474,0.8973,-6.12,5.79,-0.09,23.67
19916,0.2135,-0.0421,0.9058,-6.11,11.13,-0.02,23.69
19926,0.2737,-0.0428,0.8436,-6.05,5.68,-0.15,23.69
19936,0.2061,-0.0496,0.9048,-6.15,6.99,-0.08,23.69
19946,0.2257,-0.0431,0.8979,-6.2,10.58,-0.03,23.69
19956,0.2719,-0.0492,0.8428,-6.15,5.47,-0.03,23.67
19966,0.2073,-0.05,0.9049,-6.11,7.08,-0.15,23.68
19976,0.2258,-0.0458,0.892,-6.21,10.17,-0.08,23.69
19986,0.271,-0.0491,0.8503,-6.03,5.8,0.03,23.68
19996,0.2164,-0.0533,0.903,-6.14,6.82,-0.05,23.69
20006,0.2223,-0.0507,0.8915,-6.06,9.73,0.06,23.69
20016,0.2496,-0.0525,0.8683,-6.09,7.45,0.05,23.66
20026,0.2306,-0.0469,0.8862,-6.18,7.13,-0.05,23.67
20036,0.2261,-0.0475,0.8905,-6.06,8.6,-0.02,23.68
20046,0.246,-0.0483,0.8724,-6.06,7.76,-0.09,23.69
20057,0.2407,-0.0464,0.8785,-6.15,7.36,-0.05,23.7
20067,0.2217,-0.0481,0.8906,-6.14,9.05,-0.05,23.66
20077,0.265,-0.0521,0.851,-6.02,7.1,-0.05,23.7
20087,0.2242,-0.0513,0.8931,-6.08,6.08,-0.06,23.69
20097,0.2184,-0.0485,0.8995,-6.17,10.72,-0.03,23.68
20107,0.2689,-0.0498,0.8489,-6.15,6.05,0.0,23.7
20117,0.2007,-0.0546,0.9128,-6.12,7.5,-0.09,23.69
20127,0.2321,-0.0485,0.8851,-6.15,10.26,-0.05,23.69
20137,0.2614,-0.0524,0.8596,-6.06,6.18,-0.09,23.68
20147,0.2191,-0.0463,0.8906,-6.15,6.99,0.0,23.68
20157,0.2256,-0.0442,0.8978,-6.05,9.57,-0.05,23.7
20167,0.2568,-0.0421,0.8665,-6.08,7.02,-0.08,23.69
20177,0.2457,-0.0443,0.8789,-6.08,6.32,-0.11,23.68
20187,0.2362,-0.0454,0.8798,-6.14,9.13,0.0,23.68
20197,0.2593,-0.0505,0.859,-6.12,5.76,-0.09,23.69
20207,0.2087,-0.0488,0.912,-6.15,7.89,-0.09,23.68
20217,0.2317,-0.0472,0.8925,-6.2,10.35,-0.11,23.68
20227,0.2737,-0.0518,0.8378,-5.89,5.21,-0.08,23.7
20237,0.2345,-0.0511,0.8807,-6.11,4.95,-0.08,23.67
20247,0.2402,-0.0463,0.8771,-6.09,10.12,-0.02,23.69
20257,0.2632,-0.0525,0.8594,-6.15,5.08,-0.03,23.67
20267,0.1992,-0.0471,0.9143,-6.14,8.37,-0.05,23.68
20277,0.2321,-0.0428,0.8839,-6.18,9.83,0.02,23.69
20287,0.262,-0.0488,0.8578,-6.17,5.85,0.09,23.68
20297,0.2072,-0.049,0.9099,-6.15,7.98,-0.02,23.69
20307,0.239,-0.05,0.8781,-6.05,9.6,0.02,23.72
20317,0.2561,-0.0542,0.8571,-6.09,5.31,-0.14,23.68
20327,0.1987,-0.0476,0.9213,-6.17,8.75,-0.17,23.71
20337,0.2518,-0.0507,0.8726,-6.14,9.27,0.08,23.66
20347,0.2467,-0.0486,0.8754,-6.14,5.56,-0.02,23.69
20357,0.2103,-0.0494,0.91,-6.08,7.53,-0.08,23.68
20367,0.2631,-0.0527,0.8536,-6.06,7.91,-0.12,23.68
20377,0.2386,-0.0479,0.8768,-6.06,5.27,-0.11,23.68
20387,0.2091,-0.0435,0.9124,-6.14,9.86,-0.08,23.68
20397,0.2654,-0.0415,0.8586,-6.09,7.92,0.03,23.69
20407,0.2332,-0.0468,0.8861,-6.08,5.5,-0.14,23.71
20417,0.2063,-0.0431,0.9137,-6.26,8.03,-0.05,23.68
20427,0.2417,-0.048,0.8749,-6.08,9.73,-0.08,23.66
20437,0.2236,-0.0516,0.8878,-6.15,5.79,-0.09,23.69
20447,0.2,-0.051,0.9169,-6.2,8.84,0.0,23.69
20457,0.2333,-0.0543,0.8782,-6.08,9.59,-0.11,23.68
20467,0.2446,-0.052,0.871,-6.11,6.47,-0.02,23.69
20477,0.2081,-0.0458,0.9086,-6.12,8.78,-0.03,23.69
20487,0.248,-0.0433,0.8741,-6.12,8.78,-0.03,23.66
20497,0.2535,-0.0442,0.8683,-6.11,6.02,0.03,23.69
20507,0.2136,-0.043,0.9037,-6.12,8.14,-0.03,23.67
20517,0.2463,-0.0474,0.8759,-6.14,8.55,-0.02,23.7
20527,0.2456,-0.0485,0.8689,-6.18,5.79,-0.03,23.7
20537,0.2091,-0.0513,0.9047,-6.15,8.81,-0.06,23.7
20547,0.2499,-0.046,0.8646,-6.09,8.4,0.08,23.68
20557,0.2477,-0.0496,0.8708,-6.05,6.35,-0.12,23.68
20567,0.2275,-0.0447,0.8936,-6.15,7.37,-0.12,23.7
20577,0.2329,-0.0488,0.8857,-6.14,8.6,-0.05,23.67
20587,0.2449,-0.0466,0.8739,-6.21,7.22,0.11,23.68
20598,0.2288,-0.0492,0.8838,-6.2,7.91,-0.12,23.68
20608,0.2428,-0.0516,0.8711,-6.18,7.95,-0.05,23.68
20618,0.2335,-0.0508,0.8864,-6.2,6.72,-0.05,23.68
20628,0.2135,-0.0465,0.9061,-6.23,9.19,-0.02,23.7
20638,0.2632,-0.0466,0.8558,-6.21,7.54,-0.09,23.67
20648,0.2261,-0.0504,0.8855,-6.15,5.82,-0.08,23.7
20658,0.205,-0.047,0.9039,-6.14,10.21,0.02,23.69
20668,0.2617,-0.0491,0.8595,-6.09,7.86,-0.08,23.68
20678,0.2327,-0.0499,0.8845,-6.12,5.98,-0.03,23.69
20688,0.2097,-0.0454,0.9104,-6.06,9.89,-0.06,23.69
20698,0.255,-0.0474,0.8584,-6.06,8.06,0.0,23.69
20708,0.2291,-0.0465,0.8866,-6.18,6.14,-0.06,23.72
20718,0.2094,-0.045,0.9033,-6.14,9.98,0.02,23.69
20729,0.2496,-0.0435,0.8628,-6.06,8.95,-0.06,23.7
20739,0.2443,-0.047,0.8679,-6.08,4.79,-0.12,23.69
20749,0.2029,-0.0444,0.9164,-6.2,9.63,-0.08,23.7
20759,0.2615,-0.0479,0.8591,-6.09,7.83,-0.02,23.7
20769,0.2296,-0.0525,0.8871,-6.06,5.76,-0.09,23.69
20779,0.2103,-0.053,0.8981,-6.03,10.06,0.05,23.69
20789,0.2622,-0.0515,0.8507,-6.09,6.37,0.02,23.67
20799,0.2106,-0.0472,0.9047,-6.14,7.01,-0.15,23.7
20809,0.2209,-0.0454,0.8954,-6.27,10.06,0.03,23.69
20819,0.2561,-0.0518,0.8607,-6.18,6.84,-0.02,23.68
20829,0.2078,-0.0516,0.9055,-6.18,7.33,-0.02,23.7
20839,0.2214,-0.0491,0.8904,-6.09,10.23,-0.02,23.68
20849,0.2606,-0.0514,0.8569,-6.11,6.84,-0.14,23.67
20859,0.2158,-0.0521,0.8969,-6.14,6.92,-0.12,23.69
20869,0.2177,-0.0518,0.9004,-6.23,10.89,0.02,23.69
20879,0.27,-0.0533,0.8525,-6.0,5.92,-0.05,23.69
20889,0.2079,-0.0498,0.9054,-6.17,7.37,-0.02,23.69
20899,0.2351,-0.0481,0.8882,-6.09,10.06,0.02,23.71
20909,0.2673,-0.0497,0.8541,-6.12,7.56,-0.11,23.71
20919,0.2002,-0.0472,0.916,-6.11,8.32,-0.08,23.72
20929,0.2422,-0.0468,0.8704,-6.21,9.92,0.0,23.69
20939,0.2643,-0.0508,0.8563,-6.05,4.61,-0.08,23.7
20949,0.1967,-0.0498,0.9189,-6.26,8.73,-0.03,23.69
20959,0.2385,-0.0507,0.8748,-6.2,10.38,-0.05,23.7
20969,0.2645,-0.0493,0.8539,-6.12,5.02,-0.09,23.68
20979,0.207,-0.048,0.9103,-6.08,7.6,-0.08,23.69
20989,0.2301,-0.048,0.8916,-6.18,10.34,-0.06,23.69
20999,0.2609,-0.0505,0.854,-6.21,5.89,-0.14,23.72
21009,0.2256,-0.0486,0.8905,-6.15,5.47,-0.06,23.72
21019,0.2494,-0.0497,0.8668,-6.09,9.63,0.0,23.7
21029,0.2511,-0.0531,0.8634,-6.15,5.02,-0.03,23.69
21039,0.2014,-0.0505,0.9166,-6.21,9.3,-0.11,23.69
21049,0.2516,-0.0442,0.8711,-6.15,8.61,-0.06,23.68
21059,0.269,-0.0442,0.8578,-6.09,6.37,-0.11,23.71
21069,0.2026,-0.0457,0.9183,-6.23,9.05,-0.06,23.69
21079,0.252,-0.0471,0.8605,-6.15,8.69,-0.14,23.69
21089,0.2754,-0.0482,0.8425,-5.92,5.19,-0.09,23.69
21099,0.1942,-0.0487,0.9236,-6.14,10.32,-0.08,23.69
21109,0.2311,-0.0511,0.8845,-6.18,10.09,-0.11,23.7
21119,0.2598,-0.0513,0.8549,-6.03,5.3,-0.05,23.72
21129,0.2034,-0.0514,0.9136,-6.05,7.94,-0.08,23.69
21139,0.2316,-0.0463,0.8835,-6.05,9.71,-0.03,23.69
21149,0.2662,-0.0476,0.853,-5.97,5.71,-0.11,23.69
21159,0.219,-0.048,0.9039,-6.03,6.85,-0.05,23.7
21169,0.2252,-0.0459,0.9009,-6.23,10.02,-0.06,23.71
21179,0.2714,-0.0505,0.8582,-6.05,6.4,-0.05,23.69
21189,0.2188,-0.0533,0.8976,-6.17,6.24,-0.11,23.7
21199,0.2179,-0.0516,0.9011,-6.03,10.4,-0.08,23.72
21209,0.2654,-0.0509,0.8536,-6.06,6.52,-0.08,23.72
21219,0.2157,-0.0497,0.8969,-6.05,6.53,-0.06,23.71
21229,0.2201,-0.0459,0.8988,-6.06,10.47,0.0,23.7
21239,0.2703,-0.0502,0.8524,-6.0,6.05,-0.09,23.71
21249,0.2136,-0.0494,0.9021,-6.17,6.6,-0.03,23.7
21259,0.2222,-0.0469,0.8958,-6.17,10.18,-0.02,23.69
21269,0.2646,-0.0527,0.8457,-6.08,6.53,-0.06,23.7
21279,0.2144,-0.0441,0.8983,-6.2,7.07,-0.06,23.68
21289,0.2354,-0.0458,0.8868,-6.09,10.05,-0.08,23.68
21299,0.2642,-0.0426,0.8577,-6.21,5.47,-0.09,23.69
21309,0.2026,-0.0431,0.9164,-6.14,8.43,-0.05,23.7
21319,0.2466,-0.0488,0.8622,-6.18,9.54,-0.05,23.7
21329,0.2516,-0.0526,0.8577,-6.06,4.78,-0.12,23.73
21339,0.1985,-0.0503,0.9148,-6.15,8.96,-0.06,23.73
21349,0.2443,-0.0482,0.8751,-6.14,9.42,-0.12,23.71
21359,0.2582,-0.049,0.8638,-6.17,5.16,-0.11,23.69
21369,0.2015,-0.0468,0.91,-6.08,8.49,-0.06,23.69
21379,0.2426,-0.0447,0.879,-6.12,9.68,-0.06,23.68
21389,0.2645,-0.0485,0.8588,-6.09,5.19,-0.02,23.69
21399,0.1948,-0.046,0.9167,-6.18,8.79,-0.03,23.73
21409,0.2448,-0.0463,0.8772,-6.23,9.88,-0.02,23.71
21419,0.28,-0.0475,0.8453,-6.08,5.8,-0.11,23.69
21429,0.1909,-0.0466,0.924,-6.14,10.7,-0.02,23.71
21439,0.275,-0.0471,0.8408,-6.06,7.15,-0.03,23.72
21449,0.2179,-0.052,0.8936,-6.12,5.36,-0.06,23.7
21459,0.2134,-0.0425,0.905,-6.15,10.69,-0.08,23.71
21469,0.2625,-0.046,0.8616,-6.09,7.48,-0.03,23.71
21479,0.2255,-0.0487,0.8921,-6.15,5.88,-0.11,23.69
21489,0.2079,-0.051,0.9069,-6.17,10.73,-0.08,23.69
21499,0.2643,-0.0519,0.8469,-6.09,6.66,-0.12,23.69
21509,0.2216,-0.0483,0.8848,-6.15,6.11,-0.12,23.7
21519,0.2114,-0.0447,0.9058,-6.14,10.41,-0.08,23.72
21529,0.2729,-0.0457,0.8524,-6.09,6.96,-0.14,23.72
21539,0.2192,-0.0433,0.8937,-6.18,6.11,-0.09,23.71
21549,0.2242,-0.0427,0.8982,-6.17,10.38,-0.05,23.72
21559,0.2737,-0.0461,0.8458,-6.08,5.94,-0.06,23.7
21569,0.2183,-0.0481,0.8962,-6.2,6.31,-0.11,23.69
21579,0.2146,-0.0475,0.8994,-6.17,10.18,-0.06,23.69
21589,0.2706,-0.0499,0.8484,-6.12,6.53,-0.06,23.69
21599,0.2141,-0.0538,0.8907,-6.11,6.41,-0.09,23.69
21609,0.2098,-0.0535,0.8933,-6.06,10.55,-0.08,23.71
21619,0.2595,-0.0527,0.8572,-6.14,7.05,-0.08,23.69
21629,0.2156,-0.0477,0.897,-6.17,7.01,-0.08,23.7
21639,0.2238,-0.0443,0.8975,-6.15,10.34,-0.03,23.7
21649,0.2671,-0.0453,0.8546,-6.06,6.64,0.03,23.7
21659,0.2262,-0.0452,0.887,-6.14,6.61,0.08,23.71
21669,0.2231,-0.0458,0.8948,-6.08,10.14,-0.11,23.69
21679,0.2689,-0.0498,0.8455,-6.0,5.71,-0.03,23.68
21689,0.2363,-0.0447,0.8813,-6.2,4.98,-0.14,23.67
21699,0.2386,-0.0443,0.8799,-6.18,9.74,-0.05,23.69
21709,0.2579,-0.0499,0.8591,-6.03,4.95,-0.09,23.72
21719,0.2264,-0.0493,0.8875,-6.2,6.08,-0.05,23.71
21729,0.241,-0.0492,0.8751,-6.18,9.8,-0.03,23.7
21739,0.2646,-0.0557,0.8501,-6.02,4.66,-0.02,23.7
21749,0.2303,-0.056,0.8895,-6.2,5.11,-0.06,23.7
21759,0.2106,-0.0498,0.9076,-6.23,10.14,-0.05,23.73
21769,0.2662,-0.052,0.8574,-6.06,7.69,-0.09,23.69
21779,0.2369,-0.0532,0.8811,-6.12,5.37,-0.05,23.73
21789,0.2045,-0.0468,0.9186,-6.18,9.95,-0.02,23.7
21799,0.259,-0.0469,0.8588,-6.17,8.47,0.06,23.7
21809,0.2443,-0.0536,0.8657,-6.11,5.02,-0.02,23.7
21819,0.1953,-0.0433,0.916,-6.24,9.37,-0.02,23.71
21829,0.2433,-0.0454,0.8723,-6.06,9.44,0.02,23.69
21839,0.2605,-0.045,0.8647,-6.17,5.11,-0.08,23.7
21849,0.1946,-0.0519,0.9163,-6.11,9.22,-0.12,23.71
21859,0.2479,-0.0519,0.8644,-6.02,8.98,-0.05,23.71
21869,0.2542,-0.0585,0.866,-6.03,4.92,-0.05,23.7
21879,0.2012,-0.0521,0.9183,-6.26,8.95,-0.05,23.72
21889,0.2532,-0.0526,0.8658,-6.06,9.54,-0.05,23.71
21899,0.2589,-0.0548,0.8638,-6.15,4.96,-0.06,23.72
21909,0.1976,-0.0498,0.9116,-6.14,9.27,0.0,23.72
21919,0.2419,-0.0386,0.8779,-6.17,9.8,-0.06,23.72
21929,0.265,-0.0377,0.8501,-6.02,5.05,-0.15,23.71
21939,0.2029,-0.0365,0.9139,-6.21,7.79,-0.21,23.7
21949,0.228,-0.036,0.8927,-6.03,10.34,-0.15,23.71
21959,0.2676,-0.0411,0.851,-6.12,5.22,-0.21,23.73
21969,0.2039,-0.0449,0.91,-6.14,6.9,-0.34,23.68
21979,0.2144,-0.0457,0.8998,-6.17,10.2,-0.2,23.72
21989,0.2708,-0.0494,0.8502,-6.11,7.11,-0.08,23.69
21999,0.2333,-0.0591,0.8816,-6.15,4.76,-0.18,23.71
22009,0.2056,-0.0549,0.9135,-6.21,10.84,-0.12,23.72
22019,0.2771,-0.0591,0.8527,-6.0,6.67,-0.05,23.72
22029,0.2263,-0.0664,0.895,-6.09,5.71,0.08,23.71
22039,0.2117,-0.0686,0.9014,-6.03,10.23,0.17,23.7
22049,0.2517,-0.0605,0.8547,-6.0,8.08,0.24,23.72
22059,0.2463,-0.0472,0.8663,-6.05,5.88,0.18,23.72
22069,0.2164,-0.0328,0.9103,-6.03,7.95,0.11,23.7
22079,0.226,-0.0223,0.8938,-6.14,9.47,0.12,23.7
22089,0.2634,-0.0216,0.8557,-6.14,6.82,-0.02,23.7
22099,0.2302,-0.0269,0.8795,-6.14,5.47,-0.11,23.72
22109,0.191,-0.0349,0.9139,-6.24,10.27,-0.18,23.7
22119,0.2542,-0.0391,0.8605,-6.18,8.78,-0.34,23.73
22129,0.246,-0.0466,0.8701,-6.15,4.6,-0.27,23.69
22139,0.2087,-0.0526,0.9092,-6.31,8.84,-0.27,23.69
22149,0.2509,-0.0549,0.8804,-6.12,9.3,-0.11,23.71
22159,0.2694,-0.0641,0.8522,-6.15,4.63,-0.09,23.7
22169,0.2104,-0.0724,0.8961,-6.17,7.91,-0.02,23.7
22179,0.2258,-0.0691,0.8911,-6.18,10.23,0.14,23.71
22189,0.2678,-0.0592,0.8503,-6.06,6.89,0.24,23.71
22199,0.2334,-0.0525,0.8741,-6.0,5.79,0.31,23.71
22209,0.2137,-0.0394,0.8961,-6.09,8.49,0.27,23.74
22219,0.246,-0.0283,0.882,-6.11,8.78,0.24,23.73
22229,0.2554,-0.0272,0.8793,-6.15,5.92,0.09,23.68
22239,0.2124,-0.0299,0.9117,-6.24,7.95,-0.06,23.69
22249,0.2181,-0.0387,0.8938,-6.18,10.31,0.0,23.71
22259,0.2583,-0.0442,0.8474,-6.14,7.47,-0.02,23.69
22269,0.2395,-0.0546,0.8684,-6.12,5.82,-0.06,23.73
22279,0.2158,-0.0551,0.8984,-6.18,8.21,-0.26,23.72
22289,0.2123,-0.059,0.9005,-6.23,9.25,-0.14,23.69
22299,0.264,-0.0516,0.8574,-6.14,6.58,-0.11,23.7
22309,0.2263,-0.0533,0.895,-6.09,6.56,-0.12,23.71
22319,0.2235,-0.0542,0.8986,-6.2,9.54,-0.06,23.72
22329,0.2607,-0.0563,0.8623,-6.17,6.98,-0.03,23.72
22339,0.2275,-0.0588,0.8756,-6.12,6.63,0.12,23.72
22349,0.222,-0.0526,0.8896,-6.11,7.8,-0.02,23.72
22359,0.2263,-0.0439,0.892,-6.12,8.61,0.05,23.73
22369,0.2299,-0.0415,0.8915,-6.06,8.7,0.02,23.74
22379,0.2544,-0.0354,0.8782,-6.12,6.72,-0.05,23.69
22389,0.2109,-0.0466,0.9071,-6.15,8.26,-0.17,23.71
22399,0.2097,-0.0603,0.9084,-6.14,8.4,-0.09,23.72
22409,0.2281,-0.0677,0.8879,-6.17,8.55,0.05,23.71
22419,0.2288,-0.0662,0.8773,-6.15,8.06,0.08,23.72
22429,0.2352,-0.0618,0.8712,-6.02,8.08,0.08,23.7
22440,0.2474,-0.0472,0.8667,-6.06,7.42,0.08,23.7
22450,0.2384,-0.0337,0.8832,-6.03,6.82,0.02,23.73
22460,0.2167,-0.026,0.9,-6.15,8.75,-0.11,23.69
22470,0.2267,-0.0208,0.8967,-6.26,9.27,-0.09,23.72
22481,0.2271,-0.0303,0.8928,-6.23,9.11,-0.24,23.74
22491,0.2506,-0.0414,0.871,-6.12,7.36,-0.2,23.72
22501,0.2278,-0.0566,0.8832,-6.17,6.69,-0.24,23.71
22511,0.2057,-0.067,0.8951,-6.24,9.11,-0.18,23.73
22521,0.2347,-0.0653,0.8684,-6.11,8.52,-0.06,23.71
22531,0.2468,-0.0607,0.8784,-6.05,6.76,-0.11,23.71
22541,0.2434,-0.0594,0.8884,-6.15,6.79,0.03,23.72
22551,0.2255,-0.05,0.8993,-6.15,8.76,0.05,23.73
22561,0.2488,-0.0508,0.8737,-6.21,8.26,0.15,23.72
22571,0.2531,-0.0498,0.8656,-6.0,5.74,0.14,23.73
22581,0.1991,-0.0477,0.9106,-6.2,8.49,0.17,23.73
22591,0.2333,-0.0443,0.8756,-6.05,9.89,0.12,23.72
22601,0.259,-0.0286,0.8538,-6.03,5.53,-0.09,23.72
22611,0.2113,-0.0691,0.8947,-6.02,6.06,-0.05,23.74
22621,0.2185,-0.0342,0.9034,-5.98,10.56,-0.08,23.71
22631,0.2655,-0.048,0.8524,-5.95,6.09,-0.08,23.69
22641,0.2211,-0.0442,0.8981,-6.12,5.83,-0.03,23.72
22651,0.218,-0.0442,0.8933,-6.24,11.89,-0.17,23.72
22661,0.2754,-0.0638,0.8398,-6.14,4.89,-0.03,23.72
22671,0.2227,-0.0638,0.8958,-6.09,7.08,-0.09,23.7
22681,0.2196,-0.0765,0.8997,-6.12,9.8,-0.05,23.73
22691,0.2566,-0.0641,0.8601,-5.97,7.19,0.06,23.71
22701,0.22,-0.0571,0.8896,-6.06,6.5,0.12,23.72
22711,0.2119,-0.0646,0.9218,-6.11,9.89,0.14,23.72
22721,0.2324,-0.0319,0.8892,-6.17,9.36,0.2,23.72
22731,0.2563,-0.0372,0.8512,-6.0,6.53,0.17,23.72
22741,0.2158,-0.0341,0.884,-6.11,5.39,0.05,23.71
22751,0.2014,-0.02,0.9111,-6.15,11.13,-0.17,23.72
22761,0.271,-0.0271,0.8652,-6.12,7.57,-0.12,23.72
22771,0.2562,-0.0306,0.87,-6.12,5.54,-0.24,23.72
22781,0.214,-0.0448,0.9093,-6.11,8.64,-0.34,23.7
22791,0.245,-0.0552,0.8763,-6.15,9.37,-0.24,23.71
22801,0.2563,-0.056,0.8586,-6.05,6.34,-0.21,23.72
22811,0.2137,-0.0679,0.8976,-6.2,7.25,-0.09,23.7
22821,0.2062,-0.061,0.8959,-6.23,10.11,0.0,23.72
22831,0.2495,-0.0564,0.8633,-6.14,7.73,0.11,23.7
22841,0.2379,-0.0554,0.8726,-6.06,5.62,0.05,23.74
22851,0.1991,-0.0527,0.9131,-6.09,8.92,0.11,23.72
22861,0.2391,-0.049,0.8762,-6.06,9.5,0.09,23.74
22871,0.2587,-0.0411,0.858,-6.09,6.23,0.06,23.71
22881,0.2283,-0.0349,0.8969,-6.09,7.1,0.05,23.72
22891,0.228,-0.0325,0.8955,-6.12,9.11,-0.03,23.7
22901,0.2516,-0.0359,0.8728,-6.06,8.24,-0.11,23.73
22911,0.2479,-0.0366,0.8708,-6.21,6.64,-0.11,23.75
22921,0.2188,-0.0487,0.9032,-6.26,8.15,-0.08,23.71
22931,0.2283,-0.0558,0.8849,-6.11,8.93,-0.11,23.73
22941,0.2338,-0.0621,0.8721,-6.14,8.7,-0.23,23.71
22951,0.2463,-0.058,0.8624,-6.15,8.21,-0.11,23.72
22962,0.2467,-0.0597,0.8644,-5.98,5.01,-0.11,23.73
22972,0.2001,-0.0558,0.9119,-6.09,9.21,-0.02,23.73
22982,0.2401,-0.0479,0.8818,-6.23,9.15,-0.06,23.72
22992,0.2563,-0.0458,0.8755,-6.2,6.98,0.05,23.74
23002,0.2307,-0.043,0.8845,-6.17,7.45,-0.08,23.72
23012,0.2256,-0.0465,0.8922,-5.97,8.75,-0.03,23.74
23022,0.2461,-0.0477,0.8589,-6.05,7.74,-0.03,23.73
23032,0.2474,-0.0415,0.8611,-6.08,6.0,-0.03,23.72
23042,0.2191,-0.0383,0.8965,-6.12,9.48,-0.09,23.73
23052,0.2496,-0.0342,0.8638,-6.15,7.42,-0.12,23.74
23062,0.2511,-0.0399,0.8717,-6.12,6.52,-0.08,23.74
23072,0.2279,-0.0396,0.8929,-6.23,6.73,-0.14,23.72
23082,0.2119,-0.0499,0.9152,-6.26,9.18,0.0,23.73
23092,0.2365,-0.0573,0.887,-6.15,9.36,0.03,23.76
23102,0.2522,-0.058,0.8687,-6.06,7.24,-0.02,23.75
23112,0.2227,-0.0613,0.8873,-6.11,7.66,-0.03,23.72
23122,0.2238,-0.0576,0.8865,-6.23,9.21,0.11,23.74
23132,0.2462,-0.0477,0.859,-6.05,8.17,0.03,23.74
23142,0.2433,-0.0416,0.8701,-6.12,6.24,0.05,23.74
23152,0.2183,-0.0381,0.8926,-6.09,7.34,0.03,23.75
23162,0.2119,-0.0398,0.8999,-6.24,9.24,-0.05,23.76
23172,0.2382,-0.0421,0.8779,-6.17,9.36,-0.11,23.73
23182,0.2577,-0.045,0.8619,-6.23,5.83,-0.09,23.73
23192,0.213,-0.0547,0.9072,-6.2,7.6,-0.12,23.72
23202,0.2238,-0.0536,0.8914,-6.27,10.5,-0.05,23.72
23212,0.2673,-0.0535,0.8521,-6.15,6.78,-0.03,23.73
23222,0.2329,-0.0499,0.8788,-6.08,6.17,-0.14,23.74
23232,0.2122,-0.0518,0.9114,-6.23,9.66,-0.11,23.74
23242,0.2517,-0.0488,0.8674,-6.18,8.4,-0.11,23.73
23252,0.2467,-0.0521,0.8673,-6.11,5.88,-0.12,23.76
23262,0.2119,-0.0544,0.9014,-6.06,7.71,-0.08,23.74
23272,0.2125,-0.052,0.9044,-6.05,8.38,-0.05,23.73
23282,0.2506,-0.0529,0.87,-6.05,8.03,-0.05,23.73
23292,0.2456,-0.0482,0.871,-6.05,6.02,0.0,23.73
23302,0.2177,-0.0496,0.8912,-6.11,7.68,-0.02,23.74
23312,0.2239,-0.0413,0.8895,-6.15,8.5,-0.05,23.75
23322,0.2416,-0.0356,0.8826,-6.11,8.66,-0.03,23.74
23333,0.2557,-0.0354,0.8696,-6.17,7.6,-0.03,23.75
23343,0.2382,-0.0447,0.8885,-6.24,6.12,-0.08,23.73
23353,0.2114,-0.0516,0.9,-6.08,9.42,-0.14,23.73
23363,0.2527,-0.0538,0.8513,-6.03,7.77,0.0,23.73
23373,0.2412,-0.0568,0.8745,-5.97,5.83,-0.08,23.71
23383,0.2214,-0.0483,0.8989,-6.08,8.41,-0.09,23.74
23393,0.2478,-0.0487,0.8707,-6.08,7.92,-0.05,23.73
23403,0.2362,-0.047,0.879,-6.08,6.35,0.0,23.72
23413,0.2135,-0.0483,0.9028,-6.03,8.98,-0.03,23.72
23423,0.2463,-0.0485,0.8724,-6.12,8.43,-0.05,23.74
23433,0.2501,-0.0504,0.8669,-6.03,6.05,-0.03,23.74
23443,0.209,-0.0491,0.8976,-6.09,7.65,-0.02,23.73
23453,0.2227,-0.0504,0.8926,-6.14,9.71,-0.03,23.71
23463,0.2587,-0.0447,0.859,-6.12,7.39,-0.08,23.74
23473,0.2422,-0.0466,0.8713,-6.11,5.79,-0.12,23.73
23483,0.2135,-0.0424,0.9019,-6.14,8.4,-0.08,23.75
23493,0.2358,-0.0416,0.8813,-6.17,9.04,-0.08,23.73
23503,0.2567,-0.0464,0.8733,-6.14,6.56,-0.08,23.73
23513,0.2257,-0.0483,0.8998,-6.24,6.93,-0.15,23.71
23523,0.2195,-0.0504,0.9062,-6.08,9.51,-0.03,23.7
23533,0.2498,-0.0538,0.8745,-6.2,7.88,-0.08,23.73
23543,0.249,-0.0481,0.8807,-6.15,7.04,-0.03,23.74
23553,0.2317,-0.0607,0.8854,-6.03,7.31,-0.09,23.73
23564,0.2188,-0.0562,0.8955,-6.09,8.31,-0.09,23.73
23574,0.2509,-0.0568,0.848,-6.08,7.5,-0.03,23.74
23585,0.254,-0.0535,0.8474,-6.08,5.22,-0.06,23.74
23595,0.202,-0.0485,0.8989,-6.02,8.05,0.03,23.72
23605,0.2274,-0.0336,0.8866,-6.0,9.73,-0.11,23.72
23615,0.2654,-0.0358,0.863,-6.06,6.32,-0.03,23.74
23625,0.226,-0.0333,0.896,-6.29,6.14,-0.17,23.74
23635,0.2145,-0.0415,0.917,-6.18,9.71,0.0,23.75
23645,0.2483,-0.0504,0.8734,-6.15,8.38,-0.05,23.74
23655,0.2402,-0.062,0.8795,-6.17,6.72,-0.14,23.74
23665,0.2236,-0.0657,0.8889,-5.98,8.26,-0.03,23.73
23675,0.2235,-0.0569,0.8901,-6.06,8.89,0.0,23.72
23685,0.2242,-0.0599,0.8788,-5.95,9.18,0.0,23.75
23695,0.2367,-0.046,0.8708,-6.21,6.72,0.0,23.72
23705,0.2301,-0.0441,0.8766,-6.09,7.34,-0.08,23.75
23715,0.2236,-0.0371,0.8862,-6.09,8.09,0.02,23.72
23725,0.2319,-0.0372,0.8701,-6.06,7.83,-0.02,23.76
23735,0.2421,-0.0411,0.8816,-6.09,7.25,-0.03,23.73
23745,0.2473,-0.0447,0.8907,-6.2,6.55,-0.06,23.74
23755,0.229,-0.0494,0.91,-6.24,7.66,-0.08,23.74
23765,0.2322,-0.0543,0.8987,-6.21,9.08,-0.05,23.73
23775,0.2424,-0.0554,0.8765,-6.06,8.27,-0.03,23.75
23785,0.2531,-0.058,0.863,-6.12,6.37,-0.14,23.74
23795,0.2185,-0.0546,0.8868,-6.12,7.01,-0.06,23.73
23805,0.2101,-0.0487,0.8933,-6.15,9.74,-0.05,23.73
23815,0.2472,-0.0402,0.8544,-6.14,7.85,-0.06,23.71
23825,0.2498,-0.0404,0.8604,-6.08,5.48,-0.06,23.74
23835,0.2179,-0.0421,0.8955,-6.2,7.25,-0.03,23.75
23845,0.2178,-0.0405,0.8998,-6.2,9.19,-0.09,23.74
23855,0.2516,-0.047,0.8815,-6.2,8.18,-0.11,23.74
23865,0.2479,-0.0463,0.8823,-6.21,7.31,-0.08,23.74
23875,0.2213,-0.0543,0.9,-6.05,8.72,-0.09,23.74
23885,0.229,-0.0508,0.8811,-6.08,9.28,0.0,23.74
23895,0.2587,-0.0498,0.85,-6.08,6.87,-0.02,23.71
23905,0.2325,-0.0421,0.8685,-6.09,5.77,-0.05,23.73
23915,0.2114,-0.0403,0.8958,-6.09,9.28,-0.09,23.74
23925,0.2655,-0.0383,0.8461,-6.18,7.18,-0.12,23.71
23935,0.2351,-0.0454,0.8824,-6.11,5.31,-0.05,23.73
23945,0.2142,-0.0485,0.9192,-6.2,8.43,-0.05,23.76
23955,0.2258,-0.0531,0.9067,-6.17,9.48,0.03,23.74
23965,0.2465,-0.0535,0.8811,-6.14,8.55,0.03,23.75
23975,0.2623,-0.0577,0.8634,-6.12,6.23,0.03,23.73
23985,0.217,-0.0547,0.9012,-6.06,7.34,0.03,23.72
23995,0.2329,-0.0479,0.8811,-6.15,9.47,0.06,23.71
24005,0.255,-0.046,0.8561,-6.11,6.78,-0.09,23.72
24015,0.226,-0.0378,0.884,-6.05,6.76,-0.05,23.76
24025,0.2228,-0.038,0.8845,-6.11,8.82,0.0,23.75
24035,0.2452,-0.0414,0.8751,-6.14,7.47,-0.08,23.76
24045,0.243,-0.0453,0.8848,-6.12,6.85,-0.12,23.73
24055,0.236,-0.05,0.8929,-6.21,7.82,-0.09,23.75
24065,0.24,-0.0563,0.8898,-6.21,7.74,-0.12,23.72
24075,0.2371,-0.058,0.8931,-6.11,7.97,0.0,23.77
24085,0.2433,-0.0562,0.8888,-6.02,8.35,-0.05,23.73
24095,0.2487,-0.0552,0.8705,-6.05,7.01,-0.11,23.71
24105,0.2308,-0.0533,0.8846,-6.05,7.92,-0.09,23.72
24115,0.2426,-0.0477,0.8668,-6.03,7.22,0.0,23.71
24125,0.2196,-0.05,0.8805,-6.05,7.57,-0.08,23.76
24135,0.2216,-0.0435,0.8837,-6.11,8.49,-0.11,23.73
24145,0.2365,-0.0408,0.8817,-6.17,8.31,-0.02,23.71
24155,0.2444,-0.0386,0.8693,-6.06,7.54,0.0,23.73
24165,0.2472,-0.0383,0.877,-6.08,6.2,-0.14,23.72
24176,0.2241,-0.0399,0.8975,-6.2,6.93,-0.05,23.74
24186,0.2305,-0.0406,0.8979,-6.17,9.27,-0.14,23.72
24196,0.2468,-0.0487,0.885,-6.18,7.07,-0.11,23.74
24206,0.219,-0.0513,0.9012,-6.12,8.23,-0.03,23.74
24216,0.2341,-0.0585,0.8774,-6.15,9.28,-0.02,23.73
24226,0.2424,-0.0535,0.8658,-6.12,7.36,0.02,23.71
24236,0.2366,-0.0511,0.8805,-6.14,7.08,0.05,23.73
24246,0.2319,-0.0436,0.8875,-6.12,7.8,0.03,23.77
24256,0.2271,-0.0364,0.889,-6.26,8.6,-0.08,23.72
24266,0.2369,-0.041,0.8691,-6.11,8.05,-0.11,23.74
24276,0.2466,-0.0409,0.8669,-6.27,7.07,-0.05,23.73
24286,0.2216,-0.0444,0.9043,-6.27,8.15,0.0,23.75
24296,0.2432,-0.0522,0.8832,-6.12,9.02,-0.11,23.73
24306,0.2589,-0.054,0.8527,-6.21,5.69,-0.06,23.75
24316,0.2385,-0.0543,0.881,-6.09,6.08,-0.08,23.72
24326,0.2301,-0.0568,0.8947,-6.06,8.84,-0.03,23.74
24336,0.2462,-0.0568,0.8816,-6.14,7.66,-0.14,23.74
24346,0.2389,-0.0475,0.8849,-6.14,7.69,-0.02,23.75
24356,0.2389,-0.046,0.8752,-6.05,7.66,-0.02,23.71
24366,0.243,-0.0482,0.8757,-6.09,7.65,-0.06,23.73
24376,0.2408,-0.049,0.8816,-6.14,6.75,0.02,23.73
24386,0.2205,-0.0493,0.8989,-6.03,8.56,-0.02,23.75
24396,0.2385,-0.0494,0.8744,-6.12,8.37,-0.05,23.76
24406,0.2365,-0.0494,0.875,-6.0,7.25,-0.03,23.73
24416,0.2252,-0.0503,0.8868,-5.95,7.98,-0.11,23.75
24426,0.2313,-0.0464,0.8843,-6.05,7.82,-0.11,23.75
24436,0.2257,-0.0446,0.8903,-6.14,9.04,0.03,23.77
24446,0.2551,-0.0378,0.8672,-6.2,7.88,-0.03,23.75
24456,0.2576,-0.0372,0.8713,-6.18,5.85,-0.12,23.74
24466,0.2231,-0.0446,0.903,-6.26,7.19,-0.05,23.72
24476,0.2242,-0.0433,0.8976,-6.2,9.83,-0.05,23.75
24486,0.2606,-0.0516,0.8577,-6.15,7.6,-0.03,23.73
24496,0.2521,-0.0485,0.8828,-6.06,5.68,-0.05,23.75
24506,0.2372,-0.0486,0.8904,-6.14,7.86,-0.09,23.75
24516,0.2527,-0.0428,0.876,-6.14,7.05,-0.03,23.75
24526,0.2318,-0.0402,0.8827,-6.05,7.07,-0.08,23.75
24536,0.2393,-0.0454,0.8657,-6.03,8.06,0.06,23.75
24546,0.2435,-0.0505,0.8595,-6.11,6.09,0.03,23.75
24556,0.2119,-0.0448,0.8925,-6.14,8.27,-0.12,23.74
24566,0.2257,-0.0463,0.8729,-6.14,9.04,-0.03,23.74
24576,0.2474,-0.0433,0.8621,-6.0,7.08,-0.02,23.76
24586,0.2391,-0.0425,0.8849,-6.05,6.24,-0.05,23.74
24596,0.2382,-0.0382,0.8893,-6.12,6.98,-0.08,23.76
24606,0.2325,-0.0444,0.9003,-6.15,7.48,-0.06,23.73
24616,0.2391,-0.0483,0.889,-6.2,7.44,0.0,23.73
24626,0.2271,-0.0594,0.8947,-6.21,8.0,-0.02,23.72
24636,0.2225,-0.0576,0.891,-6.24,8.84,-0.03,23.74
24646,0.2378,-0.0599,0.8766,-5.98,8.93,-0.06,23.76
24656,0.2385,-0.0581,0.859,-6.03,7.22,-0.05,23.7
24666,0.2288,-0.0513,0.8739,-5.86,7.74,-0.06,23.74
24676,0.2429,-0.0417,0.8623,-6.06,7.22,-0.03,23.75
24686,0.2268,-0.0404,0.8782,-6.08,6.96,0.0,23.77
24696,0.2102,-0.0355,0.8979,-6.26,8.92,-0.06,23.76
24706,0.2521,-0.0361,0.8754,-6.21,8.37,-0.05,23.73
24716,0.2474,-0.0437,0.8889,-6.31,5.92,-0.02,23.76
24726,0.2214,-0.0532,0.9131,-6.21,8.4,-0.14,23.74
24736,0.2468,-0.0537,0.8828,-6.26,8.05,-0.08,23.73
24746,0.2422,-0.0546,0.8888,-6.08,6.95,-0.06,23.73
24756,0.2157,-0.0555,0.9081,-6.09,9.18,-0.11,23.73
24766,0.2521,-0.0504,0.8663,-6.17,8.9,-0.02,23.74
24776,0.2504,-0.0494,0.8578,-6.08,5.95,-0.06,23.73
24786,0.2181,-0.0474,0.8917,-6.09,7.8,0.06,23.75
24796,0.235,-0.0449,0.8759,-6.09,8.49,0.02,23.72
24806,0.2458,-0.0447,0.8676,-6.03,6.67,-0.08,23.71
24816,0.2166,-0.0485,0.89,-6.0,7.42,-0.03,23.73
24826,0.2299,-0.0474,0.8838,-6.08,8.47,0.02,23.74
24836,0.2408,-0.048,0.877,-6.14,6.95,-0.03,23.73
24846,0.2258,-0.0453,0.8969,-6.15,7.57,0.06,23.73
24856,0.2288,-0.0453,0.8899,-6.17,8.6,0.02,23.72
24866,0.2498,-0.0443,0.8739,-6.32,7.13,-0.05,23.74
24876,0.2325,-0.0452,0.8994,-6.17,7.21,-0.09,23.73
24886,0.2216,-0.0449,0.9055,-6.34,8.92,-0.05,23.75
24896,0.2383,-0.0509,0.8831,-6.23,8.7,-0.06,23.76
24906,0.2461,-0.0558,0.8695,-6.06,7.27,-0.09,23.74
24916,0.2214,-0.0548,0.8944,-6.08,7.79,-0.08,23.75
24926,0.2273,-0.0566,0.8853,-6.05,9.21,0.03,23.73
24936,0.2467,-0.0499,0.8612,-6.11,7.65,-0.03,23.77
24946,0.2299,-0.049,0.8745,-6.08,7.48,-0.06,23.76
24956,0.2325,-0.0463,0.8763,-6.08,7.33,-0.17,23.75
24966,0.2183,-0.0436,0.8917,-6.27,8.21,-0.05,23.76
24976,0.2322,-0.0372,0.8817,-6.24,9.11,-0.14,23.74
24986,0.2571,-0.0421,0.8649,-6.12,6.64,-0.02,23.75
24996,0.2314,-0.0491,0.9004,-6.21,6.98,-0.06,23.75
25006,0.222,-0.0454,0.9006,-6.17,8.2,-0.06,23.74
25016,0.2567,-0.0521,0.8716,-6.15,7.24,-0.06,23.73
25026,0.2227,-0.0514,0.9053,-6.09,7.3,-0.08,23.77
25037,0.2365,-0.0516,0.8943,-6.12,6.87,-0.06,23.76
25047,0.2277,-0.0564,0.894,-6.18,8.05,-0.02,23.77
25057,0.2245,-0.0555,0.8959,-6.0,8.55,0.02,23.74
25067,0.2402,-0.0515,0.8843,-6.06,9.01,-0.03,23.74
25077,0.2599,-0.0479,0.8577,-6.09,7.02,-0.03,23.74
25087,0.2343,-0.0502,0.8792,-6.0,7.08,0.0,23.75
25097,0.2296,-0.0453,0.8805,-6.03,8.31,0.0,23.75
25107,0.2393,-0.0452,0.8674,-6.0,7.69,-0.11,23.76
25117,0.238,-0.043,0.8718,-6.11,7.19,-0.09,23.77
25127,0.2255,-0.0468,0.8789,-6.05,7.54,-0.09,23.77
25137,0.2371,-0.0465,0.8805,-6.2,8.24,-0.11,23.74
25147,0.2612,-0.0536,0.849,-5.86,5.62,-0.12,23.74
25157,0.1831,-0.0433,0.942,-6.2,8.55,-0.05,23.74
25167,0.2751,-0.0465,0.8662,-6.05,8.53,0.03,23.76
25177,0.2177,-0.0437,0.9064,-6.37,6.03,-0.06,23.75
25187,0.2328,-0.0463,0.9001,-6.17,9.65,0.05,23.79
25197,0.2411,-0.0446,0.8741,-6.14,6.84,0.0,23.75
25207,0.2142,-0.0455,0.9106,-6.24,8.89,0.02,23.77
25217,0.2427,-0.0457,0.8916,-6.23,9.88,-0.06,23.75
25227,0.2645,-0.0555,0.8418,-6.11,5.33,-0.14,23.76
25237,0.2057,-0.0586,0.8813,-6.02,7.44,-0.11,23.76
25247,0.2166,-0.0513,0.8889,-6.0,8.9,-0.06,23.78
25257,0.2271,-0.0383,0.8995,-6.17,9.05,-0.08,23.76
25267,0.2609,-0.041,0.8732,-6.31,7.97,-0.12,23.74
25280,0.2261,-0.0466,0.8977,-6.17,9.68,0.0,23.74
25290,0.2559,-0.0421,0.8579,-6.24,7.22,-0.02,23.76
25300,0.2325,-0.0477,0.8755,-6.08,6.47,-0.05,23.74
25310,0.2227,-0.043,0.8961,-6.08,8.17,0.0,23.75
25320,0.2458,-0.0488,0.8855,-6.15,8.5,0.0,23.75
25330,0.2518,-0.047,0.873,-6.06,7.01,-0.14,23.76
25340,0.2227,-0.0518,0.8927,-6.02,8.27,-0.11,23.75
25350,0.2528,-0.0419,0.87,-6.12,8.35,-0.05,23.74
25360,0.2604,-0.0405,0.8756,-6.11,5.86,-0.09,23.76
25370,0.2299,-0.0433,0.8994,-6.23,7.19,-0.14,23.77
25380,0.224,-0.0465,0.8864,-6.18,8.58,-0.06,23.74
25390,0.246,-0.0486,0.8666,-6.14,7.69,-0.11,23.77
25400,0.2419,-0.0508,0.8663,-5.95,6.44,-0.06,23.73
25410,0.2225,-0.0515,0.8888,-6.06,7.24,0.0,23.75
25421,0.2257,-0.0509,0.8864,-6.02,7.5,-0.05,23.74
25431,0.2233,-0.0469,0.8868,-6.12,8.26,0.02,23.74
25441,0.2349,-0.0453,0.8788,-6.08,8.09,-0.03,23.77
25451,0.2327,-0.0465,0.8804,-6.06,7.56,-0.05,23.75
25461,0.2333,-0.0441,0.8837,-6.23,7.76,0.0,23.76
25471,0.2472,-0.0431,0.8772,-6.14,7.97,-0.11,23.77
25481,0.2518,-0.0455,0.8759,-6.11,5.85,-0.11,23.76
25491,0.2095,-0.0508,0.9205,-6.06,8.12,0.0,23.75
25501,0.2117,-0.0469,0.9182,-6.21,9.39,-0.08,23.72
25511,0.2555,-0.0558,0.8629,-6.18,7.33,-0.03,23.73
25521,0.231,-0.0574,0.8782,-6.0,7.36,-0.02,23.77
25531,0.2264,-0.053,0.8717,-6.14,8.15,-0.02,23.76
25541,0.2241,-0.0507,0.8832,-6.12,8.26,0.03,23.76
25551,0.238,-0.0447,0.8746,-6.21,8.41,-0.05,23.74
25561,0.2433,-0.0409,0.8717,-6.14,6.98,-0.08,23.76
25571,0.222,-0.0454,0.8916,-6.05,7.91,-0.11,23.77
25581,0.243,-0.0454,0.8777,-6.12,7.83,-0.12,23.76
25591,0.2406,-0.0485,0.885,-6.09,6.46,-0.06,23.76
25601,0.2278,-0.0518,0.8973,-6.2,6.98,-0.08,23.76
25611,0.2351,-0.0559,0.8936,-6.24,9.19,-0.05,23.76
25621,0.2488,-0.0527,0.8712,-6.15,8.29,0.0,23.77
25631,0.2609,-0.0537,0.8529,-6.05,6.63,-0.03,23.75
25641,0.2371,-0.0524,0.8698,-6.0,6.63,-0.11,23.76
25651,0.2135,-0.0502,0.8876,-6.0,8.7,-0.08,23.77
25661,0.2673,-0.0352,0.8505,-6.0,6.76,-0.08,23.77
25671,0.2634,-0.0358,0.8555,-6.2,6.06,-0.09,23.76
25681,0.2218,-0.0377,0.9052,-6.24,7.24,-0.03,23.77
25691,0.2249,-0.0411,0.8995,-6.23,7.44,-0.02,23.77
25701,0.2299,-0.042,0.9037,-6.12,8.26,-0.08,23.78
25711,0.2351,-0.0508,0.8976,-6.14,8.75,-0.12,23.76
25721,0.2524,-0.0581,0.8705,-6.2,7.82,-0.06,23.78
25731,0.2432,-0.0609,0.8727,-6.02,6.63,0.02,23.77
25741,0.2159,-0.0536,0.8936,-6.05,7.88,0.0,23.76
25751,0.2345,-0.0452,0.8815,-6.12,9.05,0.02,23.77
25761,0.2554,-0.0391,0.859,-6.12,6.5,-0.06,23.76
25771,0.2205,-0.0392,0.8899,-6.06,7.01,0.0,23.77
25781,0.2235,-0.0419,0.892,-6.14,8.92,0.06,23.76
25791,0.2496,-0.0435,0.885,-6.26,7.11,-0.03,23.79
25801,0.1879,-0.0477,0.9275,-6.09,9.98,-0.08,23.76
25811,0.2316,-0.0483,0.8993,-6.27,9.47,-0.12,23.76
25821,0.2501,-0.0518,0.8708,-6.14,7.16,-0.05,23.78
25831,0.2114,-0.0532,0.9016,-6.05,8.34,-0.02,23.75
25841,0.2354,-0.0496,0.8737,-6.15,9.07,0.03,23.76
25851,0.2467,-0.0521,0.8662,-6.03,6.95,-0.08,23.76
25861,0.2136,-0.0483,0.8879,-6.12,8.67,-0.11,23.77
25871,0.2395,-0.0416,0.8761,-6.23,8.34,-0.05,23.75
25881,0.2456,-0.0408,0.8794,-6.15,7.15,-0.06,23.75
25891,0.2357,-0.0488,0.8948,-6.15,7.3,-0.06,23.8
25901,0.2318,-0.0476,0.8914,-6.11,7.24,-0.03,23.76
25911,0.2295,-0.0577,0.8802,-6.14,8.9,-0.06,23.77
25921,0.2469,-0.0553,0.8654,-6.08,6.99,-0.05,23.77
25931,0.2303,-0.0508,0.8823,-6.12,7.05,-0.09,23.75
25941,0.21,-0.0419,0.9065,-6.15,9.31,0.0,23.75
25951,0.2549,-0.0366,0.8616,-6.11,8.75,-0.08,23.78
25961,0.2581,-0.0408,0.8679,-6.03,4.76,-0.09,23.76
25971,0.2032,-0.04,0.9102,-6.12,8.53,0.02,23.77
25981,0.248,-0.0446,0.8682,-6.15,9.71,0.0,23.77
25991,0.2605,-0.0487,0.8625,-6.08,4.08,-0.15,23.77
26001,0.1978,-0.0485,0.9171,-6.21,9.18,-0.08,23.78
26011,0.2478,-0.0411,0.8787,-6.2,9.18,-0.05,23.77
26021,0.26,-0.0448,0.863,-6.11,5.01,-0.14,23.78
26031,0.2118,-0.0519,0.908,-6.06,8.06,-0.08,23.78
26041,0.2291,-0.0477,0.8868,-6.2,9.86,-0.02,23.77
26051,0.2653,-0.0458,0.8478,-6.02,7.04,-0.06,23.75
26061,0.2334,-0.0457,0.8823,-6.08,5.79,-0.08,23.76
26071,0.2092,-0.0397,0.9128,-6.23,9.94,0.05,23.75
26081,0.2692,-0.0386,0.8585,-6.09,7.6,0.03,23.77
26091,0.2352,-0.0457,0.8867,-6.27,5.4,-0.03,23.76
26101,0.2024,-0.0519,0.9048,-6.27,10.41,0.02,23.76
26111,0.2256,-0.0518,0.8744,-6.18,9.94,-0.06,23.78
26121,0.2391,-0.0521,0.8757,-6.05,5.5,-0.11,23.79
26131,0.213,-0.0459,0.9127,-6.32,8.61,-0.05,23.75
26141,0.2411,-0.0449,0.8875,-6.24,9.3,-0.08,23.75
26151,0.2574,-0.0476,0.8673,-6.17,6.73,-0.05,23.74
26161,0.2109,-0.0535,0.9016,-6.23,8.0,-0.02,23.79
26171,0.2351,-0.0498,0.8857,-6.21,10.26,0.0,23.77
26181,0.2622,-0.0505,0.8525,-6.21,6.17,-0.02,23.76
26191,0.2175,-0.0499,0.8909,-6.18,7.18,-0.09,23.76
26201,0.2247,-0.0461,0.8872,-6.21,9.5,-0.08,23.78
26211,0.2324,-0.046,0.8901,-6.12,9.69,-0.08,23.77
26221,0.2482,-0.0424,0.877,-6.08,5.42,-0.23,23.79
26231,0.2145,-0.0458,0.9028,-6.14,6.87,-0.2,23.76
26241,0.254,-0.0475,0.8555,-6.09,8.98,-0.15,23.76
26251,0.2572,-0.0522,0.8552,-5.98,4.52,-0.08,23.77
26261,0.2065,-0.0475,0.913,-6.17,8.37,-0.14,23.77
26271,0.2299,-0.0416,0.8864,-6.29,9.95,-0.02,23.77
26281,0.2682,-0.0472,0.853,-6.08,6.27,-0.09,23.77
26291,0.2623,-0.0494,0.8571,-6.09,5.36,-0.11,23.77
26301,0.205,-0.0454,0.9105,-6.09,10.41,-0.15,23.76
26311,0.2723,-0.0461,0.8479,-6.06,7.1,-0.05,23.76
26321,0.2667,-0.0428,0.8567,-6.11,4.92,-0.05,23.76
26331,0.2103,-0.0438,0.9069,-6.23,7.71,-0.09,23.78
26341,0.2317,-0.041,0.8851,-6.21,10.08,0.03,23.78
26351,0.2692,-0.0452,0.8507,-6.15,5.95,0.02,23.78
26361,0.2238,-0.0491,0.897,-6.21,5.98,-0.11,23.77
26371,0.2025,-0.052,0.9142,-6.24,10.31,-0.02,23.77
26381,0.2651,-0.0513,0.8467,-6.09,7.57,-0.06,23.78
26391,0.2334,-0.0543,0.8832,-6.06,5.19,0.0,23.77
26401,0.2052,-0.0538,0.9154,-6.17,9.98,0.03,23.79
26411,0.2579,-0.05,0.8635,-6.12,8.21,0.0,23.77
26421,0.2506,-0.049,0.8745,-6.0,5.47,-0.03,23.79
26431,0.2118,-0.0496,0.9032,-6.08,8.26,0.06,23.77
26442,0.2086,-0.052,0.9067,-6.17,9.77,0.0,23.78
26452,0.2605,-0.0507,0.8567,-6.18,8.29,-0.02,23.76
26462,0.2483,-0.0498,0.8666,-6.08,4.67,-0.05,23.79
26472,0.1963,-0.0453,0.9187,-6.17,9.92,-0.05,23.77
26483,0.2196,-0.0439,0.9001,-6.14,10.61,0.06,23.77
26493,0.2758,-0.0459,0.8442,-6.09,5.79,-0.08,23.78
26503,0.207,-0.0348,0.8799,-6.38,6.73,-0.11,23.77
26513,0.2434,-0.042,0.9148,-5.94,11.24,-0.18,23.79
26523,0.2346,-0.0654,0.8473,-6.12,2.93,-0.15,23.77
26533,0.208,-0.0393,0.8975,-6.09,10.61,0.0,23.76
26543,0.2296,-0.0475,0.8799,-6.26,10.0,-0.06,23.8
26553,0.2354,-0.0638,0.8647,-6.26,6.29,-0.02,23.77
26563,0.2412,-0.0464,0.9006,-5.97,7.71,0.06,23.78
26573,0.1658,-0.0691,0.907,-6.08,10.5,-0.05,23.78
26583,0.2476,-0.0518,0.8732,-5.98,8.99,0.02,23.79
26593,0.2438,-0.0458,0.8634,-5.91,6.84,-0.02,23.79
26603,0.2087,-0.0476,0.9174,-6.18,8.26,-0.05,23.77
26613,0.2363,-0.0361,0.8816,-6.14,9.74,-0.02,23.75
26623,0.2485,-0.0365,0.8666,-6.23,6.05,-0.03,23.78
26633,0.2186,-0.0466,0.9093,-6.26,8.24,-0.05,23.78
26643,0.2327,-0.0424,0.8883,-6.21,10.38,-0.06,23.78
26653,0.2589,-0.0493,0.8522,-6.17,6.27,-0.18,23.77
26663,0.2229,-0.0573,0.8749,-6.02,6.5,-0.12,23.76
26673,0.2166,-0.0482,0.8911,-6.09,8.87,-0.12,23.79
26683,0.24,-0.0508,0.8799,-6.03,7.91,-0.11,23.8
26693,0.2428,-0.0483,0.8768,-6.15,6.96,-0.06,23.77
26703,0.2466,-0.0551,0.8884,-5.92,8.09,-0.02,23.78
26713,0.2152,-0.0468,0.8978,-6.35,6.81,-0.09,23.76
26723,0.2491,-0.0509,0.892,-6.11,9.91,0.02,23.79
26733,0.2307,-0.058,0.876,-6.38,5.47,0.0,23.8
26743,0.2321,-0.067,0.9049,-6.02,11.51,0.09,23.77
26753,0.2556,-0.0488,0.8666,-6.12,5.15,0.0,23.79
26763,0.2026,-0.0547,0.9004,-5.82,10.34,-0.08,23.77
26773,0.2653,-0.0347,0.853,-6.06,6.27,0.0,23.79
26783,0.2164,-0.0433,0.9003,-6.2,8.14,-0.09,23.82
26793,0.2469,-0.0358,0.8563,-6.11,7.65,-0.15,23.79
26803,0.2103,-0.037,0.8838,-6.21,6.47,-0.23,23.78
26813,0.2208,-0.0457,0.8783,-6.12,8.89,-0.09,23.79
26823,0.2435,-0.0497,0.892,-6.26,7.39,-0.11,23.77
26833,0.2228,-0.0519,0.8796,-6.21,7.77,-0.14,23.79
26843,0.2234,-0.0503,0.8827,-6.03,8.26,-0.08,23.77
26853,0.243,-0.0511,0.8834,-6.08,7.91,0.02,23.77
26863,0.245,-0.0477,0.8914,-6.34,7.19,-0.02,23.76
26873,0.2286,-0.0387,0.8994,-6.2,8.52,-0.05,23.79
26883,0.2438,-0.0405,0.8734,-6.27,7.79,0.06,23.77
26893,0.228,-0.0508,0.895,-6.21,8.03,0.02,23.79
26903,0.2365,-0.0471,0.8894,-6.14,8.63,0.05,23.79
26913,0.2335,-0.0426,0.8661,-6.02,7.82,-0.03,23.78
26923,0.225,-0.0431,0.8848,-6.03,8.32,-0.05,23.76
26933,0.2363,-0.0479,0.8682,-6.11,7.94,-0.09,23.79
26943,0.2219,-0.0514,0.8929,-6.09,7.85,-0.11,23.77
26953,0.2388,-0.0366,0.8608,-6.09,7.66,-0.09,23.79
26963,0.2527,-0.0436,0.8566,-6.18,5.66,-0.06,23.81
26973,0.2144,-0.0565,0.9089,-6.2,9.39,0.05,23.75
26983,0.2454,-0.0463,0.8762,-6.18,8.09,-0.05,23.79
26993,0.2412,-0.0482,0.8824,-6.23,6.66,-0.08,23.78
27003,0.2346,-0.0479,0.8936,-6.12,8.27,-0.06,23.77
27013,0.2437,-0.0555,0.8853,-6.24,7.31,-0.15,23.79
27023,0.2279,-0.05,0.8983,-6.14,8.14,-0.05,23.77
27033,0.2357,-0.0485,0.8824,-6.06,8.72,-0.05,23.79
27043,0.2452,-0.0499,0.8801,-6.2,7.24,-0.05,23.78
27053,0.2316,-0.0521,0.8932,-6.14,7.83,-0.08,23.76
27063,0.2367,-0.049,0.8816,-6.09,8.55,-0.08,23.77
27073,0.2421,-0.0493,0.8669,-6.06,7.31,-0.02,23.77
27083,0.2274,-0.05,0.8783,-6.12,7.51,0.0,23.77
27093,0.2297,-0.0526,0.8846,-6.0,8.15,-0.09,23.77
27103,0.2394,-0.0453,0.8689,-6.09,7.27,-0.09,23.77
27113,0.2241,-0.0471,0.8823,-6.12,8.08,0.02,23.76
27124,0.2322,-0.0554,0.8785,-6.12,8.41,0.03,23.79
27134,0.2394,-0.0509,0.8698,-6.17,7.77,-0.02,23.78
27144,0.2262,-0.0504,0.8824,-6.15,7.57,-0.08,23.77
27154,0.2247,-0.0461,0.884,-6.12,8.78,-0.03,23.76
27164,0.2426,-0.0454,0.8766,-6.2,7.63,0.06,23.78
27174,0.2358,-0.0444,0.8912,-6.21,7.21,-0.05,23.77
27184,0.2305,-0.0388,0.8942,-6.12,8.27,-0.12,23.78
27194,0.2482,-0.0468,0.8878,-6.23,7.91,-0.09,23.78
27204,0.2429,-0.0537,0.8885,-6.23,6.63,-0.08,23.78
27215,0.2272,-0.0479,0.9003,-6.29,6.78,-0.15,23.77
27225,0.22,-0.0591,0.9011,-6.24,9.79,0.02,23.79
27235,0.2535,-0.0549,0.8672,-6.15,7.6,-0.08,23.8
27245,0.2421,-0.0573,0.8794,-6.11,7.54,-0.05,23.75
27255,0.2375,-0.0494,0.8687,-6.14,7.4,-0.03,23.77
27265,0.2301,-0.0486,0.8646,-6.03,8.02,0.0,23.77
27276,0.2455,-0.0497,0.8571,-6.17,7.6,0.09,23.78
27287,0.238,-0.0446,0.8733,-6.12,7.1,-0.15,23.78
27297,0.2246,-0.041,0.8862,-6.17,8.05,-0.03,23.77
27307,0.2402,-0.041,0.8672,-6.14,7.89,-0.08,23.81
27317,0.2371,-0.0453,0.8782,-6.06,7.11,-0.06,23.78
27327,0.2286,-0.043,0.8912,-6.15,7.27,-0.06,23.79
27337,0.2324,-0.0522,0.8801,-6.11,8.61,-0.14,23.78
27347,0.2405,-0.0562,0.8757,-6.11,8.06,0.03,23.78
