t_ms,accel_x_g,accel_y_g,accel_z_g,gyro_x_dps,gyro_y_dps,gyro_z_dps,imu_temp_c
3354,0.3438,-0.0106,0.858,-6.12,7.83,0.02,22.61
3365,0.3414,-0.0085,0.8613,-6.18,7.77,-0.06,22.59
3375,0.3418,-0.01,0.8606,-6.23,7.79,0.02,22.59
3385,0.3396,-0.011,0.858,-6.11,7.74,0.06,22.6
3395,0.3412,-0.0087,0.8552,-6.14,7.76,0.03,22.6
3405,0.3442,-0.0095,0.8591,-6.2,7.73,0.05,22.6
3415,0.3442,-0.0093,0.8575,-6.11,7.77,0.0,22.59
3425,0.3414,-0.0098,0.8591,-6.09,7.69,0.02,22.61
3435,0.3409,-0.0107,0.8546,-6.12,7.79,0.05,22.6
3445,0.3419,-0.0067,0.8618,-6.15,7.8,-0.08,22.59
3455,0.3405,-0.0106,0.855,-6.14,7.8,-0.03,22.58
3465,0.3417,-0.0111,0.8589,-6.23,7.85,0.0,22.61
3475,0.3397,-0.0098,0.8605,-6.09,7.8,-0.02,22.6
3485,0.3396,-0.0085,0.8599,-6.11,7.77,0.03,22.6
3495,0.3406,-0.0092,0.8589,-6.14,7.82,-0.12,22.61
3505,0.3435,-0.0114,0.8618,-6.12,7.69,-0.03,22.61
3515,0.344,-0.0073,0.8635,-6.23,7.68,-0.03,22.6
3525,0.3395,-0.0076,0.8624,-6.2,7.73,-0.03,22.61
3535,0.3398,-0.0095,0.8627,-6.17,7.77,-0.06,22.6
3545,0.3427,-0.0089,0.8567,-6.12,7.77,0.02,22.6
3555,0.3431,-0.0109,0.8577,-6.15,7.74,0.03,22.62
3565,0.3389,-0.0095,0.8568,-6.17,7.69,0.02,22.6
3575,0.3416,-0.0074,0.8605,-6.15,7.59,0.05,22.62
3585,0.3402,-0.0095,0.8578,-6.09,7.76,-0.09,22.61
3595,0.3439,-0.0098,0.863,-6.26,7.86,-0.02,22.63
3605,0.3428,-0.0101,0.8593,-6.11,7.77,0.0,22.64
3615,0.3433,-0.0112,0.8612,-6.09,7.69,-0.06,22.62
3625,0.3414,-0.0094,0.8556,-6.12,7.74,-0.02,22.62
3635,0.3407,-0.0099,0.8574,-6.14,7.82,-0.05,22.62
3645,0.3435,-0.0118,0.8564,-6.09,7.83,-0.06,22.62
3655,0.3408,-0.0092,0.8579,-6.09,7.77,0.08,22.61
3665,0.3428,-0.0099,0.8601,-6.14,7.76,0.05,22.62
3675,0.3435,-0.0103,0.8623,-6.18,7.66,-0.03,22.63
3685,0.3411,-0.0082,0.8622,-6.14,7.82,0.03,22.62
3695,0.3441,-0.0105,0.8616,-6.11,7.71,-0.05,22.61
3705,0.3427,-0.0123,0.8612,-6.21,7.68,-0.06,22.64
3715,0.3401,-0.0109,0.8616,-6.15,7.74,-0.08,22.63
3725,0.3427,-0.0093,0.861,-6.17,7.8,-0.05,22.64
3735,0.3413,-0.011,0.8605,-6.14,7.79,0.02,22.62
3745,0.3417,-0.0125,0.8599,-6.12,7.69,0.0,22.64
3755,0.3447,-0.0083,0.8564,-6.23,7.69,-0.03,22.64
3765,0.3405,-0.011,0.8615,-6.17,7.74,-0.08,22.62
3775,0.342,-0.0078,0.8588,-6.15,7.77,0.05,22.64
3785,0.3453,-0.0083,0.8607,-6.29,7.82,-0.06,22.63
3795,0.3434,-0.0089,0.8583,-6.18,7.79,-0.05,22.63
3805,0.3417,-0.0103,0.8585,-6.15,7.74,-0.02,22.63
3815,0.3385,-0.0103,0.8632,-6.14,7.82,-0.02,22.64
3825,0.3429,-0.0087,0.8574,-6.14,7.74,-0.08,22.63
3835,0.342,-0.0092,0.8584,-6.06,7.71,-0.05,22.63
3845,0.3417,-0.0078,0.8597,-6.18,7.73,-0.03,22.62
3855,0.3391,-0.009,0.8651,-6.11,7.71,-0.02,22.64
3865,0.342,-0.0087,0.8593,-6.14,7.65,-0.06,22.63
3875,0.3444,-0.011,0.861,-6.11,7.66,-0.08,22.66
3885,0.3423,-0.0081,0.8584,-6.24,7.77,-0.05,22.62
3895,0.3418,-0.014,0.8619,-6.21,7.73,-0.05,22.63
3905,0.3406,-0.0077,0.8561,-6.21,7.76,-0.02,22.64
3915,0.3427,-0.0104,0.8591,-6.17,7.69,0.02,22.62
3925,0.3394,-0.0084,0.8602,-6.17,7.77,-0.03,22.63
3935,0.3436,-0.009,0.858,-6.18,7.74,-0.03,22.63
3945,0.3409,-0.0101,0.8584,-6.06,7.73,-0.05,22.66
3955,0.3425,-0.0081,0.8606,-6.21,7.68,0.0,22.64
3965,0.3416,-0.0087,0.8585,-6.24,7.71,0.02,22.63
3975,0.3402,-0.0111,0.86,-6.15,7.8,-0.05,22.61
3985,0.3427,-0.0088,0.856,-6.12,7.77,0.0,22.63
3995,0.3423,-0.0127,0.8549,-6.17,7.76,-0.08,22.64
4005,0.3406,-0.0105,0.856,-6.17,7.69,0.02,22.62
4015,0.3433,-0.0096,0.8595,-6.06,7.71,-0.02,22.64
4025,0.3401,-0.0125,0.8561,-6.11,7.86,-0.03,22.65
4035,0.3411,-0.0096,0.86,-6.06,7.68,-0.11,22.65
4045,0.3413,-0.0111,0.8605,-6.11,7.8,0.02,22.64
4055,0.3408,-0.0083,0.8612,-6.18,7.73,0.05,22.67
4065,0.344,-0.011,0.8582,-6.23,7.76,-0.05,22.67
4075,0.3434,-0.0087,0.8597,-6.18,7.74,-0.05,22.67
4085,0.3408,-0.0087,0.8628,-6.18,7.82,-0.08,22.65
4095,0.343,-0.0127,0.8604,-6.24,7.8,-0.06,22.66
4105,0.3414,-0.0094,0.8593,-6.12,7.68,-0.12,22.64
4115,0.3433,-0.0101,0.8589,-6.15,7.73,0.0,22.65
4125,0.3429,-0.0085,0.8584,-6.08,7.76,-0.02,22.64
4135,0.3395,-0.0087,0.8618,-6.18,7.74,-0.05,22.65
4145,0.3409,-0.0089,0.8604,-6.15,7.79,-0.03,22.65
4155,0.34,-0.0088,0.8569,-6.11,7.71,-0.14,22.66
4165,0.3418,-0.0084,0.8604,-6.2,7.76,-0.03,22.64
4175,0.3381,-0.0106,0.858,-6.14,7.74,-0.12,22.65
4185,0.3401,-0.0114,0.8583,-6.17,7.71,0.06,22.64
4195,0.3444,-0.0103,0.8605,-6.14,7.74,0.08,22.66
4205,0.3429,-0.0115,0.8585,-6.21,7.82,0.0,22.64
4215,0.3398,-0.0112,0.8606,-6.2,7.73,-0.03,22.65
4225,0.338,-0.0114,0.8635,-6.14,7.74,-0.02,22.66
4235,0.3406,-0.0057,0.8657,-6.12,7.8,-0.05,22.65
4245,0.3411,-0.0092,0.8616,-6.18,7.8,0.0,22.65
4255,0.343,-0.0078,0.8611,-6.12,7.77,-0.06,22.65
4265,0.3441,-0.0072,0.8601,-6.15,7.65,-0.02,22.67
4275,0.3396,-0.0095,0.8621,-6.2,7.79,0.03,22.68
4285,0.3405,-0.0072,0.8589,-6.06,7.73,-0.09,22.69
4295,0.3397,-0.0077,0.8607,-6.18,7.69,-0.05,22.67
4305,0.3411,-0.0107,0.8625,-6.15,7.76,-0.05,22.67
4315,0.3411,-0.0109,0.8569,-6.12,7.77,-0.02,22.67
4325,0.343,-0.0109,0.8601,-6.2,7.82,0.0,22.67
4335,0.3386,-0.0099,0.8575,-6.23,7.83,-0.02,22.67
4345,0.3408,-0.011,0.8605,-6.26,7.65,-0.05,22.65
4356,0.3462,-0.009,0.8594,-6.18,7.69,0.52,22.67
4366,0.3391,-0.0082,0.859,-6.21,7.68,-0.02,22.67
4376,0.3363,-0.0066,0.8593,-6.12,7.83,-0.05,22.68
4386,0.3369,-0.009,0.8618,-6.2,7.86,0.0,22.67
4396,0.3431,-0.0082,0.8622,-6.14,7.88,0.0,22.67
4406,0.3423,-0.0096,0.8566,-6.08,7.73,0.03,22.68
4417,0.3416,-0.0096,0.8606,-6.15,7.8,0.06,22.66
4427,0.3428,-0.0074,0.8574,-6.21,7.73,-0.02,22.67
4437,0.3413,-0.0098,0.8601,-6.2,7.76,-0.02,22.65
4447,0.3389,-0.0095,0.8591,-6.15,7.71,-0.03,22.7
4457,0.3436,-0.0111,0.8584,-6.18,7.79,-0.02,22.69
4467,0.3412,-0.0081,0.8595,-6.18,7.73,-0.11,22.71
4477,0.3413,-0.0104,0.8567,-6.17,7.71,-0.02,22.66
4487,0.3398,-0.0118,0.8569,-6.24,7.73,0.0,22.67
4497,0.3436,-0.0089,0.8612,-6.23,7.73,0.0,22.7
4507,0.3405,-0.0095,0.8546,-6.14,7.85,-0.02,22.67
4517,0.3409,-0.0076,0.8556,-6.12,7.73,-0.02,22.68
4527,0.3413,-0.0084,0.8606,-6.15,7.76,-0.08,22.68
4537,0.3386,-0.0085,0.8579,-6.12,7.76,-0.09,22.67
4547,0.3405,-0.0098,0.8564,-6.18,7.76,-0.09,22.67
4557,0.3417,-0.0092,0.8608,-6.09,7.76,0.02,22.68
4567,0.3418,-0.0074,0.8594,-6.12,7.71,-0.02,22.68
4577,0.3422,-0.0079,0.8574,-6.11,7.79,-0.06,22.68
4587,0.343,-0.0074,0.8583,-6.17,7.77,0.0,22.66
4597,0.34,-0.0101,0.8591,-6.2,7.82,0.0,22.67
4607,0.3406,-0.0088,0.8589,-6.09,7.8,-0.02,22.69
4617,0.3431,-0.0093,0.8566,-6.2,7.71,-0.06,22.68
4627,0.3406,-0.0103,0.8641,-6.18,7.74,0.0,22.68
4637,0.3395,-0.011,0.8567,-6.2,7.73,-0.11,22.69
4647,0.3423,-0.0089,0.8591,-6.21,7.8,0.02,22.68
4657,0.3413,-0.0083,0.8617,-6.26,7.82,-0.03,22.7
4667,0.34,-0.011,0.8607,-6.18,7.76,-0.02,22.69
4677,0.3434,-0.0105,0.8643,-6.2,7.74,0.09,22.69
4687,0.3407,-0.0068,0.854,-6.15,7.74,-0.03,22.69
4697,0.3413,-0.006,0.8624,-6.12,7.76,-0.05,22.7
4707,0.3423,-0.0084,0.8611,-6.21,7.65,0.05,22.69
4717,0.3416,-0.0126,0.8605,-6.02,7.69,-0.02,22.67
4727,0.3422,-0.0137,0.8582,-6.12,7.79,-0.03,22.66
4737,0.3407,-0.0106,0.8584,-6.14,7.73,-0.05,22.68
4747,0.3417,-0.0105,0.8632,-6.12,7.76,-0.02,22.7
4757,0.3424,-0.0081,0.8588,-6.11,7.82,0.0,22.69
4767,0.3439,-0.0098,0.8639,-6.2,7.71,-0.06,22.72
4777,0.3409,-0.0109,0.8615,-6.2,7.69,0.02,22.72
4787,0.3414,-0.0105,0.8613,-6.14,7.71,-0.09,22.7
4797,0.3402,-0.0092,0.8636,-6.18,7.79,0.02,22.69
4807,0.3434,-0.0094,0.8584,-6.17,7.73,0.02,22.68
4817,0.3419,-0.0104,0.86,-6.15,7.76,-0.09,22.71
4827,0.3408,-0.009,0.856,-6.23,7.79,-0.03,22.7
4837,0.3433,-0.0099,0.8577,-6.21,7.77,0.08,22.72
4847,0.3412,-0.0085,0.8563,-6.2,7.79,-0.06,22.72
4857,0.34,-0.0078,0.86,-6.21,7.74,0.02,22.69
4867,0.3418,-0.01,0.8632,-6.09,7.68,0.06,22.71
4877,0.3397,-0.0095,0.8613,-6.12,7.74,-0.03,22.7
4887,0.3424,-0.0082,0.8619,-6.12,7.79,-0.03,22.69
4897,0.3451,-0.0082,0.8584,-6.15,7.74,-0.06,22.69
4907,0.3401,-0.0127,0.8625,-6.09,7.8,-0.06,22.71
4917,0.3398,-0.0105,0.859,-6.12,7.73,0.05,22.72
4927,0.3416,-0.0101,0.8594,-6.08,7.83,-0.02,22.69
4937,0.3411,-0.0084,0.86,-6.18,7.76,-0.05,22.7
4947,0.3396,-0.0089,0.8582,-6.15,7.77,-0.06,22.71
4957,0.3408,-0.0076,0.8594,-6.2,7.74,-0.03,22.7
4967,0.3405,-0.0103,0.8578,-6.21,7.85,0.12,22.68
4977,0.3428,-0.0073,0.8582,-6.17,7.76,-0.06,22.69
4987,0.342,-0.011,0.8602,-6.14,7.65,-0.06,22.71
4997,0.3413,-0.0092,0.8604,-6.18,7.74,-0.05,22.7
5007,0.3391,-0.0074,0.8597,-6.14,7.8,-0.05,22.73
5017,0.3417,-0.0093,0.8577,-6.18,7.77,-0.06,22.73
5027,0.3413,-0.0082,0.8597,-6.2,7.68,-0.05,22.72
5037,0.3423,-0.009,0.8586,-6.09,7.73,0.02,22.71
5047,0.3414,-0.0098,0.8574,-6.15,7.77,-0.06,22.71
5057,0.3459,-0.0089,0.8577,-6.17,7.74,-0.08,22.7
5067,0.3418,-0.0106,0.8585,-6.14,7.76,-0.08,22.69
5077,0.3444,-0.0122,0.8593,-6.11,7.76,-0.02,22.69
5087,0.3425,-0.0098,0.8547,-6.14,7.74,-0.02,22.71
5097,0.3424,-0.0094,0.86,-6.32,7.77,-0.02,22.69
5107,0.3429,-0.0116,0.8619,-6.02,7.65,0.0,22.72
5117,0.3412,-0.009,0.8623,-6.32,7.69,-0.03,22.71
5127,0.3427,-0.0096,0.8604,-6.17,7.76,0.06,22.72
5137,0.3428,-0.0093,0.8607,-6.21,7.71,-0.11,22.7
5147,0.3438,-0.0083,0.8578,-6.21,7.68,-0.08,22.71
5157,0.3398,-0.0079,0.8591,-6.05,7.73,0.0,22.71
5167,0.3412,-0.0112,0.8605,-6.08,7.85,-0.03,22.72
5177,0.3445,-0.0081,0.8582,-6.05,7.76,0.05,22.68
5187,0.3416,-0.0083,0.86,-6.06,7.77,0.0,22.72
5197,0.3427,-0.0092,0.8625,-6.21,7.77,0.05,22.72
5207,0.3389,-0.0104,0.8575,-6.26,7.71,-0.03,22.7
5217,0.3422,-0.0094,0.8643,-6.12,7.73,0.0,22.72
5227,0.3412,-0.0104,0.859,-6.14,7.76,-0.03,22.73
5237,0.3433,-0.0093,0.8625,-6.12,7.77,-0.03,22.71
5247,0.3397,-0.0076,0.8584,-6.09,7.73,-0.06,22.74
5257,0.3401,-0.0095,0.86,-6.14,7.71,0.0,22.73
5267,0.3436,-0.0125,0.8571,-6.18,7.73,-0.03,22.72
5277,0.3416,-0.0099,0.864,-6.12,7.76,-0.02,22.75
5287,0.3433,-0.0089,0.8615,-6.18,7.8,-0.05,22.73
5297,0.3409,-0.0085,0.861,-6.11,7.79,0.0,22.73
5307,0.3427,-0.0095,0.8618,-6.18,7.77,-0.08,22.72
5317,0.3397,-0.0066,0.8636,-6.18,7.74,-0.08,22.72
5327,0.3406,-0.0106,0.8599,-6.18,7.77,-0.08,22.72
5337,0.3384,-0.0088,0.8578,-6.17,7.76,-0.08,22.73
5347,0.3411,-0.0084,0.8572,-6.2,7.73,-0.08,22.73
5357,0.3392,-0.0093,0.8549,-6.18,7.82,-0.03,22.72
5367,0.3427,-0.0122,0.8601,-6.12,7.79,-0.06,22.74
5377,0.3403,-0.01,0.8608,-6.09,7.85,-0.11,22.72
5387,0.3412,-0.0096,0.8594,-6.29,7.8,-0.05,22.72
5397,0.34,-0.0103,0.8585,-6.14,7.69,-0.06,22.72
5407,0.3394,-0.0094,0.8601,-6.11,7.82,0.0,22.72
5417,0.3398,-0.0067,0.8588,-6.26,7.73,-0.05,22.72
5427,0.3405,-0.0099,0.8589,-6.08,7.76,-0.09,22.73
5437,0.3431,-0.0088,0.8595,-6.14,7.77,0.03,22.73
5447,0.339,-0.0099,0.861,-6.15,7.73,0.05,22.72
5457,0.3414,-0.0112,0.8571,-6.08,7.82,-0.03,22.72
5467,0.3387,-0.0117,0.856,-6.09,7.69,-0.08,22.73
5477,0.3407,-0.0104,0.859,-6.15,7.77,0.03,22.74
5487,0.3447,-0.0111,0.8593,-6.11,7.73,-0.05,22.74
5497,0.3428,-0.0126,0.8638,-6.17,7.73,-0.03,22.73
5507,0.3423,-0.0096,0.8593,-6.24,7.74,-0.06,22.73
5517,0.3418,-0.01,0.8606,-6.15,7.68,-0.03,22.74
5527,0.342,-0.0087,0.8585,-6.15,7.77,-0.06,22.73
5537,0.3429,-0.0088,0.8634,-6.2,7.76,-0.03,22.71
5547,0.3433,-0.0081,0.8593,-6.23,7.79,-0.06,22.7
5557,0.3425,-0.0068,0.8602,-6.23,7.69,-0.02,22.74
5567,0.3395,-0.0065,0.8622,-6.17,7.73,0.0,22.74
5577,0.3413,-0.0095,0.8594,-6.23,7.63,-0.02,22.74
5587,0.3417,-0.0114,0.856,-6.17,7.77,0.0,22.74
5597,0.343,-0.0095,0.8569,-6.18,7.69,0.03,22.76
5607,0.3417,-0.0084,0.8613,-6.26,7.76,0.03,22.74
5617,0.3419,-0.0095,0.8623,-6.21,7.82,0.06,22.73
5627,0.3412,-0.0073,0.8591,-6.23,7.79,0.03,22.72
5637,0.3414,-0.0107,0.861,-6.12,7.79,-0.02,22.73
5647,0.3413,-0.0112,0.8618,-6.17,7.73,0.02,22.72
5657,0.3386,-0.0095,0.8595,-6.12,7.8,0.02,22.75
5667,0.3427,-0.0095,0.8617,-6.06,7.8,-0.08,22.74
5677,0.3412,-0.0072,0.855,-6.15,7.8,-0.06,22.76
5687,0.3412,-0.0107,0.8583,-6.17,7.73,-0.05,22.74
5697,0.3446,-0.01,0.8586,-6.11,7.77,-0.09,22.74
5707,0.3453,-0.0087,0.8619,-6.08,7.73,-0.02,22.74
5717,0.3398,-0.0111,0.8607,-6.18,7.76,-0.08,22.73
5727,0.3378,-0.0117,0.8568,-6.15,7.76,0.0,22.73
5737,0.3395,-0.0104,0.8604,-6.2,7.77,-0.05,22.74
5747,0.3419,-0.0103,0.8611,-6.17,7.73,-0.09,22.74
5757,0.34,-0.0095,0.8611,-6.11,7.63,-0.06,22.76
5767,0.3423,-0.0103,0.8596,-6.23,7.85,0.02,22.74
5777,0.3414,-0.0112,0.8597,-6.11,7.77,-0.06,22.75
5787,0.3402,-0.0078,0.8572,-6.29,7.85,0.02,22.75
5797,0.3409,-0.0081,0.8596,-6.15,7.79,-0.08,22.76
5807,0.3396,-0.0116,0.8613,-6.18,7.74,-0.08,22.74
5817,0.3435,-0.0083,0.8599,-6.17,7.79,0.02,22.74
5827,0.3406,-0.0117,0.8557,-6.12,7.69,0.05,22.75
5837,0.3438,-0.0114,0.8593,-6.17,7.76,0.0,22.74
5847,0.3419,-0.0077,0.8571,-6.21,7.73,0.0,22.73
5857,0.3405,-0.0074,0.8577,-6.27,7.74,0.02,22.73
5867,0.3403,-0.0081,0.8599,-6.14,7.71,0.02,22.75
5877,0.3391,-0.0068,0.8616,-6.17,7.79,-0.08,22.78
5887,0.3402,-0.0079,0.8583,-6.23,7.76,-0.03,22.76
5897,0.3422,-0.0093,0.8602,-6.21,7.71,0.03,22.75
5907,0.3416,-0.0096,0.858,-6.18,7.73,-0.05,22.74
5917,0.3423,-0.01,0.8595,-6.18,7.74,-0.02,22.77
5927,0.3385,-0.009,0.8596,-6.14,7.74,0.0,22.77
5937,0.3417,-0.0109,0.8549,-6.21,7.76,-0.14,22.76
5947,0.3411,-0.0093,0.8594,-6.08,7.68,-0.06,22.75
5957,0.3402,-0.0095,0.8575,-6.21,7.69,0.0,22.74
5967,0.3435,-0.011,0.8562,-6.17,7.74,0.03,22.77
5977,0.3436,-0.0083,0.8584,-6.15,7.8,-0.03,22.77
5987,0.343,-0.01,0.8575,-6.17,7.68,-0.02,22.77
5997,0.3419,-0.0072,0.861,-6.15,7.79,-0.03,22.77
6007,0.3406,-0.0088,0.8604,-6.14,7.8,0.05,22.76
6017,0.3413,-0.0095,0.8608,-6.15,7.82,-0.02,22.74
6027,0.3412,-0.0129,0.8583,-6.12,7.73,-0.11,22.77
6037,0.3413,-0.0087,0.8589,-6.03,7.73,-0.06,22.76
6047,0.3411,-0.0105,0.8607,-6.18,7.71,-0.06,22.76
6057,0.342,-0.0085,0.8591,-6.11,7.77,-0.05,22.76
6067,0.3406,-0.0078,0.8586,-6.11,7.73,0.03,22.77
6077,0.3402,-0.0104,0.861,-6.11,7.71,-0.02,22.76
6087,0.3427,-0.0106,0.8582,-6.14,7.71,-0.09,22.76
6097,0.3423,-0.011,0.8566,-6.21,7.74,-0.05,22.75
6107,0.3403,-0.0095,0.8586,-6.15,7.79,0.0,22.78
6117,0.3446,-0.0092,0.8608,-6.2,7.68,-0.02,22.77
6127,0.3398,-0.0132,0.8608,-6.2,7.74,0.03,22.76
6137,0.3427,-0.0123,0.8633,-6.14,7.69,-0.12,22.77
6147,0.3386,-0.0112,0.8608,-6.27,7.71,-0.05,22.77
6157,0.3435,-0.0104,0.863,-6.15,7.71,-0.05,22.76
6167,0.3413,-0.0115,0.8602,-6.2,7.77,-0.03,22.79
6177,0.3389,-0.0092,0.856,-6.23,7.74,-0.11,22.77
6187,0.3402,-0.0079,0.8577,-6.15,7.77,-0.03,22.76
6197,0.3407,-0.0107,0.8602,-6.18,7.73,-0.08,22.78
6207,0.3395,-0.0095,0.8627,-6.21,7.73,-0.14,22.77
6217,0.3397,-0.0137,0.8615,-6.21,7.8,0.02,22.77
6227,0.3406,-0.0101,0.859,-6.2,7.74,0.05,22.79
6237,0.3427,-0.0098,0.8584,-6.17,7.71,0.03,22.77
6247,0.3419,-0.0104,0.8613,-6.17,7.82,-0.06,22.75
6257,0.342,-0.0105,0.8564,-6.27,7.79,-0.03,22.77
6267,0.3434,-0.009,0.8571,-6.15,7.69,-0.03,22.79
6277,0.3434,-0.0105,0.8591,-6.15,7.73,0.02,22.74
6287,0.3413,-0.011,0.8616,-6.21,7.73,0.06,22.75
6297,0.3414,-0.0089,0.8601,-6.23,7.69,0.03,22.76
6307,0.3385,-0.0094,0.8612,-6.21,7.8,0.05,22.75
6317,0.3425,-0.0074,0.8591,-6.09,7.69,-0.03,22.79
6327,0.3418,-0.0106,0.8619,-6.18,7.74,-0.03,22.8
6337,0.3407,-0.0081,0.8618,-6.21,7.77,-0.02,22.78
6347,0.3392,-0.0077,0.8594,-6.12,7.76,-0.05,22.78
6357,0.3381,-0.0101,0.8597,-6.14,7.65,-0.08,22.76
6367,0.3417,-0.0067,0.86,-6.14,7.73,0.02,22.75
6377,0.3403,-0.0115,0.8585,-6.21,7.76,0.08,22.76
6387,0.3402,-0.0081,0.8596,-6.15,7.73,-0.03,22.77
6397,0.3405,-0.0121,0.8605,-6.14,7.66,0.02,22.78
6407,0.342,-0.0084,0.8615,-6.15,7.73,0.02,22.75
6417,0.3424,-0.0099,0.861,-6.14,7.76,0.0,22.79
6427,0.3409,-0.0111,0.8577,-6.18,7.76,-0.09,22.76
6437,0.3433,-0.0129,0.8589,-6.11,7.69,-0.09,22.77
6447,0.3434,-0.0095,0.8577,-6.2,7.79,-0.08,22.79
6457,0.3453,-0.0082,0.8561,-6.21,7.57,0.02,22.77
6467,0.3427,-0.0078,0.8602,-6.2,7.73,0.0,22.78
6477,0.3417,-0.0101,0.8599,-6.18,7.73,-0.06,22.76
6487,0.3401,-0.0117,0.8639,-6.2,7.86,-0.05,22.79
6497,0.3409,-0.0103,0.8575,-6.14,7.8,-0.05,22.78
6507,0.3397,-0.009,0.8628,-6.24,7.74,-0.05,22.77
6517,0.3413,-0.0094,0.8556,-6.29,7.74,-0.03,22.78
6527,0.3418,-0.0128,0.8588,-6.17,7.71,0.03,22.81
6537,0.3427,-0.0107,0.8623,-6.11,7.74,-0.05,22.76
6547,0.3414,-0.0103,0.8601,-6.24,7.85,0.02,22.79
6557,0.3434,-0.0083,0.8636,-6.12,7.76,-0.06,22.76
6567,0.3394,-0.0123,0.8604,-6.21,7.71,0.02,22.8
6577,0.3396,-0.0092,0.8579,-6.26,7.76,-0.06,22.78
6587,0.3405,-0.0082,0.8594,-6.18,7.77,-0.08,22.79
6597,0.3448,-0.0095,0.8585,-6.12,7.77,-0.06,22.79
6607,0.3403,-0.0092,0.858,-6.18,7.82,-0.06,22.79
6617,0.3429,-0.0105,0.8601,-6.11,7.74,-0.08,22.78
6627,0.3447,-0.0101,0.8589,-6.15,7.82,0.0,22.8
6637,0.3405,-0.0127,0.8623,-6.18,7.83,-0.03,22.77
6647,0.344,-0.0079,0.8607,-6.18,7.69,-0.06,22.79
6657,0.342,-0.0079,0.8602,-6.17,7.79,-0.06,22.79
6667,0.3389,-0.0085,0.8582,-6.17,7.69,-0.11,22.79
6677,0.3395,-0.0115,0.8618,-6.23,7.82,0.02,22.8
6687,0.3416,-0.012,0.8606,-6.14,7.8,0.02,22.8
6697,0.3392,-0.0068,0.86,-6.06,7.8,0.02,22.78
6707,0.3431,-0.0103,0.8625,-6.09,7.69,-0.05,22.77
6717,0.3441,-0.0098,0.8617,-6.14,7.73,-0.11,22.79
6727,0.3419,-0.0089,0.8627,-6.27,7.68,-0.03,22.78
6737,0.3412,-0.0096,0.8594,-6.14,7.74,-0.09,22.77
6747,0.3411,-0.0093,0.8566,-6.23,7.77,-0.06,22.78
6757,0.3419,-0.0107,0.8608,-6.18,7.77,-0.11,22.75
6767,0.3422,-0.0077,0.8595,-6.21,7.79,-0.02,22.76
6777,0.3417,-0.0111,0.8618,-6.18,7.82,-0.02,22.78
6787,0.3418,-0.0095,0.8604,-6.2,7.8,-0.06,22.77
6797,0.3422,-0.0081,0.8597,-6.17,7.71,-0.02,22.79
6807,0.3408,-0.0078,0.8573,-6.27,7.76,0.02,22.79
6817,0.343,-0.0093,0.8596,-6.15,7.82,-0.09,22.78
6827,0.3427,-0.0106,0.8601,-6.15,7.65,-0.02,22.81
6837,0.3428,-0.0118,0.8608,-6.18,7.76,-0.14,22.79
6847,0.3412,-0.0125,0.8602,-6.12,7.73,0.06,22.78
6857,0.342,-0.0107,0.8605,-6.14,7.73,0.03,22.79
6867,0.3416,-0.0081,0.8608,-6.14,7.69,-0.06,22.8
6877,0.3396,-0.0116,0.8619,-6.21,7.77,-0.09,22.79
6887,0.3424,-0.0089,0.8616,-6.14,7.69,0.0,22.8
6897,0.3438,-0.0098,0.8595,-6.12,7.79,-0.03,22.79
6907,0.3409,-0.0103,0.8604,-6.15,7.83,0.05,22.8
6917,0.3395,-0.0092,0.8607,-6.12,7.79,0.06,22.79
6927,0.3391,-0.009,0.8589,-6.11,7.76,-0.02,22.8
6937,0.3431,-0.0098,0.8573,-6.15,7.73,-0.06,22.79
6947,0.3414,-0.0104,0.8572,-6.11,7.69,-0.08,22.84
6957,0.3452,-0.0087,0.859,-6.14,7.74,-0.11,22.8
6967,0.339,-0.0049,0.8629,-6.12,7.77,0.0,22.79
6977,0.3396,-0.0114,0.8575,-6.15,7.69,-0.03,22.78
6987,0.3407,-0.0096,0.8578,-6.14,7.77,0.0,22.79
6997,0.3428,-0.0095,0.8607,-6.14,7.71,-0.08,22.79
7007,0.3407,-0.0115,0.8579,-6.21,7.63,-0.03,22.79
7017,0.3444,-0.0114,0.8542,-6.15,7.8,0.05,22.81
7027,0.3441,-0.0118,0.861,-6.17,7.73,0.0,22.8
7037,0.3411,-0.0105,0.8616,-6.24,7.73,0.02,22.81
7047,0.3408,-0.0088,0.8596,-6.21,7.76,-0.02,22.79
7058,0.3406,-0.01,0.8591,-6.17,7.79,-0.12,22.77
7068,0.342,-0.0106,0.861,-6.2,7.74,0.06,22.79
7078,0.3402,-0.0106,0.8575,-6.24,7.77,-0.05,22.81
7088,0.3412,-0.0112,0.8629,-6.2,7.73,0.02,22.81
7098,0.3385,-0.0095,0.8615,-6.15,7.8,-0.02,22.79
7108,0.3416,-0.0109,0.8608,-6.2,7.74,0.0,22.82
7118,0.3403,-0.0074,0.858,-6.17,7.77,-0.08,22.81
7128,0.345,-0.0098,0.859,-6.21,7.76,-0.06,22.81
7138,0.3398,-0.0078,0.8636,-6.14,7.66,-0.02,22.8
7148,0.3397,-0.0083,0.8594,-6.11,7.79,-0.09,22.81
7158,0.3423,-0.0089,0.86,-6.24,7.83,-0.08,22.78
7168,0.3414,-0.0095,0.8561,-6.18,7.74,-0.02,22.79
7178,0.3397,-0.0123,0.8588,-6.2,7.73,-0.06,22.82
7188,0.3424,-0.0085,0.8585,-6.11,7.79,-0.06,22.82
7198,0.3419,-0.0088,0.8599,-6.14,7.69,0.0,22.79
7208,0.3401,-0.0096,0.8577,-6.21,7.79,0.0,22.79
7218,0.3419,-0.0078,0.86,-6.26,7.79,-0.08,22.83
7228,0.3412,-0.0096,0.86,-6.17,7.76,-0.11,22.81
7238,0.3403,-0.0092,0.8607,-6.2,7.8,-0.09,22.81
7248,0.3392,-0.0085,0.8591,-6.14,7.73,-0.02,22.8
7258,0.3422,-0.0082,0.8605,-6.29,7.69,-0.06,22.8
7268,0.3423,-0.0107,0.8613,-6.15,7.82,0.05,22.8
7279,0.3381,-0.0078,0.8588,-6.18,7.82,-0.03,22.82
7289,0.3413,-0.011,0.8578,-6.21,7.73,-0.02,22.81
7299,0.3396,-0.0099,0.8622,-6.18,7.77,-0.03,22.83
7309,0.3408,-0.0095,0.8597,-6.23,7.79,-0.05,22.81
7319,0.3442,-0.0084,0.8625,-6.2,7.79,-0.05,22.8
7329,0.3396,-0.0084,0.8601,-6.29,7.65,-0.06,22.79
7339,0.3373,-0.0084,0.86,-6.17,7.73,-0.02,22.8
7349,0.342,-0.0114,0.8601,-6.2,7.82,-0.09,22.81
7359,0.3423,-0.0085,0.8583,-6.24,7.8,0.0,22.82
7369,0.3435,-0.0089,0.8619,-6.18,7.79,-0.03,22.82
7379,0.3414,-0.0104,0.8578,-6.17,7.74,0.0,22.84
7389,0.3407,-0.0134,0.8586,-6.2,7.69,0.06,22.82
7399,0.3419,-0.0114,0.858,-6.17,7.77,-0.11,22.81
7409,0.3419,-0.0099,0.8595,-6.23,7.79,-0.06,22.81
7419,0.3391,-0.0099,0.861,-6.11,7.79,-0.02,22.8
7429,0.3406,-0.0104,0.8561,-6.17,7.76,-0.09,22.82
7439,0.3405,-0.0118,0.8615,-6.23,7.69,-0.06,22.81
7449,0.3412,-0.0112,0.8575,-6.2,7.74,0.02,22.8
7460,0.339,-0.01,0.8605,-6.14,7.71,-0.03,22.81
7470,0.3442,-0.0101,0.8595,-6.17,7.73,-0.02,22.81
7480,0.3364,-0.0115,0.8619,-6.14,7.71,-0.05,22.79
7490,0.3401,-0.0101,0.8611,-6.23,7.66,0.0,22.82
7500,0.3413,-0.0088,0.8611,-6.15,7.69,0.02,22.81
7510,0.3395,-0.0125,0.8558,-6.12,7.76,-0.06,22.83
7520,0.3418,-0.01,0.8601,-6.18,7.74,-0.03,22.81
7530,0.3423,-0.0112,0.8622,-6.24,7.74,-0.05,22.81
7540,0.3407,-0.0074,0.8647,-6.15,7.71,-0.08,22.84
7550,0.3402,-0.0107,0.8593,-6.08,7.83,0.03,22.83
7560,0.3391,-0.0079,0.8605,-6.15,7.85,-0.03,22.82
7570,0.342,-0.0116,0.8605,-6.18,7.79,-0.12,22.82
7580,0.3401,-0.0107,0.8586,-6.18,7.82,-0.06,22.84
7590,0.3389,-0.0098,0.8611,-6.26,7.82,-0.11,22.83
7600,0.3424,-0.0107,0.8574,-6.17,7.76,-0.03,22.82
7610,0.342,-0.0074,0.8594,-6.12,7.73,-0.09,22.83
7620,0.3402,-0.0095,0.8621,-6.2,7.69,-0.09,22.83
7630,0.3442,-0.0094,0.8605,-6.21,7.85,-0.08,22.82
7640,0.3409,-0.0114,0.8597,-6.2,7.73,0.05,22.83
7650,0.3392,-0.0096,0.8611,-6.26,7.76,-0.08,22.82
7660,0.3408,-0.0089,0.8612,-6.23,7.73,-0.06,22.82
7670,0.3412,-0.0083,0.8601,-6.18,7.68,-0.08,22.82
7680,0.3403,-0.0079,0.8586,-6.17,7.77,0.03,22.81
7690,0.3386,-0.0063,0.8608,-6.14,7.71,0.08,22.81
7700,0.3406,-0.0087,0.8632,-6.05,7.69,-0.09,22.83
7711,0.3418,-0.0106,0.8639,-6.2,7.65,-0.06,22.79
7721,0.3431,-0.0092,0.8568,-6.21,7.74,-0.05,22.82
7731,0.3425,-0.0093,0.8619,-6.2,7.71,0.03,22.82
7741,0.3405,-0.0121,0.8582,-6.18,7.77,-0.09,22.82
7751,0.3411,-0.0083,0.8607,-6.23,7.74,-0.03,22.81
7761,0.3433,-0.0101,0.8602,-6.21,7.74,-0.02,22.82
7771,0.3436,-0.0096,0.8597,-6.24,7.73,0.11,22.82
7781,0.3435,-0.0099,0.86,-6.18,7.83,-0.02,22.82
7791,0.3429,-0.0095,0.858,-6.17,7.77,-0.11,22.82
7801,0.3419,-0.0085,0.8597,-6.17,7.76,-0.06,22.82
7811,0.3417,-0.0105,0.8663,-6.17,7.74,-0.02,22.84
7821,0.3424,-0.0093,0.8564,-6.08,7.69,-0.05,22.84
7831,0.3425,-0.0093,0.859,-6.21,7.79,-0.05,22.83
7841,0.3427,-0.0077,0.8624,-6.15,7.79,-0.03,22.81
7851,0.3408,-0.0076,0.8611,-6.09,7.83,-0.03,22.84
7861,0.3385,-0.0109,0.8619,-6.12,7.74,0.05,22.85
7871,0.344,-0.0095,0.8604,-6.24,7.74,-0.09,22.84
7881,0.3425,-0.0111,0.8618,-6.12,7.76,-0.02,22.84
7891,0.3414,-0.0101,0.8568,-6.2,7.68,0.09,22.84
7901,0.3402,-0.0076,0.859,-6.24,7.82,-0.12,22.84
7911,0.3427,-0.0099,0.8593,-6.26,7.76,-0.05,22.84
7921,0.3412,-0.0109,0.861,-6.12,7.79,0.03,22.83
7931,0.342,-0.0106,0.8599,-6.21,7.8,-0.09,22.83
7941,0.3384,-0.0117,0.8589,-6.17,7.69,0.02,22.82
7951,0.3429,-0.01,0.8591,-6.18,7.76,0.06,22.85
7961,0.3417,-0.0096,0.86,-6.12,7.86,-0.02,22.83
7971,0.3417,-0.0112,0.8573,-6.26,7.83,-0.06,22.84
7981,0.3408,-0.0104,0.8573,-6.15,7.76,-0.08,22.86
7991,0.34,-0.0122,0.8627,-6.26,7.83,-0.05,22.83
8001,0.3392,-0.0089,0.8628,-6.12,7.8,0.05,22.81
8011,0.3413,-0.0055,0.8577,-6.32,7.76,0.03,22.8
8021,0.3402,-0.011,0.8577,-6.23,7.71,0.02,22.84
8031,0.3427,-0.0092,0.8634,-6.2,7.77,-0.09,22.82
8041,0.3423,-0.012,0.8595,-6.26,7.79,-0.06,22.86
8051,0.3409,-0.0115,0.8636,-6.34,7.73,-0.05,22.83
8061,0.3389,-0.0098,0.8601,-6.17,7.77,-0.09,22.82
8071,0.3411,-0.0084,0.8566,-6.17,7.82,0.0,22.82
8081,0.3412,-0.0081,0.8555,-6.14,7.82,0.03,22.84
8091,0.3423,-0.0095,0.8585,-6.12,7.73,0.03,22.85
8101,0.3397,-0.0084,0.8616,-6.09,7.86,-0.02,22.84
8111,0.3427,-0.0092,0.8622,-6.12,7.73,-0.03,22.83
8121,0.3411,-0.0094,0.8588,-6.18,7.77,-0.09,22.83
8131,0.3439,-0.0095,0.8585,-6.18,7.74,0.06,22.85
8141,0.3433,-0.0089,0.8585,-6.21,7.77,-0.03,22.84
8151,0.3401,-0.0103,0.8585,-6.21,7.79,0.11,22.85
8161,0.338,-0.0101,0.8564,-6.18,7.8,0.03,22.84
8171,0.3409,-0.0111,0.8622,-6.24,7.79,0.0,22.84
8181,0.3407,-0.0098,0.8644,-6.24,7.76,-0.02,22.84
8191,0.3409,-0.0107,0.8606,-6.21,7.77,0.05,22.83
8201,0.3418,-0.0084,0.8619,-6.12,7.79,-0.06,22.82
8211,0.3391,-0.0131,0.8574,-6.23,7.71,-0.02,22.84
8221,0.3429,-0.0099,0.8564,-6.18,7.76,0.03,22.82
8231,0.3433,-0.0099,0.8624,-6.2,7.74,0.02,22.84
8241,0.3402,-0.0095,0.8612,-6.21,7.77,0.0,22.86
8251,0.3414,-0.011,0.8657,-6.29,7.69,0.02,22.83
8261,0.342,-0.0109,0.8644,-6.23,7.74,0.0,22.85
8271,0.3428,-0.0105,0.8601,-6.15,7.77,0.03,22.82
8281,0.3425,-0.0072,0.8579,-6.24,7.83,-0.02,22.84
8291,0.3435,-0.0093,0.8617,-6.12,7.77,-0.06,22.83
8301,0.3396,-0.0093,0.8597,-6.14,7.77,0.03,22.84
8311,0.3403,-0.0093,0.8618,-6.21,7.69,-0.09,22.84
8321,0.3409,-0.0093,0.8619,-6.06,7.83,0.03,22.85
8331,0.3444,-0.0099,0.8602,-6.18,7.79,-0.09,22.83
8341,0.3436,-0.0096,0.8601,-6.27,7.82,-0.09,22.84
8351,0.3427,-0.0106,0.861,-6.23,7.8,0.0,22.82
8361,0.3408,-0.0073,0.8602,-6.21,7.86,-0.08,22.83
8371,0.3431,-0.0126,0.8586,-6.31,7.82,-0.05,22.84
8381,0.3413,-0.0107,0.8606,-6.18,7.83,-0.02,22.83
8391,0.3396,-0.007,0.8612,-6.18,7.76,-0.02,22.84
8401,0.34,-0.0103,0.8597,-6.2,7.76,-0.08,22.84
8411,0.3395,-0.0112,0.8591,-6.17,7.71,-0.09,22.82
8421,0.3418,-0.0101,0.8558,-6.17,7.74,-0.02,22.85
8431,0.3431,-0.009,0.8628,-6.15,7.77,-0.08,22.84
8441,0.3394,-0.0093,0.86,-6.2,7.82,-0.09,22.8
8451,0.3414,-0.0099,0.8606,-6.15,7.79,-0.03,22.84
8461,0.3417,-0.0101,0.861,-6.17,7.74,-0.08,22.84
8471,0.3407,-0.0115,0.8577,-6.15,7.76,0.02,22.85
8481,0.3438,-0.0101,0.8605,-6.17,7.76,0.02,22.84
8491,0.3395,-0.0115,0.8651,-6.31,7.83,-0.05,22.85
8501,0.3414,-0.011,0.8597,-6.24,7.79,-0.11,22.87
8511,0.3387,-0.0098,0.8589,-6.17,7.71,-0.03,22.84
8521,0.3402,-0.0099,0.8611,-6.12,7.79,-0.09,22.85
8531,0.3417,-0.011,0.8611,-6.17,7.83,0.02,22.83
8541,0.3418,-0.0105,0.8557,-6.26,7.73,0.02,22.85
8551,0.3413,-0.009,0.8611,-6.17,7.71,-0.03,22.86
8561,0.344,-0.011,0.8608,-6.2,7.79,-0.05,22.85
8571,0.3406,-0.0085,0.8632,-6.23,7.73,0.03,22.86
8581,0.3392,-0.0109,0.8571,-6.09,7.74,-0.06,22.81
8591,0.3412,-0.0085,0.8615,-6.2,7.73,-0.03,22.87
8601,0.3412,-0.0105,0.8562,-6.18,7.74,-0.05,22.84
8611,0.3427,-0.0096,0.8596,-6.21,7.86,0.03,22.84
8621,0.3439,-0.0072,0.8639,-6.24,7.73,0.0,22.85
8631,0.3436,-0.0076,0.8601,-6.23,7.79,-0.06,22.85
8641,0.3414,-0.0092,0.8569,-6.2,7.76,0.02,22.85
8651,0.3414,-0.0116,0.8618,-6.14,7.68,-0.03,22.87
8661,0.3405,-0.0099,0.8591,-6.14,7.71,-0.03,22.84
8671,0.3424,-0.0098,0.8586,-6.2,7.76,0.0,22.84
8681,0.3413,-0.0087,0.8611,-6.17,7.79,0.02,22.85
8691,0.3395,-0.011,0.8589,-6.2,7.74,-0.03,22.84
8701,0.3419,-0.0083,0.856,-6.21,7.73,-0.05,22.85
8711,0.3427,-0.0099,0.861,-6.21,7.82,0.0,22.84
8721,0.3396,-0.0087,0.8591,-6.18,7.74,0.02,22.85
8731,0.343,-0.0132,0.8575,-6.24,7.76,0.0,22.84
8741,0.3424,-0.0114,0.8568,-6.17,7.77,0.0,22.83
8751,0.3425,-0.0118,0.8633,-6.14,7.8,-0.02,22.85
8761,0.3427,-0.011,0.8604,-6.15,7.71,-0.02,22.85
8771,0.3412,-0.0081,0.8578,-6.17,7.71,0.03,22.85
8781,0.3409,-0.0092,0.8602,-6.2,7.74,0.02,22.86
8791,0.3439,-0.0105,0.8628,-6.21,7.8,0.02,22.86
8801,0.3396,-0.0093,0.8584,-6.29,7.76,0.05,22.87
8811,0.3397,-0.0093,0.8555,-6.17,7.82,0.02,22.86
8821,0.3394,-0.0078,0.8604,-6.14,7.73,-0.06,22.85
8831,0.3384,-0.0105,0.8594,-6.21,7.73,-0.03,22.87
8841,0.3409,-0.0115,0.861,-6.27,7.77,0.0,22.86
8851,0.34,-0.0109,0.8635,-6.26,7.71,-0.12,22.86
8861,0.3416,-0.0076,0.8602,-6.18,7.82,-0.05,22.88
8871,0.3427,-0.0096,0.8604,-6.18,7.73,-0.09,22.88
8881,0.3419,-0.0085,0.8613,-6.18,7.69,-0.06,22.84
8891,0.343,-0.0103,0.8611,-6.17,7.77,-0.03,22.84
8901,0.3453,-0.0093,0.8618,-6.12,7.73,-0.02,22.85
8911,0.3418,-0.0121,0.8618,-6.21,7.77,0.0,22.85
8921,0.3414,-0.0081,0.8569,-6.17,7.71,0.0,22.84
8931,0.3446,-0.0093,0.8597,-6.15,7.63,-0.06,22.84
8941,0.3422,-0.0084,0.8594,-6.18,7.86,0.02,22.85
8951,0.3406,-0.0084,0.8606,-6.24,7.76,-0.05,22.85
8961,0.3428,-0.0098,0.8607,-6.21,7.82,0.0,22.86
8971,0.3427,-0.0088,0.8607,-6.14,7.76,0.02,22.87
8981,0.3409,-0.0061,0.8601,-6.15,7.74,-0.05,22.87
8991,0.3392,-0.0072,0.8595,-6.12,7.79,-0.08,22.84
9001,0.3418,-0.0112,0.8575,-6.14,7.76,-0.02,22.87
9011,0.3409,-0.0096,0.863,-6.17,7.8,-0.03,22.86
9021,0.3419,-0.0109,0.8628,-6.15,7.69,0.0,22.85
9031,0.3418,-0.0105,0.8625,-6.17,7.83,0.02,22.87
9041,0.3418,-0.0073,0.8597,-6.31,7.76,-0.02,22.87
9051,0.3434,-0.0101,0.8591,-6.15,7.76,-0.06,22.86
9061,0.3416,-0.0094,0.8591,-6.14,7.76,0.0,22.88
9071,0.3417,-0.0112,0.8596,-6.17,7.8,0.0,22.86
9081,0.3414,-0.0125,0.8622,-6.18,7.73,-0.03,22.84
9091,0.3416,-0.0089,0.8572,-6.23,7.86,-0.03,22.87
9101,0.3405,-0.0111,0.861,-6.18,7.71,-0.03,22.88
9111,0.3425,-0.0094,0.859,-6.09,7.79,-0.06,22.85
9121,0.3418,-0.0101,0.8585,-6.24,7.76,0.02,22.86
9131,0.3433,-0.0121,0.8608,-6.14,7.85,-0.02,22.86
9141,0.3414,-0.0087,0.8632,-6.31,7.79,0.2,22.87
9151,0.3394,-0.01,0.8606,-6.2,7.82,0.0,22.85
9161,0.3436,-0.0082,0.858,-6.17,7.86,-0.02,22.86
9171,0.3434,-0.0096,0.8602,-6.2,7.73,-0.02,22.86
9181,0.3423,-0.0129,0.8632,-6.23,7.73,-0.05,22.85
9191,0.3439,-0.0092,0.861,-6.2,7.77,0.03,22.85
9201,0.3402,-0.0088,0.8589,-6.14,7.88,-0.02,22.86
9211,0.3376,-0.0089,0.8582,-6.31,7.74,-0.05,22.87
9221,0.3414,-0.0107,0.8616,-6.21,7.79,0.03,22.88
9231,0.3418,-0.0076,0.8617,-6.27,7.73,0.08,22.84
9241,0.3416,-0.0104,0.8613,-6.21,7.71,-0.06,22.87
9251,0.3405,-0.0077,0.8601,-6.27,7.74,-0.03,22.87
9261,0.3429,-0.01,0.8621,-6.17,7.74,-0.08,22.88
9271,0.3414,-0.0117,0.8632,-6.12,7.8,-0.03,22.87
9281,0.3395,-0.0087,0.859,-6.09,7.77,-0.05,22.87
9291,0.3427,-0.0093,0.8621,-6.21,7.73,-0.05,22.87
9301,0.3446,-0.0089,0.8589,-6.26,7.8,-0.02,22.88
9311,0.3411,-0.012,0.8591,-6.18,7.73,-0.03,22.86
9321,0.3422,-0.009,0.8589,-6.15,7.73,0.06,22.87
9331,0.3416,-0.0128,0.8591,-6.09,7.77,-0.05,22.87
9341,0.3403,-0.0104,0.8613,-6.27,7.74,-0.05,22.87
9351,0.3402,-0.0107,0.8636,-6.15,7.79,-0.03,22.87
9361,0.3429,-0.0118,0.863,-6.17,7.76,-0.08,22.86
9371,0.3409,-0.0088,0.8578,-6.14,7.73,0.03,22.87
9381,0.3398,-0.0094,0.8541,-6.14,7.73,0.03,22.86
9391,0.3431,-0.0118,0.8596,-6.2,7.82,-0.11,22.87
9401,0.339,-0.0088,0.863,-6.23,7.76,0.03,22.86
9411,0.3418,-0.0093,0.8625,-6.31,7.73,0.05,22.87
9421,0.3442,-0.0117,0.8619,-6.27,7.8,-0.06,22.88
9431,0.339,-0.0101,0.8577,-6.21,7.76,0.02,22.88
9441,0.337,-0.0111,0.8605,-6.17,7.74,-0.06,22.85
9451,0.3408,-0.01,0.8566,-6.23,7.8,-0.06,22.87
9461,0.3431,-0.0088,0.8582,-6.17,7.73,-0.06,22.87
9471,0.3417,-0.0116,0.8563,-6.11,7.82,-0.06,22.86
9481,0.338,-0.0079,0.8572,-6.08,7.76,-0.08,22.89
9491,0.3425,-0.0099,0.8605,-6.03,7.8,-0.05,22.86
9501,0.3375,-0.0079,0.8618,-6.15,7.77,-0.06,22.88
9511,0.3394,-0.0082,0.8593,-6.2,7.76,-0.06,22.87
9521,0.34,-0.0109,0.8571,-6.21,7.79,-0.02,22.89
9531,0.3412,-0.0083,0.8542,-6.18,7.83,-0.05,22.89
9541,0.3419,-0.0089,0.8596,-6.12,7.74,-0.08,22.89
9551,0.3409,-0.0115,0.8606,-6.23,7.79,-0.09,22.87
9561,0.3389,-0.0099,0.8595,-6.12,7.76,-0.05,22.87
9571,0.3396,-0.0115,0.8585,-6.17,7.76,0.0,22.87
9581,0.3403,-0.0087,0.861,-6.08,7.79,-0.12,22.88
9591,0.3447,-0.0125,0.8612,-6.18,7.79,-0.06,22.87
9601,0.3401,-0.0076,0.8619,-6.24,7.76,-0.08,22.9
9611,0.3422,-0.0077,0.8632,-6.23,7.71,-0.03,22.89
9621,0.3412,-0.0092,0.8622,-6.26,7.82,-0.08,22.86
9631,0.3425,-0.0093,0.863,-6.17,7.74,0.0,22.87
9641,0.3402,-0.0137,0.8594,-6.26,7.77,-0.03,22.86
9651,0.3405,-0.0079,0.861,-6.2,7.79,-0.03,22.89
9661,0.3416,-0.009,0.8586,-6.0,7.77,-0.06,22.87
9671,0.3433,-0.0111,0.8569,-6.2,7.73,0.0,22.92
9681,0.3412,-0.0101,0.8573,-6.23,7.77,-0.02,22.89
9691,0.3439,-0.0072,0.8608,-6.21,7.68,0.03,22.89
9701,0.3405,-0.0078,0.8585,-6.27,7.74,-0.02,22.88
9711,0.3429,-0.0089,0.8602,-6.21,7.8,-0.06,22.87
9721,0.3423,-0.0104,0.8646,-6.24,7.77,-0.09,22.86
9731,0.3428,-0.0142,0.8616,-6.17,7.76,-0.15,22.85
9741,0.3438,-0.0104,0.8601,-6.23,7.83,-0.03,22.88
9751,0.3394,-0.0083,0.8556,-6.18,7.77,-0.03,22.88
9761,0.3419,-0.011,0.8595,-6.11,7.73,-0.02,22.87
9771,0.3438,-0.01,0.8541,-6.12,7.71,-0.03,22.88
9781,0.3407,-0.0106,0.8561,-6.15,7.76,-0.03,22.88
9791,0.3419,-0.0068,0.8601,-6.14,7.8,0.03,22.88
9801,0.3387,-0.0123,0.8647,-6.14,7.73,-0.02,22.87
9811,0.3434,-0.0123,0.8652,-6.23,7.68,0.0,22.89
9821,0.3458,-0.0132,0.8619,-6.21,7.74,-0.02,22.86
9831,0.3456,-0.0115,0.8594,-6.2,7.8,0.02,22.88
9841,0.343,-0.0082,0.8563,-6.14,7.79,0.0,22.87
9851,0.3402,-0.0081,0.8588,-6.15,7.82,-0.06,22.89
9861,0.3402,-0.0105,0.8549,-6.15,7.74,-0.09,22.89
9871,0.3362,-0.0083,0.8578,-6.21,7.79,-0.09,22.9
9881,0.3391,-0.0085,0.8597,-6.18,7.74,-0.09,22.88
9891,0.3418,-0.0089,0.8624,-6.34,7.76,0.0,22.89
9901,0.3457,-0.0131,0.865,-6.26,7.71,-0.15,22.89
9911,0.3438,-0.0121,0.8699,-6.15,7.8,-0.11,22.87
9921,0.3407,-0.0127,0.8607,-6.05,7.91,-0.08,22.89
9931,0.3428,-0.0099,0.8628,-6.15,7.71,0.0,22.9
9941,0.3422,-0.0074,0.8628,-6.09,7.69,-0.09,22.89
9951,0.3381,-0.0071,0.8549,-6.11,7.76,-0.02,22.91
9961,0.3383,-0.0066,0.856,-6.14,7.83,0.0,22.89
9971,0.3389,-0.0077,0.8586,-6.18,7.85,-0.08,22.92
9981,0.3418,-0.0104,0.8568,-6.23,7.69,0.02,22.91
9991,0.3435,-0.0135,0.8602,-6.24,7.82,-0.03,22.89
10001,0.3478,-0.0116,0.8622,-6.29,7.73,-0.08,22.87
10011,0.343,-0.0129,0.8639,-6.18,7.79,-0.05,22.88
10021,0.3425,-0.0101,0.8647,-6.24,7.73,0.0,22.9
10031,0.343,-0.0093,0.8624,-6.09,7.79,-0.06,22.89
10041,0.3413,-0.0088,0.855,-6.17,7.77,-0.02,22.88
10051,0.3396,-0.0029,0.8561,-6.12,7.8,0.0,22.88
10061,0.3412,-0.0078,0.8572,-6.17,7.71,-0.06,22.89
10071,0.3427,-0.0076,0.8594,-6.17,7.77,0.0,22.92
10081,0.3403,-0.0101,0.8641,-6.17,7.66,0.0,22.9
10091,0.3413,-0.0106,0.8628,-6.17,7.74,-0.02,22.87
10101,0.3444,-0.0114,0.8617,-6.21,7.8,-0.08,22.88
10111,0.3423,-0.0114,0.8574,-6.29,7.82,-0.02,22.89
10121,0.3439,-0.0125,0.86,-6.29,7.77,0.0,22.89
10131,0.3402,-0.0128,0.859,-6.09,7.69,0.06,22.9
10141,0.3381,-0.0084,0.8578,-6.06,7.74,-0.02,22.87
10151,0.3387,-0.0082,0.8584,-6.17,7.77,0.06,22.89
10161,0.3418,-0.0087,0.8597,-6.18,7.83,0.0,22.9
10171,0.3406,-0.0081,0.8544,-6.18,7.77,-0.03,22.88
10181,0.3416,-0.0087,0.8621,-6.2,7.73,-0.06,22.88
10191,0.343,-0.0127,0.8643,-6.18,7.76,0.03,22.87
10201,0.344,-0.012,0.8604,-6.23,7.79,0.03,22.91
10211,0.3407,-0.0109,0.8569,-6.14,7.83,-0.05,22.91
10221,0.3422,-0.009,0.8567,-6.09,7.76,0.02,22.92
10231,0.3416,-0.0122,0.8612,-6.17,7.73,-0.02,22.9
10241,0.3409,-0.0105,0.8563,-6.11,7.8,-0.02,22.89
10251,0.3389,-0.0065,0.8563,-6.27,7.77,0.02,22.88
10261,0.3407,-0.0104,0.8621,-6.17,7.88,0.03,22.92
10271,0.3416,-0.0066,0.8623,-6.23,7.69,-0.02,22.91
10281,0.342,-0.0115,0.8606,-6.18,7.73,-0.05,22.89
10291,0.3403,-0.01,0.8639,-6.18,7.71,0.06,22.92
10301,0.3425,-0.0107,0.8589,-6.15,7.69,-0.02,22.91
10311,0.3413,-0.0101,0.8593,-6.24,7.71,0.0,22.87
10321,0.3416,-0.0088,0.8595,-6.23,7.71,0.05,22.88
10331,0.3406,-0.0098,0.859,-6.15,7.76,0.02,22.9
10341,0.3385,-0.0063,0.8568,-6.23,7.73,-0.02,22.92
10351,0.34,-0.0074,0.8558,-6.23,7.77,-0.02,22.92
10369,0.3406,-0.0094,0.8605,-6.17,7.79,0.03,22.89
10379,0.3427,-0.0094,0.8573,-6.26,7.77,-0.05,22.92
10389,0.3444,-0.0104,0.8607,-6.24,7.82,-0.08,22.91
10399,0.3391,-0.0128,0.8625,-6.2,7.65,-0.06,22.9
10409,0.3433,-0.0089,0.8607,-6.17,7.73,-0.02,22.9
10419,0.3428,-0.0111,0.8551,-6.17,7.74,-0.03,22.88
10429,0.3417,-0.0127,0.8594,-6.09,7.77,0.02,22.9
10439,0.3385,-0.0092,0.8586,-6.18,7.82,-0.06,22.9
10449,0.3409,-0.0083,0.8633,-6.11,7.73,-0.09,22.9
10459,0.3406,-0.0118,0.8602,-6.23,7.79,-0.03,22.92
10469,0.3398,-0.0104,0.8599,-6.17,7.73,-0.09,22.91
10479,0.3429,-0.011,0.8593,-6.2,7.73,0.0,22.91
10489,0.3422,-0.0106,0.8629,-6.17,7.74,-0.06,22.91
10499,0.3416,-0.0096,0.8623,-6.17,7.8,-0.05,22.9
10509,0.3395,-0.0112,0.861,-6.12,7.69,-0.02,22.89
10519,0.3438,-0.0126,0.8652,-6.2,7.71,0.0,22.89
10529,0.343,-0.0094,0.8607,-6.18,7.69,0.03,22.93
10539,0.3417,-0.01,0.8595,-6.21,7.83,0.03,22.91
10549,0.3417,-0.0096,0.8597,-6.17,7.76,-0.05,22.92
10559,0.3417,-0.0093,0.8615,-6.15,7.77,0.05,22.89
10569,0.3403,-0.0087,0.8622,-6.23,7.71,-0.11,22.9
10579,0.3441,-0.0115,0.8585,-6.21,7.77,-0.05,22.88
10589,0.3407,-0.0103,0.8562,-6.24,7.77,-0.06,22.91
10599,0.3461,-0.0106,0.8613,-6.31,7.77,-0.03,22.91
10609,0.3405,-0.0109,0.8654,-6.17,7.8,-0.03,22.91
10619,0.3434,-0.0101,0.8579,-6.2,7.82,-0.05,22.93
10629,0.3411,-0.0114,0.86,-6.32,7.71,0.0,22.9
10639,0.3407,-0.0103,0.8578,-6.24,7.68,-0.03,22.91
10649,0.3417,-0.0109,0.8589,-6.21,7.73,-0.06,22.89
10659,0.3438,-0.0093,0.858,-6.18,7.74,-0.05,22.91
10669,0.3409,-0.012,0.8601,-6.2,7.86,-0.02,22.92
10679,0.3394,-0.0122,0.8618,-6.15,7.77,0.02,22.9
10689,0.3397,-0.0116,0.8591,-6.32,7.71,-0.02,22.91
10699,0.3417,-0.011,0.858,-6.15,7.82,0.02,22.93
10709,0.3407,-0.0063,0.8613,-6.2,7.73,-0.06,22.91
10719,0.3406,-0.0089,0.8604,-6.23,7.79,-0.02,22.92
10729,0.3412,-0.0093,0.8585,-6.15,7.83,0.0,22.92
10739,0.3405,-0.0106,0.8597,-6.24,7.74,-0.06,22.93
10749,0.3418,-0.0116,0.8612,-6.21,7.79,-0.03,22.91
10759,0.3408,-0.0128,0.8627,-6.14,7.74,-0.06,22.91
10769,0.34,-0.0111,0.8597,-6.12,7.86,-0.06,22.93
10779,0.3453,-0.0138,0.8612,-6.24,7.71,0.02,22.94
10789,0.3383,-0.0083,0.8564,-6.15,7.69,0.0,22.9
10799,0.3384,-0.0079,0.8612,-6.17,7.76,-0.06,22.93
10809,0.3433,-0.0081,0.8586,-6.23,7.79,-0.08,22.94
10819,0.343,-0.0093,0.8584,-6.23,7.73,-0.02,22.92
10829,0.3402,-0.0122,0.8579,-6.12,7.77,0.0,22.92
10839,0.3402,-0.0101,0.8585,-6.24,7.69,0.02,22.94
10849,0.3405,-0.0106,0.8583,-6.24,7.74,-0.02,22.95
10859,0.342,-0.0085,0.8627,-6.29,7.76,0.05,22.93
10869,0.3401,-0.0103,0.8604,-6.26,7.85,0.02,22.92
10879,0.3435,-0.0072,0.8577,-6.24,7.77,0.0,22.9
10889,0.3405,-0.0068,0.8596,-6.14,7.77,0.03,22.91
10899,0.337,-0.0115,0.861,-6.18,7.83,0.08,22.89
10909,0.3417,-0.0093,0.8605,-6.15,7.79,-0.06,22.89
10919,0.3406,-0.01,0.8589,-6.23,7.69,0.02,22.92
10929,0.3408,-0.0096,0.8594,-6.09,7.71,-0.03,22.92
10939,0.3418,-0.0087,0.8617,-6.2,7.68,-0.09,22.93
10949,0.3414,-0.0092,0.8561,-6.21,7.68,-0.03,22.94
10959,0.3413,-0.0093,0.8595,-6.24,7.73,-0.08,22.92
10969,0.3384,-0.0107,0.861,-6.27,7.82,0.03,22.91
10979,0.3387,-0.0101,0.8596,-6.15,7.69,-0.08,22.91
10989,0.3412,-0.01,0.8582,-6.23,7.74,0.0,22.92
10999,0.3425,-0.006,0.8618,-6.26,7.71,-0.02,22.93
11009,0.3396,-0.0061,0.8636,-6.23,7.8,-0.02,22.91
11019,0.3395,-0.0092,0.8574,-6.15,7.83,0.06,22.93
11029,0.3438,-0.0095,0.8588,-6.18,7.79,0.03,22.92
11039,0.3417,-0.0068,0.8612,-6.29,7.8,0.02,22.92
11049,0.3422,-0.0125,0.8597,-6.23,7.82,-0.05,22.92
11059,0.3397,-0.0122,0.8618,-6.2,7.77,-0.03,22.91
11069,0.3429,-0.0106,0.861,-6.2,7.83,0.09,22.89
11079,0.3401,-0.0115,0.8601,-6.24,7.79,0.0,22.92
11089,0.3414,-0.0117,0.8638,-6.11,7.77,-0.08,22.92
11099,0.3389,-0.0074,0.8597,-6.18,7.74,-0.08,22.9
11109,0.3413,-0.0099,0.8616,-6.18,7.74,0.02,22.89
11119,0.3396,-0.0116,0.8618,-6.23,7.8,-0.08,22.92
11129,0.3406,-0.0072,0.8596,-6.2,7.82,0.02,22.91
11139,0.3419,-0.0088,0.8652,-6.15,7.8,-0.02,22.92
11149,0.3436,-0.0087,0.8572,-6.17,7.79,-0.05,22.91
11159,0.3418,-0.0088,0.8586,-6.26,7.69,-0.08,22.92
11169,0.3412,-0.0106,0.8552,-6.21,7.8,-0.06,22.94
11179,0.3424,-0.0088,0.8578,-6.12,7.86,-0.08,22.92
11189,0.3414,-0.0095,0.8556,-6.18,7.69,-0.02,22.92
11199,0.3408,-0.0088,0.8585,-6.14,7.77,0.03,22.91
11209,0.3439,-0.0106,0.8613,-6.18,7.76,0.02,22.94
11219,0.3424,-0.0082,0.8567,-6.2,7.77,0.06,22.92
11229,0.3414,-0.0083,0.8611,-6.21,7.79,0.03,22.92
11239,0.3423,-0.0084,0.8611,-6.2,7.82,-0.05,22.91
11249,0.339,-0.0095,0.8605,-6.21,7.73,-0.03,22.91
11259,0.3433,-0.0106,0.8595,-6.18,7.73,-0.02,22.9
11269,0.3414,-0.0085,0.8566,-6.2,7.8,-0.02,22.91
11279,0.3398,-0.0103,0.8604,-6.2,7.74,-0.05,22.91
11289,0.3411,-0.0094,0.8569,-6.23,7.8,-0.05,22.92
11299,0.3383,-0.0093,0.8622,-6.18,7.76,0.0,22.92
11309,0.339,-0.0079,0.8611,-6.18,7.73,0.0,22.93
11319,0.3392,-0.0101,0.8591,-6.17,7.82,0.05,22.93
11329,0.3386,-0.0125,0.8633,-6.14,7.79,-0.06,22.9
11339,0.3434,-0.0112,0.8635,-6.14,7.79,-0.14,22.9
11349,0.3414,-0.0144,0.865,-6.05,7.8,-0.05,22.9
11359,0.343,-0.0161,0.8549,-6.24,7.71,-0.09,22.93
11369,0.3418,-0.0052,0.8612,-6.27,7.79,0.09,22.93
11379,0.3419,-0.0079,0.86,-6.18,7.82,-0.03,22.92
11389,0.3407,-0.006,0.8572,-6.24,7.8,-0.06,22.93
11399,0.3407,-0.0073,0.8607,-6.18,7.74,-0.02,22.92
11409,0.3408,-0.0084,0.8593,-6.21,7.71,0.0,22.93
11419,0.3409,-0.0107,0.859,-6.15,7.76,0.02,22.93
11429,0.3418,-0.0105,0.8605,-6.17,7.8,-0.06,22.93
11439,0.3401,-0.0094,0.8605,-6.21,7.76,-0.02,22.95
11449,0.3407,-0.0084,0.8596,-6.23,7.71,-0.09,22.94
11459,0.3406,-0.0105,0.861,-6.21,7.77,0.0,22.94
11469,0.3429,-0.0093,0.8595,-6.17,7.8,-0.06,22.92
11479,0.339,-0.0057,0.8594,-6.08,7.74,0.03,22.92
11489,0.3403,-0.0073,0.8571,-6.15,7.82,0.02,22.93
11499,0.3405,-0.0101,0.8649,-6.23,7.74,-0.02,22.93
11509,0.3423,-0.0095,0.8564,-6.17,7.76,-0.06,22.94
11519,0.3416,-0.0081,0.8618,-6.17,7.77,-0.05,22.92
11529,0.3414,-0.0046,0.8651,-6.18,7.77,-0.05,22.92
11539,0.3427,-0.0111,0.8574,-6.23,7.73,0.02,22.94
11549,0.3431,-0.0118,0.8573,-6.18,7.77,-0.02,22.91
11559,0.3413,-0.0084,0.8608,-6.24,7.73,0.0,22.92
11569,0.3423,-0.0082,0.8616,-6.21,7.73,0.05,22.94
11579,0.3395,-0.0067,0.8606,-6.21,7.73,0.03,22.92
11589,0.342,-0.0098,0.8595,-6.14,7.79,-0.05,22.93
11599,0.3401,-0.0077,0.855,-6.21,7.71,-0.08,22.92
11609,0.3389,-0.0114,0.856,-6.24,7.76,-0.03,22.94
11619,0.3422,-0.0131,0.8596,-6.24,7.8,-0.05,22.94
11629,0.3455,-0.0101,0.8615,-6.23,7.82,-0.05,22.93
11639,0.3405,-0.0109,0.8591,-6.18,7.79,-0.03,22.94
11649,0.3402,-0.0076,0.8591,-6.12,7.8,0.0,22.92
11659,0.3409,-0.009,0.8591,-6.14,7.74,-0.06,22.91
11669,0.3423,-0.0089,0.8618,-6.17,7.76,-0.06,22.92
11679,0.3424,-0.009,0.858,-6.27,7.88,-0.08,22.95
11689,0.3407,-0.0079,0.8613,-6.2,7.69,0.03,22.94
11699,0.3414,-0.009,0.861,-6.27,7.77,-0.11,22.92
11709,0.3425,-0.0129,0.8583,-6.24,7.76,-0.08,22.94
11719,0.3429,-0.0129,0.8596,-6.17,7.74,-0.05,22.96
11729,0.3417,-0.0114,0.8608,-6.12,7.76,-0.03,22.93
11739,0.3428,-0.0073,0.8608,-6.18,7.68,-0.06,22.92
11749,0.3386,-0.0074,0.861,-6.23,7.79,0.0,22.95
11759,0.339,-0.0068,0.8616,-6.26,7.86,-0.05,22.94
11769,0.3391,-0.0065,0.8572,-6.2,7.73,-0.03,22.94
11779,0.3416,-0.0098,0.8601,-6.29,7.85,-0.11,22.94
11789,0.3424,-0.0079,0.8578,-6.21,7.8,-0.05,22.95
11799,0.3409,-0.0065,0.8622,-6.18,7.8,-0.05,22.94
11809,0.3405,-0.0143,0.8596,-6.18,7.73,-0.09,22.93
11819,0.3434,-0.0095,0.8632,-6.17,7.79,-0.05,22.94
11829,0.3436,-0.0161,0.8627,-6.11,7.74,-0.08,22.92
11839,0.3445,-0.0164,0.8596,-6.11,7.77,-0.02,22.95
11849,0.3464,-0.0112,0.8566,-6.14,7.79,0.06,22.94
11859,0.3456,-0.0096,0.8606,-6.17,7.74,0.06,22.94
11869,0.3423,-0.0142,0.8561,-6.27,7.83,-0.03,22.93
11879,0.342,0.0018,0.8502,-6.23,7.69,-0.05,22.92
11889,0.3364,-0.0026,0.8479,-6.26,7.63,-0.03,22.94
11899,0.3313,-0.009,0.8518,-6.26,7.83,0.0,22.93
11909,0.3419,-0.0114,0.8542,-6.34,7.71,0.0,22.95
11919,0.3491,-0.0098,0.8654,-6.21,7.59,-0.03,22.95
11929,0.3496,-0.0116,0.8762,-6.17,7.74,-0.12,22.95
11939,0.3502,-0.0195,0.8739,-6.18,7.71,-0.03,22.93
11949,0.3441,-0.0243,0.8724,-6.23,7.88,0.05,22.92
11959,0.3467,-0.0057,0.8628,-6.23,7.68,-0.05,22.94
11969,0.342,-0.0027,0.8533,-6.08,7.73,-0.03,22.96
11979,0.3309,-0.0111,0.8496,-6.2,7.69,0.0,22.94
11989,0.3315,-0.0054,0.8503,-6.23,7.74,0.02,22.94
11999,0.3379,-0.0023,0.8544,-6.17,7.82,0.03,22.93
12009,0.3406,-0.0078,0.858,-6.24,7.68,0.03,22.94
12019,0.3459,-0.0129,0.8672,-6.26,7.79,0.05,22.95
12029,0.3457,-0.0165,0.8658,-6.2,7.83,0.0,22.94
12039,0.3479,-0.0098,0.866,-6.2,7.73,-0.11,22.93
12050,0.3455,-0.0087,0.8634,-6.23,7.77,-0.02,22.95
12060,0.3422,-0.0131,0.8611,-6.11,7.85,-0.03,22.95
12070,0.3364,-0.0109,0.8562,-6.21,7.77,0.02,22.95
12080,0.3365,0.0009,0.8511,-6.34,7.79,0.03,22.94
12091,0.3365,-0.0079,0.8499,-6.27,7.8,-0.03,22.94
12101,0.3368,-0.0111,0.8568,-6.24,7.71,-0.12,22.95
12111,0.3372,-0.0068,0.8594,-6.21,7.74,0.0,22.95
12121,0.344,-0.0076,0.8649,-6.11,7.66,0.0,22.96
12131,0.3461,-0.0105,0.8662,-6.23,7.88,-0.06,22.94
12141,0.3422,-0.017,0.8623,-6.21,7.76,-0.06,22.94
12151,0.3413,-0.0103,0.8621,-6.14,7.76,0.02,22.94
12161,0.3411,-0.0089,0.8564,-6.29,7.79,0.0,22.95
12171,0.3363,-0.0092,0.8589,-6.21,7.86,0.08,22.95
12181,0.3386,-0.0072,0.8547,-6.21,7.71,-0.06,22.92
12191,0.3395,-0.0063,0.8556,-6.27,7.73,0.06,22.94
12201,0.3405,-0.0055,0.8555,-6.24,7.74,-0.12,22.94
12211,0.343,-0.0103,0.8629,-6.18,7.79,-0.03,22.94
12221,0.3427,-0.0118,0.864,-6.14,7.71,-0.03,22.94
12231,0.3441,-0.0104,0.8652,-6.27,7.71,-0.05,22.93
12241,0.3424,-0.0106,0.865,-6.21,7.77,-0.12,22.92
12251,0.3392,-0.0129,0.8629,-6.18,7.77,0.0,22.94
12261,0.3376,-0.0135,0.8611,-6.11,7.73,0.03,22.94
12271,0.3379,-0.0067,0.8563,-6.14,7.74,-0.06,22.95
12281,0.3409,-0.0063,0.8568,-6.14,7.74,-0.05,22.95
12291,0.3386,-0.0104,0.8611,-6.23,7.79,0.02,22.95
12301,0.3394,-0.0114,0.859,-6.17,7.73,-0.08,22.95
12311,0.3402,-0.0106,0.8628,-6.29,7.76,0.0,22.94
12321,0.3444,-0.0112,0.8615,-6.24,7.76,0.05,22.94
12331,0.3442,-0.0134,0.8654,-6.21,7.76,-0.03,22.92
12341,0.3451,-0.0115,0.8625,-6.29,7.77,-0.05,22.95
12351,0.3412,-0.0085,0.8569,-6.18,7.8,-0.08,22.95
12361,0.3364,-0.01,0.8611,-6.23,7.98,-0.06,22.96
12371,0.3402,-0.0144,0.8512,-6.21,7.79,-0.05,22.95
12381,0.3422,-0.0131,0.847,-6.29,7.8,0.05,22.95
12391,0.33,-0.0093,0.8678,-6.15,7.94,-0.14,22.97
12401,0.3473,-0.0144,0.8585,-6.27,7.73,-0.06,22.97
12411,0.3414,-0.011,0.8643,-6.29,7.63,0.03,22.95
12421,0.342,-0.0112,0.8604,-6.14,7.65,0.05,22.93
12431,0.3468,-0.0115,0.8607,-6.15,7.77,-0.09,22.93
12441,0.3479,-0.0089,0.8544,-6.31,7.68,0.02,22.96
12451,0.3398,-0.0106,0.8585,-6.14,7.74,-0.03,22.94
12461,0.3384,-0.0092,0.8531,-6.09,7.66,-0.02,22.96
12471,0.3419,-0.0074,0.8597,-6.14,7.76,0.05,22.95
12481,0.3414,-0.0077,0.8574,-6.23,7.74,0.0,22.97
12491,0.3387,-0.0114,0.861,-6.27,7.83,-0.02,22.96
12501,0.3427,-0.0118,0.8627,-6.2,7.83,-0.11,22.94
12511,0.3428,-0.0112,0.8644,-6.21,7.8,-0.05,22.92
12521,0.3452,-0.0125,0.8641,-6.29,7.86,0.02,22.96
12531,0.3439,-0.0107,0.8582,-6.23,7.77,0.06,22.98
12541,0.3398,-0.0096,0.8577,-6.06,7.82,-0.06,22.97
12551,0.3387,-0.011,0.8525,-6.15,7.77,0.03,22.94
12561,0.3391,-0.0122,0.8579,-6.2,7.79,-0.03,22.96
12571,0.3394,-0.0062,0.8582,-6.15,7.77,-0.02,22.95
12581,0.3409,-0.0098,0.8602,-6.15,7.77,0.02,22.97
12591,0.3395,-0.01,0.8588,-6.12,7.73,-0.02,22.96
12601,0.3431,-0.0099,0.8649,-6.15,7.73,-0.02,22.96
12611,0.3438,-0.012,0.8615,-6.09,7.74,0.02,22.93
12621,0.3416,-0.0111,0.8588,-6.2,7.66,-0.14,22.97
12631,0.3416,-0.0109,0.8566,-6.24,7.77,0.02,22.96
12641,0.3402,-0.0099,0.8555,-6.15,7.66,-0.05,22.97
12651,0.3375,-0.0079,0.8585,-6.21,7.74,-0.06,22.94
12661,0.3427,-0.0098,0.8584,-6.15,7.73,0.03,22.98
12671,0.3416,-0.009,0.8556,-6.18,7.65,-0.06,22.96
12681,0.3398,-0.0089,0.8627,-6.21,7.79,-0.14,22.95
12691,0.3406,-0.0068,0.8624,-6.2,7.73,-0.06,22.97
12701,0.3416,-0.0077,0.8636,-6.23,7.73,-0.02,22.96
12711,0.3424,-0.0099,0.8638,-6.31,7.74,-0.06,22.94
12721,0.3379,-0.0094,0.8599,-6.14,7.79,-0.03,22.95
12731,0.3391,-0.0107,0.8589,-6.26,7.71,-0.06,22.95
12741,0.3386,-0.0078,0.8597,-6.23,7.79,-0.08,22.94
12751,0.3381,-0.0092,0.8602,-6.2,7.71,-0.03,22.96
12761,0.3409,-0.0101,0.8602,-6.24,7.76,0.0,22.97
12771,0.3401,-0.0081,0.8605,-6.24,7.74,0.0,22.94
12781,0.3413,-0.0055,0.8605,-6.18,7.76,-0.08,22.96
12791,0.3416,-0.0079,0.8608,-6.21,7.77,0.0,22.95
12801,0.3422,-0.0123,0.8619,-6.31,7.77,-0.02,22.96
12811,0.344,-0.0132,0.8622,-6.12,7.74,-0.02,22.97
12821,0.3413,-0.0084,0.8607,-6.26,7.77,0.02,22.98
12831,0.3406,-0.0127,0.8588,-6.17,7.8,-0.06,22.97
12841,0.3416,-0.009,0.8622,-6.18,7.77,-0.05,22.96
12851,0.3413,-0.0087,0.8595,-6.26,7.77,-0.05,22.96
12861,0.3419,-0.0093,0.8602,-6.08,7.74,0.0,22.98
12871,0.342,-0.0114,0.8612,-6.23,7.68,0.05,22.96
12881,0.3411,-0.0096,0.8578,-6.2,7.77,-0.03,22.97
12891,0.344,-0.0083,0.8591,-6.27,7.86,0.0,22.95
12901,0.3414,-0.009,0.8607,-6.27,7.76,-0.05,22.97
12911,0.342,-0.0104,0.8606,-6.2,7.71,-0.08,22.98
12921,0.3416,-0.0087,0.8591,-6.26,7.79,-0.02,22.99
12931,0.3413,-0.0072,0.8597,-6.21,7.79,0.02,22.97
12941,0.3402,-0.0101,0.8621,-6.2,7.79,-0.02,22.99
12951,0.3424,-0.0078,0.8591,-6.26,7.77,-0.03,22.97
12961,0.3433,-0.0111,0.8584,-6.26,7.79,0.0,22.98
12971,0.3431,-0.005,0.8617,-6.21,7.76,0.05,22.98
12981,0.3422,-0.0101,0.8607,-6.31,7.79,0.0,22.98
12991,0.3425,-0.0106,0.8596,-6.26,7.74,-0.08,22.98
13001,0.3438,-0.0096,0.8597,-6.21,7.73,-0.12,22.96
13011,0.342,-0.0098,0.8566,-6.23,7.71,-0.08,22.98
13021,0.3425,-0.0107,0.8597,-6.24,7.68,-0.06,22.96
13031,0.3418,-0.0088,0.8575,-6.23,7.74,-0.05,22.96
13041,0.3401,-0.0067,0.8604,-6.15,7.74,-0.02,22.96
13051,0.342,-0.0085,0.8588,-6.21,7.8,-0.02,22.97
13061,0.3408,-0.0065,0.8624,-6.24,7.74,0.03,22.97
13071,0.3419,-0.0095,0.86,-6.23,7.65,-0.02,22.97
13081,0.3434,-0.0101,0.8612,-6.27,7.73,0.03,22.96
13091,0.3411,-0.0073,0.8608,-6.12,7.8,-0.08,22.98
13101,0.34,-0.0096,0.8595,-6.17,7.74,-0.02,22.97
13111,0.339,-0.0138,0.8564,-6.2,7.79,0.06,22.97
13121,0.3412,-0.0096,0.8622,-6.15,7.8,-0.05,22.97
13131,0.3405,-0.0087,0.8578,-6.21,7.8,-0.08,22.94
13141,0.3396,-0.0081,0.8606,-6.27,7.74,0.0,22.96
13151,0.3383,-0.0094,0.8604,-6.23,7.77,-0.05,22.97
13161,0.342,-0.0098,0.8574,-6.21,7.8,0.0,22.95
13171,0.344,-0.0111,0.8619,-6.18,7.77,-0.09,22.97
13181,0.3441,-0.0095,0.8623,-6.12,7.8,0.0,22.96
13191,0.3424,-0.0087,0.8596,-6.15,7.76,-0.02,22.98
13201,0.3416,-0.01,0.8591,-6.14,7.8,-0.06,22.94
13211,0.3442,-0.0063,0.858,-6.12,7.76,-0.03,22.96
13221,0.343,-0.01,0.8613,-6.12,7.82,-0.05,22.98
13231,0.3402,-0.0067,0.8572,-6.21,7.79,0.06,22.97
13241,0.3403,-0.0093,0.8586,-6.17,7.73,0.03,22.97
13252,0.3405,-0.0115,0.8617,-6.23,7.76,-0.03,22.98
13262,0.3422,-0.0085,0.8611,-6.31,7.83,-0.05,22.98
13272,0.342,-0.012,0.8597,-6.21,7.69,-0.14,22.98
13282,0.3441,-0.0154,0.8608,-6.29,7.73,0.02,22.97
13292,0.3405,-0.0154,0.858,-6.18,7.82,0.0,22.98
13302,0.3413,-0.0117,0.8606,-6.09,7.76,0.0,22.97
13312,0.3409,-0.0104,0.8606,-6.24,7.69,0.03,22.98
13322,0.3405,-0.0114,0.859,-6.18,7.79,-0.05,22.98
13333,0.3417,-0.0095,0.8599,-6.18,7.74,-0.03,22.96
13343,0.3375,-0.0093,0.8572,-6.18,7.79,0.0,22.95
13353,0.3412,-0.0094,0.8579,-6.2,7.83,0.0,22.95
13363,0.3425,-0.0105,0.8564,-6.24,7.74,-0.05,22.96
13373,0.3425,-0.0137,0.861,-6.18,7.8,-0.02,22.97
13383,0.3414,-0.0083,0.8612,-6.17,7.71,-0.05,22.97
13393,0.3429,-0.0123,0.8591,-6.24,7.86,-0.05,22.97
13403,0.3452,-0.0112,0.8595,-6.17,7.76,-0.06,22.97
13413,0.3438,-0.0078,0.8606,-6.14,7.77,-0.02,22.97
13423,0.3398,-0.0051,0.856,-6.17,7.79,0.08,22.98
13433,0.3418,-0.0095,0.8612,-6.17,7.86,-0.09,22.97
13443,0.3431,-0.0078,0.8597,-6.2,7.82,-0.06,22.97
13453,0.3398,-0.0048,0.864,-6.2,7.68,0.08,22.97
13463,0.3429,-0.0098,0.8597,-6.24,7.79,0.0,22.97
13473,0.3368,-0.0099,0.8573,-6.14,7.71,-0.08,22.97
13483,0.3442,-0.0063,0.8541,-6.18,7.73,-0.05,22.96
13493,0.339,-0.0049,0.8621,-6.14,7.48,-0.09,22.96
13503,0.3473,-0.0225,0.8428,-6.21,7.92,0.0,22.96
13513,0.3645,-0.0154,0.8274,-6.26,7.15,0.0,22.97
13523,0.3557,-0.0079,0.8635,-6.15,7.51,-0.05,22.99
13533,0.3456,-0.0145,0.871,-6.2,7.82,0.02,23.0
13543,0.3257,-0.012,0.8611,-6.18,8.14,0.02,22.96
13553,0.3347,-0.0056,0.8641,-6.12,7.76,0.02,22.96
13563,0.3405,-0.0082,0.8669,-6.14,7.77,-0.03,22.98
13573,0.3412,-0.0111,0.8629,-6.18,7.95,0.03,22.97
13583,0.3411,-0.0096,0.8534,-6.17,7.69,0.05,23.0
13593,0.3397,-0.01,0.8616,-6.18,7.66,0.05,22.96
13603,0.3462,-0.0081,0.8607,-6.2,7.68,0.02,22.98
13613,0.343,-0.0103,0.8611,-6.11,7.85,-0.05,22.98
13623,0.3412,-0.0105,0.8608,-6.14,7.86,-0.03,22.98
13633,0.3467,-0.0109,0.8588,-6.17,7.62,-0.08,22.98
13643,0.34,-0.0101,0.8634,-6.23,7.73,-0.02,22.97
13653,0.344,-0.0095,0.8634,-6.17,7.8,-0.02,22.96
13663,0.3394,-0.0092,0.8577,-6.14,7.66,0.02,22.96
13673,0.3379,-0.0098,0.8607,-6.23,7.79,-0.05,22.97
13683,0.3433,-0.0098,0.8634,-6.2,7.71,-0.05,22.97
13693,0.3419,-0.0103,0.8602,-6.2,7.79,0.02,22.99
13703,0.343,-0.0085,0.8594,-6.14,7.88,-0.03,22.99
13713,0.3433,-0.0101,0.8596,-6.08,7.74,0.0,22.99
13723,0.3424,-0.0092,0.8668,-6.17,7.74,0.05,22.98
13733,0.3418,-0.0094,0.8595,-6.15,7.73,-0.02,22.98
13743,0.3403,-0.0087,0.86,-6.17,7.83,-0.06,23.01
13753,0.3413,-0.0114,0.8589,-6.18,7.76,0.02,22.99
13763,0.344,-0.009,0.8613,-6.26,7.77,-0.06,22.97
13773,0.3408,-0.0087,0.8575,-6.21,7.82,0.0,22.98
13783,0.339,-0.0105,0.8628,-6.14,7.8,-0.12,22.96
13793,0.3413,-0.0122,0.8591,-6.23,7.82,0.02,22.98
13803,0.342,-0.0079,0.8612,-6.17,7.71,0.03,22.97
13813,0.3436,-0.0087,0.8616,-6.23,7.76,0.0,22.99
13823,0.3436,-0.0106,0.8617,-6.21,7.8,-0.05,22.98
13833,0.3406,-0.0084,0.8584,-6.21,7.77,-0.03,22.99
13843,0.3429,-0.0073,0.8627,-6.18,7.85,-0.03,22.97
13853,0.3416,-0.0078,0.855,-6.14,7.8,0.0,22.97
13863,0.3395,-0.0074,0.8608,-6.17,7.73,-0.03,23.0
13873,0.3425,-0.0096,0.8574,-6.15,7.74,0.03,23.0
13883,0.3417,-0.0073,0.8613,-6.2,7.79,0.03,22.97
13893,0.3407,-0.0101,0.8593,-6.18,7.76,-0.02,22.99
13903,0.3423,-0.0099,0.8584,-6.11,7.69,-0.08,22.98
13913,0.3409,-0.01,0.8625,-6.21,7.73,-0.06,22.99
13923,0.3416,-0.0094,0.8621,-6.18,7.82,-0.08,22.99
13933,0.3417,-0.0088,0.8582,-6.17,7.8,0.02,22.99
13943,0.3435,-0.0077,0.8593,-6.17,7.79,0.03,22.99
13953,0.3405,-0.0079,0.8613,-6.11,7.79,0.02,22.98
13963,0.3434,-0.0114,0.8615,-6.17,7.73,-0.08,23.0
13973,0.3413,-0.0107,0.8599,-6.14,7.69,-0.05,23.02
13983,0.3383,-0.01,0.8582,-6.21,7.74,-0.03,23.02
13993,0.3422,-0.0132,0.8605,-6.2,7.8,-0.02,22.96
14003,0.3442,-0.0114,0.8593,-6.11,7.79,0.0,22.98
14013,0.3403,-0.0095,0.86,-6.23,7.73,-0.06,22.98
14023,0.3416,-0.0087,0.8607,-6.21,7.77,0.03,23.0
14033,0.3439,-0.0077,0.855,-6.15,7.82,0.09,22.98
14043,0.3416,-0.0093,0.8562,-6.23,7.77,0.02,22.97
14053,0.3423,-0.0107,0.8564,-6.23,7.83,-0.05,22.99
14063,0.3412,-0.0114,0.8624,-6.21,7.69,-0.09,22.98
14073,0.3434,-0.0114,0.8618,-6.2,7.79,-0.02,22.97
14083,0.3423,-0.0109,0.8634,-6.15,7.73,-0.11,22.97
14093,0.3406,-0.0093,0.8619,-6.18,7.74,-0.05,22.99
14103,0.3409,-0.007,0.8604,-6.18,7.82,0.0,23.0
14113,0.3445,-0.0088,0.8623,-6.24,7.73,-0.08,23.01
14123,0.3424,-0.0112,0.8656,-6.26,7.8,-0.02,22.99
14133,0.3419,-0.0117,0.8591,-6.2,7.8,0.03,22.99
14143,0.3424,-0.0082,0.8595,-6.21,7.76,0.02,22.97
14153,0.3397,-0.0103,0.8544,-6.29,7.77,-0.03,22.98
14163,0.34,-0.0072,0.859,-6.21,7.71,-0.02,22.99
14173,0.343,-0.0095,0.8617,-6.15,7.68,-0.02,23.0
14183,0.3424,-0.0099,0.863,-6.17,7.74,-0.03,23.0
14193,0.3411,-0.0109,0.8602,-6.2,7.77,-0.05,23.0
14203,0.3414,-0.0096,0.8601,-6.18,7.8,-0.08,23.01
14213,0.3408,-0.0099,0.8602,-6.24,7.88,-0.03,22.98
14223,0.3397,-0.0082,0.8661,-6.09,7.79,-0.05,22.99
14233,0.3386,-0.0085,0.8643,-6.18,7.77,0.03,22.99
14243,0.3412,-0.0117,0.8597,-6.24,7.8,-0.02,22.97
14253,0.3423,-0.0081,0.8583,-6.2,7.77,-0.05,22.99
14263,0.3403,-0.0087,0.861,-6.23,7.74,-0.08,22.98
14273,0.3417,-0.0118,0.8588,-6.2,7.73,-0.05,22.98
14283,0.342,-0.0099,0.8575,-6.15,7.76,-0.06,23.0
14293,0.3402,-0.0109,0.8634,-6.27,7.71,0.03,22.97
14303,0.3394,-0.0093,0.8624,-6.29,7.74,-0.05,22.99
14313,0.3406,-0.0109,0.8616,-6.2,7.8,-0.02,23.02
14323,0.3403,-0.0096,0.8579,-6.2,7.79,0.0,22.99
14333,0.3413,-0.01,0.8571,-6.17,7.74,-0.06,23.01
14343,0.3398,-0.0077,0.8549,-6.26,7.73,-0.02,23.0
14353,0.3407,-0.0144,0.8621,-6.15,7.73,-0.02,22.99
14363,0.3444,-0.0101,0.8623,-6.09,7.73,-0.06,22.99
14373,0.3447,-0.0078,0.8634,-6.18,7.69,-0.02,22.99
14383,0.3424,-0.012,0.8564,-6.14,7.8,-0.02,23.01
14393,0.3418,-0.0081,0.8623,-6.11,7.71,-0.06,23.02
14403,0.3413,-0.0089,0.8599,-6.14,7.69,0.0,23.01
14413,0.3396,-0.0128,0.86,-6.23,7.82,-0.06,23.02
14423,0.3369,-0.0101,0.8629,-6.26,7.8,0.02,23.0
14433,0.343,-0.0106,0.8555,-6.2,7.8,0.02,23.02
14443,0.3405,-0.009,0.8545,-6.21,7.8,-0.06,23.02
14453,0.3445,-0.0107,0.8608,-6.15,7.79,-0.02,23.0
14463,0.3439,-0.0109,0.8625,-6.17,7.83,-0.09,22.99
14473,0.3438,-0.0084,0.8596,-6.21,7.8,0.02,23.0
14483,0.3413,-0.0087,0.8616,-6.18,7.83,-0.05,23.0
14493,0.3424,-0.0085,0.8605,-6.21,7.8,-0.06,23.02
14503,0.3429,-0.0112,0.8617,-6.26,7.74,-0.11,22.99
14513,0.3411,-0.0111,0.8573,-6.27,7.71,0.0,22.99
14523,0.3406,-0.0115,0.8595,-6.2,7.74,0.03,22.99
14533,0.3414,-0.0096,0.8595,-6.21,7.77,0.02,23.01
14543,0.3409,-0.0083,0.8638,-6.21,7.79,-0.06,23.0
14553,0.3401,-0.0093,0.8602,-6.23,7.69,0.05,23.03
14563,0.3412,-0.0109,0.8578,-6.26,7.82,0.11,23.03
14573,0.3435,-0.0098,0.8583,-6.11,7.73,-0.05,23.01
14583,0.3419,-0.0085,0.8608,-6.24,7.74,-0.02,23.0
14593,0.3423,-0.0127,0.8639,-6.12,7.79,-0.02,23.0
14604,0.3434,-0.0084,0.8601,-6.11,7.79,0.08,23.02
14614,0.3436,-0.0083,0.8591,-6.23,7.79,-0.02,23.01
14624,0.3418,-0.0085,0.859,-6.17,7.85,0.05,23.01
14634,0.3416,-0.0101,0.8556,-6.24,7.73,0.03,22.99
14644,0.3387,-0.0115,0.8624,-6.23,7.74,0.02,23.0
14654,0.3418,-0.0121,0.8602,-6.11,7.77,-0.09,23.02
14665,0.3406,-0.0127,0.8583,-6.21,7.73,0.0,23.0
14675,0.342,-0.0122,0.8596,-6.21,7.79,0.05,22.99
14685,0.3419,-0.0095,0.8591,-6.15,7.69,-0.03,23.0
14696,0.3422,-0.0085,0.8573,-6.18,7.89,0.0,23.03
14706,0.3428,-0.0089,0.8538,-6.15,7.77,0.08,23.01
14716,0.3422,-0.0116,0.8606,-6.29,7.83,-0.08,23.0
14726,0.3419,-0.0085,0.8638,-6.15,7.8,0.0,22.99
14736,0.3439,-0.0111,0.8585,-6.23,7.82,-0.02,23.01
14746,0.3429,-0.0103,0.8602,-6.29,7.73,-0.03,23.01
14756,0.3422,-0.01,0.8584,-6.21,7.8,-0.03,23.01
14766,0.3417,-0.0122,0.8583,-6.21,7.76,0.05,22.99
14776,0.343,-0.0099,0.8622,-6.23,7.73,-0.05,23.02
14786,0.34,-0.0104,0.8615,-6.2,7.76,0.05,23.0
14796,0.3424,-0.0084,0.8596,-6.29,7.76,0.05,23.02
14806,0.3414,-0.0057,0.8593,-6.2,7.83,-0.09,22.99
14816,0.3422,-0.0116,0.8622,-6.14,7.73,-0.08,22.99
14826,0.3403,-0.0093,0.8568,-6.17,7.73,-0.06,22.99
14836,0.342,-0.0101,0.86,-6.14,7.66,-0.03,22.99
14846,0.3403,-0.0092,0.8588,-6.2,7.74,0.05,22.97
14857,0.3395,-0.0117,0.8602,-6.26,7.76,0.0,23.02
14867,0.3431,-0.0106,0.861,-6.24,7.69,-0.03,23.0
14877,0.3391,-0.0089,0.86,-6.18,7.76,-0.05,23.03
14887,0.3438,-0.0112,0.8578,-6.17,7.79,-0.09,23.01
14897,0.3406,-0.0082,0.8597,-6.17,7.77,-0.02,23.02
14907,0.3417,-0.0089,0.8579,-6.09,7.73,-0.03,23.04
14917,0.3411,-0.0095,0.8628,-6.18,7.69,-0.03,23.01
14927,0.342,-0.0087,0.8602,-6.09,7.73,-0.02,23.03
14937,0.3408,-0.0077,0.8582,-6.14,7.76,0.03,23.02
14947,0.3424,-0.0081,0.8611,-6.18,7.79,-0.03,23.03
14957,0.3419,-0.0125,0.8633,-6.11,7.73,0.05,23.02
14967,0.3407,-0.0109,0.8634,-6.18,7.76,-0.03,23.03
14977,0.342,-0.0092,0.86,-6.17,7.74,-0.05,23.0
14987,0.3403,-0.0094,0.8583,-6.15,7.8,0.06,22.99
14997,0.3413,-0.0084,0.8604,-6.24,7.79,-0.11,23.01
15007,0.3418,-0.0106,0.8613,-6.15,7.71,0.0,23.01
15017,0.3419,-0.0094,0.8601,-6.2,7.73,-0.09,23.01
15027,0.339,-0.0088,0.8623,-6.2,7.74,-0.05,23.02
15037,0.3392,-0.0109,0.8634,-6.2,7.73,-0.05,23.03
15047,0.3408,-0.0085,0.8629,-6.18,7.79,-0.05,23.02
15057,0.342,-0.0083,0.8629,-6.23,7.71,-0.09,23.02
15067,0.343,-0.011,0.8591,-6.17,7.8,-0.09,23.01
15077,0.3428,-0.0062,0.8596,-6.18,7.8,-0.06,23.01
15087,0.3441,-0.0096,0.8573,-6.11,7.73,-0.02,23.02
15097,0.3435,-0.0115,0.8575,-6.21,7.71,-0.03,23.02
15107,0.3398,-0.0095,0.8572,-6.23,7.85,-0.02,23.01
15117,0.3427,-0.0095,0.86,-6.29,7.69,-0.11,23.0
15127,0.3405,-0.007,0.8573,-6.26,7.74,-0.11,23.01
15137,0.3435,-0.0112,0.8622,-6.2,7.74,-0.02,23.02
15147,0.342,-0.0116,0.8616,-6.21,7.76,-0.03,23.01
15157,0.3436,-0.0125,0.8578,-6.14,7.76,0.02,23.02
15167,0.3411,-0.0085,0.8616,-6.14,7.77,-0.05,23.04
15177,0.3423,-0.0084,0.8573,-6.21,7.8,-0.12,23.01
15187,0.3409,-0.007,0.8608,-6.32,7.76,-0.05,23.02
15197,0.3406,-0.0094,0.8606,-6.26,7.8,-0.09,23.02
15207,0.3408,-0.0114,0.8611,-6.27,7.76,-0.02,23.0
15217,0.3438,-0.0089,0.8558,-6.18,7.76,0.02,22.99
15227,0.3422,-0.0078,0.8605,-6.15,7.74,-0.06,23.01
15237,0.3425,-0.009,0.8593,-6.17,7.82,0.02,23.02
15247,0.3431,-0.0094,0.858,-6.23,7.83,0.02,23.05
15257,0.3429,-0.0071,0.8628,-6.21,7.73,0.02,23.02
15267,0.3427,-0.0088,0.8622,-6.2,7.76,-0.02,23.02
15277,0.3409,-0.0083,0.8594,-6.18,7.76,0.02,23.03
15287,0.3442,-0.012,0.8597,-6.23,7.73,-0.05,23.01
15297,0.3435,-0.0109,0.8634,-6.21,7.76,-0.02,23.02
15307,0.3403,-0.0104,0.8585,-6.29,7.86,-0.05,23.0
15317,0.339,-0.0078,0.8596,-6.29,7.74,0.0,23.01
15327,0.3411,-0.009,0.858,-6.18,7.79,0.03,23.01
15337,0.3418,-0.0101,0.8621,-6.14,7.77,-0.08,23.01
15347,0.3431,-0.0104,0.8619,-6.21,7.74,0.05,23.03
15357,0.3419,-0.0085,0.8599,-6.26,7.79,0.05,23.02
15367,0.3395,-0.0081,0.858,-6.24,7.85,-0.03,23.02
15377,0.3401,-0.0103,0.8594,-6.18,7.8,-0.06,23.03
15387,0.3425,-0.0093,0.8588,-6.23,7.8,-0.06,23.04
15397,0.3401,-0.0105,0.8608,-6.2,7.69,-0.06,23.0
15407,0.3407,-0.011,0.861,-6.14,7.74,0.0,23.03
15417,0.3419,-0.0103,0.8588,-6.11,7.79,0.12,23.05
15427,0.3438,-0.009,0.8625,-6.18,7.79,-0.08,23.03
15437,0.3392,-0.0073,0.8585,-6.24,7.82,-0.03,23.0
15447,0.3418,-0.0094,0.8612,-6.24,7.82,-0.09,22.99
15457,0.3414,-0.0105,0.8619,-6.23,7.77,-0.08,23.0
15467,0.3412,-0.0115,0.8593,-6.2,7.76,-0.03,23.03
15477,0.3422,-0.0133,0.8569,-6.14,7.73,-0.05,23.04
15487,0.3428,-0.0109,0.8586,-6.14,7.73,-0.03,23.04
15497,0.3434,-0.0096,0.8568,-6.2,7.74,-0.02,23.02
15507,0.3403,-0.01,0.859,-6.18,7.8,-0.05,23.02
15517,0.3418,-0.0112,0.8595,-6.23,7.76,-0.03,23.04
15527,0.3398,-0.0107,0.8629,-6.17,7.71,0.03,23.03
15537,0.3436,-0.0095,0.8564,-6.2,7.74,0.02,23.02
15547,0.3406,-0.0101,0.8604,-6.23,7.83,0.0,23.02
15557,0.3423,-0.0096,0.8622,-6.24,7.76,0.0,23.03
15567,0.3407,-0.0111,0.859,-6.18,7.74,-0.02,23.03
15577,0.3411,-0.011,0.8618,-6.15,7.8,-0.11,23.02
15587,0.3419,-0.0067,0.8591,-6.23,7.8,0.0,23.03
15597,0.339,-0.0082,0.8623,-6.2,7.77,-0.06,23.04
15607,0.3405,-0.01,0.8601,-6.14,7.79,-0.05,23.01
15617,0.3429,-0.0093,0.8602,-6.11,7.77,-0.02,23.04
15627,0.3438,-0.0088,0.8636,-6.23,7.83,-0.03,23.02
15637,0.3424,-0.007,0.8625,-6.18,7.74,0.03,23.04
15647,0.3406,-0.0066,0.8585,-6.2,7.79,-0.05,23.02
15657,0.3406,-0.0112,0.8569,-6.08,7.71,-0.09,23.02
15667,0.3428,-0.0073,0.8586,-6.21,7.71,-0.02,23.02
15677,0.3431,-0.0088,0.8549,-6.14,7.76,-0.05,23.0
15687,0.3414,-0.0105,0.8618,-6.12,7.73,-0.03,23.03
15697,0.3422,-0.0099,0.8636,-6.12,7.68,0.03,23.03
15707,0.3451,-0.0109,0.8606,-6.21,7.77,-0.06,23.03
15717,0.3423,-0.0076,0.8579,-6.21,7.77,0.03,23.03
15727,0.3406,-0.0093,0.8604,-6.14,7.8,0.06,23.01
15737,0.3429,-0.0096,0.8593,-6.2,7.79,0.03,23.04
15747,0.3392,-0.0093,0.8583,-6.24,7.71,0.02,23.07
15757,0.3403,-0.0094,0.8568,-6.24,7.79,-0.03,23.03
15767,0.3408,-0.0082,0.8574,-6.12,7.76,-0.11,23.03
15777,0.3419,-0.009,0.8611,-6.2,7.77,-0.03,23.05
15787,0.3405,-0.0101,0.8589,-6.23,7.76,-0.03,23.04
15797,0.3422,-0.01,0.8578,-6.23,7.76,-0.06,23.02
15807,0.3409,-0.0106,0.8611,-6.26,7.79,-0.03,23.03
15817,0.3395,-0.0079,0.8602,-6.17,7.79,-0.03,23.03
15827,0.3395,-0.0085,0.8604,-6.21,7.73,0.03,23.04
15837,0.3391,-0.0116,0.8607,-6.17,7.76,0.08,23.01
15847,0.3417,-0.0103,0.859,-6.18,7.77,0.05,23.02
15857,0.3414,-0.0082,0.8567,-6.23,7.8,0.02,23.03
15867,0.34,-0.0103,0.8579,-6.35,7.71,-0.09,23.06
15877,0.3414,-0.0087,0.8611,-6.23,7.69,-0.08,23.03
15887,0.3411,-0.0081,0.8602,-6.32,7.85,-0.09,23.04
15897,0.3395,-0.0065,0.8629,-6.18,7.8,0.02,23.04
15907,0.3397,-0.0071,0.8594,-6.23,7.8,-0.03,23.04
15917,0.3424,-0.0087,0.8649,-6.17,7.82,-0.05,23.04
15927,0.3435,-0.01,0.8641,-6.14,7.74,0.0,23.04
15937,0.3387,-0.0079,0.8579,-6.15,7.68,0.03,23.03
15947,0.3403,-0.0131,0.861,-6.24,7.77,0.0,23.03
15957,0.3411,-0.0085,0.8557,-6.17,7.71,-0.02,23.05
15967,0.342,-0.0117,0.8585,-6.26,7.74,-0.12,23.04
15977,0.3385,-0.0116,0.8612,-6.24,7.76,-0.03,23.04
15987,0.3383,-0.0112,0.8594,-6.2,7.66,-0.06,23.04
15997,0.343,-0.0105,0.8602,-6.23,7.73,0.08,23.04
16007,0.342,-0.0116,0.858,-6.23,7.71,0.02,23.02
16017,0.3439,-0.0083,0.8572,-6.26,7.74,-0.03,23.03
16027,0.3407,-0.0109,0.8588,-6.17,7.69,-0.09,23.04
16037,0.3383,-0.0118,0.8616,-6.2,7.74,0.0,23.03
16047,0.3447,-0.0089,0.8588,-6.26,7.77,-0.03,23.05
16057,0.344,-0.0096,0.8627,-6.23,7.8,0.0,23.04
16067,0.3442,-0.0144,0.8633,-6.14,7.8,-0.03,23.04
16077,0.3418,-0.0103,0.8635,-6.17,7.74,-0.02,23.02
16087,0.3461,-0.0099,0.8617,-6.23,7.73,-0.05,23.04
16097,0.3389,-0.0099,0.86,-6.23,7.79,-0.03,23.02
16107,0.3403,-0.0101,0.8577,-6.09,7.76,0.0,23.04
16117,0.3407,-0.01,0.8601,-6.21,7.74,-0.03,23.04
16127,0.3411,-0.0089,0.8586,-6.14,7.77,-0.02,23.02
16137,0.3413,-0.0098,0.8561,-6.12,7.77,-0.09,23.04
16147,0.3417,-0.0085,0.8563,-6.15,7.83,0.03,23.04
16157,0.3414,-0.0076,0.8555,-6.17,7.76,-0.03,23.04
16167,0.3409,-0.0081,0.859,-6.24,7.76,-0.03,23.04
16177,0.3416,-0.0084,0.859,-6.26,7.73,-0.05,23.06
16187,0.3417,-0.0098,0.8618,-6.18,7.76,0.0,23.06
16197,0.3427,-0.0099,0.8618,-6.2,7.83,-0.08,23.04
16207,0.3422,-0.0089,0.8585,-6.11,7.8,-0.06,23.04
16217,0.3403,-0.0084,0.8558,-6.2,7.76,0.0,23.04
16227,0.3424,-0.0096,0.8574,-6.23,7.79,-0.11,23.02
16237,0.3408,-0.0085,0.8577,-6.15,7.79,-0.03,23.03
16247,0.3408,-0.0089,0.8575,-6.2,7.77,-0.08,23.03
16257,0.3403,-0.0111,0.8594,-6.18,7.71,-0.06,23.05
16267,0.3416,-0.0101,0.8574,-6.18,7.82,-0.06,23.04
16277,0.3417,-0.0118,0.8567,-6.23,7.77,-0.03,23.05
16287,0.3435,-0.01,0.8628,-6.23,7.85,-0.05,23.05
16297,0.3436,-0.0098,0.8571,-6.18,7.82,0.02,23.04
16307,0.3413,-0.0087,0.8588,-6.24,7.79,-0.03,23.06
16317,0.3424,-0.0092,0.8625,-6.15,7.69,0.0,23.05
16328,0.3433,-0.0073,0.8564,-6.26,7.66,-0.11,23.02
16338,0.3445,-0.0076,0.8586,-6.23,7.76,-0.03,23.03
16348,0.3409,-0.0107,0.8585,-6.23,7.77,0.0,23.03
16358,0.3409,-0.0082,0.8608,-6.15,7.8,0.03,23.03
16369,0.3398,-0.0115,0.8608,-6.15,7.68,-0.09,23.06
16379,0.3406,-0.0083,0.8627,-6.17,7.76,-0.03,23.03
16389,0.342,-0.0089,0.8633,-6.23,7.83,0.0,23.07
16399,0.3411,-0.0071,0.8564,-6.2,7.79,-0.03,23.04
16409,0.3418,-0.0096,0.8635,-6.15,7.66,0.05,23.07
16419,0.3409,-0.0125,0.8596,-6.15,7.77,-0.03,23.04
16429,0.3425,-0.0115,0.8606,-6.23,7.74,-0.11,23.03
16439,0.338,-0.0088,0.8541,-6.17,7.82,-0.06,23.03
16449,0.3414,-0.0112,0.8601,-6.2,7.86,-0.06,23.04
16459,0.3427,-0.0096,0.8623,-6.18,7.73,0.0,23.04
16469,0.3423,-0.0112,0.863,-6.15,7.69,0.06,23.04
16479,0.3412,-0.0103,0.8566,-6.24,7.74,-0.02,23.02
16489,0.3392,-0.0096,0.8617,-6.15,7.74,-0.05,23.06
16499,0.3395,-0.0099,0.8616,-6.24,7.82,0.08,23.06
16509,0.3409,-0.0099,0.8573,-6.27,7.8,-0.05,23.05
16519,0.3396,-0.0122,0.8595,-6.21,7.73,-0.08,23.02
16529,0.344,-0.0096,0.8577,-6.18,7.68,-0.06,23.04
16539,0.3414,-0.0084,0.8595,-6.21,7.73,0.0,23.02
16549,0.3398,-0.0121,0.8605,-6.11,7.82,-0.09,23.06
16559,0.3416,-0.0133,0.8601,-6.12,7.77,-0.05,23.06
16569,0.3423,-0.0099,0.8606,-6.24,7.82,-0.02,23.06
16579,0.3427,-0.0106,0.8588,-6.2,7.85,-0.02,23.04
16589,0.3391,-0.0085,0.8564,-6.12,7.62,-0.08,23.07
16599,0.3381,-0.0104,0.8636,-6.23,7.74,-0.05,23.04
16609,0.3428,-0.01,0.8611,-6.24,7.76,-0.03,23.04
16619,0.3385,-0.0062,0.8616,-6.34,7.77,-0.08,23.07
16629,0.3374,-0.0115,0.859,-6.21,7.79,0.03,23.04
16639,0.3384,-0.0087,0.8613,-6.23,7.85,-0.03,23.05
16649,0.3402,-0.009,0.8588,-6.23,7.73,0.03,23.07
16659,0.3442,-0.0103,0.8578,-6.2,7.68,-0.03,23.06
16669,0.342,-0.0092,0.861,-6.12,7.76,-0.05,23.06
16679,0.3423,-0.0082,0.8601,-6.15,7.76,-0.06,23.07
16689,0.3384,-0.0111,0.8633,-6.08,7.83,-0.03,23.04
16699,0.3455,-0.0077,0.8599,-6.21,7.76,-0.08,23.06
16709,0.3425,-0.0093,0.8564,-6.17,7.71,-0.05,23.04
16719,0.3406,-0.0084,0.8604,-6.17,7.73,-0.03,23.05
16729,0.342,-0.0104,0.8607,-6.2,7.82,-0.06,23.05
16739,0.3402,-0.0081,0.8586,-6.2,7.69,0.02,23.07
16749,0.3411,-0.0112,0.8585,-6.15,7.76,-0.03,23.03
16759,0.3396,-0.011,0.8572,-6.26,7.73,0.0,23.06
16769,0.3427,-0.0088,0.8588,-6.2,7.77,-0.02,23.07
16779,0.3411,-0.0083,0.8566,-6.2,7.71,-0.05,23.06
16789,0.3412,-0.0123,0.8564,-6.26,7.79,0.02,23.03
16799,0.3413,-0.0105,0.8566,-6.21,7.73,0.0,23.07
16809,0.3414,-0.0116,0.8602,-6.17,7.76,0.02,23.04
16819,0.3416,-0.0127,0.8617,-6.35,7.71,-0.02,23.04
16829,0.3419,-0.0088,0.8634,-6.21,7.77,0.0,23.07
16839,0.3436,-0.0092,0.8617,-6.17,7.63,0.03,23.07
16849,0.3389,-0.0103,0.8572,-6.27,7.82,-0.06,23.07
16859,0.3441,-0.0126,0.8569,-6.18,7.74,-0.03,23.06
16869,0.3439,-0.0116,0.8585,-6.18,7.79,0.02,23.07
16879,0.3418,-0.012,0.8596,-6.23,7.74,-0.08,23.05
16889,0.3403,-0.0104,0.8577,-6.17,7.73,-0.11,23.07
16899,0.3401,-0.0116,0.8619,-6.2,7.79,-0.06,23.09
16909,0.3409,-0.0106,0.8605,-6.27,7.73,-0.03,23.07
16919,0.3413,-0.0126,0.8605,-6.2,7.79,0.05,23.05
16929,0.342,-0.0128,0.8574,-6.23,7.76,0.02,23.06
16939,0.3406,-0.0125,0.8601,-6.21,7.76,0.03,23.04
16949,0.3412,-0.0103,0.858,-6.21,7.77,-0.03,23.05
16959,0.3407,-0.0126,0.8601,-6.21,7.71,-0.08,23.06
16969,0.3413,-0.0121,0.8593,-6.18,7.77,-0.03,23.05
16979,0.3401,-0.0101,0.8575,-6.2,7.71,-0.06,23.08
16989,0.3408,-0.0085,0.8608,-6.17,7.74,-0.05,23.06
16999,0.3439,-0.006,0.8569,-6.21,7.76,0.03,23.06
17009,0.3384,-0.0077,0.8615,-6.15,7.83,-0.06,23.08
17019,0.3403,-0.0093,0.8615,-6.11,7.77,-0.11,23.04
17029,0.339,-0.0083,0.8601,-6.14,7.76,-0.12,23.06
17039,0.3385,-0.0112,0.8611,-6.27,7.82,0.0,23.05
17049,0.3407,-0.0121,0.8577,-6.26,7.88,-0.03,23.04
17059,0.3419,-0.0131,0.8551,-6.18,7.79,0.03,23.06
17069,0.3413,-0.0121,0.8582,-6.18,7.79,-0.03,23.08
17079,0.343,-0.0094,0.8567,-6.21,7.76,-0.06,23.05
17089,0.3444,-0.0065,0.8597,-6.17,7.74,-0.06,23.07
17099,0.3414,-0.0073,0.8582,-6.15,7.73,-0.03,23.07
17109,0.3405,-0.0077,0.861,-6.29,7.82,0.05,23.03
17119,0.3389,-0.0068,0.8611,-6.18,7.76,0.05,23.06
17129,0.3429,-0.0078,0.861,-6.14,7.86,-0.08,23.07
17139,0.3453,-0.0103,0.8561,-6.24,7.74,0.02,23.06
17149,0.3431,-0.0125,0.8577,-6.17,7.8,0.0,23.07
17159,0.3408,-0.0118,0.8575,-6.21,7.8,-0.08,23.07
17169,0.3409,-0.0118,0.8604,-6.18,7.73,-0.06,23.05
17179,0.3452,-0.011,0.8569,-6.24,7.8,-0.02,23.06
17189,0.3389,-0.0085,0.8608,-6.21,7.76,0.03,23.04
17199,0.3401,-0.0098,0.865,-6.18,7.69,-0.02,23.08
17209,0.3397,-0.0073,0.8604,-6.2,7.71,-0.05,23.06
17219,0.344,-0.0112,0.8566,-6.2,7.74,-0.03,23.07
17229,0.3408,-0.0118,0.8594,-6.17,7.76,-0.02,23.06
17239,0.3412,-0.011,0.854,-6.12,7.74,-0.03,23.06
17249,0.3429,-0.0121,0.8553,-6.09,7.74,-0.03,23.05
17259,0.344,-0.0122,0.8605,-6.21,7.76,-0.02,23.07
17269,0.3416,-0.0094,0.8615,-6.15,7.71,-0.03,23.07
17279,0.3389,-0.0095,0.8634,-6.15,7.73,0.05,23.06
17289,0.3405,-0.0077,0.8584,-6.15,7.77,-0.05,23.05
17299,0.3402,-0.0031,0.859,-6.23,7.85,-0.09,23.04
17309,0.3424,-0.0083,0.8628,-6.14,7.76,0.0,23.06
17319,0.3417,-0.0127,0.8623,-6.24,7.8,0.06,23.08
17329,0.3394,-0.0077,0.8676,-6.15,7.73,0.05,23.05
17339,0.3394,-0.0123,0.8591,-6.18,7.76,0.05,23.03
17349,0.3396,-0.0123,0.8579,-6.21,7.68,0.03,23.06
17359,0.3441,-0.0122,0.8601,-6.17,7.73,-0.08,23.05
17369,0.3431,-0.0083,0.8599,-6.18,7.8,-0.03,23.05
17379,0.3451,-0.0065,0.8573,-6.2,7.79,0.02,23.06
17389,0.3411,-0.0049,0.8594,-6.21,7.69,0.05,23.05
17399,0.3405,-0.0078,0.8574,-6.17,7.74,-0.06,23.04
17409,0.3407,-0.0071,0.8582,-6.2,7.69,-0.08,23.06
17419,0.3436,-0.0062,0.8572,-6.2,7.79,0.0,23.07
17429,0.3436,-0.0098,0.8601,-6.18,7.71,0.03,23.06
17439,0.3412,-0.0098,0.8599,-6.18,7.79,-0.06,23.04
17449,0.3436,-0.0111,0.8593,-6.06,7.71,0.0,23.03
17460,0.3416,-0.0111,0.8589,-6.09,7.76,-0.03,23.04
17470,0.3418,-0.0081,0.8606,-6.21,7.74,-0.02,23.05
17480,0.3438,-0.009,0.8568,-6.23,7.73,0.02,23.07
17490,0.3429,-0.0062,0.8619,-6.15,7.76,0.0,23.07
17500,0.3429,-0.0073,0.8578,-6.18,7.8,-0.02,23.05
17510,0.3389,-0.0081,0.8613,-6.18,7.71,0.0,23.08
17520,0.3394,-0.0107,0.8617,-6.23,7.76,-0.05,23.07
17530,0.3429,-0.0121,0.8579,-6.21,7.76,0.0,23.06
17540,0.3414,-0.0112,0.8595,-6.11,7.82,-0.03,23.07
17550,0.3419,-0.0087,0.8577,-6.29,7.74,0.06,23.08
17560,0.3439,-0.0099,0.8623,-6.2,7.76,0.0,23.05
17570,0.3408,-0.0101,0.8622,-6.2,7.77,-0.05,23.07
17581,0.3411,-0.0099,0.8605,-6.11,7.83,0.0,23.06
17591,0.3405,-0.0081,0.8623,-6.14,7.73,0.0,23.04
17601,0.342,-0.0103,0.8623,-6.23,7.74,-0.03,23.05
17611,0.3405,-0.0111,0.8593,-6.27,7.79,-0.02,23.07
17621,0.3379,-0.0095,0.8611,-6.18,7.74,-0.03,23.05
17631,0.3409,-0.0089,0.8608,-6.23,7.85,-0.03,23.04
17641,0.3419,-0.0094,0.8563,-6.21,7.73,0.0,23.06
17651,0.3386,-0.0099,0.8638,-6.12,7.73,-0.03,23.06
17661,0.3445,-0.0095,0.8622,-6.2,7.76,0.02,23.06
17671,0.3427,-0.0063,0.8582,-6.2,7.76,0.03,23.06
17681,0.3385,-0.0083,0.8615,-6.14,7.83,0.02,23.04
17691,0.3398,-0.0079,0.8564,-6.2,7.82,-0.11,23.07
17701,0.3422,-0.0084,0.8615,-6.27,7.76,-0.05,23.07
17711,0.3429,-0.0106,0.8597,-6.31,7.82,0.02,23.07
17721,0.3447,-0.0096,0.858,-6.23,7.79,0.0,23.08
17731,0.3423,-0.0084,0.861,-6.12,7.85,-0.02,23.07
17741,0.3396,-0.0109,0.8593,-6.24,7.68,-0.05,23.05
17751,0.3419,-0.0088,0.8571,-6.17,7.82,-0.08,23.05
17761,0.3407,-0.0081,0.8571,-6.17,7.69,0.03,23.1
17771,0.3422,-0.0088,0.8584,-6.18,7.76,-0.05,23.09
17781,0.3406,-0.0093,0.86,-6.26,7.8,0.09,23.09
17791,0.3419,-0.0077,0.8624,-6.24,7.73,-0.03,23.06
17801,0.3398,-0.0104,0.8632,-6.2,7.79,-0.08,23.07
17811,0.3413,-0.0095,0.8552,-6.26,7.76,0.02,23.07
17821,0.3411,-0.0088,0.8635,-6.21,7.79,-0.06,23.04
17831,0.3425,-0.0139,0.8562,-6.2,7.77,-0.03,23.07
17841,0.3428,-0.012,0.8615,-6.27,7.8,0.02,23.07
17851,0.3434,-0.0118,0.8553,-6.14,7.77,-0.05,23.09
17861,0.3384,-0.0078,0.8607,-6.24,7.82,-0.06,23.05
17871,0.3412,-0.009,0.8602,-6.18,7.74,0.02,23.05
17881,0.338,-0.0118,0.8618,-6.12,7.79,-0.05,23.04
17891,0.3424,-0.0099,0.8594,-6.24,7.71,-0.06,23.07
17901,0.3434,-0.0077,0.8613,-6.15,7.79,-0.06,23.07
17911,0.3416,-0.0106,0.8578,-6.17,7.73,-0.06,23.05
17921,0.3409,-0.0081,0.8596,-6.26,7.66,-0.03,23.07
17931,0.3414,-0.0117,0.8629,-6.21,7.83,-0.02,23.05
17941,0.3428,-0.0104,0.8574,-6.21,7.77,-0.06,23.05
17951,0.3407,-0.0071,0.8597,-6.2,7.8,-0.03,23.08
17961,0.3423,-0.0087,0.8606,-6.23,7.76,-0.02,23.05
17971,0.3402,-0.0078,0.8588,-6.26,7.8,-0.05,23.06
17981,0.3429,-0.0103,0.8613,-6.18,7.8,0.06,23.11
17991,0.3396,-0.0095,0.8563,-6.23,7.79,0.05,23.09
18001,0.3408,-0.0085,0.8589,-6.18,7.68,-0.02,23.07
18011,0.3405,-0.0127,0.8635,-6.27,7.77,0.02,23.09
18021,0.3389,-0.0103,0.8594,-6.24,7.8,-0.03,23.07
18031,0.342,-0.0099,0.8577,-6.21,7.79,-0.03,23.07
18041,0.3406,-0.0083,0.8594,-6.21,7.85,0.02,23.09
18051,0.3396,-0.0083,0.8575,-6.17,7.74,0.06,23.05
18061,0.3398,-0.0109,0.859,-6.24,7.77,-0.05,23.08
18071,0.3414,-0.0104,0.8601,-6.2,7.8,-0.05,23.07
18081,0.3442,-0.0111,0.8584,-6.34,7.82,-0.03,23.06
18091,0.3411,-0.0099,0.8588,-6.31,7.74,-0.06,23.05
18101,0.3444,-0.0103,0.8601,-6.24,7.76,-0.02,23.08
18111,0.3409,-0.0088,0.8612,-6.24,7.8,-0.02,23.09
18121,0.3423,-0.01,0.8618,-6.11,7.77,0.02,23.07
18131,0.3425,-0.0063,0.8602,-6.23,7.77,-0.03,23.07
18141,0.343,-0.0083,0.8619,-6.14,7.77,0.0,23.07
18151,0.3428,-0.0101,0.861,-6.18,7.68,0.03,23.07
18161,0.3408,-0.0106,0.8575,-6.14,7.8,-0.06,23.07
18171,0.3406,-0.0129,0.8585,-6.24,7.69,-0.02,23.09
18181,0.3394,-0.0115,0.8555,-6.17,7.69,0.02,23.06
18191,0.339,-0.0154,0.851,-6.23,7.71,-0.05,23.07
18201,0.3406,-0.0125,0.8632,-6.14,7.77,-0.03,23.09
18211,0.3414,-0.0082,0.8622,-6.23,7.8,-0.06,23.06
18221,0.3411,-0.0093,0.8623,-6.23,7.85,-0.05,23.05
18231,0.3439,-0.0078,0.8597,-6.11,7.76,0.0,23.08
18241,0.3413,-0.0083,0.8632,-6.17,7.77,-0.02,23.08
18251,0.3398,-0.0077,0.8628,-6.29,7.73,0.02,23.1
18261,0.3401,-0.0112,0.8601,-6.29,7.8,-0.02,23.05
18271,0.3413,-0.0121,0.8594,-6.18,7.82,0.09,23.06
18281,0.3391,-0.0156,0.8571,-6.24,7.74,0.03,23.08
18291,0.3403,-0.014,0.8591,-6.17,7.83,0.02,23.07
18301,0.3453,-0.0085,0.8635,-6.2,7.83,-0.03,23.06
18311,0.3418,-0.0054,0.863,-6.27,7.8,-0.03,23.06
18321,0.3359,-0.0049,0.8674,-6.31,7.89,-0.08,23.07
18331,0.3375,-0.0026,0.8633,-6.34,7.76,0.11,23.06
18341,0.3394,-0.0078,0.8556,-6.31,7.66,0.09,23.1
18351,0.3372,-0.0085,0.8607,-6.11,7.57,-0.02,23.09
18361,0.337,-0.0035,0.8727,-6.17,7.6,-0.03,23.08
18371,0.3427,-0.0085,0.8595,-6.26,7.71,-0.06,23.07
18381,0.348,-0.0135,0.8577,-6.24,7.71,0.05,23.09
18391,0.3457,-0.0111,0.8539,-6.14,7.8,0.0,23.08
18401,0.34,-0.0093,0.8617,-6.09,7.8,-0.11,23.09
18411,0.3401,-0.0107,0.8568,-6.17,7.8,-0.06,23.09
18421,0.3374,-0.011,0.8577,-6.17,7.69,-0.02,23.09
18431,0.3435,-0.0093,0.8529,-6.11,7.65,0.02,23.09
18441,0.3434,-0.005,0.8582,-6.17,7.74,-0.06,23.09
18451,0.3412,-0.0074,0.8636,-6.15,7.73,-0.06,23.09
18461,0.3406,-0.0098,0.8654,-6.24,7.76,-0.06,23.07
18471,0.343,-0.0082,0.8621,-6.29,7.65,-0.03,23.1
18481,0.3409,-0.0098,0.8601,-6.2,7.74,-0.05,23.08
18491,0.3417,-0.0122,0.8638,-6.21,7.79,-0.11,23.08
18501,0.3376,-0.011,0.8605,-6.14,7.8,0.03,23.09
18511,0.3409,-0.0103,0.8566,-6.2,7.76,0.0,23.09
18521,0.3424,-0.0109,0.8542,-6.2,7.68,0.06,23.07
18531,0.3409,-0.012,0.8602,-6.15,7.76,-0.03,23.09
18541,0.3391,-0.014,0.8579,-6.17,7.86,-0.14,23.09
18551,0.3413,-0.0112,0.8615,-6.27,7.77,0.03,23.09
18561,0.3441,-0.0105,0.8624,-6.27,7.76,0.03,23.09
18571,0.3441,-0.0144,0.8572,-6.23,7.69,-0.03,23.07
18581,0.3439,-0.0122,0.8599,-6.21,7.83,-0.08,23.08
18591,0.3397,-0.0076,0.8595,-6.2,7.83,-0.09,23.06
18601,0.3414,-0.0105,0.8624,-6.18,7.76,0.02,23.07
18611,0.3407,-0.0094,0.856,-6.14,7.69,0.05,23.09
18621,0.3411,-0.0111,0.8552,-6.2,7.79,-0.02,23.07
18631,0.34,-0.0118,0.861,-6.2,7.77,0.02,23.1
18641,0.3413,-0.0084,0.8594,-6.29,7.73,0.02,23.08
18651,0.3431,-0.0083,0.865,-6.21,7.65,0.0,23.06
18661,0.3435,-0.0094,0.8595,-6.24,7.77,0.02,23.07
18671,0.3419,-0.0096,0.8599,-6.18,7.77,-0.02,23.07
18681,0.3398,-0.0093,0.8636,-6.27,7.73,0.03,23.09
18691,0.3417,-0.0123,0.8595,-6.23,7.68,-0.06,23.09
18701,0.3413,-0.009,0.8583,-6.21,7.74,-0.03,23.08
18711,0.3436,-0.0093,0.8578,-6.21,7.73,-0.06,23.08
18721,0.3376,-0.0112,0.8601,-6.08,7.79,0.0,23.11
18731,0.3392,-0.009,0.8607,-6.21,7.77,0.02,23.07
18741,0.3422,-0.0088,0.8615,-6.17,7.69,0.02,23.08
18751,0.3412,-0.01,0.859,-6.2,7.74,-0.12,23.09
18761,0.3425,-0.0125,0.8601,-6.09,7.76,-0.11,23.09
18771,0.3417,-0.01,0.8574,-6.18,7.79,-0.08,23.08
18781,0.3413,-0.0095,0.864,-6.14,7.71,0.06,23.09
18791,0.3414,-0.0122,0.8594,-6.15,7.74,0.02,23.1
18801,0.3418,-0.0093,0.8572,-6.24,7.82,0.0,23.06
18811,0.3396,-0.0066,0.8589,-6.23,7.77,-0.08,23.09
18821,0.3417,-0.0095,0.8586,-6.21,7.82,-0.06,23.09
18831,0.3414,-0.0074,0.859,-6.15,7.73,-0.05,23.06
18841,0.3433,-0.0071,0.8599,-6.26,7.82,0.02,23.07
18851,0.3417,-0.0085,0.8635,-6.17,7.74,-0.02,23.08
18861,0.3422,-0.0071,0.8566,-6.14,7.77,-0.14,23.07
18871,0.3416,-0.01,0.8608,-6.26,7.79,-0.14,23.07
18881,0.3402,-0.0112,0.8582,-6.26,7.73,-0.06,23.08
18891,0.3419,-0.0105,0.8579,-6.2,7.83,0.03,23.09
18901,0.3414,-0.0105,0.8579,-6.12,7.73,-0.02,23.07
18911,0.3419,-0.0109,0.8608,-6.17,7.66,0.09,23.08
18921,0.3423,-0.0098,0.8613,-6.21,7.68,0.05,23.08
18931,0.3414,-0.0105,0.859,-6.17,7.69,-0.03,23.08
18941,0.3429,-0.0098,0.858,-6.18,7.82,-0.06,23.08
18951,0.3425,-0.0077,0.8612,-6.18,7.82,-0.02,23.09
18961,0.34,-0.0106,0.8628,-6.15,7.73,-0.06,23.09
18971,0.3401,-0.0101,0.8613,-6.14,7.77,-0.05,23.08
18981,0.3378,-0.0139,0.8602,-6.27,7.77,0.0,23.08
18991,0.34,-0.0116,0.8597,-6.23,7.65,0.03,23.11
19001,0.3397,-0.009,0.8579,-6.23,7.69,-0.02,23.07
19011,0.3431,-0.0066,0.8616,-6.18,7.71,0.02,23.08
19021,0.3431,-0.0063,0.8594,-6.17,7.83,-0.05,23.09
19031,0.3419,-0.0098,0.8646,-6.15,7.8,-0.03,23.08
19041,0.3405,-0.0098,0.8621,-6.23,7.79,-0.03,23.08
19051,0.3416,-0.0112,0.8586,-6.2,7.76,0.0,23.09
19061,0.3422,-0.0107,0.8617,-6.15,7.79,0.02,23.07
19071,0.3424,-0.0107,0.8591,-6.21,7.77,-0.02,23.09
19081,0.3408,-0.0111,0.86,-6.15,7.77,-0.02,23.08
19091,0.3418,-0.0103,0.8628,-6.24,7.79,-0.06,23.1
19101,0.3434,-0.0082,0.8582,-6.17,7.69,-0.02,23.08
19111,0.3422,-0.007,0.8593,-6.18,7.74,0.0,23.09
19121,0.34,-0.0125,0.8571,-6.2,7.74,0.03,23.1
19131,0.3413,-0.0115,0.8606,-6.23,7.77,-0.05,23.08
19141,0.3439,-0.0104,0.8636,-6.2,7.74,0.03,23.09
19151,0.3416,-0.011,0.8607,-6.12,7.79,-0.02,23.1
19161,0.3412,-0.0117,0.8608,-6.18,7.79,-0.05,23.1
19171,0.3383,-0.0094,0.8623,-6.14,7.85,-0.03,23.11
19183,0.3402,-0.0121,0.8643,-6.29,7.8,0.03,23.09
19193,0.3431,-0.0109,0.8666,-6.29,7.73,0.02,23.11
19203,0.3428,-0.009,0.8555,-6.2,7.73,-0.08,23.12
19213,0.3434,-0.0078,0.8597,-6.17,7.82,-0.03,23.08
19223,0.3418,-0.0085,0.8593,-6.12,7.79,0.0,23.11
19233,0.3424,-0.0104,0.8622,-6.18,7.74,-0.06,23.08
19243,0.3401,-0.0095,0.8595,-6.15,7.68,-0.02,23.09
19253,0.3406,-0.0105,0.8647,-6.15,7.83,-0.05,23.09
19263,0.3411,-0.0098,0.8605,-6.18,7.74,-0.02,23.11
19273,0.3427,-0.0112,0.8582,-6.18,7.86,-0.09,23.09
19283,0.3403,-0.0092,0.8625,-6.2,7.69,-0.03,23.08
19293,0.3423,-0.0082,0.8612,-6.24,7.76,-0.06,23.08
19303,0.3416,-0.0072,0.8595,-6.27,7.73,0.0,23.1
19313,0.3431,-0.0109,0.8617,-6.27,7.73,0.03,23.12
19323,0.3417,-0.0103,0.8612,-6.29,7.77,-0.05,23.09
19333,0.3418,-0.0084,0.858,-6.2,7.69,0.0,23.12
19343,0.3422,-0.0095,0.8623,-6.15,7.76,-0.09,23.11
19354,0.3406,-0.0106,0.8601,-6.21,7.76,-0.05,23.14
19364,0.3424,-0.0096,0.8615,-6.2,7.74,0.0,23.11
19374,0.3408,-0.011,0.8608,-6.24,7.74,0.0,23.1
19384,0.3428,-0.0094,0.8574,-6.21,7.71,-0.08,23.11
19394,0.3408,-0.0094,0.8568,-6.24,7.76,0.09,23.12
19404,0.3397,-0.0098,0.8586,-6.14,7.76,-0.09,23.11
19414,0.3416,-0.0104,0.8624,-6.18,7.74,-0.06,23.09
19424,0.3423,-0.0137,0.8602,-6.26,7.74,-0.05,23.08
19434,0.3416,-0.0106,0.8601,-6.26,7.74,-0.11,23.08
19444,0.342,-0.0087,0.8605,-6.31,7.82,-0.09,23.08
19454,0.3445,-0.0095,0.8612,-6.24,7.79,-0.02,23.1
19464,0.3411,-0.0106,0.8585,-6.2,7.68,-0.05,23.1
19474,0.3411,-0.01,0.8605,-6.18,7.76,-0.02,23.12
19484,0.3413,-0.0098,0.8607,-6.26,7.76,-0.03,23.1
19494,0.3438,-0.0105,0.8613,-6.2,7.76,-0.03,23.09
19504,0.3423,-0.0096,0.8602,-6.23,7.82,0.02,23.09
19514,0.3418,-0.0099,0.8597,-6.24,7.79,-0.05,23.09
19524,0.342,-0.0099,0.8569,-6.17,7.66,-0.06,23.1
19534,0.3408,-0.009,0.8601,-6.2,7.77,-0.06,23.12
19544,0.3413,-0.0138,0.8566,-6.26,7.69,-0.08,23.11
19555,0.3425,-0.0103,0.8606,-6.23,7.68,-0.08,23.1
19565,0.344,-0.0085,0.864,-6.2,7.69,-0.03,23.11
19575,0.34,-0.0077,0.859,-6.24,7.73,0.02,23.13
19585,0.3392,-0.0092,0.8607,-6.09,7.76,0.02,23.14
19595,0.3394,-0.0096,0.8602,-6.26,7.77,-0.03,23.11
19605,0.3412,-0.0116,0.8627,-6.2,7.79,0.03,23.11
19615,0.3409,-0.0084,0.8589,-6.21,7.82,0.05,23.12
19625,0.3408,-0.0101,0.8601,-6.17,7.76,0.08,23.11
19635,0.3435,-0.01,0.8577,-6.18,7.71,-0.02,23.1
19645,0.3427,-0.0098,0.8617,-6.18,7.74,-0.05,23.11
19655,0.3429,-0.0122,0.8583,-6.26,7.8,0.0,23.11
19665,0.3425,-0.0117,0.8597,-6.18,7.66,-0.08,23.1
19675,0.3412,-0.0117,0.858,-6.32,7.68,0.0,23.11
19685,0.3412,-0.0123,0.8627,-6.29,7.82,0.05,23.12
19695,0.3411,-0.01,0.8574,-6.29,7.79,0.0,23.13
19705,0.3433,-0.0082,0.8594,-6.18,7.73,0.05,23.13
19715,0.3411,-0.011,0.8575,-6.26,7.73,0.02,23.12
19725,0.3419,-0.0099,0.8616,-6.26,7.76,-0.05,23.13
19735,0.3407,-0.01,0.8555,-6.29,7.74,-0.11,23.11
19745,0.3408,-0.0101,0.8599,-6.05,7.79,-0.08,23.1
19755,0.3405,-0.0096,0.8605,-6.18,7.82,-0.05,23.13
19765,0.3428,-0.0116,0.8605,-6.14,7.74,-0.08,23.14
19775,0.342,-0.0105,0.8596,-6.31,7.73,-0.05,23.13
19785,0.3418,-0.0092,0.8617,-6.23,7.85,-0.03,23.08
19795,0.3408,-0.0078,0.8596,-6.27,7.77,-0.11,23.11
19805,0.3416,-0.0088,0.8618,-6.18,7.83,-0.05,23.11
19815,0.342,-0.0111,0.8613,-6.15,7.8,-0.09,23.13
19825,0.3428,-0.0083,0.8612,-6.18,7.71,-0.03,23.12
19835,0.3413,-0.0105,0.8597,-6.17,7.74,-0.03,23.13
19845,0.3427,-0.0099,0.8636,-6.17,7.76,0.02,23.11
19855,0.3402,-0.0098,0.8595,-6.2,7.83,-0.08,23.11
19865,0.3403,-0.0116,0.8608,-6.08,7.71,-0.05,23.12
19875,0.3442,-0.0121,0.8635,-6.17,7.69,0.0,23.12
19885,0.3412,-0.0126,0.863,-6.2,7.77,-0.02,23.12
19895,0.3418,-0.0099,0.8597,-6.23,7.69,-0.03,23.12
19905,0.3414,-0.0071,0.861,-6.17,7.73,-0.06,23.14
19915,0.3418,-0.01,0.8624,-6.23,7.71,0.02,23.12
19925,0.3408,-0.0094,0.8597,-6.24,7.79,0.0,23.15
19935,0.3395,-0.0073,0.8589,-6.21,7.8,0.0,23.12
19945,0.343,-0.0093,0.8567,-6.08,7.79,0.0,23.12
19955,0.3403,-0.0063,0.8578,-6.15,7.77,-0.02,23.13
19965,0.3408,-0.0076,0.8602,-6.21,7.79,-0.03,23.12
19975,0.3387,-0.0088,0.8596,-6.21,7.71,-0.08,23.14
19985,0.3422,-0.0109,0.8615,-6.24,7.79,0.02,23.12
19995,0.3431,-0.0115,0.8595,-6.24,7.76,0.06,23.12
20005,0.3427,-0.0071,0.86,-6.14,7.74,0.0,23.13
20015,0.3428,-0.0131,0.8566,-6.18,7.76,-0.02,23.12
20025,0.3409,-0.0092,0.8611,-6.17,7.79,-0.06,23.13
20035,0.3406,-0.0128,0.8564,-6.21,7.74,0.03,23.12
20045,0.3422,-0.0133,0.8584,-6.14,7.8,-0.03,23.13
20055,0.3407,-0.0103,0.863,-6.18,7.79,-0.05,23.13
20065,0.3385,-0.011,0.8646,-6.26,7.77,-0.06,23.11
20075,0.3416,-0.0088,0.858,-6.26,7.79,0.05,23.12
20085,0.3427,-0.0132,0.8611,-6.21,7.69,-0.02,23.11
20095,0.3417,-0.0112,0.8595,-6.2,7.76,-0.05,23.09
20105,0.3416,-0.01,0.8599,-6.18,7.77,-0.05,23.09
20115,0.3398,-0.0072,0.858,-6.2,7.66,-0.02,23.11
20125,0.343,-0.0107,0.8596,-6.26,7.77,-0.09,23.1
20135,0.343,-0.0114,0.8605,-6.26,7.74,0.03,23.11
20145,0.3439,-0.0121,0.8584,-6.21,7.73,-0.02,23.11
20155,0.34,-0.0107,0.8613,-6.2,7.82,-0.05,23.09
20165,0.3424,-0.0107,0.8617,-6.31,7.76,-0.03,23.12
20175,0.3422,-0.0105,0.8601,-6.14,7.86,-0.03,23.12
20185,0.344,-0.0112,0.8578,-6.15,7.73,0.02,23.1
20195,0.3425,-0.0099,0.8591,-6.21,7.77,-0.03,23.11
20205,0.3413,-0.0077,0.8589,-6.26,7.77,0.0,23.13
20215,0.3431,-0.0099,0.8597,-6.24,7.76,0.03,23.12
20225,0.3435,-0.0096,0.8562,-6.29,7.73,0.02,23.12
20235,0.3435,-0.0082,0.8556,-6.2,7.65,0.03,23.14
20245,0.3391,-0.0123,0.8545,-6.24,7.8,0.05,23.12
20255,0.3424,-0.0115,0.8578,-6.29,7.69,0.05,23.1
20265,0.3447,-0.0101,0.8573,-6.23,7.71,-0.02,23.12
20275,0.3431,-0.0093,0.8604,-6.17,7.79,0.0,23.11
20285,0.3394,-0.0094,0.8599,-6.18,7.69,0.0,23.09
20295,0.3416,-0.009,0.8606,-6.18,7.77,-0.02,23.1
20305,0.3401,-0.0127,0.8586,-6.15,7.69,0.02,23.13
20315,0.3429,-0.0093,0.8632,-6.18,7.74,0.02,23.13
20325,0.3408,-0.0098,0.8591,-6.23,7.68,0.05,23.12
20335,0.3408,-0.0101,0.8596,-6.29,7.77,-0.11,23.12
20345,0.3433,-0.0092,0.8621,-6.17,7.74,0.05,23.11
20355,0.3392,-0.0123,0.856,-6.27,7.79,0.03,23.13
20365,0.3409,-0.0089,0.8571,-6.31,7.74,-0.09,23.11
20375,0.3428,-0.0083,0.8602,-6.15,7.6,0.05,23.15
20385,0.3441,-0.0107,0.8611,-6.24,7.68,-0.03,23.14
20395,0.343,-0.0109,0.8612,-6.21,7.8,-0.06,23.16
20405,0.3412,-0.0088,0.8601,-6.23,7.73,-0.03,23.14
20415,0.3392,-0.0107,0.8601,-6.2,7.74,-0.09,23.09
20425,0.3389,-0.0084,0.8604,-6.24,7.68,0.03,23.12
20435,0.3412,-0.0094,0.8625,-6.18,7.76,0.0,23.12
20445,0.3447,-0.0111,0.8628,-6.23,7.79,0.03,23.12
20455,0.3422,-0.0095,0.8615,-6.23,7.79,-0.09,23.14
20465,0.3425,-0.0107,0.8618,-6.24,7.76,-0.02,23.1
20475,0.344,-0.0103,0.8575,-6.29,7.77,-0.03,23.13
20485,0.3403,-0.0109,0.8635,-6.2,7.79,-0.05,23.13
20495,0.3422,-0.0073,0.8602,-6.2,7.73,-0.06,23.12
20505,0.3425,-0.0081,0.8608,-6.24,7.76,-0.05,23.12
20515,0.3409,-0.0104,0.8599,-6.15,7.79,0.03,23.11
20525,0.3422,-0.0104,0.8593,-6.18,7.88,-0.17,23.12
20535,0.3402,-0.011,0.8602,-6.15,7.69,-0.02,23.11
20545,0.3422,-0.0107,0.8613,-6.15,7.76,-0.09,23.13
20555,0.3414,-0.0092,0.8585,-6.17,7.74,-0.03,23.12
20565,0.3386,-0.0109,0.8573,-6.11,7.73,-0.06,23.13
20575,0.3436,-0.009,0.8638,-6.17,7.71,0.03,23.15
20585,0.3411,-0.009,0.8622,-6.23,7.82,-0.06,23.12
20595,0.343,-0.0067,0.863,-6.23,7.79,-0.03,23.11
20605,0.3401,-0.0084,0.8641,-6.15,7.77,0.0,23.13
20615,0.3411,-0.009,0.86,-6.26,7.76,0.0,23.15
20625,0.3419,-0.0081,0.8604,-6.24,7.83,0.02,23.15
20635,0.3401,-0.0067,0.8564,-6.17,7.73,-0.09,23.13
20645,0.3403,-0.0098,0.861,-6.18,7.79,0.02,23.12
20655,0.3438,-0.0107,0.8602,-6.26,7.82,-0.02,23.15
20665,0.342,-0.006,0.8583,-6.12,7.73,0.02,23.12
20675,0.3419,-0.0115,0.8563,-6.24,7.68,-0.06,23.12
20685,0.3428,-0.0085,0.8579,-6.23,7.77,-0.03,23.12
20695,0.3406,-0.0101,0.8608,-6.23,7.73,0.02,23.13
20705,0.3409,-0.0095,0.8594,-6.14,7.76,-0.06,23.13
20715,0.3413,-0.0114,0.8574,-6.26,7.79,-0.06,23.13
20725,0.3442,-0.0082,0.8595,-6.24,7.76,-0.06,23.12
20735,0.3394,-0.0078,0.8613,-6.24,7.66,-0.05,23.12
20745,0.3398,-0.0077,0.8586,-6.23,7.71,-0.05,23.12
20755,0.3423,-0.0076,0.8607,-6.21,7.77,-0.12,23.15
20765,0.3411,-0.0098,0.8597,-6.14,7.71,0.03,23.12
20775,0.3395,-0.0098,0.8611,-6.21,7.77,-0.02,23.11
20785,0.3422,-0.0105,0.8582,-6.18,7.82,-0.02,23.12
20795,0.3412,-0.0123,0.8601,-6.09,7.74,-0.05,23.18
20805,0.3419,-0.0099,0.8591,-6.2,7.68,0.08,23.15
20815,0.3397,-0.011,0.8636,-6.23,7.71,0.0,23.14
20825,0.3428,-0.0105,0.8634,-6.2,7.63,0.0,23.13
20835,0.3429,-0.01,0.8612,-6.2,7.71,-0.02,23.15
20845,0.3412,-0.0067,0.8615,-6.31,7.82,0.0,23.12
20855,0.3405,-0.0103,0.8573,-6.18,7.68,-0.03,23.12
20865,0.3398,-0.0106,0.8651,-6.31,7.71,0.02,23.14
20875,0.3391,-0.0096,0.8583,-6.2,7.76,0.0,23.13
20885,0.3413,-0.0094,0.8589,-6.15,7.69,0.08,23.16
20895,0.3416,-0.0121,0.86,-6.32,7.69,0.02,23.15
20905,0.3427,-0.009,0.8583,-6.18,7.8,-0.08,23.15
20915,0.3378,-0.0071,0.8608,-6.31,7.74,-0.02,23.18
20925,0.338,-0.0093,0.8625,-6.26,7.73,-0.02,23.14
20935,0.3418,-0.0076,0.8591,-6.27,7.76,-0.03,23.14
20945,0.3392,-0.0104,0.863,-6.21,7.71,-0.02,23.14
20955,0.3423,-0.0071,0.8566,-6.23,7.79,0.0,23.14
20965,0.3406,-0.0093,0.8627,-6.18,7.71,-0.06,23.17
20975,0.3417,-0.0082,0.8607,-6.2,7.83,0.02,23.14
20985,0.3387,-0.0105,0.8612,-6.29,7.73,-0.02,23.14
20995,0.3395,-0.0072,0.861,-6.31,7.77,-0.03,23.14
21005,0.3435,-0.0115,0.8578,-6.27,7.82,-0.05,23.13
21015,0.3431,-0.0095,0.8613,-6.23,7.73,-0.08,23.14
21025,0.3402,-0.0106,0.8584,-6.15,7.74,0.0,23.14
21035,0.3392,-0.0093,0.8596,-6.23,7.69,-0.02,23.14
21045,0.3414,-0.0098,0.8615,-6.29,7.73,-0.05,23.14
21055,0.3409,-0.0104,0.8608,-6.26,7.76,0.03,23.15
21065,0.3423,-0.0087,0.8613,-6.31,7.8,-0.12,23.16
21075,0.3414,-0.0093,0.8572,-6.24,7.74,-0.06,23.18
21085,0.3435,-0.0116,0.861,-6.17,7.71,0.02,23.14
21095,0.3414,-0.01,0.8615,-6.17,7.76,0.0,23.13
21105,0.3402,-0.0121,0.8529,-6.12,7.71,-0.06,23.14
21115,0.3408,-0.0109,0.8566,-6.15,7.74,-0.03,23.15
21125,0.3442,-0.0101,0.8622,-6.29,7.66,-0.03,23.15
21135,0.3423,-0.0131,0.8591,-6.2,7.77,-0.05,23.15
21145,0.3396,-0.0068,0.8601,-6.27,7.73,-0.03,23.17
21155,0.3408,-0.0106,0.859,-6.29,7.71,0.03,23.14
21165,0.3405,-0.0101,0.8667,-6.26,7.83,-0.05,23.14
21175,0.342,-0.0116,0.8636,-6.26,7.73,-0.12,23.12
21185,0.3429,-0.0099,0.8602,-6.27,7.73,-0.06,23.16
21195,0.3409,-0.0092,0.8607,-6.27,7.73,0.06,23.15
21205,0.3423,-0.0115,0.8593,-6.27,7.73,-0.03,23.16
21215,0.3435,-0.0093,0.86,-6.29,7.8,-0.03,23.14
21225,0.3451,-0.0082,0.8608,-6.24,7.73,0.02,23.17
21235,0.3428,-0.0109,0.8589,-6.24,7.79,-0.02,23.16
21245,0.3394,-0.0093,0.8577,-6.18,7.63,-0.02,23.16
21255,0.3429,-0.0092,0.8589,-6.15,7.77,-0.02,23.18
21265,0.3417,-0.0065,0.8606,-6.24,7.73,-0.02,23.16
21275,0.3414,-0.0107,0.8608,-6.21,7.83,-0.02,23.16
21285,0.3413,-0.0094,0.8593,-6.18,7.8,-0.09,23.13
21295,0.3418,-0.0084,0.8564,-6.23,7.74,-0.09,23.14
21305,0.3424,-0.0099,0.8586,-6.18,7.92,-0.09,23.14
21315,0.3417,-0.0111,0.8625,-6.17,7.82,-0.06,23.13
21325,0.3428,-0.0099,0.8557,-6.12,7.79,-0.06,23.14
21335,0.3433,-0.0104,0.858,-6.26,7.76,-0.08,23.15
21345,0.34,-0.0063,0.8585,-6.17,7.73,0.0,23.18
21358,0.3416,-0.0078,0.8595,-6.27,7.82,0.03,23.16
21368,0.3398,-0.0088,0.861,-6.21,7.89,-0.08,23.17
21379,0.3417,-0.0088,0.8616,-6.17,7.73,-0.12,23.15
21389,0.3417,-0.0084,0.8606,-6.14,7.76,-0.11,23.14
21399,0.3441,-0.0099,0.8599,-6.21,7.71,-0.09,23.16
21409,0.3411,-0.01,0.8591,-6.15,7.76,-0.03,23.14
21420,0.3411,-0.0092,0.8604,-6.27,7.73,0.02,23.15
21430,0.3446,-0.0095,0.8577,-6.21,7.77,0.0,23.14
21440,0.3431,-0.0098,0.859,-6.23,7.74,-0.02,23.14
21451,0.3436,-0.0098,0.8557,-6.2,7.77,-0.09,23.14
21461,0.3433,-0.0087,0.861,-6.15,7.79,-0.02,23.14
21471,0.3427,-0.0099,0.8562,-6.26,7.82,0.0,23.16
21481,0.3378,-0.0127,0.8622,-6.14,7.88,-0.12,23.14
21491,0.3442,-0.0088,0.8567,-6.29,7.88,-0.05,23.16
21501,0.3391,-0.0118,0.8606,-6.18,7.82,-0.02,23.16
21511,0.3427,-0.0107,0.8549,-6.32,7.69,-0.06,23.16
21521,0.3387,-0.01,0.8594,-6.15,7.8,-0.02,23.15
21531,0.3416,-0.0103,0.8634,-6.18,7.73,0.02,23.17
21541,0.3412,-0.0092,0.859,-6.21,7.82,0.02,23.14
21551,0.3407,-0.0067,0.8596,-6.2,7.73,-0.03,23.16
21561,0.3411,-0.0082,0.8622,-6.15,7.71,0.02,23.16
21571,0.3417,-0.0095,0.8623,-6.18,7.74,-0.03,23.17
21581,0.3407,-0.0106,0.8608,-6.18,7.77,-0.11,23.15
21591,0.3408,-0.0101,0.8586,-6.27,7.79,-0.05,23.16
21601,0.3413,-0.0101,0.8604,-6.18,7.77,0.0,23.13
21611,0.3412,-0.007,0.8566,-6.23,7.73,-0.03,23.14
21621,0.3402,-0.0099,0.8616,-6.24,7.73,-0.08,23.15
21631,0.3413,-0.0088,0.8601,-6.18,7.71,0.05,23.17
21641,0.3436,-0.0087,0.8595,-6.18,7.79,0.02,23.14
21651,0.3433,-0.0095,0.8607,-6.2,7.85,-0.05,23.12
21661,0.3412,-0.0071,0.8593,-6.18,7.82,-0.06,23.16
21671,0.3425,-0.0057,0.864,-6.14,7.85,0.02,23.15
21681,0.3391,-0.0078,0.8606,-6.21,7.76,0.02,23.13
21691,0.343,-0.011,0.8573,-6.18,7.79,-0.06,23.14
21701,0.3433,-0.0087,0.8611,-6.21,7.73,-0.11,23.14
21711,0.3427,-0.0101,0.8616,-6.21,7.73,-0.02,23.17
21721,0.3413,-0.0081,0.861,-6.2,7.69,-0.08,23.14
21731,0.342,-0.0057,0.8584,-6.29,7.69,-0.05,23.16
21741,0.3392,-0.0089,0.8597,-6.14,7.74,-0.14,23.13
21751,0.3398,-0.0076,0.8634,-6.21,7.73,-0.09,23.14
21761,0.3414,-0.0095,0.8597,-6.24,7.74,-0.06,23.13
21771,0.3397,-0.0066,0.8585,-6.09,7.8,-0.02,23.14
21781,0.3407,-0.0098,0.8643,-6.32,7.63,-0.12,23.15
21791,0.3418,-0.0115,0.8617,-6.18,7.82,-0.09,23.17
21801,0.3408,-0.0092,0.8593,-6.21,7.8,-0.02,23.18
21811,0.3431,-0.0089,0.8638,-6.2,7.74,0.05,23.15
21821,0.3397,-0.0089,0.8602,-6.18,7.82,0.05,23.17
21831,0.3408,-0.0081,0.8585,-6.21,7.79,-0.05,23.15
21841,0.339,-0.0104,0.8593,-6.21,7.73,0.03,23.16
21851,0.3401,-0.0095,0.8574,-6.15,7.76,-0.06,23.16
21861,0.3425,-0.0107,0.8618,-6.12,7.79,-0.03,23.17
21871,0.3406,-0.0129,0.8636,-6.18,7.79,-0.03,23.16
21881,0.339,-0.0112,0.863,-6.26,7.8,-0.03,23.17
21891,0.3412,-0.0114,0.86,-6.14,7.82,-0.02,23.16
21901,0.3392,-0.0093,0.8618,-6.17,7.74,0.03,23.14
21911,0.34,-0.0093,0.8578,-6.27,7.76,-0.02,23.16
21921,0.3416,-0.0099,0.861,-6.23,7.66,0.05,23.17
21931,0.3395,-0.0071,0.8561,-6.26,7.71,0.0,23.15
21941,0.3389,-0.0083,0.8591,-6.26,7.76,-0.09,23.17
21951,0.3392,-0.0056,0.8594,-6.32,7.77,-0.02,23.16
21961,0.3444,-0.0099,0.8615,-6.2,7.77,-0.09,23.16
21971,0.3427,-0.0068,0.8575,-6.17,7.74,-0.08,23.15
21981,0.3422,-0.0079,0.8623,-6.21,7.73,-0.08,23.15
21991,0.3401,-0.0109,0.859,-6.2,7.8,0.0,23.17
22001,0.3412,-0.009,0.8604,-6.26,7.74,-0.03,23.15
22011,0.3412,-0.0109,0.8604,-6.15,7.71,-0.06,23.15
22021,0.3405,-0.0076,0.8611,-6.24,7.71,0.02,23.16
22031,0.3416,-0.01,0.858,-6.17,7.68,-0.05,23.14
22041,0.3387,-0.0094,0.8577,-6.26,7.73,-0.06,23.15
22051,0.3414,-0.0109,0.8583,-6.17,7.74,-0.09,23.14
22061,0.3414,-0.0099,0.8563,-6.2,7.76,0.02,23.14
22071,0.3448,-0.0101,0.8596,-6.27,7.76,-0.12,23.14
22081,0.3405,-0.0114,0.8623,-6.23,7.68,-0.08,23.15
22091,0.3395,-0.0083,0.8616,-6.12,7.69,-0.08,23.17
22101,0.3418,-0.0094,0.8591,-6.23,7.73,-0.09,23.18
22111,0.3405,-0.0077,0.8562,-6.14,7.74,0.03,23.17
22121,0.3407,-0.0082,0.8616,-6.21,7.79,-0.03,23.17
22131,0.3423,-0.0114,0.86,-6.17,7.8,-0.08,23.17
22141,0.3422,-0.0125,0.8607,-6.26,7.77,-0.03,23.17
22151,0.3448,-0.0101,0.8562,-6.15,7.69,-0.02,23.14
22161,0.3392,-0.0092,0.8593,-6.21,7.73,-0.08,23.12
22171,0.3422,-0.0088,0.8604,-6.14,7.68,0.02,23.15
22181,0.3438,-0.0103,0.8582,-6.23,7.73,0.06,23.15
22191,0.3389,-0.0112,0.8596,-6.23,7.77,-0.06,23.16
22201,0.3407,-0.0107,0.8588,-6.2,7.82,-0.03,23.14
22211,0.3395,-0.0105,0.8617,-6.11,7.79,-0.05,23.16
22221,0.3405,-0.0109,0.8561,-6.21,7.77,-0.09,23.17
22231,0.3416,-0.0076,0.8578,-6.21,7.82,-0.02,23.17
22241,0.3407,-0.0083,0.8601,-6.27,7.73,-0.02,23.16
22251,0.343,-0.01,0.8572,-6.27,7.77,-0.11,23.16
22261,0.344,-0.0073,0.8583,-6.29,7.76,-0.05,23.16
22271,0.3424,-0.0096,0.8624,-6.18,7.83,0.03,23.15
22281,0.3416,-0.0088,0.8579,-6.18,7.77,0.03,23.16
22291,0.3419,-0.0092,0.8638,-6.27,7.76,-0.02,23.17
22301,0.3405,-0.0109,0.861,-6.2,7.79,-0.09,23.19
22311,0.3394,-0.0084,0.8629,-6.18,7.79,-0.03,23.14
22321,0.3416,-0.0093,0.8597,-6.23,7.77,0.0,23.17
22331,0.3414,-0.0087,0.8585,-6.2,7.73,0.05,23.15
22341,0.3407,-0.0101,0.8604,-6.23,7.74,0.0,23.16
22351,0.3384,-0.0088,0.8594,-6.2,7.66,-0.05,23.2
22361,0.3396,-0.0066,0.8589,-6.31,7.77,0.05,23.17
22371,0.3423,-0.0138,0.8612,-6.12,7.76,-0.02,23.17
22381,0.3418,-0.0082,0.8619,-6.18,7.74,0.06,23.17
22391,0.343,-0.0127,0.8612,-6.2,7.8,-0.08,23.16
22401,0.3419,-0.009,0.8589,-6.14,7.73,0.0,23.19
22411,0.3418,-0.0134,0.8602,-6.26,7.8,-0.02,23.16
22421,0.3389,-0.0105,0.8578,-6.26,7.76,-0.02,23.19
22431,0.3424,-0.0107,0.8617,-6.21,7.68,-0.08,23.17
22442,0.3405,-0.0098,0.8575,-6.26,7.8,-0.08,23.16
22452,0.3398,-0.0095,0.8578,-6.24,7.77,-0.03,23.15
22462,0.3391,-0.0067,0.8619,-6.21,7.77,-0.09,23.17
22472,0.3409,-0.0084,0.8539,-6.2,7.76,-0.05,23.16
22482,0.3436,-0.0135,0.8615,-6.17,7.83,0.03,23.17
22492,0.3389,-0.0103,0.8635,-6.26,7.76,-0.02,23.17
22502,0.3409,-0.0093,0.8585,-6.18,7.74,-0.05,23.16
22512,0.3411,-0.0093,0.8567,-6.17,7.68,0.02,23.17
22522,0.3402,-0.0074,0.8629,-6.23,7.69,-0.06,23.18
22532,0.3409,-0.0088,0.8596,-6.23,7.77,-0.02,23.17
22542,0.3416,-0.0103,0.8611,-6.08,7.79,-0.12,23.18
22552,0.339,-0.0094,0.8579,-6.17,7.76,-0.02,23.15
22562,0.3431,-0.009,0.8619,-6.21,7.77,-0.03,23.18
22572,0.3396,-0.0092,0.8624,-6.14,7.86,0.02,23.17
22582,0.3413,-0.01,0.8599,-6.15,7.74,0.02,23.18
22592,0.3402,-0.0109,0.8646,-6.21,7.73,0.0,23.15
22603,0.3396,-0.0078,0.8646,-6.15,7.74,0.02,23.17
22613,0.3401,-0.0062,0.8641,-6.23,7.73,-0.05,23.16
22623,0.3402,-0.0109,0.8628,-6.2,7.8,-0.02,23.16
22633,0.3441,-0.0085,0.8555,-6.23,7.71,-0.02,23.18
22643,0.3434,-0.0105,0.8593,-6.18,7.76,-0.02,23.18
22653,0.3427,-0.0092,0.8629,-6.14,7.76,-0.02,23.15
22663,0.3419,-0.0118,0.863,-6.23,7.82,0.02,23.17
22673,0.3427,-0.0081,0.8577,-6.24,7.8,-0.06,23.19
22683,0.3422,-0.0089,0.8615,-6.18,7.77,-0.03,23.16
22693,0.3422,-0.0099,0.8602,-6.11,7.73,-0.08,23.16
22703,0.3416,-0.0098,0.8623,-6.14,7.76,0.0,23.17
22713,0.3403,-0.0077,0.8605,-6.2,7.83,-0.05,23.17
22723,0.3398,-0.0084,0.8569,-6.23,7.66,-0.06,23.14
22733,0.3401,-0.0085,0.8621,-6.31,7.71,-0.03,23.17
22743,0.3413,-0.0104,0.8584,-6.23,7.71,-0.02,23.17
22753,0.3425,-0.012,0.8584,-6.2,7.79,-0.02,23.17
22763,0.3401,-0.0117,0.8597,-6.21,7.69,0.06,23.15
22773,0.3396,-0.0114,0.8585,-6.14,7.74,-0.08,23.16
22783,0.3419,-0.0099,0.8599,-6.24,7.79,-0.09,23.18
22793,0.3401,-0.0115,0.8584,-6.24,7.86,0.02,23.19
22803,0.3446,-0.0079,0.8579,-6.18,7.69,-0.08,23.21
22813,0.3419,-0.0094,0.8649,-6.18,7.8,-0.05,23.17
22823,0.3438,-0.011,0.8635,-6.21,7.69,0.06,23.17
22833,0.3409,-0.0074,0.8618,-6.18,7.74,-0.02,23.19
22843,0.3413,-0.0129,0.8621,-6.29,7.76,0.0,23.17
22853,0.3417,-0.0114,0.8639,-6.15,7.66,-0.12,23.19
22863,0.3384,-0.0094,0.8604,-6.21,7.77,-0.03,23.19
22873,0.3423,-0.0094,0.8579,-6.23,7.69,-0.02,23.15
22883,0.3384,-0.01,0.8579,-6.21,7.69,-0.08,23.19
22893,0.3395,-0.0094,0.8615,-6.21,7.77,-0.03,23.17
22903,0.3409,-0.0087,0.858,-6.15,7.8,-0.08,23.18
22913,0.3433,-0.0081,0.8606,-6.2,7.71,-0.03,23.16
22923,0.3417,-0.0073,0.861,-6.15,7.8,-0.08,23.18
22933,0.3407,-0.0085,0.8599,-6.21,7.74,-0.06,23.17
22943,0.3419,-0.0081,0.8573,-6.27,7.85,-0.05,23.16
22954,0.3416,-0.0101,0.8595,-6.18,7.76,0.05,23.17
22964,0.3442,-0.0094,0.8612,-6.23,7.77,-0.06,23.16
22975,0.3424,-0.0093,0.8605,-6.18,7.76,0.02,23.15
22985,0.3436,-0.0129,0.8602,-6.18,7.74,-0.09,23.17
22995,0.343,-0.0074,0.8575,-6.24,7.77,-0.08,23.17
23005,0.3397,-0.0106,0.8577,-6.2,7.79,-0.08,23.18
23015,0.3441,-0.0092,0.8632,-6.2,7.76,-0.05,23.18
23025,0.3405,-0.0103,0.86,-6.23,7.77,-0.02,23.17
23035,0.3386,-0.0087,0.8632,-6.26,7.77,-0.05,23.17
23045,0.3416,-0.0081,0.8597,-6.34,7.76,-0.03,23.16
23055,0.3406,-0.0081,0.8605,-6.27,7.74,-0.08,23.16
23065,0.3414,-0.0089,0.8613,-6.21,7.77,-0.18,23.19
23075,0.3412,-0.0132,0.8595,-6.23,7.74,-0.03,23.19
23085,0.3406,-0.0099,0.859,-6.21,7.76,-0.05,23.2
23095,0.342,-0.01,0.8596,-6.31,7.63,0.02,23.18
23105,0.34,-0.009,0.8553,-6.21,7.77,-0.08,23.2
23115,0.3397,-0.0089,0.8616,-6.24,7.71,-0.03,23.15
23125,0.34,-0.0073,0.8582,-6.23,7.73,-0.02,23.18
23135,0.3403,-0.01,0.8606,-6.12,7.79,0.0,23.18
23145,0.3389,-0.0095,0.8578,-6.29,7.79,-0.08,23.17
23155,0.3427,-0.0114,0.8579,-6.26,7.73,0.0,23.17
23165,0.3418,-0.0122,0.8573,-6.11,7.76,-0.02,23.18
23175,0.3447,-0.0112,0.8601,-6.24,7.71,-0.12,23.19
23185,0.3403,-0.0105,0.8617,-6.17,7.71,0.02,23.19
23195,0.3429,-0.0094,0.8624,-6.24,7.74,-0.05,23.17
23205,0.3387,-0.0099,0.8621,-6.21,7.77,0.0,23.19
23215,0.3429,-0.0095,0.8577,-6.17,7.74,-0.02,23.2
23225,0.3397,-0.0098,0.8623,-6.2,7.76,-0.08,23.19
23235,0.3405,-0.0129,0.8606,-6.11,7.74,-0.06,23.19
23245,0.3422,-0.014,0.8615,-6.18,7.77,-0.05,23.15
23255,0.3429,-0.009,0.859,-6.21,7.76,0.02,23.15
23265,0.3403,-0.0104,0.8615,-6.24,7.76,0.02,23.16
23275,0.3411,-0.0082,0.8553,-6.21,7.77,-0.09,23.19
23285,0.3428,-0.0106,0.8596,-6.24,7.77,-0.09,23.16
23295,0.3446,-0.0109,0.8624,-6.23,7.77,-0.09,23.17
23305,0.3418,-0.0088,0.8611,-6.29,7.83,0.02,23.15
23315,0.3424,-0.0065,0.8612,-6.18,7.8,0.0,23.18
23325,0.3423,-0.0098,0.8583,-6.31,7.77,-0.09,23.18
23335,0.3398,-0.0093,0.8616,-6.24,7.77,-0.08,23.19
23345,0.3387,-0.0092,0.859,-6.21,7.74,-0.02,23.19
23355,0.3438,-0.0095,0.8599,-6.29,7.74,-0.09,23.17
23365,0.3419,-0.0111,0.8611,-6.26,7.77,-0.08,23.18
23375,0.34,-0.0071,0.8604,-6.26,7.79,-0.06,23.16
23385,0.3406,-0.0101,0.8593,-6.15,7.79,0.05,23.18
23395,0.3405,-0.0118,0.8605,-6.31,7.77,-0.03,23.18
23405,0.3425,-0.0125,0.8582,-6.27,7.8,-0.12,23.18
23415,0.3402,-0.0084,0.8585,-6.23,7.8,0.02,23.16
23425,0.3401,-0.0098,0.8643,-6.15,7.85,0.02,23.17
23435,0.3422,-0.0084,0.8567,-6.21,7.71,0.02,23.2
23445,0.3433,-0.0079,0.8575,-6.24,7.73,-0.02,23.19
23455,0.3419,-0.0082,0.8557,-6.27,7.71,-0.03,23.21
23465,0.3429,-0.0061,0.8585,-6.14,7.68,-0.09,23.19
23475,0.3405,-0.0088,0.8615,-6.23,7.76,-0.06,23.16
23485,0.3416,-0.0084,0.858,-6.24,7.8,-0.03,23.18
23495,0.3417,-0.0088,0.8573,-6.15,7.79,0.02,23.17
23505,0.343,-0.007,0.8568,-6.21,7.79,0.03,23.19
23515,0.343,-0.0117,0.8582,-6.23,7.71,-0.03,23.14
23525,0.3395,-0.0087,0.8589,-6.18,7.77,0.02,23.15
23535,0.3431,-0.0109,0.8618,-6.17,7.79,0.02,23.19
23545,0.3411,-0.0098,0.8616,-6.12,7.76,0.0,23.18
23555,0.3407,-0.0089,0.8572,-6.15,7.73,0.05,23.19
23565,0.3442,-0.0101,0.8601,-6.18,7.74,-0.03,23.16
23575,0.3429,-0.0087,0.8602,-6.32,7.77,-0.03,23.18
23585,0.3422,-0.0109,0.8582,-6.18,7.79,-0.02,23.18
23595,0.342,-0.0089,0.8577,-6.26,7.82,-0.06,23.2
23605,0.3405,-0.0116,0.8588,-6.27,7.74,0.02,23.19
23615,0.3418,-0.0079,0.8616,-6.21,7.71,0.03,23.18
23625,0.3413,-0.0092,0.8628,-6.23,7.71,0.02,23.17
23635,0.3401,-0.0103,0.8599,-6.27,7.73,-0.05,23.18
23645,0.3413,-0.0087,0.8605,-6.23,7.82,-0.09,23.18
23655,0.3414,-0.0117,0.8594,-6.17,7.79,-0.09,23.19
23666,0.342,-0.0084,0.8597,-6.2,7.79,0.05,23.19
23676,0.3444,-0.0104,0.8622,-6.2,7.79,0.0,23.17
23686,0.3412,-0.009,0.8586,-6.26,7.79,0.02,23.15
23696,0.3409,-0.0093,0.8584,-6.23,7.79,0.0,23.18
23707,0.34,-0.0111,0.8575,-6.21,7.79,-0.02,23.19
23717,0.3422,-0.0092,0.8616,-6.23,7.82,0.03,23.18
23727,0.3392,-0.0071,0.8615,-6.15,7.82,-0.05,23.18
23737,0.3412,-0.0126,0.8606,-6.15,7.77,-0.09,23.18
23747,0.3414,-0.0096,0.8623,-6.23,7.76,-0.06,23.16
23757,0.3379,-0.0083,0.8577,-6.23,7.82,-0.06,23.17
23767,0.3402,-0.0127,0.856,-6.17,7.66,0.02,23.19
23777,0.3438,-0.0082,0.8597,-6.2,7.74,0.0,23.17
23787,0.3418,-0.0095,0.8556,-6.26,7.79,0.03,23.22
23797,0.3418,-0.0109,0.8639,-6.27,7.79,0.03,23.18
23807,0.3402,-0.0116,0.8605,-6.18,7.77,-0.06,23.16
23817,0.3407,-0.011,0.8612,-6.18,7.76,0.02,23.19
23827,0.3423,-0.0089,0.8615,-6.23,7.76,0.03,23.2
23837,0.3396,-0.0116,0.8622,-6.24,7.74,0.05,23.2
23847,0.3446,-0.0122,0.8588,-6.26,7.77,0.03,23.18
23857,0.3422,-0.0126,0.8591,-6.17,7.73,0.05,23.17
23868,0.343,-0.01,0.864,-6.2,7.71,-0.05,23.19
23878,0.3403,-0.0088,0.8575,-6.31,7.71,-0.05,23.21
23888,0.3406,-0.0073,0.8613,-6.21,7.73,-0.03,23.18
23898,0.3417,-0.009,0.8591,-6.24,7.82,0.03,23.17
23908,0.3435,-0.0073,0.8575,-6.24,7.73,-0.11,23.16
23918,0.3429,-0.0106,0.8595,-6.23,7.68,-0.02,23.2
23928,0.3386,-0.0105,0.8561,-6.24,7.79,-0.09,23.19
23938,0.3392,-0.0095,0.8552,-6.18,7.8,0.0,23.2
23948,0.3425,-0.0079,0.8608,-6.21,7.82,-0.02,23.19
23959,0.3416,-0.0094,0.8589,-6.2,7.74,0.02,23.18
23969,0.3407,-0.0117,0.8613,-6.24,7.76,-0.14,23.2
23979,0.3407,-0.0093,0.8594,-6.17,7.74,-0.08,23.21
23989,0.3431,-0.0089,0.8615,-6.26,7.74,-0.05,23.2
23999,0.342,-0.0085,0.8591,-6.26,7.77,0.03,23.18
24009,0.3413,-0.0101,0.8604,-6.24,7.76,-0.02,23.21
24019,0.3417,-0.014,0.8617,-6.21,7.76,-0.03,23.21
24029,0.3434,-0.0094,0.8582,-6.29,7.63,0.03,23.2
24039,0.34,-0.0093,0.8595,-6.2,7.69,-0.06,23.2
24049,0.3385,-0.0127,0.8589,-6.26,7.79,-0.06,23.19
24059,0.3403,-0.0084,0.8568,-6.21,7.66,-0.03,23.21
24069,0.342,-0.0106,0.8635,-6.21,7.85,0.03,23.23
24079,0.3439,-0.0125,0.8602,-6.21,7.77,-0.08,23.21
24089,0.3438,-0.0129,0.8607,-6.21,7.62,-0.06,23.2
24099,0.3427,-0.011,0.8569,-6.21,7.79,0.02,23.19
24109,0.3416,-0.0092,0.8586,-6.11,7.82,-0.02,23.2
24119,0.3411,-0.0093,0.8621,-6.12,7.77,-0.02,23.22
24129,0.345,-0.0114,0.8623,-6.26,7.76,-0.02,23.2
24139,0.3413,-0.0132,0.8591,-6.24,7.83,-0.02,23.22
24149,0.3392,-0.0121,0.8589,-6.18,7.74,0.06,23.24
24159,0.3412,-0.0081,0.8632,-6.23,7.74,-0.09,23.2
24169,0.3423,-0.0076,0.8597,-6.14,7.74,-0.03,23.18
24179,0.3422,-0.0063,0.8615,-6.14,7.79,0.09,23.22
24189,0.3433,-0.0095,0.8584,-6.14,7.79,0.05,23.22
24199,0.3424,-0.0095,0.8607,-6.21,7.68,-0.03,23.21
24209,0.3424,-0.0101,0.8606,-6.17,7.71,0.0,23.19
24219,0.3398,-0.0105,0.8641,-6.17,7.69,0.02,23.21
24229,0.3418,-0.0117,0.8552,-6.23,7.82,-0.05,23.2
24239,0.3405,-0.0093,0.8589,-6.24,7.8,0.0,23.2
24249,0.3397,-0.0128,0.8575,-6.18,7.76,-0.03,23.2
24259,0.3407,-0.0096,0.8574,-6.21,7.74,0.0,23.19
24269,0.3406,-0.0067,0.856,-6.24,7.76,-0.08,23.19
24279,0.3425,-0.0081,0.8585,-6.27,7.83,-0.09,23.19
24289,0.3409,-0.0094,0.8582,-6.2,7.74,-0.02,23.21
24299,0.339,-0.006,0.8577,-6.23,7.73,-0.06,23.22
24309,0.3408,-0.0099,0.8591,-6.2,7.77,-0.08,23.21
24319,0.3439,-0.0096,0.859,-6.17,7.76,-0.11,23.2
24329,0.342,-0.0088,0.8618,-6.26,7.71,0.03,23.22
24339,0.3422,-0.0109,0.8606,-6.29,7.73,-0.03,23.22
24349,0.3398,-0.0088,0.8599,-6.23,7.79,-0.02,23.22
24359,0.342,-0.0096,0.86,-6.21,7.77,0.09,23.2
24369,0.3405,-0.0085,0.8589,-6.23,7.76,-0.03,23.21
24379,0.342,-0.0094,0.8644,-6.26,7.77,0.02,23.23
24389,0.3394,-0.0081,0.8602,-6.35,7.62,0.03,23.22
24399,0.3411,-0.009,0.8601,-6.2,7.8,-0.09,23.21
24409,0.342,-0.0095,0.8597,-6.24,7.74,-0.03,23.19
24419,0.3397,-0.0083,0.8617,-6.17,7.73,-0.06,23.22
24429,0.3414,-0.011,0.8607,-6.18,7.77,0.0,23.22
24439,0.3411,-0.0107,0.8595,-6.21,7.77,-0.05,23.21
24449,0.3412,-0.0128,0.863,-6.27,7.82,-0.02,23.22
24459,0.3413,-0.0107,0.8589,-6.17,7.74,0.02,23.21
24469,0.342,-0.0103,0.8585,-6.15,7.73,-0.09,23.19
24479,0.3398,-0.0073,0.8613,-6.27,7.8,0.05,23.21
24489,0.3395,-0.009,0.8634,-6.24,7.77,0.05,23.21
24499,0.3414,-0.0087,0.8553,-6.27,7.77,-0.08,23.21
24509,0.3428,-0.0115,0.8574,-6.2,7.85,0.0,23.21
24519,0.3433,-0.0079,0.8606,-6.15,7.71,-0.03,23.22
24529,0.3403,-0.0104,0.8594,-6.15,7.77,-0.08,23.21
24539,0.3383,-0.0088,0.8613,-6.12,7.82,0.02,23.2
24549,0.3408,-0.0101,0.8606,-6.21,7.79,-0.06,23.19
24559,0.3401,-0.0085,0.8597,-6.32,7.76,0.0,23.2
24569,0.3412,-0.0072,0.8628,-6.23,7.74,-0.05,23.21
24579,0.3412,-0.0085,0.8627,-6.21,7.69,-0.06,23.22
24589,0.3405,-0.0077,0.8596,-6.31,7.82,-0.03,23.22
24599,0.3431,-0.0095,0.8591,-6.2,7.8,0.0,23.19
24609,0.3414,-0.0076,0.8601,-6.17,7.74,0.05,23.22
24619,0.3424,-0.0078,0.8588,-6.2,7.8,-0.05,23.22
24629,0.3447,-0.0088,0.8632,-6.29,7.77,-0.05,23.23
24639,0.3425,-0.0104,0.8593,-6.21,7.82,0.02,23.22
24649,0.3398,-0.01,0.8602,-6.2,7.82,-0.11,23.2
24659,0.3402,-0.0104,0.8571,-6.26,7.82,0.0,23.19
24669,0.3389,-0.0121,0.8617,-6.32,7.71,-0.06,23.22
24679,0.342,-0.0082,0.8617,-6.21,7.77,-0.03,23.19
24689,0.3422,-0.0089,0.8595,-6.24,7.79,-0.02,23.22
24699,0.3428,-0.0105,0.8589,-6.17,7.79,0.03,23.23
24709,0.3423,-0.0071,0.8625,-6.2,7.8,-0.09,23.2
24719,0.342,-0.0101,0.858,-6.18,7.86,-0.03,23.21
24729,0.342,-0.0077,0.8564,-6.15,7.69,-0.02,23.2
24739,0.3427,-0.0094,0.863,-6.29,7.76,-0.02,23.22
24749,0.3391,-0.0087,0.8582,-6.21,7.73,-0.02,23.2
24759,0.3406,-0.009,0.8566,-6.32,7.76,-0.06,23.22
24769,0.3398,-0.0109,0.8612,-6.37,7.71,0.0,23.19
24779,0.3423,-0.0094,0.8616,-6.14,7.8,-0.03,23.21
24790,0.3439,-0.0084,0.8583,-6.18,7.76,0.0,23.2
24800,0.343,-0.0106,0.8564,-6.34,7.71,0.0,23.19
24811,0.3419,-0.0111,0.8621,-6.24,7.77,-0.09,23.2
24821,0.3445,-0.0107,0.8597,-6.14,7.76,-0.08,23.22
24831,0.3435,-0.0101,0.8588,-6.18,7.79,0.03,23.22
24841,0.3436,-0.0112,0.8594,-6.18,7.76,-0.02,23.22
24851,0.3427,-0.0131,0.8588,-6.18,7.71,-0.08,23.22
24861,0.339,-0.0114,0.8639,-6.21,7.77,-0.02,23.21
24871,0.344,-0.0076,0.8586,-6.17,7.77,0.03,23.23
24881,0.345,-0.0089,0.8644,-6.18,7.79,0.02,23.22
24891,0.3391,-0.0092,0.8635,-6.35,7.76,-0.02,23.22
24901,0.3411,-0.0092,0.8588,-6.24,7.8,0.0,23.2
24911,0.3406,-0.0106,0.8619,-6.24,7.88,0.05,23.2
24921,0.3418,-0.0082,0.8597,-6.17,7.73,-0.05,23.21
24931,0.3408,-0.0103,0.861,-6.29,7.71,-0.02,23.23
24941,0.3411,-0.0099,0.8608,-6.21,7.8,-0.14,23.22
24951,0.3427,-0.0133,0.8652,-6.14,7.74,-0.17,23.22
24961,0.3394,-0.0096,0.8605,-6.18,7.76,0.03,23.19
24971,0.3396,-0.0099,0.8597,-6.21,7.71,-0.02,23.23
24981,0.3408,-0.0095,0.8546,-6.2,7.68,-0.02,23.23
24991,0.3424,-0.0099,0.8585,-6.17,7.66,-0.12,23.24
25001,0.3398,-0.0076,0.8528,-6.15,7.77,-0.02,23.23
25011,0.3413,-0.0089,0.8568,-6.18,7.82,-0.06,23.21
25021,0.3414,-0.0087,0.8595,-6.24,7.69,-0.12,23.21
25031,0.3402,-0.0085,0.8604,-6.21,7.73,-0.11,23.22
25041,0.3438,-0.0116,0.8571,-6.23,7.74,0.02,23.22
25051,0.3424,-0.0101,0.8607,-6.23,7.73,-0.05,23.21
25061,0.3431,-0.01,0.8616,-6.27,7.82,-0.02,23.21
25071,0.343,-0.0094,0.858,-6.24,7.71,0.03,23.22
25081,0.3434,-0.0079,0.861,-6.21,7.73,0.03,23.24
25091,0.3413,-0.0068,0.858,-6.2,7.73,0.0,23.21
25101,0.3431,-0.0103,0.8577,-6.24,7.74,0.05,23.22
25111,0.3425,-0.0071,0.8633,-6.17,7.79,-0.05,23.22
25121,0.3405,-0.0095,0.863,-6.26,7.76,-0.02,23.23
25131,0.3444,-0.0103,0.8567,-6.2,7.71,-0.06,23.22
25141,0.3423,-0.0099,0.8593,-6.2,7.83,0.06,23.22
25151,0.3405,-0.0088,0.8619,-6.23,7.77,0.03,23.22
25161,0.3406,-0.0117,0.8593,-6.29,7.66,0.06,23.23
25171,0.3394,-0.0101,0.8575,-6.18,7.73,-0.02,23.22
25181,0.3414,-0.0096,0.8615,-6.32,7.73,-0.02,23.23
25191,0.3417,-0.0096,0.8633,-6.32,7.79,0.0,23.2
25201,0.3396,-0.0068,0.8655,-6.17,7.73,0.0,23.22
25211,0.3398,-0.0106,0.8596,-6.18,7.77,0.05,23.21
25221,0.3416,-0.0114,0.8622,-6.18,7.76,-0.06,23.21
25231,0.3428,-0.0089,0.8607,-6.24,7.8,0.0,23.23
25241,0.3433,-0.0111,0.8588,-6.17,7.82,-0.02,23.22
25251,0.3408,-0.0114,0.8613,-6.24,7.73,-0.05,23.23
25261,0.3414,-0.0085,0.8606,-6.24,7.88,-0.06,23.21
25271,0.3385,-0.0093,0.8617,-6.24,7.79,-0.11,23.22
25281,0.3396,-0.0092,0.8611,-6.23,7.82,-0.02,23.21
25291,0.342,-0.0111,0.8589,-6.24,7.83,-0.03,23.24
25301,0.3379,-0.0117,0.8605,-6.21,7.71,-0.06,23.24
25311,0.3409,-0.0112,0.8596,-6.21,7.79,0.05,23.24
25321,0.3413,-0.0139,0.8582,-6.18,7.68,-0.06,23.23
25331,0.3422,-0.0093,0.8595,-6.26,7.73,-0.09,23.23
25341,0.3409,-0.0061,0.861,-6.2,7.69,-0.08,23.21
25351,0.3417,-0.0081,0.8582,-6.18,7.79,-0.09,23.23
25361,0.3424,-0.0068,0.8595,-6.15,7.69,-0.08,23.23
25371,0.3409,-0.0098,0.859,-6.26,7.74,-0.09,23.2
25381,0.3427,-0.0105,0.8591,-6.23,7.83,0.02,23.22
25391,0.3405,-0.0081,0.8611,-6.23,7.8,0.02,23.24
25401,0.342,-0.0088,0.8612,-6.24,7.79,-0.02,23.21
25412,0.3417,-0.0109,0.8615,-6.31,7.73,-0.05,23.2
25422,0.3403,-0.0077,0.8572,-6.23,7.69,-0.02,23.25
25432,0.3384,-0.0116,0.8636,-6.17,7.71,-0.09,23.21
25442,0.3403,-0.0072,0.8591,-6.09,7.74,-0.08,23.2
25452,0.3398,-0.01,0.8613,-6.2,7.73,-0.11,23.23
25462,0.3429,-0.012,0.8639,-6.17,7.79,-0.09,23.24
25472,0.3368,-0.0074,0.8608,-6.15,7.76,-0.09,23.23
25483,0.3402,-0.0084,0.8602,-6.12,7.71,-0.03,23.23
25493,0.3389,-0.0078,0.863,-6.02,7.79,-0.03,23.23
25504,0.3419,-0.0071,0.8623,-6.21,7.69,-0.03,23.24
25514,0.3418,-0.011,0.8639,-6.18,7.69,0.0,23.24
25524,0.3422,-0.0116,0.8628,-6.21,7.74,-0.03,23.22
25534,0.3417,-0.0095,0.8606,-6.2,7.74,0.0,23.23
25544,0.3407,-0.0084,0.8593,-6.21,7.73,-0.02,23.24
25554,0.3416,-0.0056,0.8595,-6.23,7.79,0.02,23.24
25564,0.339,-0.0089,0.8582,-6.18,7.8,0.03,23.23
25574,0.3417,-0.0109,0.859,-6.27,7.82,-0.02,23.24
25584,0.3419,-0.012,0.8593,-6.29,7.79,0.08,23.22
25594,0.3434,-0.0087,0.8616,-6.24,7.79,0.02,23.22
25604,0.3409,-0.0107,0.8575,-6.23,7.76,-0.03,23.22
25614,0.3411,-0.007,0.8599,-6.37,7.68,-0.02,23.22
25624,0.3409,-0.0112,0.8607,-6.21,7.74,-0.09,23.24
25634,0.3423,-0.0057,0.859,-6.27,7.82,0.06,23.23
25644,0.3387,-0.0085,0.8597,-6.12,7.79,-0.05,23.22
25654,0.3408,-0.0062,0.8601,-6.23,7.76,0.0,23.2
25664,0.3409,-0.0103,0.8597,-6.18,7.74,-0.14,23.24
25674,0.3383,-0.0076,0.86,-6.15,7.8,0.08,23.22
25684,0.3416,-0.0107,0.8594,-6.27,7.77,-0.05,23.23
25694,0.3411,-0.0082,0.8607,-6.17,7.8,-0.02,23.22
25704,0.3419,-0.0094,0.8619,-6.23,7.76,-0.03,23.24
25714,0.344,-0.009,0.8655,-6.26,7.76,-0.12,23.22
25724,0.3436,-0.009,0.8612,-6.34,7.83,-0.09,23.22
25734,0.3408,-0.0098,0.8594,-6.21,7.76,0.03,23.25
25744,0.3408,-0.0106,0.8591,-6.24,7.77,0.02,23.23
25754,0.3429,-0.0073,0.8566,-6.17,7.79,-0.11,23.24
25765,0.3434,-0.0114,0.8619,-6.31,7.74,0.03,23.26
25775,0.3385,-0.0122,0.8608,-6.26,7.76,-0.03,23.23
25785,0.3416,-0.0099,0.8632,-6.2,7.76,-0.06,23.24
25795,0.339,-0.0101,0.8591,-6.24,7.76,-0.05,23.25
25805,0.342,-0.0084,0.8596,-6.21,7.79,0.0,23.24
25815,0.3392,-0.0105,0.8638,-6.24,7.89,-0.06,23.23
25825,0.3406,-0.011,0.8633,-6.14,7.76,-0.06,23.24
25835,0.3395,-0.0079,0.8564,-6.23,7.74,0.03,23.23
25845,0.3414,-0.012,0.8617,-6.21,7.79,-0.08,23.25
25855,0.3414,-0.009,0.8608,-6.15,7.77,-0.03,23.24
25865,0.3436,-0.0098,0.8612,-6.21,7.69,0.0,23.24
25875,0.3433,-0.009,0.859,-6.23,7.79,0.06,23.23
25885,0.3396,-0.0112,0.8617,-6.15,7.74,-0.03,23.24
25895,0.3408,-0.0101,0.8649,-6.23,7.79,0.0,23.26
25905,0.3438,-0.0098,0.8646,-6.2,7.85,0.03,23.24
25915,0.3419,-0.0106,0.8607,-6.17,7.8,-0.06,23.23
25925,0.3406,-0.01,0.8597,-6.21,7.74,-0.02,23.26
25935,0.343,-0.0115,0.8619,-6.18,7.77,-0.06,23.24
25945,0.3417,-0.0071,0.8599,-6.17,7.71,-0.03,23.24
25955,0.3417,-0.0107,0.8617,-6.2,7.79,-0.05,23.23
25965,0.34,-0.0131,0.8602,-6.21,7.76,-0.03,23.22
25975,0.3402,-0.0077,0.8655,-6.23,7.85,-0.08,23.25
25985,0.3402,-0.0111,0.8599,-6.26,7.82,0.02,23.23
25995,0.3416,-0.0103,0.8601,-6.24,7.74,0.02,23.21
26005,0.3418,-0.0085,0.8594,-6.24,7.83,-0.05,23.26
26015,0.3408,-0.0122,0.8612,-6.21,7.71,-0.11,23.26
26025,0.3419,-0.0094,0.8621,-6.27,7.8,0.02,23.25
26035,0.3451,-0.0072,0.861,-6.24,7.74,-0.03,23.21
26045,0.3397,-0.0121,0.8582,-6.2,7.77,0.0,23.25
26055,0.3428,-0.0107,0.8618,-6.21,7.8,-0.06,23.24
26065,0.3398,-0.009,0.8601,-6.21,7.73,-0.03,23.22
26075,0.3395,-0.0093,0.8578,-6.18,7.71,0.0,23.24
26085,0.3414,-0.0117,0.8582,-6.17,7.76,0.06,23.24
26095,0.3413,-0.0112,0.8612,-6.11,7.74,-0.05,23.24
26106,0.3373,-0.0076,0.8589,-6.21,7.77,0.0,23.22
26116,0.3412,-0.0115,0.8591,-6.2,7.73,-0.06,23.22
26126,0.3416,-0.0077,0.8564,-6.24,7.73,0.03,23.22
26136,0.3381,-0.0083,0.8583,-6.14,7.73,-0.09,23.25
26146,0.342,-0.0109,0.8577,-6.2,7.79,-0.05,23.24
26156,0.3429,-0.0098,0.8608,-6.2,7.76,-0.03,23.24
26166,0.3442,-0.0103,0.8593,-6.21,7.73,0.0,23.22
26176,0.3413,-0.012,0.8578,-6.15,7.8,-0.03,23.22
26186,0.3396,-0.0085,0.8597,-6.21,7.77,0.08,23.24
26196,0.3402,-0.0084,0.8597,-6.26,7.74,-0.02,23.24
26206,0.3405,-0.0104,0.8595,-6.18,7.8,0.09,23.24
26216,0.3447,-0.0095,0.8582,-6.23,7.82,-0.06,23.24
26226,0.3408,-0.0089,0.8591,-6.26,7.79,0.0,23.23
26236,0.3414,-0.0104,0.8599,-6.17,7.74,-0.02,23.25
26246,0.343,-0.0106,0.86,-6.21,7.73,0.0,23.23
26257,0.3411,-0.0142,0.859,-6.2,7.71,0.02,23.22
26267,0.3389,-0.0099,0.8564,-6.24,7.82,0.03,23.24
26277,0.3429,-0.0117,0.8583,-6.34,7.82,-0.02,23.26
26287,0.3455,-0.0123,0.8607,-6.21,7.76,-0.06,23.23
26297,0.34,-0.0121,0.8617,-6.27,7.76,-0.09,23.26
26307,0.3417,-0.0098,0.8634,-6.27,7.82,-0.08,23.23
26317,0.3413,-0.0109,0.8625,-6.24,7.76,-0.08,23.22
26327,0.3422,-0.0099,0.8634,-6.29,7.77,0.02,23.23
26337,0.34,-0.0104,0.8593,-6.18,7.82,0.05,23.24
26347,0.3413,-0.0082,0.8611,-6.17,7.82,-0.03,23.25
26366,0.3403,-0.0112,0.8577,-6.29,7.76,0.03,23.24
26377,0.3425,-0.0098,0.8593,-6.12,7.65,0.02,23.25
26387,0.3453,-0.0088,0.8602,-6.12,7.76,-0.09,23.27
26397,0.3417,-0.0093,0.8568,-6.12,7.76,-0.08,23.24
26407,0.3406,-0.0115,0.8584,-6.2,7.79,-0.02,23.26
26417,0.3406,-0.0084,0.8582,-6.29,7.76,-0.06,23.25
26427,0.3409,-0.0087,0.8589,-6.2,7.82,-0.05,23.24
26437,0.3425,-0.0106,0.8595,-6.18,7.82,-0.03,23.24
26447,0.3395,-0.0084,0.8578,-6.32,7.77,-0.09,23.25
26457,0.3411,-0.0107,0.859,-6.26,7.83,-0.02,23.24
26467,0.3413,-0.01,0.8604,-6.23,7.83,-0.03,23.24
26477,0.3427,-0.0109,0.8604,-6.2,7.76,-0.02,23.26
26487,0.3403,-0.0104,0.859,-6.2,7.82,-0.02,23.24
26497,0.3416,-0.0084,0.8564,-6.17,7.79,0.0,23.24
26507,0.3411,-0.011,0.8613,-6.27,7.83,0.02,23.26
26517,0.3424,-0.0063,0.8611,-6.31,7.83,-0.03,23.25
26527,0.3402,-0.0089,0.8613,-6.29,7.85,0.0,23.25
26537,0.3448,-0.0104,0.8602,-6.24,7.77,0.02,23.26
26547,0.3444,-0.0098,0.8557,-6.18,7.76,0.03,23.28
26557,0.3438,-0.0109,0.8578,-6.2,7.76,0.02,23.28
26567,0.3411,-0.0085,0.8591,-6.29,7.8,0.0,23.26
26577,0.3397,-0.0106,0.8627,-6.31,7.77,-0.06,23.24
26587,0.3402,-0.0095,0.8599,-6.23,7.76,-0.02,23.24
26597,0.3412,-0.0074,0.8594,-6.2,7.76,0.02,23.25
26607,0.3416,-0.005,0.8586,-6.2,7.73,-0.09,23.24
26617,0.3451,-0.0099,0.8599,-6.18,7.79,-0.08,23.25
26627,0.3414,-0.0072,0.8611,-6.2,7.82,0.02,23.23
26637,0.3396,-0.0092,0.8558,-6.24,7.79,0.02,23.26
26647,0.3401,-0.0095,0.8582,-6.29,7.82,0.08,23.26
26657,0.3397,-0.0109,0.8591,-6.26,7.76,-0.05,23.24
26667,0.3392,-0.0095,0.8615,-6.21,7.74,-0.03,23.24
26677,0.3406,-0.0101,0.8611,-6.26,7.77,-0.02,23.26
26687,0.3409,-0.009,0.8591,-6.21,7.8,-0.02,23.27
26697,0.342,-0.0117,0.864,-6.34,7.79,-0.02,23.25
26707,0.343,-0.0131,0.8591,-6.29,7.77,-0.06,23.27
26718,0.3406,-0.0094,0.86,-6.24,7.8,-0.03,23.25
26728,0.3396,-0.0085,0.858,-6.27,7.77,-0.02,23.23
26738,0.3398,-0.0068,0.8606,-6.15,7.8,-0.12,23.25
26748,0.3383,-0.0092,0.8612,-6.21,7.69,-0.02,23.22
26758,0.339,-0.0085,0.86,-6.27,7.76,-0.05,23.27
26768,0.3413,-0.0087,0.8605,-6.24,7.79,0.0,23.25
26778,0.3403,-0.0103,0.8591,-6.23,7.68,0.02,23.24
26788,0.3401,-0.0063,0.8589,-6.23,7.74,-0.08,23.25
26798,0.3428,-0.0082,0.8588,-6.2,7.69,-0.14,23.26
26809,0.3416,-0.0089,0.8594,-6.23,7.73,-0.08,23.27
26819,0.3419,-0.0088,0.8658,-6.32,7.57,0.06,23.26
26829,0.3408,-0.0107,0.8615,-6.26,7.73,-0.05,23.25
26839,0.3394,-0.0089,0.8604,-6.2,7.86,-0.05,23.24
26849,0.3416,-0.0134,0.8608,-6.17,7.82,-0.08,23.24
26859,0.342,-0.0065,0.8583,-6.32,7.73,-0.06,23.26
26869,0.342,-0.0088,0.8632,-6.26,7.8,-0.03,23.23
26879,0.3413,-0.009,0.8583,-6.26,7.68,-0.05,23.24
26889,0.3417,-0.01,0.8599,-6.32,7.83,0.02,23.23
26899,0.3427,-0.0087,0.8566,-6.15,7.74,-0.03,23.23
26909,0.3418,-0.0104,0.8578,-6.2,7.65,-0.11,23.27
26919,0.3394,-0.0107,0.8596,-6.23,7.79,-0.08,23.24
26929,0.3403,-0.0109,0.8593,-6.27,7.76,-0.02,23.24
26939,0.3425,-0.0116,0.859,-6.2,7.74,-0.03,23.24
26949,0.3374,-0.0092,0.8588,-6.23,7.85,0.05,23.27
26959,0.3402,-0.0129,0.859,-6.26,7.85,-0.09,23.25
26969,0.3422,-0.0098,0.8578,-6.29,7.82,-0.09,23.26
26979,0.3425,-0.0095,0.8594,-6.17,7.77,0.08,23.25
26989,0.3422,-0.0103,0.8586,-6.2,7.74,0.06,23.27
26999,0.3407,-0.0096,0.8607,-6.24,7.77,-0.02,23.27
27009,0.3427,-0.0106,0.86,-6.32,7.76,-0.08,23.25
27019,0.3423,-0.0111,0.8595,-6.24,7.73,-0.09,23.26
27029,0.3413,-0.0145,0.8617,-6.11,7.82,0.0,23.26
27039,0.3398,-0.0116,0.8605,-6.24,7.83,-0.11,23.27
27049,0.3405,-0.0103,0.8616,-6.15,7.79,-0.08,23.27
27059,0.3417,-0.0103,0.8606,-6.23,7.79,-0.06,23.25
27069,0.3424,-0.0089,0.8613,-6.21,7.74,-0.06,23.28
27079,0.3408,-0.0092,0.8608,-6.21,7.8,-0.09,23.28
27089,0.3433,-0.0077,0.8612,-6.26,7.74,0.0,23.28
27099,0.3412,-0.0096,0.868,-6.24,7.69,-0.02,23.24
27109,0.3429,-0.0087,0.8644,-6.24,7.74,-0.14,23.28
27119,0.3395,-0.0123,0.8596,-6.2,7.73,-0.03,23.25
27129,0.3422,-0.0084,0.8573,-6.23,7.79,-0.08,23.28
27139,0.3418,-0.0087,0.8577,-6.17,7.76,-0.05,23.25
27149,0.3395,-0.0092,0.8585,-6.24,7.76,-0.02,23.26
27159,0.3395,-0.0107,0.863,-6.14,7.77,-0.03,23.26
27169,0.3411,-0.011,0.861,-6.21,7.8,-0.02,23.27
27179,0.3435,-0.0073,0.8623,-6.21,7.71,-0.14,23.26
27189,0.3433,-0.0096,0.8636,-6.11,7.79,-0.05,23.26
27199,0.3436,-0.0111,0.8615,-6.15,7.86,0.0,23.24
27209,0.3423,-0.0084,0.8572,-6.21,7.79,-0.06,23.29
27219,0.3412,-0.0132,0.8595,-6.23,7.8,0.03,23.27
27229,0.342,-0.0096,0.8618,-6.23,7.74,-0.03,23.28
27239,0.3413,-0.0099,0.8568,-6.12,7.73,-0.05,23.25
27249,0.3412,-0.0107,0.8627,-6.21,7.77,-0.02,23.27
27259,0.3408,-0.0095,0.86,-6.17,7.79,-0.05,23.28
27269,0.3416,-0.0099,0.8629,-6.21,7.82,0.0,23.27
27279,0.3434,-0.0115,0.8595,-6.18,7.76,-0.09,23.27
27289,0.3405,-0.0085,0.8635,-6.2,7.79,-0.03,23.29
27299,0.3424,-0.0083,0.8588,-6.23,7.82,-0.05,23.25
27309,0.3429,-0.0087,0.8608,-6.29,7.79,-0.08,23.25
27319,0.3409,-0.0079,0.8605,-6.29,7.77,-0.12,23.27
27330,0.3417,-0.0067,0.8607,-6.2,7.82,0.02,23.29
27340,0.3423,-0.0082,0.8594,-6.18,7.77,0.03,23.26
27350,0.3394,-0.0081,0.8583,-6.23,7.82,-0.02,23.27
27361,0.3427,-0.0071,0.8615,-6.27,7.79,-0.03,23.27
27371,0.3438,-0.0098,0.8621,-6.31,7.74,-0.06,23.27
27381,0.3417,-0.0107,0.8591,-6.2,7.74,-0.08,23.25
27391,0.3397,-0.0092,0.8553,-6.15,7.79,-0.05,23.25
27401,0.3427,-0.0093,0.8615,-6.12,7.74,-0.09,23.27
27411,0.342,-0.0116,0.8624,-6.18,7.79,-0.03,23.26
27421,0.3418,-0.0107,0.8578,-6.27,7.76,-0.03,23.29
27431,0.3442,-0.0095,0.8622,-6.29,7.8,0.0,23.29
27441,0.3409,-0.0095,0.8612,-6.21,7.79,0.02,23.27
27451,0.3402,-0.0099,0.858,-6.27,7.74,0.0,23.25
27461,0.3428,-0.0114,0.8604,-6.27,7.74,0.0,23.27
27471,0.3401,-0.0084,0.8589,-6.21,7.77,0.0,23.27
27481,0.3422,-0.0109,0.8579,-6.27,7.76,-0.02,23.22
27491,0.3425,-0.009,0.8615,-6.2,7.77,-0.03,23.28
27501,0.3425,-0.0072,0.8557,-6.21,7.69,-0.11,23.27
27511,0.3452,-0.0111,0.8604,-6.23,7.77,-0.06,23.24
27521,0.3386,-0.0082,0.8593,-6.26,7.8,-0.03,23.26
27531,0.3418,-0.0101,0.8601,-6.24,7.76,0.0,23.27
27541,0.3401,-0.0117,0.8615,-6.31,7.83,-0.06,23.28
27551,0.3414,-0.0084,0.8586,-6.21,7.74,-0.05,23.24
