t_ms,accel_x_g,accel_y_g,accel_z_g,gyro_x_dps,gyro_y_dps,gyro_z_dps,imu_temp_c
2277,0.1534,-0.2181,0.8665,-5.98,8.37,-0.03,19.25
2288,0.1483,-0.2186,0.865,-5.8,7.89,-0.09,19.27
2298,0.1487,-0.2188,0.8694,-5.83,7.27,-0.17,19.27
2308,0.1541,-0.2188,0.8638,-6.05,7.13,-0.17,19.27
2318,0.1561,-0.219,0.8563,-6.27,7.34,-0.11,19.28
2328,0.1571,-0.2166,0.8534,-6.06,7.8,-0.02,19.27
2338,0.1506,-0.2144,0.8578,-5.71,8.11,0.08,19.3
2348,0.1523,-0.2198,0.8673,-5.62,8.17,0.11,19.31
2358,0.149,-0.2173,0.8774,-5.74,7.91,-0.06,19.27
2368,0.1511,-0.2213,0.8745,-6.23,7.62,-0.03,19.29
2378,0.1525,-0.2246,0.8671,-6.4,7.69,-0.03,19.3
2388,0.1525,-0.224,0.8615,-6.46,7.79,-0.05,19.29
2398,0.1506,-0.2247,0.8586,-6.11,7.79,-0.05,19.28
2408,0.1526,-0.2219,0.8599,-5.69,7.63,-0.08,19.29
2418,0.1545,-0.2202,0.8682,-5.4,7.48,-0.08,19.28
2428,0.1544,-0.2206,0.8723,-5.63,7.33,-0.12,19.28
2438,0.1576,-0.2238,0.8735,-5.89,7.62,-0.02,19.27
2448,0.1577,-0.2225,0.8745,-6.2,7.98,-0.08,19.28
2458,0.155,-0.2258,0.8666,-6.27,7.95,0.03,19.29
2468,0.15,-0.2245,0.8621,-6.02,7.66,-0.08,19.3
2478,0.1534,-0.2195,0.8615,-5.66,7.37,-0.09,19.3
2488,0.1516,-0.2155,0.8683,-5.57,7.31,-0.09,19.32
2498,0.1558,-0.2109,0.8699,-5.6,7.5,-0.12,19.32
2508,0.1588,-0.2135,0.8672,-5.82,7.6,-0.08,19.29
2518,0.1553,-0.215,0.868,-6.21,7.74,-0.08,19.29
2528,0.1547,-0.2175,0.8638,-6.35,7.98,-0.09,19.3
2538,0.1498,-0.2214,0.8579,-6.34,8.03,-0.08,19.3
2548,0.1505,-0.2235,0.8539,-6.21,7.88,-0.05,19.3
2558,0.1489,-0.2224,0.8506,-5.95,7.77,-0.05,19.31
2568,0.1476,-0.2153,0.8503,-5.74,7.63,-0.08,19.28
2578,0.1487,-0.2169,0.8594,-5.69,7.54,-0.15,19.28
2588,0.1526,-0.2151,0.8545,-5.71,7.57,-0.08,19.3
2598,0.1528,-0.219,0.8594,-5.76,7.82,-0.02,19.29
2608,0.1505,-0.2184,0.8677,-5.94,8.2,0.08,19.29
2618,0.1534,-0.2205,0.8704,-6.0,8.12,0.06,19.3
2628,0.1489,-0.224,0.8707,-6.09,7.97,0.02,19.28
2638,0.1562,-0.2223,0.8678,-6.03,7.59,-0.05,19.28
2648,0.1521,-0.2211,0.8693,-6.03,7.59,-0.06,19.3
2658,0.1506,-0.2203,0.8655,-5.88,7.62,-0.06,19.3
2668,0.1503,-0.2169,0.8677,-5.88,7.68,-0.09,19.3
2678,0.1527,-0.2214,0.8696,-5.85,7.71,-0.02,19.29
2689,0.1536,-0.2177,0.8762,-5.86,7.86,0.06,19.3
2699,0.1527,-0.2227,0.8773,-5.94,7.88,-0.06,19.29
2709,0.1506,-0.2228,0.881,-6.05,7.66,-0.06,19.29
2719,0.1517,-0.2244,0.8824,-5.94,7.59,-0.09,19.28
2729,0.1554,-0.2222,0.879,-5.85,7.5,-0.02,19.3
2739,0.1543,-0.2201,0.8771,-5.85,7.5,-0.05,19.28
2749,0.1545,-0.2169,0.8685,-6.05,7.44,-0.05,19.31
2759,0.1554,-0.2174,0.8643,-6.15,7.56,-0.02,19.26
2769,0.1589,-0.2178,0.8601,-6.11,7.56,-0.11,19.3
2779,0.1522,-0.2181,0.8616,-6.09,7.69,-0.06,19.29
2789,0.1516,-0.2174,0.863,-6.06,7.8,0.05,19.29
2799,0.1477,-0.2206,0.8611,-5.88,7.83,-0.05,19.31
2809,0.1495,-0.2191,0.8616,-5.86,7.59,-0.08,19.27
2819,0.1521,-0.218,0.8564,-5.83,7.31,-0.06,19.31
2829,0.1543,-0.219,0.8551,-5.91,7.39,-0.21,19.29
2839,0.1517,-0.2168,0.8545,-5.91,7.62,-0.15,19.3
2849,0.1541,-0.2197,0.8567,-5.82,7.88,0.0,19.29
2859,0.1506,-0.2213,0.8574,-5.79,7.98,0.03,19.29
2869,0.1489,-0.2178,0.8635,-5.94,7.8,-0.02,19.32
2879,0.1512,-0.2166,0.8607,-6.0,7.51,-0.08,19.3
2889,0.1505,-0.2174,0.8566,-5.98,7.53,-0.09,19.31
2899,0.1525,-0.2166,0.8579,-6.06,7.6,-0.02,19.31
2909,0.1514,-0.2178,0.8595,-5.98,7.79,-0.02,19.31
2919,0.1509,-0.2188,0.8639,-5.86,7.86,0.0,19.32
2929,0.1519,-0.2196,0.8623,-5.73,7.68,0.02,19.33
2939,0.1501,-0.2214,0.8701,-5.83,7.53,-0.06,19.32
2949,0.1503,-0.2218,0.8733,-6.09,7.5,-0.03,19.32
2959,0.1526,-0.2194,0.8716,-6.11,7.57,0.02,19.32
2969,0.1539,-0.2175,0.8699,-6.02,7.62,-0.05,19.32
2979,0.1547,-0.2223,0.8737,-5.95,7.73,-0.05,19.33
2989,0.1514,-0.2179,0.8787,-5.8,7.6,-0.06,19.32
2999,0.1566,-0.2198,0.8757,-5.82,7.37,-0.11,19.31
3009,0.1586,-0.2192,0.876,-5.95,7.36,-0.11,19.32
3019,0.1637,-0.2173,0.8767,-6.18,7.77,-0.08,19.3
3029,0.1606,-0.2178,0.8722,-6.27,8.15,0.06,19.32
3039,0.1527,-0.2208,0.8688,-6.29,8.31,0.12,19.32
3049,0.1533,-0.2213,0.8682,-6.12,8.0,0.08,19.3
3059,0.1533,-0.2214,0.8647,-5.98,7.6,-0.05,19.34
3069,0.1509,-0.2218,0.86,-6.2,7.31,-0.06,19.29
3079,0.1542,-0.2217,0.8595,-6.0,7.68,-0.08,19.3
3089,0.1544,-0.2257,0.861,-5.91,8.11,-0.02,19.29
3099,0.1531,-0.2285,0.8661,-5.8,8.21,0.03,19.32
3109,0.1515,-0.2263,0.8705,-5.85,7.86,-0.03,19.32
3119,0.1544,-0.2252,0.8671,-5.97,7.47,-0.05,19.32
3129,0.1515,-0.2202,0.859,-5.92,7.19,-0.11,19.3
3139,0.1547,-0.2123,0.8568,-5.89,7.25,-0.12,19.32
3149,0.1553,-0.2111,0.853,-5.8,7.44,-0.15,19.34
3159,0.1558,-0.2155,0.8542,-5.74,7.74,-0.03,19.35
3169,0.1559,-0.215,0.8638,-5.77,7.97,-0.03,19.34
3179,0.157,-0.2183,0.8663,-5.66,8.03,0.06,19.32
3189,0.1493,-0.2144,0.8704,-6.0,7.91,0.02,19.32
3199,0.1473,-0.219,0.8655,-6.32,7.8,-0.03,19.34
3209,0.1475,-0.22,0.8619,-6.29,7.77,-0.11,19.33
3219,0.1484,-0.22,0.8577,-6.05,7.76,0.0,19.34
3229,0.1492,-0.2207,0.8582,-5.63,7.88,-0.03,19.34
3239,0.1492,-0.2166,0.8623,-5.39,7.89,0.14,19.34
3249,0.151,-0.215,0.8682,-5.5,7.77,0.03,19.34
3259,0.147,-0.2128,0.8712,-5.74,7.48,-0.02,19.33
3269,0.1514,-0.2137,0.8707,-6.2,7.42,-0.14,19.32
3279,0.1545,-0.2162,0.8644,-6.7,7.76,-0.11,19.33
3289,0.1556,-0.2172,0.8635,-6.46,8.12,0.0,19.34
3299,0.1534,-0.225,0.861,-5.95,8.14,0.09,19.33
3309,0.1538,-0.2236,0.8734,-5.59,7.85,0.0,19.32
3319,0.1536,-0.2196,0.8734,-5.54,7.39,-0.11,19.35
3329,0.1583,-0.2195,0.875,-5.76,6.98,-0.15,19.33
3339,0.1658,-0.2228,0.8716,-6.0,7.25,-0.12,19.35
3349,0.162,-0.2194,0.8682,-6.27,8.11,0.05,19.34
3359,0.1589,-0.2223,0.8674,-6.26,8.63,0.08,19.32
3369,0.155,-0.2225,0.8677,-5.98,8.46,0.12,19.31
3379,0.1514,-0.2241,0.8688,-6.03,7.74,0.06,19.35
3389,0.1503,-0.2219,0.8625,-5.94,7.13,-0.14,19.35
3399,0.1586,-0.2234,0.8628,-6.02,7.08,-0.23,19.35
3409,0.1589,-0.2206,0.8556,-5.94,7.76,-0.03,19.33
3419,0.1581,-0.2231,0.8624,-5.68,8.18,0.11,19.31
3429,0.1478,-0.2231,0.8728,-5.68,8.12,0.14,19.33
3439,0.1473,-0.2246,0.8748,-5.98,7.6,0.0,19.33
3449,0.1486,-0.2166,0.8739,-6.18,7.59,-0.06,19.33
3459,0.1635,-0.2177,0.858,-6.09,7.57,-0.03,19.33
3469,0.1575,-0.2186,0.8589,-5.92,7.86,0.12,19.33
3479,0.1484,-0.2209,0.8634,-5.88,8.12,0.08,19.36
3489,0.1438,-0.2217,0.8635,-5.79,7.89,0.02,19.35
3499,0.1448,-0.2156,0.8639,-5.91,7.45,-0.11,19.35
3509,0.152,-0.2139,0.8616,-5.92,7.34,-0.11,19.35
3519,0.1511,-0.2202,0.8584,-6.05,7.68,-0.02,19.34
3529,0.15,-0.2189,0.8615,-6.06,8.05,0.03,19.34
3539,0.1461,-0.2202,0.8639,-6.06,8.26,0.08,19.35
3549,0.1464,-0.22,0.8677,-5.98,7.82,-0.02,19.35
3559,0.1509,-0.2207,0.868,-5.88,7.44,-0.06,19.34
3569,0.1553,-0.2211,0.8667,-5.82,7.08,-0.12,19.34
3579,0.155,-0.2195,0.8663,-5.98,7.37,-0.12,19.36
3589,0.1565,-0.2202,0.8607,-5.94,7.86,-0.03,19.34
3599,0.1526,-0.22,0.864,-5.92,8.06,-0.06,19.36
3609,0.1522,-0.2191,0.8693,-5.94,7.88,-0.02,19.36
3619,0.1511,-0.2181,0.871,-5.98,7.66,-0.08,19.32
3629,0.1534,-0.2181,0.8677,-6.03,7.39,-0.17,19.35
3639,0.1565,-0.2198,0.8658,-6.18,7.51,-0.06,19.35
3649,0.1569,-0.22,0.8612,-6.05,7.86,-0.03,19.35
3659,0.1527,-0.2209,0.8645,-5.86,7.98,0.02,19.36
3669,0.1514,-0.2175,0.8694,-5.62,7.65,-0.05,19.35
3679,0.1498,-0.2177,0.8727,-5.69,7.34,-0.11,19.35
3689,0.157,-0.2146,0.8685,-6.03,7.34,-0.09,19.35
3699,0.1576,-0.2178,0.8645,-6.2,7.57,-0.08,19.34
3709,0.157,-0.218,0.8672,-6.14,7.89,-0.11,19.36
3719,0.1512,-0.2208,0.8638,-6.14,7.92,-0.05,19.36
3729,0.1554,-0.2207,0.8685,-5.98,7.69,-0.06,19.35
3739,0.1548,-0.2228,0.8701,-5.89,7.54,-0.08,19.35
3749,0.157,-0.2263,0.8708,-5.92,7.57,-0.14,19.38
3759,0.1526,-0.2244,0.8652,-6.05,7.71,-0.08,19.38
3769,0.1517,-0.2231,0.8638,-5.95,7.97,0.03,19.38
3779,0.15,-0.2223,0.8615,-5.86,7.89,0.02,19.37
3789,0.1501,-0.2218,0.8647,-5.88,7.79,-0.02,19.37
3799,0.1534,-0.2225,0.8678,-5.65,7.69,-0.02,19.37
3809,0.15,-0.2235,0.8651,-5.69,7.57,0.03,19.35
3819,0.1511,-0.2233,0.8676,-5.86,7.65,-0.08,19.37
3829,0.1534,-0.2191,0.8616,-5.89,7.65,-0.02,19.37
3839,0.1526,-0.2152,0.8621,-5.89,7.69,-0.03,19.38
3849,0.1497,-0.2131,0.8615,-5.86,7.69,-0.02,19.35
3859,0.1522,-0.2137,0.8589,-5.77,7.69,-0.11,19.38
3869,0.1511,-0.214,0.863,-5.92,7.77,0.02,19.37
3879,0.1497,-0.2131,0.8625,-6.02,7.74,-0.02,19.37
3889,0.1511,-0.2189,0.8667,-5.95,7.83,-0.11,19.39
3899,0.1517,-0.2174,0.8654,-6.05,7.82,0.02,19.39
3909,0.1562,-0.2173,0.8658,-6.06,7.79,0.02,19.38
3919,0.1476,-0.2216,0.8672,-6.08,7.73,-0.03,19.38
3929,0.1564,-0.2181,0.8629,-6.09,7.71,0.0,19.35
3939,0.1527,-0.2125,0.8601,-6.03,7.69,0.05,19.38
3949,0.1263,-0.1938,0.8334,-6.27,7.08,-0.02,19.36
3959,0.1647,-0.2238,0.853,-6.82,6.76,-0.41,19.36
3969,0.1747,-0.2189,0.8622,-5.89,8.61,0.05,19.37
3979,0.1702,-0.2303,0.8906,-4.43,10.0,0.56,19.35
3989,0.1498,-0.246,0.9141,-4.67,8.75,0.17,19.38
3999,0.1335,-0.2312,0.9083,-6.96,6.52,-0.44,19.37
4009,0.1505,-0.2214,0.8634,-7.88,4.84,-0.55,19.36
4019,0.1653,-0.2266,0.8302,-7.3,6.08,-0.27,19.37
4029,0.1689,-0.2197,0.8246,-6.46,9.05,0.11,19.35
4039,0.1539,-0.2134,0.8386,-4.9,10.4,0.53,19.38
4049,0.1368,-0.219,0.8727,-3.68,8.63,0.31,19.38
4059,0.1387,-0.2198,0.8934,-4.24,6.23,-0.21,19.37
4069,0.15,-0.2163,0.8911,-5.95,5.33,-0.6,19.39
4079,0.1691,-0.2174,0.8724,-7.16,6.29,-0.34,19.4
4089,0.1716,-0.2212,0.8589,-7.47,8.56,0.08,19.38
4099,0.1541,-0.2223,0.8514,-6.79,10.24,0.26,19.4
4109,0.1388,-0.2185,0.8636,-5.45,9.31,0.31,19.36
4119,0.1376,-0.2175,0.877,-4.4,6.95,0.03,19.37
4129,0.1515,-0.2126,0.8798,-4.82,5.62,-0.35,19.37
4139,0.16,-0.2113,0.8711,-6.12,6.5,-0.31,19.39
4149,0.1628,-0.2157,0.8589,-7.05,8.14,-0.03,19.4
4159,0.1543,-0.2223,0.8572,-7.21,9.59,0.27,19.39
4169,0.1442,-0.2255,0.8507,-6.73,9.27,0.23,19.39
4179,0.144,-0.2261,0.8595,-5.74,7.6,-0.03,19.4
4189,0.1528,-0.2212,0.8634,-4.98,6.17,-0.23,19.38
4199,0.1609,-0.2184,0.8687,-5.1,6.43,-0.15,19.38
4209,0.1621,-0.2185,0.8645,-5.73,7.92,0.03,19.41
4219,0.1564,-0.219,0.8655,-6.41,8.95,0.23,19.41
4229,0.146,-0.223,0.8718,-6.55,8.75,0.21,19.41
4239,0.1432,-0.2239,0.8623,-6.21,7.79,-0.02,19.37
4249,0.1471,-0.2184,0.8604,-5.85,6.78,-0.09,19.39
4259,0.1519,-0.2142,0.859,-5.66,6.82,-0.15,19.38
4269,0.1571,-0.2106,0.8606,-5.73,7.68,-0.09,19.37
4279,0.1553,-0.2144,0.8633,-5.74,8.43,0.03,19.38
4289,0.1503,-0.2146,0.8698,-5.82,8.32,0.17,19.41
4299,0.1492,-0.2152,0.8787,-5.95,7.73,0.03,19.4
4309,0.1514,-0.2195,0.87,-6.29,7.18,-0.2,19.38
4319,0.1562,-0.2201,0.8607,-6.31,7.3,-0.14,19.39
4329,0.156,-0.2229,0.8607,-6.17,7.97,0.11,19.4
4339,0.1545,-0.222,0.8656,-5.83,8.29,0.18,19.38
4349,0.1488,-0.2206,0.8751,-5.48,8.15,0.08,19.38
4359,0.151,-0.2208,0.8778,-5.68,7.4,-0.38,19.41
4369,0.1516,-0.2166,0.8711,-6.18,6.92,-0.15,19.39
4379,0.1581,-0.2209,0.8625,-6.49,7.19,-0.11,19.38
4389,0.1583,-0.2223,0.8567,-6.49,7.95,-0.03,19.39
4399,0.1538,-0.2255,0.8605,-6.12,8.56,0.08,19.38
4409,0.1498,-0.2246,0.866,-5.5,8.21,0.03,19.41
4419,0.1506,-0.2209,0.871,-5.47,7.39,-0.05,19.41
4429,0.1527,-0.2183,0.8745,-5.66,6.93,-0.14,19.37
4439,0.1558,-0.2136,0.8704,-6.11,7.19,-0.2,19.38
4449,0.155,-0.2157,0.8639,-6.38,7.91,0.05,19.38
4459,0.1512,-0.2175,0.8606,-6.34,8.35,0.11,19.37
4469,0.1478,-0.2186,0.8602,-6.09,8.08,0.06,19.42
4479,0.1493,-0.2192,0.8638,-5.69,7.4,-0.17,19.4
4489,0.1528,-0.2201,0.8647,-5.63,7.25,-0.15,19.41
4499,0.1556,-0.2189,0.8687,-5.88,7.48,-0.08,19.4
4509,0.1575,-0.217,0.8663,-6.15,7.95,0.03,19.39
4519,0.1508,-0.2172,0.8665,-6.32,8.09,0.05,19.41
4529,0.1525,-0.2211,0.86,-6.23,7.95,0.0,19.4
4539,0.1501,-0.223,0.859,-5.91,7.5,-0.06,19.42
4549,0.1527,-0.22,0.861,-5.83,7.33,-0.11,19.41
4559,0.1538,-0.22,0.86,-5.73,7.56,-0.06,19.4
4569,0.155,-0.2192,0.8695,-5.82,7.89,-0.08,19.41
4579,0.1517,-0.2198,0.8726,-5.94,7.91,-0.05,19.42
4589,0.1511,-0.2186,0.8721,-6.18,7.76,-0.06,19.4
4599,0.1514,-0.2192,0.8672,-6.17,7.42,-0.05,19.42
4610,0.1549,-0.2225,0.8635,-6.0,7.44,-0.06,19.43
4620,0.155,-0.2202,0.8623,-5.95,7.76,-0.11,19.42
4630,0.1526,-0.2211,0.8649,-5.91,7.97,-0.02,19.44
4640,0.1521,-0.222,0.8666,-5.95,7.86,0.0,19.4
4650,0.1527,-0.2222,0.8698,-5.97,7.62,0.05,19.42
4660,0.1569,-0.2198,0.8656,-6.03,7.44,-0.11,19.44
4670,0.1528,-0.2202,0.8651,-6.11,7.54,-0.09,19.41
4680,0.1534,-0.222,0.8651,-6.03,7.88,0.02,19.41
4690,0.1543,-0.2236,0.8647,-5.94,7.98,-0.02,19.44
4700,0.1515,-0.2216,0.8629,-5.76,7.92,-0.05,19.43
4710,0.1533,-0.224,0.8702,-5.88,7.53,-0.05,19.42
4720,0.1552,-0.2185,0.8699,-5.83,7.45,-0.11,19.44
4730,0.1538,-0.2184,0.865,-5.95,7.65,-0.09,19.4
4740,0.1561,-0.2177,0.8677,-6.06,7.88,-0.08,19.41
4750,0.1542,-0.2203,0.8638,-6.14,7.89,0.03,19.4
4760,0.151,-0.2198,0.8649,-6.08,7.83,0.0,19.39
4770,0.1573,-0.2192,0.8594,-6.0,7.65,-0.09,19.41
4780,0.1505,-0.2197,0.8602,-5.85,7.53,-0.15,19.42
4790,0.1553,-0.2178,0.8605,-5.76,7.63,-0.06,19.41
4800,0.1515,-0.2183,0.8629,-5.86,7.76,-0.02,19.42
4810,0.1528,-0.2174,0.8726,-5.92,7.74,-0.02,19.42
4820,0.1523,-0.2186,0.8715,-5.97,7.65,-0.02,19.42
4830,0.1515,-0.2181,0.8687,-6.06,7.59,-0.08,19.4
4840,0.1539,-0.2188,0.8671,-6.0,7.57,-0.03,19.43
4850,0.1523,-0.2195,0.8628,-6.06,7.69,-0.12,19.43
4860,0.1539,-0.2196,0.866,-6.03,7.92,0.0,19.44
4870,0.1506,-0.2235,0.8632,-6.06,7.76,-0.02,19.42
4880,0.1509,-0.2208,0.8628,-5.97,7.6,-0.08,19.41
4890,0.1511,-0.2228,0.863,-5.98,7.42,-0.12,19.4
4900,0.155,-0.2223,0.8643,-5.91,7.54,-0.08,19.41
4910,0.1522,-0.2231,0.8661,-5.95,7.65,-0.08,19.42
4920,0.1521,-0.2211,0.8683,-5.88,7.85,0.03,19.44
4930,0.1519,-0.2197,0.8684,-6.0,7.76,-0.09,19.44
4940,0.1521,-0.2192,0.8669,-6.08,7.54,-0.11,19.43
4950,0.1544,-0.2202,0.8671,-6.02,7.5,0.0,19.44
4960,0.1564,-0.2218,0.8628,-6.05,7.62,-0.06,19.42
4970,0.1533,-0.2195,0.8663,-5.94,7.77,0.05,19.45
4980,0.1537,-0.2188,0.8586,-6.0,7.82,-0.05,19.41
4990,0.1523,-0.2152,0.8612,-6.02,7.62,-0.05,19.43
5000,0.1492,-0.2191,0.8625,-5.98,7.59,-0.08,19.43
5010,0.1542,-0.2207,0.8618,-5.98,7.63,-0.08,19.41
5020,0.1525,-0.2206,0.8654,-5.92,7.79,0.02,19.42
5030,0.1541,-0.2244,0.8597,-5.91,7.95,-0.03,19.44
5041,0.1498,-0.2225,0.8684,-5.86,7.79,0.0,19.43
5051,0.1499,-0.2207,0.8651,-5.82,7.57,-0.05,19.41
5061,0.1538,-0.2197,0.8694,-5.88,7.53,-0.09,19.42
5071,0.1545,-0.219,0.8677,-5.98,7.56,-0.03,19.43
5081,0.156,-0.2185,0.8658,-6.0,7.83,-0.05,19.44
5091,0.1521,-0.2186,0.8644,-5.85,7.97,0.02,19.42
5101,0.149,-0.2194,0.8643,-5.89,7.94,-0.02,19.47
5111,0.1505,-0.2191,0.8701,-5.86,7.56,-0.11,19.45
5121,0.1528,-0.2197,0.8683,-5.97,7.42,-0.06,19.45
5131,0.1554,-0.22,0.8669,-6.08,7.57,-0.05,19.44
5141,0.1548,-0.219,0.8663,-5.91,7.73,-0.02,19.43
5151,0.1542,-0.2236,0.8663,-5.85,7.89,-0.02,19.45
5161,0.1526,-0.2179,0.8696,-5.8,7.91,-0.03,19.45
5171,0.1511,-0.2198,0.8647,-5.85,7.66,-0.03,19.42
5181,0.1517,-0.2211,0.8693,-5.94,7.51,-0.02,19.44
5191,0.1553,-0.2214,0.8701,-6.06,7.63,-0.11,19.41
5201,0.1542,-0.2208,0.8688,-6.23,7.69,-0.08,19.44
5211,0.1532,-0.2198,0.8616,-6.14,7.79,-0.11,19.44
5221,0.15,-0.2186,0.866,-6.0,7.8,-0.02,19.46
5231,0.1514,-0.2202,0.8676,-5.91,7.76,-0.02,19.44
5241,0.1511,-0.219,0.8656,-5.94,7.6,-0.06,19.43
5251,0.1531,-0.2189,0.8688,-6.03,7.63,-0.03,19.42
5261,0.1531,-0.219,0.866,-5.92,7.68,0.08,19.45
5271,0.1519,-0.2203,0.8666,-6.0,7.77,0.08,19.44
5281,0.1497,-0.2216,0.8611,-6.0,7.82,-0.03,19.44
5291,0.1515,-0.2195,0.8558,-6.08,7.71,-0.02,19.45
5301,0.1519,-0.2195,0.8649,-5.92,7.6,-0.03,19.44
5311,0.152,-0.2201,0.8627,-5.86,7.62,-0.06,19.44
5321,0.1508,-0.2168,0.8647,-5.88,7.62,-0.08,19.45
5331,0.151,-0.2197,0.866,-5.82,7.68,-0.11,19.44
5341,0.1517,-0.2198,0.8677,-5.73,7.65,-0.05,19.44
5351,0.1532,-0.2195,0.8685,-5.91,7.69,-0.06,19.44
5361,0.1525,-0.2134,0.8616,-6.09,7.68,-0.09,19.45
5371,0.1576,-0.2169,0.8633,-6.05,7.56,-0.06,19.43
5381,0.1539,-0.2163,0.8623,-6.05,7.79,-0.09,19.44
5391,0.1565,-0.2198,0.858,-5.91,7.82,-0.03,19.48
5401,0.1532,-0.2225,0.8611,-5.66,7.73,-0.02,19.46
5411,0.1541,-0.2183,0.868,-5.79,7.68,0.0,19.44
5421,0.1521,-0.2194,0.8654,-5.86,7.8,0.03,19.45
5431,0.1526,-0.2207,0.8652,-6.08,7.79,0.05,19.45
5441,0.1521,-0.2239,0.8605,-6.18,7.91,0.02,19.46
5451,0.1523,-0.2222,0.858,-6.15,8.05,-0.03,19.45
5461,0.1514,-0.225,0.8577,-5.85,7.85,-0.11,19.45
5471,0.1515,-0.2217,0.8622,-5.65,7.66,-0.12,19.45
5481,0.1536,-0.2224,0.8688,-5.62,7.56,-0.11,19.43
5491,0.1552,-0.2222,0.8682,-5.54,7.48,-0.08,19.44
5501,0.1555,-0.2192,0.8739,-5.62,7.6,-0.06,19.48
5511,0.1565,-0.217,0.8768,-5.66,7.77,0.08,19.44
5521,0.1537,-0.2206,0.8774,-5.82,7.86,0.12,19.45
5531,0.1527,-0.2196,0.8745,-6.02,7.77,0.03,19.43
5541,0.1531,-0.2179,0.8745,-6.08,7.66,-0.05,19.47
5551,0.1514,-0.2161,0.8717,-6.17,7.74,-0.02,19.45
5561,0.1506,-0.2192,0.8643,-6.29,7.76,-0.06,19.45
5571,0.1526,-0.2212,0.8634,-6.18,7.83,-0.03,19.46
5581,0.1509,-0.2172,0.8589,-6.09,7.82,-0.12,19.45
5591,0.152,-0.219,0.8636,-5.76,7.57,0.02,19.45
5601,0.1549,-0.2181,0.8674,-5.6,7.54,-0.05,19.44
5611,0.1514,-0.2178,0.8706,-5.59,7.63,-0.11,19.43
5621,0.1533,-0.2173,0.8752,-5.89,7.82,0.02,19.46
5631,0.1537,-0.2183,0.8722,-6.06,7.76,0.02,19.44
5641,0.1481,-0.2198,0.866,-6.37,7.5,-0.09,19.45
5651,0.1526,-0.2177,0.8557,-6.31,7.57,-0.14,19.44
5661,0.1517,-0.2188,0.8585,-5.97,7.56,-0.11,19.46
5671,0.1523,-0.2172,0.8563,-5.73,7.73,-0.09,19.44
5681,0.1516,-0.218,0.8585,-5.66,7.65,-0.09,19.44
5691,0.1519,-0.2163,0.8621,-5.63,7.62,-0.03,19.45
5701,0.1527,-0.2157,0.8676,-5.88,7.54,-0.09,19.46
5711,0.1562,-0.217,0.8679,-6.08,7.66,-0.14,19.45
5721,0.1519,-0.2173,0.8678,-6.14,7.85,-0.02,19.44
5731,0.1508,-0.2178,0.8643,-6.12,7.91,0.03,19.45
5741,0.1493,-0.2201,0.8647,-6.06,7.79,-0.11,19.46
5751,0.1511,-0.2197,0.8654,-5.97,7.62,-0.03,19.46
5761,0.1497,-0.2191,0.863,-6.05,7.44,-0.06,19.44
5771,0.1526,-0.2196,0.8632,-6.03,7.53,-0.02,19.45
5781,0.1538,-0.2211,0.8708,-5.94,7.8,-0.08,19.47
5791,0.1566,-0.22,0.8712,-5.97,7.85,0.02,19.45
5801,0.1526,-0.219,0.8687,-5.97,7.88,0.06,19.45
5811,0.1498,-0.2202,0.8661,-6.03,7.59,-0.06,19.46
5821,0.1527,-0.2212,0.8679,-6.05,7.31,-0.08,19.44
5831,0.1555,-0.2236,0.8658,-6.14,7.44,-0.08,19.47
5841,0.1537,-0.2252,0.8643,-5.97,7.85,-0.02,19.46
5851,0.1544,-0.225,0.8639,-5.82,8.21,0.08,19.49
5861,0.153,-0.2256,0.8656,-5.73,8.18,0.09,19.45
5871,0.1512,-0.2269,0.8746,-5.82,7.88,0.08,19.44
5881,0.1489,-0.229,0.8733,-5.94,7.47,-0.06,19.43
5891,0.1555,-0.2249,0.8636,-6.03,7.47,-0.08,19.47
5901,0.1545,-0.223,0.8579,-6.02,7.91,0.03,19.46
5911,0.1498,-0.2212,0.8618,-5.77,8.15,0.08,19.45
5921,0.1487,-0.2175,0.8633,-5.65,8.0,0.11,19.46
5931,0.1481,-0.2118,0.8665,-5.56,7.44,-0.02,19.45
5941,0.1509,-0.2164,0.8655,-5.77,7.11,-0.15,19.45
5951,0.1586,-0.2156,0.8608,-6.02,7.48,-0.12,19.42
5961,0.1594,-0.2177,0.8647,-6.03,8.15,0.09,19.45
5971,0.155,-0.2211,0.8644,-5.91,8.53,0.18,19.47
5981,0.15,-0.2225,0.8663,-5.98,8.14,0.11,19.47
5991,0.1492,-0.22,0.865,-5.95,7.51,0.0,19.45
6001,0.1497,-0.2233,0.8594,-5.97,7.19,-0.14,19.45
6011,0.1581,-0.2211,0.8593,-5.83,7.54,-0.05,19.44
6021,0.1536,-0.2151,0.8633,-5.76,8.12,0.15,19.45
6031,0.15,-0.2161,0.8622,-5.77,8.26,0.17,19.46
6041,0.1459,-0.2186,0.8679,-5.94,7.94,0.03,19.49
6051,0.1488,-0.2155,0.8698,-5.98,7.59,-0.02,19.47
6061,0.1511,-0.2208,0.8661,-6.05,7.45,-0.11,19.47
6071,0.1559,-0.2223,0.8687,-6.02,7.76,0.02,19.47
6081,0.1544,-0.2231,0.8619,-6.02,8.12,0.03,19.47
6091,0.1492,-0.2242,0.8699,-5.73,8.15,0.11,19.46
6101,0.1506,-0.2214,0.8729,-5.6,7.79,-0.05,19.47
6111,0.1537,-0.2222,0.8716,-5.69,7.45,0.02,19.49
6121,0.1509,-0.2145,0.871,-5.89,7.36,0.03,19.46
6131,0.1527,-0.2206,0.8643,-5.88,7.69,0.03,19.48
6141,0.1519,-0.2159,0.8676,-6.03,8.08,0.0,19.48
6151,0.1483,-0.2134,0.8643,-6.0,8.06,0.12,19.47
6161,0.149,-0.2141,0.8665,-5.68,7.8,0.0,19.45
6171,0.1498,-0.2145,0.8676,-5.69,7.4,-0.05,19.47
6181,0.1525,-0.2148,0.8674,-5.82,7.39,-0.02,19.45
6191,0.1541,-0.2157,0.8723,-5.97,7.83,0.03,19.48
6201,0.1538,-0.2194,0.866,-6.18,8.15,0.0,19.47
6211,0.1487,-0.2196,0.8618,-6.27,8.15,0.08,19.48
6221,0.1489,-0.218,0.8612,-6.02,7.82,0.05,19.47
6231,0.1487,-0.2195,0.8644,-5.8,7.6,0.11,19.47
6241,0.1597,-0.2189,0.8599,-5.71,7.42,-0.11,19.47
6251,0.1545,-0.2174,0.8656,-5.76,7.65,-0.02,19.47
6261,0.1526,-0.2194,0.8616,-6.06,7.83,0.08,19.45
6271,0.1501,-0.219,0.8632,-5.97,7.91,0.03,19.49
6281,0.149,-0.217,0.8606,-5.88,7.59,-0.05,19.49
6291,0.1499,-0.2179,0.8618,-5.68,7.53,0.08,19.47
6301,0.1527,-0.2142,0.8625,-5.74,7.57,-0.06,19.46
6311,0.153,-0.2156,0.8678,-5.83,7.82,0.08,19.47
6321,0.1555,-0.218,0.8662,-6.0,7.95,-0.03,19.47
6331,0.1528,-0.2207,0.8687,-5.92,7.89,0.0,19.5
6341,0.1545,-0.2207,0.8669,-6.03,7.68,-0.05,19.47
6351,0.1554,-0.222,0.864,-6.02,7.6,0.02,19.48
6361,0.1567,-0.215,0.8668,-6.11,7.65,-0.02,19.49
6371,0.1573,-0.2172,0.8601,-5.98,7.8,-0.03,19.47
6381,0.152,-0.2168,0.8661,-5.83,7.88,0.03,19.46
6391,0.1544,-0.2192,0.8663,-5.6,7.74,0.0,19.47
6401,0.1576,-0.2158,0.8724,-5.76,7.45,-0.11,19.48
6411,0.1577,-0.2167,0.8684,-6.0,7.63,-0.09,19.47
6421,0.1593,-0.2183,0.8684,-6.15,7.77,-0.12,19.47
6431,0.1566,-0.2191,0.8645,-6.18,7.95,0.0,19.49
6446,0.153,-0.2219,0.8646,-6.05,7.85,-1.5,19.47
6456,0.1494,-0.2177,0.8655,-5.82,7.65,-0.23,19.47
6466,0.1533,-0.2197,0.8693,-5.83,7.6,-0.08,19.5
6476,0.158,-0.2209,0.8665,-5.95,7.77,-0.03,19.48
6486,0.1547,-0.2201,0.8716,-5.94,7.8,-0.02,19.49
6496,0.1512,-0.2207,0.8691,-6.06,7.92,0.14,19.47
6506,0.1481,-0.2196,0.8656,-6.18,7.89,-0.02,19.5
6516,0.1521,-0.2219,0.8619,-6.18,7.59,-0.05,19.48
6526,0.1498,-0.2212,0.8584,-6.09,7.6,-0.06,19.48
6536,0.1527,-0.2203,0.8618,-5.82,7.77,-0.02,19.51
6546,0.1503,-0.2217,0.8668,-5.69,7.89,-0.03,19.48
6556,0.1536,-0.2194,0.8732,-5.66,7.86,0.05,19.48
6566,0.1505,-0.2184,0.8666,-5.94,7.54,-0.09,19.48
6576,0.1497,-0.2189,0.871,-6.18,7.48,-0.02,19.51
6586,0.1544,-0.2166,0.8615,-6.18,7.51,-0.05,19.5
6596,0.152,-0.2173,0.8597,-6.11,7.83,0.03,19.51
6606,0.1508,-0.2137,0.8616,-5.83,8.03,-0.02,19.47
6616,0.15,-0.2172,0.8641,-5.71,7.89,0.0,19.49
6626,0.1467,-0.2148,0.8677,-5.8,7.63,-0.05,19.49
6636,0.1528,-0.2145,0.8683,-5.95,7.42,-0.05,19.48
6646,0.1505,-0.2158,0.8687,-5.98,7.56,-0.06,19.5
6656,0.1534,-0.2163,0.8665,-6.02,7.73,-0.02,19.49
6666,0.1532,-0.2194,0.8634,-5.95,7.85,0.05,19.48
6676,0.1501,-0.2174,0.8621,-5.86,7.82,0.0,19.48
6686,0.1526,-0.2198,0.8665,-5.82,7.77,0.0,19.51
6696,0.1545,-0.2184,0.87,-5.89,7.6,-0.08,19.49
6706,0.1534,-0.2185,0.8652,-6.02,7.53,-0.09,19.48
6716,0.1578,-0.2181,0.8639,-6.09,7.73,-0.09,19.48
6726,0.1559,-0.2213,0.8627,-6.06,7.94,0.03,19.51
6736,0.1531,-0.2194,0.8625,-6.0,7.86,-0.02,19.49
6746,0.1544,-0.2205,0.8647,-5.85,7.69,-0.05,19.49
6756,0.1555,-0.2147,0.8667,-5.86,7.63,0.02,19.49
6766,0.1548,-0.2178,0.8673,-5.85,7.6,-0.02,19.49
6776,0.1534,-0.2177,0.8671,-5.88,7.83,0.03,19.51
6786,0.1549,-0.2175,0.8666,-5.98,7.8,0.0,19.49
6796,0.1512,-0.2177,0.8701,-5.92,7.77,-0.02,19.49
6806,0.1523,-0.2185,0.866,-6.02,7.63,-0.08,19.51
6816,0.1531,-0.2195,0.8663,-5.92,7.69,-0.08,19.52
6826,0.1517,-0.2216,0.866,-5.95,7.74,-0.06,19.49
6836,0.1511,-0.2168,0.8638,-5.95,7.86,0.03,19.5
6846,0.1532,-0.2207,0.8655,-5.95,7.95,-0.03,19.51
6856,0.1516,-0.2213,0.8669,-5.79,7.83,-0.03,19.51
6866,0.153,-0.2196,0.8708,-5.94,7.76,-0.05,19.51
6876,0.152,-0.2213,0.8663,-5.88,7.68,-0.06,19.49
6886,0.1521,-0.2197,0.8652,-6.05,7.69,-0.03,19.5
6896,0.1504,-0.2179,0.8601,-6.08,7.69,-0.02,19.49
6906,0.1511,-0.2196,0.86,-6.03,7.76,-0.03,19.51
6916,0.1525,-0.2211,0.8633,-5.88,7.73,0.0,19.5
6926,0.152,-0.2222,0.8654,-5.88,7.62,-0.02,19.51
6936,0.1532,-0.2205,0.8661,-5.86,7.62,-0.03,19.49
6946,0.1525,-0.2189,0.8663,-5.89,7.76,-0.02,19.52
6956,0.1537,-0.2145,0.8624,-6.11,7.69,-0.03,19.49
6966,0.1517,-0.2177,0.8668,-5.97,7.66,-0.06,19.5
6976,0.1506,-0.2172,0.8671,-5.97,7.68,-0.03,19.49
6986,0.1519,-0.215,0.8654,-5.98,7.69,-0.03,19.5
6996,0.1489,-0.2189,0.8632,-5.88,7.69,-0.03,19.52
7006,0.1511,-0.2186,0.8691,-5.92,7.69,-0.08,19.49
7016,0.1505,-0.2181,0.8676,-5.97,7.82,-0.09,19.49
7026,0.1537,-0.2185,0.8679,-6.06,7.73,-0.11,19.52
7036,0.1523,-0.2205,0.8657,-5.97,7.69,-0.02,19.5
7046,0.155,-0.2179,0.8651,-6.12,7.69,0.02,19.52
7056,0.1514,-0.219,0.8669,-6.03,7.76,-0.09,19.5
7066,0.1512,-0.2233,0.8658,-6.02,7.76,-0.02,19.51
7076,0.1528,-0.2185,0.8671,-5.85,7.71,-0.05,19.51
7086,0.1539,-0.2162,0.8658,-5.91,7.71,-0.09,19.51
7096,0.1534,-0.2164,0.869,-5.94,7.62,-0.05,19.53
7106,0.1509,-0.219,0.8693,-6.06,7.66,-0.06,19.52
7116,0.152,-0.2205,0.866,-6.18,7.71,-0.02,19.51
7126,0.1505,-0.2166,0.8667,-6.06,7.79,-0.09,19.52
7136,0.1511,-0.2189,0.8668,-6.05,7.74,-0.06,19.49
7146,0.1528,-0.2203,0.8654,-5.92,7.74,0.0,19.48
7156,0.1531,-0.2192,0.8671,-5.91,7.73,-0.06,19.52
7166,0.1539,-0.215,0.8667,-6.0,7.69,-0.09,19.52
7176,0.1542,-0.2189,0.8651,-6.05,7.71,-0.06,19.51
7186,0.1537,-0.2195,0.8694,-6.08,7.76,0.0,19.51
7196,0.1505,-0.2189,0.8676,-6.11,7.71,-0.02,19.5
7206,0.1526,-0.2197,0.8644,-5.98,7.71,0.02,19.54
7216,0.1512,-0.2217,0.8645,-6.05,7.73,0.02,19.52
7226,0.156,-0.2195,0.8672,-5.91,7.76,0.0,19.51
7236,0.1519,-0.2189,0.8694,-5.89,7.74,-0.05,19.51
7246,0.1533,-0.2189,0.8701,-6.03,7.82,0.0,19.52
7256,0.1514,-0.2146,0.8654,-6.09,7.77,0.05,19.51
7266,0.149,-0.2195,0.8652,-6.11,7.63,-0.02,19.5
7276,0.1522,-0.2196,0.8656,-6.08,7.68,-0.09,19.52
7286,0.1522,-0.2185,0.8634,-5.94,7.71,0.03,19.49
7296,0.1505,-0.2213,0.8622,-5.89,7.66,-0.06,19.54
7306,0.1515,-0.2175,0.8646,-5.94,7.8,-0.09,19.5
7316,0.1504,-0.2173,0.8671,-6.02,7.74,-0.09,19.52
7326,0.1523,-0.2192,0.8662,-5.95,7.63,0.0,19.54
7336,0.1543,-0.2194,0.8715,-6.14,7.74,-0.05,19.5
7346,0.1528,-0.2224,0.8668,-6.0,7.79,-0.02,19.52
7356,0.155,-0.218,0.8687,-6.06,7.71,0.0,19.55
7366,0.1533,-0.2198,0.8658,-5.97,7.76,0.02,19.53
7376,0.153,-0.2175,0.8672,-6.03,7.65,-0.08,19.52
7386,0.1536,-0.219,0.8634,-6.05,7.65,0.02,19.54
7396,0.1522,-0.2186,0.8654,-5.92,7.74,0.0,19.53
7406,0.1522,-0.2185,0.8657,-5.94,7.71,-0.05,19.57
7416,0.1534,-0.2213,0.8667,-5.95,7.77,-0.09,19.52
7426,0.1521,-0.2206,0.8688,-6.0,7.77,0.02,19.5
7436,0.1536,-0.2207,0.8676,-5.98,7.6,-0.05,19.51
7446,0.1525,-0.2168,0.8685,-5.95,7.68,-0.06,19.5
7456,0.15,-0.2177,0.8657,-6.08,7.76,0.02,19.52
7466,0.1514,-0.2183,0.8633,-5.98,7.8,0.02,19.54
7476,0.1552,-0.2162,0.8696,-5.95,7.71,-0.02,19.5
7486,0.1533,-0.2163,0.8684,-5.91,7.73,-0.03,19.54
7496,0.1543,-0.2202,0.8657,-6.03,7.77,-0.02,19.54
7506,0.151,-0.2202,0.8682,-6.14,7.77,-0.05,19.5
7516,0.152,-0.222,0.8654,-6.15,7.82,-0.08,19.52
7526,0.15,-0.2179,0.8629,-6.14,7.82,-0.05,19.52
7536,0.1553,-0.2197,0.8621,-6.26,7.94,0.0,19.53
7546,0.1498,-0.2196,0.8625,-6.21,8.05,-0.05,19.52
7556,0.1512,-0.2195,0.8668,-6.2,7.88,-0.03,19.52
7566,0.1545,-0.218,0.8646,-6.03,7.66,-0.03,19.52
7576,0.1505,-0.2184,0.8665,-5.83,7.53,-0.09,19.53
7586,0.1495,-0.2194,0.8655,-5.74,7.48,-0.06,19.53
7596,0.1503,-0.2222,0.8629,-5.76,7.54,-0.03,19.53
7606,0.15,-0.2189,0.8682,-5.77,7.59,-0.06,19.49
7616,0.1508,-0.2166,0.8628,-5.97,7.63,-0.03,19.5
7626,0.1527,-0.2189,0.8643,-5.94,7.71,0.0,19.5
7636,0.1527,-0.2192,0.8585,-5.97,7.68,0.03,19.53
7646,0.1521,-0.2191,0.8639,-5.97,7.73,0.02,19.54
7656,0.1522,-0.218,0.8674,-5.89,7.74,-0.02,19.52
7666,0.1541,-0.2153,0.8643,-5.95,7.92,0.0,19.52
7676,0.1527,-0.2141,0.8698,-6.02,7.88,0.03,19.53
7686,0.1508,-0.2184,0.8713,-6.06,7.77,-0.06,19.52
7696,0.1743,-0.2196,0.9082,-7.65,8.81,0.4,19.49
7706,0.1718,-0.2205,0.8976,-10.61,10.61,1.11,19.54
7716,0.1659,-0.225,0.8877,-12.93,10.32,4.27,19.52
7726,0.1354,-0.2184,0.8756,-13.85,8.24,5.77,19.51
7736,0.1276,-0.2186,0.8424,-13.04,7.48,3.88,19.51
7746,0.1312,-0.2271,0.8202,-10.15,7.21,1.42,19.54
7756,0.146,-0.2361,0.8114,-6.34,7.47,-0.17,19.53
7766,0.1534,-0.2341,0.8279,-2.75,7.01,0.12,19.55
7776,0.1482,-0.2245,0.8568,-0.99,6.5,-0.14,19.52
7786,0.1456,-0.2191,0.8849,-1.21,5.91,-0.46,19.51
7796,0.147,-0.2141,0.8954,-2.89,5.63,-1.24,19.51
7806,0.1635,-0.2168,0.8823,-5.25,6.72,-1.69,19.52
7816,0.1676,-0.2228,0.8676,-6.11,7.86,-1.13,19.53
7826,0.1632,-0.223,0.8519,-6.0,8.78,-0.18,19.53
7836,0.153,-0.2238,0.858,-5.28,8.69,0.11,19.52
7846,0.1425,-0.2218,0.8707,-4.92,8.2,0.0,19.5
7856,0.1473,-0.2219,0.8792,-5.21,7.37,-0.26,19.53
7866,0.1531,-0.2209,0.8744,-6.0,6.93,-0.23,19.53
7876,0.1528,-0.2207,0.8676,-6.27,7.21,-0.06,19.52
7886,0.1547,-0.2201,0.8624,-6.44,8.05,-0.05,19.51
7896,0.1552,-0.2229,0.8617,-6.08,8.43,0.03,19.52
7906,0.1454,-0.2242,0.8594,-5.47,7.95,-0.02,19.55
7916,0.147,-0.2203,0.8673,-5.44,7.22,-0.18,19.54
7926,0.1523,-0.2198,0.8712,-5.76,7.11,-0.15,19.56
7936,0.1559,-0.2155,0.8669,-6.12,7.56,-0.17,19.52
7946,0.1569,-0.2183,0.8607,-6.34,8.0,-0.15,19.53
7956,0.1499,-0.2196,0.863,-6.11,8.14,-0.08,19.52
7966,0.1505,-0.2212,0.86,-6.02,7.77,-0.06,19.5
7976,0.1506,-0.2209,0.866,-5.69,7.37,-0.05,19.54
7986,0.1497,-0.2239,0.8669,-5.77,7.25,0.0,19.52
7996,0.1536,-0.2228,0.8671,-6.02,7.68,-0.02,19.52
8006,0.1515,-0.2203,0.8633,-6.15,8.06,0.05,19.53
8016,0.1522,-0.2173,0.8608,-6.18,8.14,0.03,19.54
8026,0.1483,-0.2197,0.865,-5.91,7.8,0.0,19.53
8036,0.1482,-0.2172,0.8634,-5.79,7.45,-0.03,19.52
8046,0.153,-0.2172,0.8623,-5.88,7.37,-0.12,19.53
8056,0.1538,-0.2181,0.8644,-6.05,7.6,-0.06,19.54
8066,0.1517,-0.222,0.8647,-6.12,7.89,-0.02,19.52
8076,0.1509,-0.2209,0.8674,-6.14,7.95,0.0,19.53
8086,0.1511,-0.2196,0.8662,-6.06,7.77,-0.02,19.54
8096,0.1469,-0.2191,0.8712,-6.03,7.62,-0.05,19.51
8106,0.1532,-0.22,0.8619,-6.17,7.5,-0.11,19.54
8116,0.1515,-0.2179,0.8663,-6.08,7.62,0.0,19.53
8126,0.1547,-0.2207,0.8632,-6.03,7.79,-0.02,19.54
8136,0.1508,-0.2209,0.8628,-5.98,7.85,0.02,19.54
8146,0.1523,-0.218,0.8689,-6.05,7.68,-0.06,19.53
8156,0.1538,-0.2219,0.8695,-5.94,7.48,-0.17,19.54
8166,0.1519,-0.22,0.8695,-6.06,7.53,-0.03,19.53
8176,0.1508,-0.219,0.8643,-6.06,7.69,-0.08,19.53
8186,0.1525,-0.2231,0.8627,-6.23,7.86,0.05,19.57
8196,0.1512,-0.2222,0.8671,-6.09,7.76,-0.08,19.54
8206,0.1489,-0.2201,0.8652,-5.97,7.65,-0.08,19.54
8216,0.1501,-0.2241,0.8651,-5.94,7.56,-0.12,19.55
8226,0.1542,-0.2223,0.8644,-5.91,7.45,-0.12,19.54
8236,0.1531,-0.2218,0.8657,-6.06,7.62,-0.06,19.55
8246,0.1543,-0.2238,0.8643,-6.15,7.89,0.0,19.56
8256,0.1516,-0.2227,0.8684,-6.11,7.89,0.03,19.56
8266,0.1509,-0.2202,0.8652,-5.97,7.76,-0.02,19.55
8277,0.1523,-0.2194,0.8657,-5.89,7.62,0.0,19.53
8287,0.1536,-0.222,0.8646,-5.94,7.68,0.02,19.53
8297,0.1509,-0.224,0.8635,-6.05,7.74,-0.02,19.54
8307,0.1526,-0.2245,0.861,-6.11,7.88,0.0,19.53
8317,0.1514,-0.2269,0.8629,-6.14,7.88,-0.02,19.53
8327,0.1509,-0.2272,0.8593,-5.91,7.91,0.0,19.54
8337,0.1528,-0.2235,0.8628,-5.88,7.79,0.02,19.53
8347,0.1548,-0.2239,0.8651,-5.76,7.79,0.02,19.53
8357,0.1541,-0.2281,0.8624,-5.83,7.76,0.05,19.54
8367,0.151,-0.2281,0.8669,-5.8,7.98,0.05,19.55
8377,0.1445,-0.2271,0.8654,-5.8,7.98,0.2,19.54
8387,0.146,-0.2217,0.8632,-5.76,7.89,0.08,19.54
8397,0.1456,-0.2148,0.8672,-5.69,7.71,0.06,19.52
8407,0.1461,-0.2131,0.8643,-5.63,7.45,0.11,19.52
8417,0.1482,-0.2059,0.8694,-5.62,7.6,-0.02,19.54
8427,0.1484,-0.2119,0.8699,-5.66,7.79,-0.02,19.54
8437,0.1479,-0.2115,0.8723,-5.97,7.8,-0.08,19.54
8447,0.1495,-0.2128,0.8707,-6.12,7.8,-0.14,19.57
8457,0.1517,-0.2183,0.8651,-6.4,7.68,-0.14,19.53
8467,0.1533,-0.2224,0.8589,-6.31,7.59,-0.15,19.53
8477,0.1584,-0.2236,0.8512,-6.06,7.65,-0.06,19.55
8487,0.1586,-0.2188,0.8629,-5.92,7.74,0.0,19.55
8497,0.1559,-0.2156,0.8691,-5.79,7.79,-0.03,19.55
8507,0.1598,-0.215,0.87,-5.62,7.51,-0.11,19.53
8517,0.1572,-0.2114,0.8672,-5.85,7.5,-0.06,19.54
8527,0.1558,-0.217,0.8674,-6.15,7.53,-0.11,19.54
8537,0.1566,-0.2197,0.8594,-6.32,7.73,-0.14,19.53
8547,0.1543,-0.2196,0.8639,-6.43,8.03,0.0,19.53
8557,0.15,-0.2211,0.8628,-6.4,8.12,0.05,19.55
8567,0.1437,-0.2217,0.8608,-6.15,8.0,-0.02,19.54
8577,0.1416,-0.2191,0.8622,-6.08,7.68,-0.12,19.55
8587,0.1458,-0.22,0.8599,-5.88,7.31,-0.08,19.54
8597,0.1492,-0.2184,0.859,-5.92,7.36,-0.08,19.55
8607,0.1508,-0.2172,0.8665,-5.91,7.56,-0.08,19.55
8617,0.1512,-0.2186,0.8643,-5.88,7.74,-0.03,19.55
8627,0.1493,-0.2147,0.8683,-6.02,7.83,-0.12,19.54
8637,0.1498,-0.2205,0.8691,-6.29,7.76,-0.14,19.56
8647,0.1514,-0.2201,0.8633,-6.4,7.69,-0.2,19.54
8657,0.1525,-0.2178,0.8656,-6.35,7.69,-0.12,19.55
8667,0.1569,-0.2184,0.861,-6.12,7.76,0.05,19.57
8677,0.1537,-0.2196,0.8649,-5.82,7.74,-0.02,19.52
8687,0.1552,-0.2166,0.8701,-5.83,7.66,-0.06,19.54
8697,0.1559,-0.2169,0.8737,-6.03,7.66,-0.11,19.56
8707,0.151,-0.2183,0.8658,-6.4,7.57,-0.09,19.54
8717,0.1519,-0.2205,0.863,-6.6,7.68,-0.15,19.55
8727,0.1505,-0.2217,0.8521,-6.61,7.74,-0.12,19.57
8737,0.1512,-0.2252,0.8538,-6.35,7.73,-0.11,19.54
8747,0.1539,-0.2249,0.8556,-5.97,7.76,-0.08,19.55
8757,0.1514,-0.2246,0.8644,-5.79,7.62,-0.12,19.57
8767,0.1527,-0.2249,0.8705,-5.71,7.36,-0.17,19.56
8777,0.157,-0.2208,0.8705,-6.02,7.3,-0.15,19.54
8787,0.1556,-0.2241,0.8634,-6.02,7.3,-0.09,19.55
8797,0.1542,-0.2229,0.8666,-6.12,7.59,-0.08,19.54
8807,0.1539,-0.2213,0.8701,-6.29,7.74,-0.08,19.54
8817,0.1512,-0.2247,0.869,-6.11,7.77,-0.11,19.55
8827,0.1561,-0.219,0.8698,-6.02,7.53,-0.12,19.54
8837,0.1527,-0.2175,0.8719,-5.98,7.34,-0.12,19.54
8847,0.1532,-0.2141,0.8724,-6.24,7.22,-0.14,19.56
8857,0.1541,-0.2155,0.8698,-6.5,7.45,-0.23,19.53
8867,0.1503,-0.2191,0.8623,-6.53,7.92,-0.17,19.57
8877,0.149,-0.222,0.8616,-6.49,8.2,-0.08,19.54
8887,0.1479,-0.2246,0.8635,-6.15,8.06,-0.06,19.58
8897,0.1498,-0.2294,0.8662,-6.29,7.57,-0.05,19.56
8907,0.1536,-0.2231,0.8673,-6.35,7.07,-0.24,19.55
8917,0.1565,-0.2213,0.8572,-6.34,6.95,-0.11,19.55
8927,0.1594,-0.2131,0.8528,-6.03,7.18,-0.05,19.55
8937,0.158,-0.2202,0.8644,-5.86,8.2,0.08,19.55
8947,0.1499,-0.2183,0.8733,-5.86,8.73,0.08,19.53
8957,0.1431,-0.2205,0.8752,-6.14,7.88,-0.06,19.57
8967,0.1442,-0.2286,0.8691,-6.53,6.64,-0.31,19.54
8977,0.1527,-0.2301,0.8582,-7.05,6.47,-0.38,19.54
8987,0.1614,-0.2268,0.8446,-6.75,7.54,-0.17,19.52
8997,0.1598,-0.2316,0.8445,-6.11,8.5,0.05,19.54
9007,0.1531,-0.2329,0.8617,-5.31,8.84,0.26,19.57
9017,0.1449,-0.2281,0.8711,-5.28,8.09,0.08,19.56
9027,0.142,-0.2216,0.8718,-5.28,6.63,-0.21,19.57
9037,0.1531,-0.2142,0.8717,-5.57,6.09,-0.32,19.54
9047,0.1599,-0.2201,0.8693,-6.15,7.04,-0.32,19.55
9057,0.1582,-0.2188,0.8634,-6.38,8.4,-0.05,19.56
9067,0.1506,-0.2196,0.865,-6.15,8.98,0.06,19.57
9077,0.1453,-0.2197,0.8661,-5.91,8.11,-0.02,19.52
9087,0.1453,-0.2173,0.8655,-5.74,6.9,-0.23,19.56
9097,0.1521,-0.2183,0.865,-6.08,6.4,-0.35,19.55
9107,0.1635,-0.2208,0.8632,-6.08,6.82,-0.26,19.57
9117,0.1647,-0.2192,0.8656,-5.83,7.97,-0.14,19.57
9127,0.1582,-0.2211,0.8743,-5.8,8.63,0.02,19.55
9137,0.1521,-0.2267,0.8853,-5.89,8.2,-0.06,19.57
9147,0.152,-0.2303,0.8864,-6.15,7.34,-0.18,19.57
9157,0.1569,-0.2349,0.8706,-6.47,6.9,-0.23,19.56
9167,0.1593,-0.2354,0.8634,-6.55,7.53,-0.12,19.53
9177,0.1527,-0.235,0.86,-6.27,8.67,0.09,19.56
9187,0.1396,-0.2311,0.8564,-5.56,9.02,0.21,19.56
9197,0.1274,-0.2227,0.8682,-4.87,8.34,0.06,19.57
9207,0.1254,-0.218,0.8724,-5.05,7.13,-0.15,19.54
9217,0.1343,-0.2206,0.8708,-6.05,6.37,-0.41,19.55
9227,0.1444,-0.2201,0.8474,-6.82,6.5,-0.34,19.57
9237,0.1561,-0.2177,0.8328,-6.69,7.48,-0.21,19.57
9247,0.1593,-0.217,0.8398,-6.0,8.5,0.08,19.57
9257,0.156,-0.2135,0.8577,-5.18,8.6,0.12,19.55
9267,0.1511,-0.2096,0.8699,-4.79,7.88,0.06,19.56
9277,0.1576,-0.2114,0.8784,-5.21,7.01,0.0,19.56
9287,0.1571,-0.2145,0.8757,-6.11,7.07,-0.08,19.54
9297,0.1572,-0.2152,0.8716,-6.99,7.77,-0.12,19.55
9307,0.1556,-0.2212,0.8577,-7.28,8.58,0.12,19.57
9317,0.1471,-0.2255,0.8516,-6.82,8.95,0.21,19.56
9327,0.1431,-0.226,0.8561,-6.09,8.5,0.15,19.57
9337,0.1444,-0.2255,0.8621,-5.27,7.69,-0.03,19.57
9347,0.1471,-0.2271,0.8748,-5.31,7.01,-0.06,19.57
9357,0.1547,-0.2283,0.8749,-5.86,7.1,-0.17,19.55
9367,0.1594,-0.2269,0.8706,-6.35,7.68,-0.12,19.56
9377,0.1559,-0.2294,0.8678,-6.41,8.11,0.06,19.56
9387,0.1523,-0.2283,0.8655,-6.0,8.18,0.12,19.57
9397,0.1483,-0.2229,0.8698,-5.4,7.59,0.06,19.56
9407,0.1509,-0.2164,0.8751,-5.19,7.11,-0.06,19.58
9417,0.1538,-0.2119,0.8779,-5.4,7.16,-0.11,19.55
9427,0.1552,-0.2115,0.8715,-5.94,7.51,-0.14,19.57
9437,0.1528,-0.215,0.8724,-6.43,7.95,-0.06,19.57
9447,0.1549,-0.2197,0.8674,-6.43,8.15,0.05,19.57
9457,0.1498,-0.2222,0.8643,-6.27,8.12,-0.02,19.56
9467,0.1504,-0.222,0.8639,-6.05,7.73,-0.06,19.55
9477,0.1516,-0.2238,0.864,-5.95,7.51,-0.11,19.58
9487,0.15,-0.2253,0.8629,-5.91,7.39,-0.02,19.59
9497,0.1547,-0.2218,0.861,-6.03,7.71,-0.02,19.58
9507,0.1519,-0.2251,0.8618,-6.09,7.89,0.05,19.6
9517,0.1505,-0.2242,0.8604,-6.02,7.83,-0.02,19.56
9527,0.1504,-0.2224,0.8605,-6.14,7.54,-0.09,19.58
9537,0.1511,-0.2234,0.8583,-6.09,7.36,-0.14,19.57
9547,0.153,-0.2269,0.8558,-6.05,7.36,-0.09,19.55
9557,0.155,-0.2244,0.8606,-5.86,7.69,-0.05,19.55
9567,0.1534,-0.2225,0.8624,-5.89,7.83,0.02,19.55
9577,0.1499,-0.2207,0.8666,-5.86,7.82,0.0,19.58
9587,0.1493,-0.2197,0.8666,-5.89,7.6,-0.15,19.58
9597,0.1495,-0.2178,0.8622,-6.11,7.51,-0.14,19.56
9607,0.1506,-0.2198,0.855,-6.2,7.56,-0.09,19.58
9617,0.1498,-0.2189,0.8552,-6.11,7.69,0.0,19.56
9627,0.1503,-0.2175,0.859,-5.92,7.92,0.06,19.58
9637,0.1477,-0.2167,0.8676,-5.65,7.91,0.06,19.57
9647,0.1526,-0.2166,0.8721,-5.73,7.69,-0.05,19.57
9657,0.1516,-0.2213,0.8724,-6.05,7.53,-0.03,19.57
9667,0.1534,-0.22,0.8702,-6.29,7.71,-0.11,19.58
9677,0.1583,-0.2216,0.8685,-6.46,7.88,-0.12,19.56
9687,0.1547,-0.2278,0.8654,-6.32,8.14,0.03,19.57
9697,0.153,-0.2291,0.8656,-6.06,8.18,0.05,19.56
9707,0.1522,-0.2281,0.869,-5.66,7.98,0.03,19.59
9717,0.1526,-0.2274,0.8768,-5.59,7.74,0.03,19.56
9727,0.1531,-0.2224,0.8762,-5.79,7.51,-0.11,19.57
9737,0.1512,-0.2227,0.8707,-6.09,7.44,-0.09,19.6
9747,0.1539,-0.2277,0.8646,-6.08,7.62,0.03,19.58
9757,0.152,-0.2261,0.8607,-5.92,7.79,-0.02,19.57
9767,0.1514,-0.2212,0.8647,-5.76,7.89,0.09,19.58
9777,0.1489,-0.2206,0.8673,-5.71,7.68,0.06,19.57
9787,0.1503,-0.2166,0.8635,-5.89,7.48,-0.08,19.58
9797,0.1516,-0.2164,0.8689,-6.05,7.63,0.02,19.59
9807,0.1519,-0.2163,0.8682,-6.08,7.68,0.02,19.59
9817,0.1559,-0.2163,0.8672,-6.02,7.8,0.05,19.58
9827,0.1527,-0.2164,0.864,-6.02,7.8,0.03,19.56
9837,0.1492,-0.218,0.8617,-6.05,7.66,0.05,19.59
9847,0.151,-0.2168,0.8596,-6.12,7.54,-0.08,19.58
9857,0.1527,-0.2167,0.8586,-6.06,7.63,-0.08,19.55
9867,0.1498,-0.2173,0.8605,-6.15,7.8,-0.08,19.58
9877,0.1543,-0.2164,0.859,-6.15,7.85,0.03,19.59
9887,0.1522,-0.2146,0.8597,-6.0,7.79,-0.08,19.56
9897,0.1536,-0.2178,0.8589,-6.06,7.62,-0.09,19.57
9907,0.1515,-0.223,0.8643,-6.06,7.56,-0.09,19.58
9917,0.1504,-0.222,0.8597,-6.18,7.73,-0.03,19.59
9927,0.1537,-0.2268,0.8632,-6.18,7.92,-0.09,19.58
9937,0.1528,-0.2288,0.8627,-6.02,8.02,0.02,19.56
9947,0.1489,-0.2297,0.8688,-5.92,8.02,0.02,19.57
9957,0.1449,-0.2256,0.864,-5.91,7.68,0.05,19.59
9967,0.1448,-0.2207,0.8663,-5.91,7.34,-0.11,19.58
9977,0.1484,-0.2203,0.864,-5.94,7.36,-0.05,19.58
9987,0.1499,-0.2157,0.8634,-6.03,7.6,-0.08,19.57
9997,0.1522,-0.2144,0.8677,-6.02,7.86,0.0,19.59
10007,0.1497,-0.2188,0.87,-6.0,7.98,-0.02,19.57
10017,0.1481,-0.2202,0.8716,-6.11,7.76,-0.08,19.57
10027,0.1519,-0.2222,0.8718,-6.17,7.53,-0.2,19.55
10037,0.1531,-0.2235,0.8629,-6.29,7.31,-0.17,19.56
10047,0.1561,-0.2245,0.8616,-6.23,7.57,-0.11,19.59
10057,0.1624,-0.2258,0.8639,-5.98,7.89,-0.02,19.58
10067,0.1595,-0.2271,0.8702,-5.74,7.98,0.06,19.59
10077,0.156,-0.2258,0.8749,-5.71,7.92,-0.02,19.59
10087,0.1555,-0.2245,0.879,-5.86,7.62,-0.15,19.59
10097,0.1536,-0.2214,0.8701,-6.18,7.44,-0.12,19.59
10107,0.1516,-0.2201,0.8618,-6.32,7.53,-0.09,19.57
10117,0.1514,-0.2217,0.8518,-6.27,7.83,-0.08,19.58
10127,0.1525,-0.2216,0.8555,-6.09,7.94,0.02,19.56
10137,0.146,-0.2196,0.8562,-5.94,7.89,0.05,19.59
10147,0.1442,-0.2203,0.8619,-5.94,7.63,-0.03,19.56
10157,0.1486,-0.2195,0.8615,-6.12,7.44,-0.08,19.56
10167,0.1545,-0.2152,0.8625,-6.18,7.45,-0.11,19.58
10177,0.153,-0.22,0.8549,-6.18,7.65,-0.03,19.58
10187,0.1552,-0.2195,0.8553,-6.08,8.0,0.05,19.59
10197,0.1494,-0.2256,0.8644,-6.05,7.98,-0.02,19.58
10207,0.1517,-0.2252,0.8643,-5.95,7.83,0.02,19.59
10217,0.156,-0.2274,0.8644,-5.97,7.59,-0.06,19.59
10227,0.1543,-0.2288,0.8674,-6.05,7.71,-0.03,19.59
10237,0.1527,-0.2312,0.8688,-6.14,7.89,0.0,19.58
10247,0.1514,-0.2317,0.868,-6.2,8.02,0.14,19.59
10257,0.1471,-0.2292,0.8665,-6.12,7.88,0.03,19.59
10267,0.1467,-0.2249,0.8629,-5.92,7.56,0.0,19.61
10277,0.1503,-0.2246,0.8651,-5.76,7.42,-0.14,19.57
10287,0.1509,-0.222,0.8618,-5.74,7.62,-0.12,19.58
10297,0.1545,-0.2218,0.8682,-5.65,7.66,0.02,19.57
10307,0.1501,-0.22,0.8707,-5.8,7.65,-0.02,19.6
10317,0.1495,-0.2169,0.8729,-5.91,7.66,0.06,19.59
10327,0.1512,-0.2209,0.8687,-5.98,7.65,-0.03,19.59
10337,0.153,-0.2198,0.8677,-5.89,7.79,-0.08,19.58
10347,0.1556,-0.2217,0.8733,-6.02,7.86,-0.05,19.61
10357,0.1493,-0.2177,0.8662,-5.94,7.79,0.08,19.59
10367,0.1511,-0.2159,0.8643,-5.91,7.56,0.0,19.6
10377,0.1498,-0.2169,0.865,-5.94,7.5,-0.14,19.59
10387,0.1544,-0.2179,0.8634,-6.05,7.53,-0.12,19.59
10397,0.1562,-0.2227,0.866,-6.24,7.86,-0.14,19.58
10407,0.1588,-0.2274,0.8641,-6.34,8.18,-0.03,19.6
10417,0.1545,-0.2302,0.865,-6.09,8.21,0.02,19.61
10427,0.1506,-0.2306,0.8699,-6.08,7.77,-0.02,19.59
10437,0.1526,-0.2271,0.8649,-5.95,7.25,-0.12,19.58
10447,0.1521,-0.2241,0.8572,-5.86,7.05,-0.14,19.59
10457,0.1542,-0.2209,0.8561,-5.74,7.3,-0.2,19.6
10467,0.1561,-0.215,0.8596,-5.73,7.76,-0.06,19.57
10477,0.1497,-0.2169,0.8604,-5.77,8.05,-0.02,19.58
10487,0.1483,-0.2186,0.8641,-5.79,7.89,-0.03,19.59
10497,0.1501,-0.2191,0.8667,-6.02,7.77,-0.08,19.57
10507,0.1522,-0.2197,0.8667,-6.2,7.68,-0.03,19.57
10517,0.1505,-0.2249,0.858,-6.29,7.77,0.08,19.59
10527,0.1505,-0.225,0.8608,-6.08,7.91,-0.02,19.59
10537,0.1481,-0.2235,0.8604,-5.88,7.85,-0.08,19.59
10547,0.1456,-0.2197,0.8615,-5.68,7.69,0.06,19.6
10557,0.1445,-0.2181,0.8615,-5.63,7.5,0.0,19.59
10567,0.149,-0.2185,0.8671,-5.89,7.62,0.06,19.59
10577,0.1509,-0.2201,0.8693,-6.08,7.91,0.06,19.58
10587,0.1501,-0.2238,0.8677,-6.24,7.85,-0.02,19.59
10597,0.1498,-0.2273,0.8695,-6.32,7.74,-0.09,19.59
10607,0.1501,-0.2256,0.8654,-6.14,7.59,-0.03,19.57
10617,0.1503,-0.2263,0.8617,-5.77,7.44,-0.09,19.58
10627,0.1556,-0.2253,0.8657,-5.6,7.47,0.03,19.61
10637,0.1566,-0.2198,0.8674,-5.65,7.62,0.06,19.59
10647,0.1537,-0.2206,0.8701,-5.77,7.68,-0.09,19.6
10657,0.1549,-0.2239,0.8735,-5.92,7.8,-0.02,19.57
10667,0.156,-0.22,0.8719,-6.08,7.83,-0.08,19.57
10677,0.1556,-0.2223,0.8656,-6.21,7.79,-0.05,19.58
10687,0.1556,-0.2257,0.8628,-6.23,7.77,-0.09,19.57
10697,0.1532,-0.2263,0.8667,-6.0,7.76,-0.11,19.59
10707,0.1532,-0.2231,0.8678,-5.8,7.82,-0.11,19.6
10717,0.1523,-0.2234,0.8661,-5.74,7.68,0.0,19.61
10727,0.1521,-0.2246,0.8693,-5.95,7.63,-0.11,19.61
10737,0.1555,-0.2201,0.8651,-6.15,7.76,-0.06,19.59
10747,0.1523,-0.2191,0.8595,-6.11,7.85,-0.03,19.59
10757,0.152,-0.2216,0.8622,-6.02,7.88,-0.03,19.61
10767,0.1498,-0.2225,0.8608,-5.76,7.86,-0.02,19.6
10777,0.1494,-0.2227,0.8651,-5.8,7.71,0.02,19.61
10787,0.1516,-0.2214,0.8625,-5.95,7.6,-0.05,19.61
10797,0.1559,-0.2198,0.8658,-6.03,7.48,-0.02,19.61
10807,0.1543,-0.2202,0.8656,-6.0,7.68,-0.03,19.61
10817,0.1536,-0.2202,0.8601,-5.95,7.82,-0.03,19.59
10827,0.1515,-0.2208,0.8597,-5.94,7.89,-0.05,19.59
10837,0.149,-0.2222,0.8618,-6.0,7.74,-0.03,19.61
10847,0.1499,-0.2192,0.8601,-6.14,7.62,-0.06,19.61
10857,0.1522,-0.2216,0.8615,-6.05,7.68,-0.05,19.61
10867,0.1505,-0.2242,0.8663,-5.92,7.82,0.02,19.6
10877,0.1519,-0.223,0.8673,-5.89,7.92,0.02,19.6
10887,0.1487,-0.2224,0.8668,-5.95,7.77,0.03,19.59
10897,0.153,-0.2216,0.8696,-6.12,7.65,-0.11,19.61
10907,0.1544,-0.2227,0.8678,-6.02,7.59,-0.09,19.59
10917,0.152,-0.2252,0.863,-6.09,7.74,-0.02,19.58
10927,0.1531,-0.223,0.8644,-6.08,7.74,-0.06,19.63
10937,0.1534,-0.2212,0.871,-6.06,7.83,-0.06,19.6
10947,0.1503,-0.2223,0.8698,-5.89,7.71,-0.03,19.59
10957,0.1509,-0.2195,0.8622,-5.94,7.54,-0.02,19.57
10967,0.1532,-0.2234,0.869,-5.89,7.56,0.0,19.61
10977,0.1532,-0.2196,0.865,-6.05,7.63,-0.03,19.59
10987,0.1538,-0.2209,0.863,-6.11,7.69,-0.02,19.59
10997,0.1506,-0.2201,0.8636,-6.05,7.91,-0.08,19.58
11007,0.1517,-0.2223,0.865,-6.0,7.74,-0.06,19.61
11017,0.1528,-0.2201,0.8691,-5.95,7.57,-0.06,19.6
11027,0.1553,-0.2222,0.8649,-6.09,7.63,-0.09,19.6
11037,0.1555,-0.219,0.8668,-6.2,7.73,-0.12,19.59
11047,0.1549,-0.2189,0.8605,-6.08,7.74,0.02,19.56
11057,0.1564,-0.2189,0.8621,-6.11,7.91,0.03,19.58
11067,0.1509,-0.2223,0.8643,-6.03,7.83,-0.08,19.59
11077,0.1526,-0.2197,0.8627,-6.0,7.65,0.0,19.57
11087,0.1512,-0.2188,0.8632,-6.06,7.69,0.05,19.59
11097,0.1522,-0.218,0.866,-6.18,7.76,0.06,19.59
11107,0.152,-0.2214,0.8627,-6.09,7.82,-0.03,19.6
11117,0.1511,-0.2219,0.8612,-6.23,7.79,0.0,19.58
11127,0.1493,-0.2205,0.8611,-6.17,7.69,-0.08,19.6
11137,0.151,-0.2228,0.8682,-6.09,7.59,-0.02,19.59
11147,0.1499,-0.2209,0.859,-6.03,7.66,0.0,19.6
11157,0.1521,-0.22,0.868,-5.95,7.74,-0.05,19.6
11167,0.1561,-0.2222,0.8693,-5.95,7.85,0.03,19.58
11177,0.1511,-0.2225,0.8748,-6.15,7.76,-0.05,19.6
11187,0.1501,-0.2225,0.8735,-6.23,7.79,-0.08,19.58
11197,0.1517,-0.2235,0.8673,-6.31,7.59,-0.02,19.59
11207,0.1523,-0.2241,0.8612,-6.26,7.69,-0.11,19.59
11217,0.1534,-0.2255,0.8601,-6.24,7.79,-0.03,19.59
11227,0.1484,-0.2234,0.8601,-6.0,7.77,0.06,19.61
11237,0.1517,-0.2234,0.8645,-5.85,7.77,0.03,19.59
11247,0.1511,-0.224,0.8693,-5.85,7.66,-0.11,19.6
11257,0.1547,-0.2247,0.8677,-5.94,7.56,-0.12,19.6
11267,0.1543,-0.2203,0.8677,-6.14,7.59,-0.12,19.6
11277,0.1526,-0.2227,0.8641,-6.18,7.69,-0.11,19.59
11287,0.1548,-0.2216,0.8608,-6.26,7.79,-0.08,19.6
11297,0.1544,-0.2231,0.8621,-6.03,7.83,-0.06,19.6
11307,0.1547,-0.222,0.8602,-5.97,7.76,-0.02,19.59
11317,0.1541,-0.2219,0.8623,-6.02,7.62,-0.08,19.62
11327,0.1566,-0.2245,0.8663,-5.91,7.69,-0.08,19.6
11337,0.1541,-0.2216,0.8622,-6.14,7.69,-0.02,19.58
11347,0.1532,-0.2214,0.8634,-6.09,7.76,-0.05,19.58
11357,0.1514,-0.2205,0.8613,-6.03,7.77,-0.08,19.58
11367,0.1506,-0.2217,0.8627,-5.92,7.86,-0.05,19.58
11377,0.1512,-0.2214,0.8667,-5.98,7.8,0.0,19.61
11387,0.149,-0.2229,0.8638,-6.05,7.63,0.0,19.59
11397,0.1501,-0.2223,0.8624,-6.05,7.73,-0.05,19.58
11407,0.1521,-0.2227,0.8602,-6.05,7.6,-0.09,19.61
11417,0.1543,-0.2223,0.8622,-6.11,7.73,-0.02,19.59
11427,0.1522,-0.2224,0.8585,-6.0,7.76,-0.03,19.57
11437,0.1509,-0.2202,0.8617,-5.91,7.68,-0.06,19.6
11447,0.1476,-0.222,0.8718,-5.97,7.66,-0.03,19.59
11457,0.1495,-0.2205,0.87,-6.09,7.71,-0.05,19.6
11467,0.1537,-0.2214,0.8668,-6.09,7.71,-0.03,19.59
11477,0.1499,-0.2236,0.8687,-6.11,7.73,0.0,19.59
11487,0.1539,-0.2236,0.8655,-6.02,7.82,-0.05,19.61
11497,0.1523,-0.2238,0.8652,-6.05,7.71,0.02,19.6
11507,0.1514,-0.2188,0.8667,-6.08,7.77,0.0,19.6
11517,0.1519,-0.219,0.8702,-5.95,7.71,-0.03,19.61
11527,0.1522,-0.2219,0.8649,-6.08,7.68,-0.02,19.6
11537,0.1522,-0.2201,0.8651,-6.12,7.74,-0.08,19.6
11547,0.1495,-0.2217,0.8655,-6.08,7.73,-0.02,19.6
11557,0.1476,-0.2195,0.8665,-6.15,7.74,0.03,19.61
11567,0.1509,-0.2245,0.8615,-5.92,7.71,0.06,19.6
11577,0.1544,-0.2208,0.8662,-5.88,7.65,0.0,19.6
11587,0.1538,-0.222,0.8645,-6.11,7.68,-0.06,19.6
11597,0.1517,-0.2218,0.8655,-5.97,7.76,0.02,19.62
11607,0.152,-0.2223,0.8645,-6.09,7.74,-0.08,19.63
11617,0.1514,-0.2224,0.8656,-5.97,7.74,-0.09,19.6
11627,0.1509,-0.2236,0.8605,-5.92,7.73,0.03,19.59
11637,0.1523,-0.2222,0.8616,-5.86,7.73,0.05,19.6
11647,0.153,-0.2224,0.8574,-5.97,7.74,0.0,19.58
11657,0.1515,-0.2239,0.8613,-5.88,7.74,0.03,19.6
11667,0.1533,-0.2217,0.8663,-5.95,7.8,0.0,19.61
11677,0.1521,-0.2195,0.8655,-5.95,7.71,-0.03,19.61
11687,0.1531,-0.2239,0.8652,-5.97,7.69,-0.06,19.62
11697,0.1521,-0.225,0.8663,-6.18,7.57,-0.06,19.61
11707,0.1532,-0.2228,0.8652,-6.17,7.66,-0.05,19.6
11717,0.1536,-0.2233,0.8651,-5.97,7.74,-0.06,19.63
11727,0.1538,-0.2242,0.8667,-6.05,7.8,-0.08,19.61
11737,0.1566,-0.224,0.8656,-5.97,7.71,-0.14,19.61
11747,0.1548,-0.2207,0.8666,-5.98,7.73,-0.09,19.61
11757,0.158,-0.2228,0.87,-5.85,7.79,-0.06,19.61
11767,0.1571,-0.2273,0.8711,-5.88,7.79,-0.03,19.62
11777,0.1549,-0.2228,0.8729,-6.06,7.63,-0.03,19.63
11787,0.1534,-0.2263,0.8695,-6.03,7.53,-0.11,19.62
11797,0.1506,-0.2227,0.8616,-6.06,7.48,-0.06,19.61
11807,0.1526,-0.2229,0.8606,-5.98,7.5,-0.09,19.62
11817,0.1519,-0.2192,0.8599,-5.8,7.73,0.03,19.6
11827,0.1487,-0.2202,0.8607,-5.83,7.74,-0.03,19.59
11837,0.1495,-0.2203,0.8617,-5.79,7.76,-0.02,19.61
11847,0.1498,-0.2224,0.8634,-5.89,7.73,-0.03,19.62
11857,0.1508,-0.22,0.8685,-6.08,7.71,0.06,19.62
11867,0.1499,-0.2213,0.8663,-5.97,7.6,-0.03,19.63
11877,0.1506,-0.2217,0.8654,-6.08,7.66,0.02,19.62
11887,0.1512,-0.2228,0.8584,-6.06,7.83,-0.02,19.63
11897,0.1541,-0.2225,0.8602,-5.98,7.77,0.05,19.63
11907,0.1515,-0.2198,0.8621,-5.91,7.79,0.05,19.62
11917,0.1511,-0.2223,0.8661,-5.85,7.86,0.03,19.62
11927,0.1521,-0.2214,0.8674,-6.03,7.82,0.09,19.62
11937,0.1509,-0.22,0.8651,-5.91,7.79,0.06,19.63
11947,0.1503,-0.22,0.8658,-6.03,7.6,-0.09,19.64
11957,0.1498,-0.2207,0.8627,-6.02,7.62,-0.02,19.63
11967,0.1517,-0.2168,0.8595,-6.08,7.53,-0.06,19.64
11977,0.1528,-0.2189,0.8657,-5.97,7.65,-0.05,19.62
11987,0.1505,-0.2233,0.8682,-5.91,7.79,-0.02,19.63
11997,0.153,-0.2201,0.8683,-6.08,7.8,-0.06,19.63
12007,0.1537,-0.2239,0.8708,-6.2,7.82,-0.11,19.63
12017,0.155,-0.2247,0.8683,-6.14,7.76,0.0,19.62
12027,0.1532,-0.2252,0.8644,-6.06,7.71,0.0,19.64
12037,0.1516,-0.2219,0.8636,-5.92,7.71,-0.09,19.62
12047,0.1548,-0.2233,0.8673,-5.91,7.76,-0.03,19.61
12057,0.1554,-0.2231,0.8662,-5.85,7.77,-0.02,19.62
12067,0.1544,-0.2246,0.868,-5.92,7.73,0.05,19.63
12077,0.1548,-0.2231,0.8649,-6.0,7.68,-0.02,19.62
12087,0.1558,-0.2261,0.8655,-6.2,7.65,-0.09,19.64
12097,0.1542,-0.2255,0.8622,-6.12,7.77,0.02,19.63
12107,0.1559,-0.2244,0.8588,-6.0,7.85,-0.02,19.64
12117,0.1527,-0.2247,0.8591,-5.77,7.91,0.05,19.6
12127,0.1533,-0.2271,0.8672,-5.6,7.77,0.09,19.62
12137,0.1503,-0.2233,0.8656,-5.73,7.65,-0.09,19.62
12147,0.1504,-0.2219,0.8655,-5.92,7.54,-0.08,19.61
12157,0.1528,-0.2242,0.8629,-5.92,7.6,-0.03,19.62
12167,0.1521,-0.2229,0.8578,-6.09,7.77,0.02,19.61
12177,0.1492,-0.2227,0.8556,-5.97,7.83,0.09,19.61
12187,0.1488,-0.2255,0.8568,-5.71,7.79,0.08,19.62
12197,0.1501,-0.2229,0.866,-5.66,7.73,0.03,19.62
12207,0.1526,-0.2235,0.8677,-5.74,7.77,0.11,19.62
12217,0.1526,-0.2238,0.8683,-5.76,7.73,0.05,19.64
12227,0.1503,-0.2224,0.8688,-5.94,7.79,0.0,19.64
12237,0.1514,-0.2242,0.8624,-6.06,7.88,0.0,19.62
12247,0.1487,-0.2222,0.8586,-6.06,7.82,0.03,19.64
12257,0.1509,-0.2258,0.8625,-5.85,7.76,0.0,19.61
12267,0.1499,-0.2238,0.8638,-5.69,7.83,0.08,19.63
12277,0.1532,-0.2246,0.8613,-5.71,7.79,-0.06,19.62
12287,0.1516,-0.2244,0.8702,-5.66,7.74,-0.02,19.62
12297,0.1517,-0.2244,0.8715,-5.92,7.63,0.05,19.62
12309,0.1522,-0.2212,0.8652,-6.0,7.69,0.02,19.62
12319,0.1516,-0.2194,0.8645,-5.92,7.71,0.02,19.61
12329,0.1515,-0.2198,0.8651,-5.8,7.83,0.05,19.63
12339,0.1511,-0.2161,0.8639,-5.85,7.85,0.09,19.63
12349,0.1487,-0.2157,0.8668,-5.63,7.74,-0.05,19.63
12359,0.1519,-0.2183,0.8723,-5.74,7.56,-0.05,19.64
12369,0.1552,-0.2181,0.8741,-5.94,7.53,0.03,19.62
12379,0.1554,-0.2224,0.8704,-6.08,7.69,-0.09,19.64
12389,0.1547,-0.2222,0.87,-6.2,7.88,-0.03,19.62
12399,0.1555,-0.2208,0.8685,-6.23,7.98,0.08,19.62
12409,0.1522,-0.2228,0.8635,-6.2,7.91,0.08,19.62
12419,0.1522,-0.2256,0.8596,-6.09,7.66,0.11,19.64
12429,0.1531,-0.2194,0.8611,-5.98,7.56,0.02,19.63
12439,0.1522,-0.2212,0.8617,-5.8,7.53,0.02,19.62
12449,0.1537,-0.2224,0.8634,-5.68,7.73,0.03,19.63
12459,0.1555,-0.2234,0.8638,-5.77,7.91,0.06,19.64
12469,0.1558,-0.2189,0.8693,-5.91,7.86,0.11,19.62
12479,0.1488,-0.2184,0.8683,-6.05,7.79,0.09,19.64
12489,0.1488,-0.2152,0.8611,-6.15,7.69,0.05,19.65
12499,0.1514,-0.2174,0.8538,-6.11,7.69,0.06,19.63
12509,0.1527,-0.2184,0.8545,-5.92,7.94,0.05,19.64
12519,0.1497,-0.2198,0.8604,-5.74,7.95,0.09,19.64
12529,0.1456,-0.2212,0.8645,-5.77,7.79,-0.06,19.63
12539,0.1482,-0.222,0.8679,-5.83,7.57,-0.11,19.64
12549,0.1499,-0.2228,0.864,-6.03,7.53,-0.15,19.64
12559,0.1494,-0.2214,0.864,-5.92,7.65,0.02,19.64
12569,0.1515,-0.2213,0.8632,-5.94,7.95,0.02,19.64
12579,0.1504,-0.2224,0.8661,-5.92,7.95,0.02,19.64
12589,0.1477,-0.2233,0.868,-5.92,7.77,0.02,19.65
12599,0.1514,-0.2228,0.8715,-5.88,7.59,0.05,19.62
12609,0.1503,-0.2233,0.8704,-5.95,7.5,-0.06,19.63
12619,0.1553,-0.2239,0.8688,-6.02,7.63,-0.09,19.63
12629,0.1565,-0.2258,0.8705,-6.03,7.79,-0.08,19.63
12639,0.1517,-0.2264,0.8683,-6.0,7.89,0.06,19.62
12649,0.1519,-0.2235,0.8719,-5.89,7.91,0.0,19.62
12659,0.1526,-0.2227,0.8707,-5.85,7.62,0.02,19.62
12669,0.1527,-0.2196,0.8723,-5.85,7.53,0.02,19.64
12679,0.1567,-0.2216,0.8694,-5.94,7.57,0.02,19.63
12689,0.1567,-0.2213,0.8716,-6.06,7.77,-0.02,19.62
12699,0.1539,-0.2228,0.8634,-5.98,7.83,0.0,19.64
12709,0.1537,-0.2207,0.8665,-6.02,7.85,-0.02,19.64
12719,0.1539,-0.2222,0.8635,-6.09,7.8,0.06,19.64
12729,0.1517,-0.2214,0.8639,-5.92,7.66,0.05,19.63
12739,0.1527,-0.2202,0.8633,-5.88,7.59,0.02,19.64
12749,0.153,-0.2197,0.8606,-5.8,7.73,0.05,19.62
12759,0.1516,-0.2202,0.8599,-5.83,7.82,-0.05,19.64
12769,0.1504,-0.2217,0.8597,-5.86,7.76,0.02,19.66
12779,0.1501,-0.2196,0.8627,-5.8,7.68,-0.03,19.67
12789,0.1512,-0.217,0.8615,-5.95,7.69,0.02,19.62
12799,0.1553,-0.2197,0.8635,-6.0,7.88,-0.02,19.62
12809,0.1519,-0.219,0.8644,-5.94,7.97,-0.03,19.64
12819,0.1519,-0.2217,0.8646,-5.91,7.85,0.0,19.65
12829,0.1487,-0.2212,0.866,-5.86,7.85,-0.03,19.66
12839,0.1537,-0.2209,0.8652,-6.03,7.69,0.02,19.62
12849,0.153,-0.2205,0.8688,-5.98,7.68,-0.05,19.63
12859,0.1494,-0.2174,0.8691,-6.06,7.77,0.02,19.65
12869,0.1501,-0.2206,0.8679,-6.0,7.86,-0.14,19.65
12879,0.1517,-0.225,0.8672,-6.0,7.85,0.03,19.66
12889,0.1525,-0.2235,0.8679,-5.98,7.79,-0.09,19.66
12899,0.1549,-0.2205,0.8652,-6.06,7.65,-0.06,19.65
12909,0.1509,-0.2191,0.8701,-6.03,7.57,-0.09,19.64
12919,0.1531,-0.2188,0.866,-6.06,7.57,0.03,19.67
12929,0.1539,-0.2214,0.8666,-5.97,7.68,0.0,19.65
12939,0.1533,-0.2231,0.8655,-6.11,7.77,-0.06,19.67
12949,0.1509,-0.2191,0.8698,-6.05,7.68,-0.08,19.66
12959,0.1508,-0.2247,0.8705,-6.0,7.63,-0.12,19.64
12969,0.1553,-0.2227,0.8672,-6.09,7.6,-0.09,19.63
12979,0.1569,-0.2195,0.8678,-5.97,7.73,-0.11,19.62
12989,0.1514,-0.2203,0.8654,-6.17,7.86,0.0,19.63
12999,0.1487,-0.2223,0.8668,-6.08,7.86,-0.02,19.62
13009,0.1497,-0.222,0.8633,-6.09,7.71,-0.08,19.65
13019,0.1497,-0.2231,0.861,-5.97,7.69,-0.08,19.66
13029,0.1499,-0.2227,0.8638,-6.11,7.65,-0.09,19.63
13039,0.1508,-0.2222,0.8594,-6.02,7.79,0.03,19.63
13049,0.1498,-0.2223,0.8608,-6.05,7.82,0.02,19.64
13059,0.1516,-0.2186,0.8639,-5.95,7.8,-0.06,19.64
13069,0.1505,-0.223,0.861,-6.05,7.83,-0.05,19.67
13079,0.1495,-0.2218,0.8639,-6.05,7.83,0.0,19.64
13089,0.1495,-0.2244,0.8627,-6.03,7.69,0.0,19.64
13099,0.152,-0.2212,0.8636,-5.98,7.65,0.03,19.66
13109,0.151,-0.2231,0.8683,-5.89,7.79,0.0,19.66
13119,0.1506,-0.2203,0.8718,-5.85,7.85,-0.03,19.66
13129,0.1498,-0.2192,0.8685,-5.86,7.83,0.03,19.68
13139,0.1483,-0.2145,0.8684,-5.97,7.68,-0.08,19.65
13149,0.1471,-0.2184,0.8645,-6.14,7.51,-0.06,19.69
13159,0.1517,-0.2164,0.8646,-6.11,7.57,-0.09,19.64
13170,0.1545,-0.2155,0.86,-5.86,7.71,-0.06,19.66
13180,0.1565,-0.2224,0.8723,-5.86,8.11,-0.12,19.65
13190,0.1514,-0.2258,0.8708,-6.12,8.06,-0.09,19.64
13200,0.1477,-0.2297,0.8677,-6.29,7.53,-0.09,19.67
13210,0.1553,-0.233,0.8602,-6.24,7.27,-0.09,19.65
13220,0.158,-0.2292,0.8578,-6.09,7.45,-0.09,19.67
13230,0.1555,-0.2236,0.8639,-5.57,7.82,0.02,19.65
13240,0.1538,-0.2201,0.8732,-5.24,8.0,0.15,19.65
13250,0.1503,-0.2131,0.8789,-5.34,7.95,0.06,19.67
13260,0.1476,-0.2053,0.8792,-5.83,7.48,-0.08,19.66
13270,0.1539,-0.2115,0.8745,-6.31,7.3,-0.14,19.67
13280,0.1537,-0.2124,0.8638,-6.63,7.82,-0.11,19.65
13290,0.1549,-0.2164,0.8552,-6.64,8.27,0.03,19.66
13300,0.1503,-0.2224,0.854,-6.34,8.7,-0.02,19.67
13310,0.1511,-0.2266,0.861,-5.95,8.34,0.05,19.66
13320,0.1544,-0.2263,0.8624,-5.82,7.6,-0.05,19.67
13330,0.1545,-0.2266,0.861,-5.73,7.13,-0.08,19.67
13340,0.1572,-0.2256,0.8607,-5.92,7.33,-0.08,19.66
13350,0.155,-0.2192,0.8652,-6.06,7.95,0.09,19.64
13360,0.1498,-0.2198,0.8633,-5.97,8.26,0.03,19.68
13370,0.1471,-0.2212,0.8715,-5.56,8.06,0.0,19.66
13380,0.1471,-0.2197,0.8737,-5.77,7.57,-0.05,19.64
13390,0.147,-0.2194,0.873,-6.0,7.22,-0.21,19.64
13400,0.1509,-0.22,0.8726,-6.18,7.42,-0.18,19.67
13410,0.1488,-0.2211,0.8622,-6.29,7.62,-0.15,19.67
13420,0.1494,-0.2242,0.8594,-6.26,7.85,-0.14,19.67
13430,0.1521,-0.2196,0.8591,-5.97,7.68,-0.11,19.67
13440,0.1482,-0.2216,0.8613,-5.69,7.48,-0.02,19.66
13450,0.1536,-0.2155,0.8641,-5.62,7.3,-0.09,19.65
13460,0.1512,-0.2167,0.8647,-5.88,7.44,-0.14,19.67
13470,0.1516,-0.2129,0.8711,-6.02,7.66,0.0,19.64
13480,0.1539,-0.2159,0.866,-6.4,7.83,-0.06,19.67
13490,0.1522,-0.2218,0.8683,-6.5,7.86,0.0,19.65
13500,0.1499,-0.223,0.8627,-6.32,7.88,-0.05,19.66
13510,0.1499,-0.2267,0.8634,-6.27,7.76,-0.15,19.64
13520,0.1495,-0.2283,0.86,-6.08,7.45,-0.12,19.66
13530,0.1516,-0.2258,0.8579,-6.26,7.33,-0.12,19.66
13540,0.1522,-0.2258,0.8574,-6.2,7.42,-0.12,19.67
13550,0.1465,-0.2272,0.8591,-5.97,7.54,-0.09,19.69
13560,0.1508,-0.2245,0.8616,-5.89,7.74,-0.18,19.67
13570,0.1511,-0.2181,0.8628,-5.74,7.51,-0.11,19.67
13580,0.1553,-0.2155,0.8647,-5.69,7.33,-0.02,19.64
13590,0.1565,-0.218,0.8745,-5.73,7.34,-0.03,19.69
13600,0.1558,-0.2166,0.8771,-5.95,7.62,-0.02,19.67
13610,0.1532,-0.22,0.8787,-6.08,7.92,-0.18,19.69
13620,0.155,-0.2207,0.8724,-6.27,7.98,-0.17,19.7
13630,0.1536,-0.2238,0.8683,-6.29,7.86,-0.14,19.67
13640,0.1536,-0.2242,0.8597,-6.24,7.59,-0.08,19.66
13650,0.1538,-0.2189,0.8583,-6.21,7.48,-0.11,19.67
13660,0.1562,-0.222,0.8557,-6.08,7.59,-0.03,19.67
13670,0.1552,-0.2225,0.8677,-5.88,7.89,-0.02,19.67
13680,0.1539,-0.2198,0.8687,-5.77,8.11,0.0,19.65
13690,0.1522,-0.2224,0.8744,-6.0,8.05,0.05,19.68
13700,0.1498,-0.2269,0.8689,-6.18,7.77,0.0,19.68
13710,0.1486,-0.2257,0.8702,-6.49,7.56,-0.06,19.65
13720,0.1505,-0.2234,0.8643,-6.47,7.53,-0.14,19.65
13730,0.1532,-0.2267,0.8575,-6.23,7.6,0.02,19.65
13740,0.1504,-0.2266,0.8568,-5.86,7.92,-0.03,19.65
13750,0.1465,-0.224,0.864,-5.63,7.94,-0.02,19.7
13760,0.1425,-0.2261,0.8698,-5.65,7.77,0.02,19.67
13770,0.1498,-0.2291,0.8754,-5.79,7.5,-0.06,19.67
13780,0.1484,-0.2268,0.8724,-6.11,7.39,-0.17,19.66
13790,0.1473,-0.2225,0.8658,-6.26,7.56,-0.06,19.67
13800,0.1511,-0.225,0.8574,-6.06,7.54,-0.05,19.67
13810,0.1489,-0.2239,0.8582,-5.79,7.53,-0.06,19.65
13820,0.1501,-0.2208,0.8582,-5.62,7.36,-0.05,19.69
13830,0.1538,-0.2151,0.8619,-5.56,7.42,-0.11,19.7
13840,0.1581,-0.2157,0.8713,-5.57,7.69,-0.03,19.66
13850,0.1542,-0.2136,0.8723,-5.85,7.8,-0.09,19.67
13860,0.1558,-0.218,0.8688,-6.21,7.83,0.0,19.68
13870,0.1532,-0.2153,0.8618,-6.31,7.8,-0.08,19.7
13880,0.1512,-0.2179,0.8623,-6.12,7.6,-0.08,19.65
13890,0.1537,-0.2189,0.8655,-5.91,7.73,-0.08,19.67
13900,0.1505,-0.2211,0.8674,-5.73,7.88,0.0,19.67
13910,0.1506,-0.2191,0.8759,-5.69,7.77,0.0,19.67
13920,0.1481,-0.2223,0.8743,-6.09,7.73,-0.02,19.7
13930,0.1526,-0.2229,0.8699,-6.43,7.66,-0.11,19.68
13940,0.1503,-0.2241,0.8636,-6.34,7.56,-0.14,19.66
13950,0.1517,-0.2231,0.8573,-6.24,7.71,-0.09,19.69
13960,0.1547,-0.2262,0.8578,-5.92,7.8,-0.05,19.66
13970,0.1542,-0.2244,0.8646,-5.62,7.86,-0.03,19.66
13980,0.1509,-0.2209,0.8689,-5.42,7.65,-0.05,19.68
13990,0.155,-0.2201,0.8715,-5.65,7.54,-0.02,19.67
14000,0.1532,-0.2191,0.8712,-5.57,7.4,-0.18,19.68
14010,0.1528,-0.2186,0.8702,-5.73,7.08,-0.06,19.68
14020,0.1577,-0.2164,0.865,-6.27,7.56,0.05,19.68
14030,0.1552,-0.2153,0.8618,-6.96,8.27,0.02,19.66
14040,0.1506,-0.2188,0.8523,-6.84,8.67,0.11,19.67
14050,0.1508,-0.2211,0.8571,-6.23,8.24,-0.09,19.65
14060,0.1469,-0.2195,0.8602,-5.44,7.5,0.11,19.67
14070,0.1495,-0.2189,0.8698,-5.36,7.21,-0.09,19.68
14080,0.1512,-0.2144,0.8676,-5.68,7.16,-0.15,19.65
14090,0.1521,-0.2208,0.8687,-6.15,7.48,-0.06,19.68
14100,0.1506,-0.2177,0.8635,-6.69,7.91,-0.03,19.69
14110,0.1505,-0.218,0.8596,-6.82,8.17,-0.02,19.67
14120,0.1489,-0.2217,0.8573,-6.32,7.8,-0.06,19.65
14130,0.1516,-0.2244,0.8564,-5.85,7.44,-0.17,19.66
14140,0.1567,-0.2246,0.8667,-5.57,7.42,-0.12,19.66
14150,0.1569,-0.2231,0.8728,-5.74,7.53,-0.21,19.67
14161,0.1561,-0.2253,0.8743,-6.23,7.8,0.03,19.67
14171,0.1522,-0.2264,0.8711,-6.69,7.85,0.0,19.67
14181,0.1499,-0.2295,0.8579,-6.75,7.8,-0.06,19.68
14191,0.1493,-0.2269,0.8536,-6.15,7.69,-0.03,19.66
14201,0.1506,-0.2238,0.856,-5.51,7.65,-0.09,19.72
14211,0.1508,-0.224,0.8696,-5.28,7.68,0.06,19.67
14221,0.1514,-0.2224,0.8746,-5.56,7.68,0.03,19.67
14231,0.1498,-0.2217,0.8748,-6.12,7.76,0.0,19.69
14241,0.1509,-0.2255,0.8705,-6.6,7.77,-0.15,19.67
14251,0.1489,-0.2277,0.8582,-6.61,7.6,-0.05,19.66
14261,0.1514,-0.2205,0.8567,-6.24,7.59,-0.06,19.68
14271,0.1523,-0.223,0.8578,-5.71,7.71,-0.06,19.68
14281,0.1523,-0.2229,0.8665,-5.34,7.74,-0.05,19.66
14291,0.1495,-0.2218,0.8694,-5.5,7.76,0.02,19.66
14301,0.1544,-0.222,0.8763,-5.88,7.71,0.02,19.69
14311,0.1521,-0.2196,0.8688,-6.35,7.57,-0.05,19.69
14321,0.1547,-0.2209,0.8616,-6.66,7.62,-0.08,19.66
14331,0.1543,-0.2224,0.8561,-6.23,7.77,-0.03,19.67
14341,0.1553,-0.2236,0.8557,-5.57,7.82,-0.03,19.67
14351,0.1552,-0.2223,0.8627,-5.47,7.89,0.06,19.67
14361,0.1525,-0.2206,0.8711,-5.57,7.76,0.03,19.68
14371,0.1487,-0.2169,0.871,-5.69,7.45,-0.11,19.66
14381,0.1537,-0.2201,0.8691,-6.23,7.39,0.03,19.69
14391,0.1526,-0.2173,0.8619,-6.44,7.77,-0.12,19.68
14401,0.1527,-0.2213,0.8542,-6.53,8.05,0.03,19.68
14411,0.1469,-0.2258,0.8568,-6.14,8.12,0.03,19.69
14421,0.1511,-0.2236,0.8613,-5.62,7.89,0.11,19.66
14431,0.1459,-0.2195,0.866,-5.28,7.39,-0.18,19.68
14441,0.1511,-0.2139,0.874,-5.48,7.15,0.06,19.65
14451,0.1531,-0.215,0.8704,-6.14,7.48,-0.03,19.67
14461,0.152,-0.2168,0.8652,-6.46,7.65,-0.18,19.66
14471,0.1548,-0.2178,0.8629,-6.5,7.79,-0.11,19.67
14481,0.1522,-0.2206,0.8588,-6.21,7.97,-0.05,19.67
14491,0.1527,-0.2225,0.8617,-5.74,7.97,-0.02,19.69
14501,0.1536,-0.2255,0.8701,-5.69,7.69,0.02,19.7
14511,0.1517,-0.2271,0.8726,-5.88,7.53,-0.09,19.68
14521,0.1534,-0.2241,0.8711,-6.2,7.51,-0.11,19.67
14531,0.1519,-0.2203,0.8641,-6.38,7.6,-0.12,19.68
14541,0.1562,-0.2207,0.8623,-6.29,7.65,-0.12,19.69
14551,0.1519,-0.2224,0.8605,-6.12,7.97,-0.03,19.7
14561,0.1487,-0.2207,0.8613,-5.86,7.71,-0.09,19.66
14571,0.153,-0.2213,0.8668,-5.83,7.71,0.05,19.67
14581,0.151,-0.2208,0.8687,-6.08,7.68,-0.11,19.67
14591,0.1487,-0.2211,0.8639,-6.12,7.37,-0.09,19.67
14601,0.1543,-0.2224,0.865,-6.06,7.51,-0.09,19.66
14611,0.1548,-0.2218,0.8655,-6.21,7.74,-0.06,19.67
14621,0.1499,-0.2233,0.8601,-6.24,7.8,-0.02,19.72
14631,0.1512,-0.2219,0.861,-6.02,7.86,0.0,19.7
14641,0.151,-0.2227,0.8666,-5.91,7.76,-0.05,19.67
14651,0.1531,-0.2225,0.8663,-5.83,7.53,-0.09,19.69
14661,0.1542,-0.2225,0.8636,-5.89,7.44,0.02,19.72
14671,0.1509,-0.2212,0.8658,-6.0,7.77,0.05,19.69
14681,0.1508,-0.222,0.8635,-6.29,7.89,0.09,19.67
14691,0.151,-0.223,0.8564,-6.21,7.92,0.0,19.67
14701,0.147,-0.2302,0.8499,-5.82,7.66,-0.06,19.71
14711,0.1433,-0.2246,0.8519,-4.61,6.14,-0.21,19.68
14721,0.1637,-0.2166,0.8743,-4.64,6.55,0.08,19.67
14731,0.1531,-0.2112,0.8738,-5.68,8.18,-0.27,19.67
14741,0.1561,-0.2213,0.8762,-6.63,8.49,0.38,19.67
14751,0.1432,-0.2228,0.8623,-6.5,8.12,-0.27,19.69
14761,0.146,-0.2203,0.8676,-6.37,7.45,0.09,19.68
14771,0.1558,-0.2225,0.8635,-6.38,7.57,-0.14,19.68
14781,0.1567,-0.2255,0.8584,-6.11,7.86,-0.14,19.7
14791,0.1515,-0.2219,0.863,-5.48,7.77,-0.08,19.68
14801,0.1545,-0.2234,0.8729,-5.53,7.94,0.11,19.69
14811,0.1493,-0.2191,0.869,-5.98,7.85,-0.05,19.7
14821,0.1484,-0.2205,0.8684,-6.21,7.4,-0.03,19.67
14831,0.1537,-0.2224,0.8689,-6.27,7.45,-0.05,19.7
14841,0.1532,-0.2222,0.8611,-6.53,8.02,0.05,19.67
14851,0.1503,-0.2219,0.8582,-6.06,8.15,0.06,19.68
14861,0.1486,-0.2258,0.8618,-5.62,7.86,-0.02,19.69
14871,0.1506,-0.223,0.8684,-5.57,7.54,-0.03,19.67
14881,0.151,-0.2235,0.8641,-5.77,7.34,-0.05,19.67
14891,0.1498,-0.22,0.8647,-5.94,7.33,-0.03,19.7
14901,0.1538,-0.2209,0.8618,-6.14,7.77,0.02,19.7
14911,0.1512,-0.2183,0.86,-6.06,8.06,0.12,19.69
14921,0.1508,-0.2219,0.8616,-5.82,7.77,0.06,19.68
14931,0.1506,-0.2183,0.8635,-5.71,7.53,-0.05,19.69
14941,0.152,-0.217,0.8685,-5.8,7.42,-0.02,19.7
14951,0.1509,-0.2169,0.8654,-5.89,7.45,-0.06,19.69
14961,0.1523,-0.2197,0.8611,-5.98,7.65,0.0,19.68
14971,0.1476,-0.2213,0.8643,-5.89,7.82,-0.06,19.72
14981,0.1538,-0.222,0.8646,-5.86,7.85,0.08,19.67
14991,0.1512,-0.2197,0.8647,-5.8,7.63,0.0,19.72
15001,0.149,-0.2164,0.8655,-5.95,7.53,0.02,19.7
15011,0.1514,-0.2198,0.865,-6.38,7.69,-0.11,19.69
15021,0.1566,-0.2216,0.8625,-6.47,7.91,-0.03,19.68
15031,0.1525,-0.2224,0.8627,-6.52,8.17,0.11,19.72
15041,0.1479,-0.2219,0.8608,-6.23,8.15,0.03,19.71
15051,0.151,-0.2262,0.8604,-5.74,7.83,-0.09,19.71
15061,0.1512,-0.2234,0.865,-5.71,7.51,0.03,19.69
15071,0.1548,-0.224,0.8696,-5.69,7.3,0.05,19.68
15081,0.1519,-0.2225,0.8658,-5.89,7.5,-0.18,19.69
15091,0.1552,-0.2238,0.8704,-6.08,7.85,-0.09,19.71
15101,0.1505,-0.2201,0.8693,-6.09,7.82,0.02,19.68
15111,0.1532,-0.2192,0.8696,-6.08,7.63,0.02,19.69
15121,0.1531,-0.2188,0.8679,-6.12,7.76,0.0,19.69
15131,0.1521,-0.22,0.863,-6.24,7.69,-0.08,19.7
15141,0.153,-0.219,0.8647,-6.15,7.59,-0.05,19.71
15151,0.1523,-0.2194,0.8676,-6.08,7.82,-0.06,19.71
15161,0.1548,-0.2194,0.8673,-6.18,7.88,-0.06,19.7
15171,0.1528,-0.223,0.8656,-6.14,7.94,0.06,19.68
15181,0.1517,-0.2244,0.8678,-6.37,7.98,-0.09,19.7
15191,0.1523,-0.2251,0.8654,-6.31,7.94,-0.03,19.69
15201,0.1552,-0.2271,0.8679,-6.44,7.89,0.0,19.69
15211,0.151,-0.2281,0.8606,-6.2,7.88,0.0,19.69
15221,0.1569,-0.225,0.8673,-5.97,7.63,-0.06,19.72
15231,0.1543,-0.2229,0.8624,-5.74,7.74,0.02,19.68
15241,0.1488,-0.2245,0.8646,-5.4,7.45,-0.09,19.68
15251,0.1499,-0.2216,0.8645,-5.4,7.19,-0.12,19.67
15261,0.1519,-0.2227,0.8663,-5.51,7.39,-0.09,19.71
15271,0.1527,-0.2213,0.864,-5.68,7.56,0.02,19.69
15281,0.1558,-0.2216,0.8661,-5.79,7.76,-0.02,19.69
15291,0.1561,-0.2217,0.8687,-6.05,7.88,-0.02,19.7
15301,0.1512,-0.2203,0.8715,-6.41,8.11,0.0,19.7
15311,0.1503,-0.2208,0.8647,-6.66,8.17,0.0,19.7
15321,0.1501,-0.2223,0.8622,-6.29,7.94,0.0,19.7
15331,0.1476,-0.2217,0.8602,-5.56,7.34,-0.09,19.7
15341,0.1553,-0.2188,0.8663,-5.3,7.28,-0.06,19.7
15351,0.1531,-0.2166,0.8704,-5.56,7.77,-0.02,19.69
15361,0.1537,-0.217,0.8773,-6.03,7.97,0.06,19.73
15371,0.1505,-0.2196,0.8712,-6.41,7.88,-0.02,19.69
15381,0.1527,-0.2205,0.8645,-6.61,7.88,-0.06,19.68
15391,0.1547,-0.2228,0.8644,-6.27,7.6,-0.09,19.71
15401,0.1536,-0.2213,0.8624,-6.02,7.6,0.02,19.69
15411,0.1548,-0.2225,0.8658,-5.71,7.92,-0.03,19.7
15421,0.1503,-0.2206,0.8682,-5.69,7.82,0.03,19.7
15431,0.1533,-0.2189,0.8701,-5.83,7.73,-0.11,19.68
15441,0.1509,-0.2194,0.8723,-6.14,7.62,-0.05,19.7
15451,0.1508,-0.2198,0.8673,-6.21,7.5,-0.12,19.72
15461,0.1538,-0.2214,0.8618,-6.29,7.54,-0.06,19.72
15471,0.1552,-0.2197,0.8612,-6.08,7.76,-0.08,19.69
15481,0.1528,-0.2196,0.8638,-5.98,8.09,0.02,19.71
15491,0.1486,-0.2209,0.8652,-6.02,7.91,0.03,19.73
15501,0.1492,-0.2245,0.8674,-5.97,7.69,-0.11,19.72
15511,0.1538,-0.2224,0.8633,-6.05,7.42,-0.14,19.69
15521,0.1542,-0.2212,0.863,-5.95,7.5,-0.09,19.72
15531,0.1541,-0.2257,0.8611,-5.94,7.63,-0.05,19.69
15541,0.1531,-0.2217,0.8672,-5.86,7.83,0.0,19.69
15551,0.1511,-0.222,0.8683,-5.91,7.85,-0.05,19.68
15561,0.1512,-0.2192,0.8711,-6.21,7.82,0.02,19.67
15571,0.1506,-0.2208,0.8655,-6.23,7.66,0.0,19.71
15581,0.1514,-0.2212,0.8628,-5.98,7.47,-0.08,19.69
15591,0.1514,-0.2203,0.8677,-5.98,7.57,-0.06,19.69
15601,0.1547,-0.2183,0.8627,-6.11,7.92,0.02,19.71
15611,0.1475,-0.2191,0.8619,-6.11,8.02,0.0,19.7
15621,0.1499,-0.2202,0.8611,-5.95,7.65,0.05,19.69
15631,0.1538,-0.218,0.8672,-6.02,7.39,-0.06,19.69
15641,0.1531,-0.2178,0.8635,-6.11,7.63,-0.09,19.71
15651,0.1549,-0.2167,0.8691,-6.27,8.03,-0.05,19.71
15661,0.152,-0.2202,0.8721,-6.6,8.4,0.0,19.73
15671,0.1483,-0.2233,0.8654,-6.67,8.34,-0.05,19.7
15681,0.1497,-0.2273,0.8613,-6.32,7.77,-0.08,19.71
15691,0.1532,-0.224,0.8616,-5.95,7.21,-0.12,19.72
15701,0.1578,-0.2225,0.8643,-5.89,7.45,-0.03,19.71
15711,0.1545,-0.2252,0.8676,-6.12,8.05,0.02,19.7
15721,0.1536,-0.2236,0.8672,-6.46,8.32,0.08,19.71
15731,0.1439,-0.2245,0.8682,-6.43,8.15,-0.02,19.69
15741,0.1481,-0.2274,0.8647,-6.15,7.62,-0.12,19.7
15751,0.1492,-0.223,0.8607,-5.68,7.31,-0.06,19.7
15761,0.1537,-0.2218,0.8683,-5.65,7.56,-0.05,19.7
15771,0.1505,-0.2216,0.8699,-5.73,7.8,-0.03,19.71
15781,0.1521,-0.2235,0.8728,-6.14,7.98,-0.02,19.69
15791,0.1493,-0.2191,0.8629,-6.31,7.82,-0.02,19.72
15801,0.1486,-0.2236,0.8628,-6.2,7.57,-0.12,19.7
15811,0.153,-0.2231,0.8605,-6.0,7.56,-0.03,19.68
15821,0.1541,-0.2217,0.8607,-6.0,7.77,-0.02,19.7
15831,0.1548,-0.2253,0.8682,-5.98,8.06,-0.03,19.72
15841,0.1509,-0.2246,0.8685,-5.92,8.0,0.08,19.7
15851,0.1486,-0.2233,0.8671,-6.0,7.6,-0.05,19.69
15861,0.1512,-0.2231,0.8663,-6.03,7.45,-0.05,19.7
15871,0.1525,-0.2235,0.8621,-6.09,7.4,-0.08,19.72
15881,0.1566,-0.2207,0.8613,-6.0,7.62,-0.03,19.7
15891,0.1521,-0.2196,0.8639,-5.86,7.92,-0.05,19.7
15901,0.1509,-0.2179,0.8663,-5.88,7.95,0.06,19.72
15911,0.1499,-0.2198,0.8678,-5.98,7.71,-0.12,19.73
15921,0.151,-0.2231,0.8676,-6.06,7.45,-0.17,19.74
15931,0.1526,-0.2185,0.8625,-6.18,7.51,-0.12,19.69
15941,0.153,-0.2184,0.8604,-6.06,7.79,0.05,19.72
15951,0.1525,-0.2202,0.864,-6.09,7.94,0.02,19.71
15961,0.1512,-0.2213,0.8639,-5.98,7.86,0.05,19.7
15971,0.1512,-0.2203,0.8657,-5.79,7.57,-0.06,19.71
15981,0.1499,-0.22,0.8715,-5.88,7.39,-0.14,19.72
15991,0.1505,-0.2235,0.8652,-6.05,7.54,-0.14,19.7
16001,0.1526,-0.2188,0.861,-6.08,7.85,-0.02,19.69
16011,0.1516,-0.2262,0.8618,-6.12,7.98,0.0,19.69
16021,0.1509,-0.2242,0.865,-6.0,7.94,-0.09,19.7
16031,0.1486,-0.2236,0.8676,-5.88,7.69,0.02,19.72
16041,0.1526,-0.2227,0.8693,-5.97,7.51,-0.06,19.72
16051,0.1504,-0.2229,0.8688,-6.02,7.5,-0.15,19.74
16061,0.1522,-0.2239,0.8636,-6.08,7.65,-0.08,19.72
16071,0.1548,-0.2184,0.8636,-6.05,7.85,0.03,19.72
16081,0.1526,-0.2229,0.8572,-6.0,7.82,-0.03,19.7
16091,0.1514,-0.2206,0.8641,-5.86,7.74,0.02,19.72
16101,0.1519,-0.2216,0.8655,-5.85,7.57,-0.05,19.74
16111,0.1522,-0.2185,0.8674,-5.97,7.57,-0.02,19.71
16121,0.1536,-0.2189,0.8665,-6.18,7.77,0.0,19.72
16131,0.151,-0.2223,0.8657,-6.06,7.85,0.0,19.7
16141,0.1493,-0.2228,0.8655,-6.08,7.73,-0.03,19.69
16151,0.152,-0.2216,0.8656,-5.97,7.74,-0.05,19.73
16161,0.1512,-0.2216,0.8615,-5.88,7.57,-0.09,19.72
16171,0.1498,-0.2213,0.8628,-5.92,7.6,-0.11,19.7
16181,0.1514,-0.2234,0.8632,-5.94,7.68,0.0,19.7
16191,0.1514,-0.2244,0.8666,-5.94,7.8,0.05,19.71
16201,0.15,-0.225,0.865,-6.06,7.86,-0.03,19.72
16211,0.1527,-0.2245,0.8661,-6.24,7.8,0.03,19.7
16221,0.1527,-0.2202,0.8644,-6.12,7.65,0.02,19.7
16231,0.1521,-0.2218,0.8663,-5.91,7.59,-0.08,19.72
16241,0.1526,-0.2194,0.8699,-5.94,7.56,0.0,19.72
16251,0.1533,-0.2202,0.8633,-5.91,7.79,-0.05,19.75
16261,0.1508,-0.2218,0.8673,-5.92,7.88,-0.05,19.7
16271,0.1492,-0.2209,0.8638,-6.09,7.79,-0.08,19.7
16290,0.151,-0.2229,0.8623,-5.97,7.51,0.03,19.72
16300,0.1515,-0.223,0.8628,-5.91,7.6,-0.11,19.74
16310,0.1519,-0.2206,0.8635,-5.95,7.63,-0.05,19.72
16320,0.1481,-0.2212,0.8668,-5.88,7.74,0.0,19.71
16330,0.1509,-0.2223,0.8685,-6.05,7.86,-0.03,19.72
16340,0.1508,-0.223,0.8632,-5.94,7.71,-0.09,19.73
16350,0.1527,-0.2209,0.8638,-5.92,7.65,-0.06,19.72
16360,0.1495,-0.2244,0.8668,-5.92,7.54,-0.02,19.72
16370,0.1539,-0.2214,0.8638,-6.08,7.79,0.02,19.75
16380,0.1501,-0.2211,0.8717,-6.0,7.86,-0.05,19.74
16390,0.1523,-0.2217,0.87,-5.89,7.85,-0.05,19.77
16400,0.1519,-0.2238,0.8654,-5.98,7.76,-0.05,19.74
16410,0.1509,-0.2255,0.8607,-5.92,7.57,-0.05,19.73
16420,0.1537,-0.2202,0.8644,-5.97,7.56,-0.03,19.72
16430,0.1533,-0.2192,0.8633,-5.88,7.74,-0.03,19.73
16440,0.1517,-0.2184,0.8638,-5.86,7.83,-0.14,19.73
16450,0.1532,-0.2173,0.8656,-5.97,7.77,-0.06,19.71
16460,0.1525,-0.2194,0.8679,-5.98,7.66,0.06,19.72
16470,0.1508,-0.2218,0.8655,-6.05,7.53,-0.14,19.73
16480,0.1534,-0.2209,0.8613,-6.14,7.59,-0.09,19.74
16490,0.1533,-0.2246,0.8635,-6.05,7.74,0.02,19.75
16501,0.1528,-0.2219,0.8645,-5.98,7.89,0.03,19.74
16511,0.153,-0.2218,0.866,-6.0,7.86,-0.03,19.72
16521,0.1538,-0.225,0.8673,-5.94,7.57,0.0,19.76
16531,0.1532,-0.2212,0.8647,-5.98,7.5,-0.11,19.73
16541,0.151,-0.2229,0.8627,-6.06,7.54,0.0,19.71
16551,0.1515,-0.22,0.8655,-6.08,7.63,0.02,19.72
16561,0.1486,-0.2219,0.8656,-6.09,7.65,-0.06,19.71
16571,0.1514,-0.2212,0.8618,-6.08,7.76,-0.02,19.73
16581,0.1512,-0.2216,0.8597,-6.05,7.65,-0.14,19.71
16591,0.153,-0.2209,0.8607,-6.02,7.51,-0.15,19.7
16601,0.1539,-0.2241,0.8655,-6.06,7.57,-0.17,19.73
16611,0.1555,-0.2251,0.8605,-5.95,7.66,-0.12,19.74
16621,0.1541,-0.2256,0.8646,-5.92,7.68,-0.09,19.72
16631,0.1534,-0.222,0.8655,-5.94,7.63,-0.05,19.74
16641,0.156,-0.2224,0.8644,-5.76,7.63,-0.14,19.72
16651,0.1541,-0.222,0.8682,-5.89,7.59,-0.03,19.75
16661,0.1562,-0.2234,0.871,-5.83,7.74,-0.06,19.74
16671,0.1532,-0.2218,0.8746,-5.94,7.79,-0.05,19.74
16681,0.1509,-0.2255,0.8723,-5.95,7.88,0.03,19.72
16691,0.1499,-0.2246,0.8655,-6.08,7.76,-0.03,19.72
16701,0.1497,-0.2228,0.8665,-6.0,7.8,0.08,19.72
16711,0.1461,-0.2229,0.8612,-6.09,7.83,0.02,19.72
16721,0.1449,-0.2211,0.8601,-6.03,7.8,-0.05,19.73
16731,0.1418,-0.2188,0.8611,-5.94,7.79,0.09,19.74
16741,0.1443,-0.2159,0.8676,-5.85,7.88,0.06,19.74
16751,0.1469,-0.2179,0.8663,-5.8,7.79,0.05,19.74
16761,0.149,-0.2195,0.8683,-5.94,7.69,0.08,19.75
16771,0.1506,-0.2245,0.871,-6.12,7.59,-0.12,19.73
16781,0.1493,-0.2211,0.8672,-6.31,7.74,0.05,19.71
16791,0.1522,-0.2183,0.8628,-6.34,7.86,0.06,19.72
16801,0.1534,-0.223,0.8657,-6.27,7.85,0.06,19.72
16811,0.157,-0.2242,0.8606,-6.15,7.83,-0.02,19.72
16821,0.158,-0.2246,0.8627,-5.95,7.79,-0.03,19.73
16831,0.16,-0.226,0.8652,-5.89,7.73,-0.05,19.7
16841,0.1564,-0.2263,0.8673,-5.98,7.82,-0.02,19.74
16851,0.1576,-0.223,0.8624,-6.08,7.79,-0.06,19.74
16861,0.1556,-0.2235,0.86,-6.08,7.83,0.05,19.72
16871,0.1534,-0.2238,0.8629,-5.79,7.71,-0.03,19.72
16881,0.1501,-0.2188,0.8668,-5.76,7.63,0.06,19.73
16891,0.151,-0.2188,0.866,-5.73,7.59,-0.08,19.75
16901,0.1495,-0.2201,0.8656,-5.86,7.68,-0.06,19.73
16911,0.1494,-0.2174,0.8667,-6.17,7.89,0.02,19.74
16921,0.1506,-0.2197,0.8652,-6.26,7.88,-0.09,19.74
16931,0.1454,-0.2233,0.865,-6.26,7.69,-0.05,19.73
16941,0.1523,-0.2218,0.8629,-6.08,7.56,-0.09,19.73
16951,0.1534,-0.2201,0.8647,-5.76,7.56,-0.06,19.73
16961,0.1554,-0.2212,0.8702,-5.48,7.71,-0.05,19.74
16971,0.151,-0.2242,0.8778,-5.62,7.71,-0.05,19.74
16981,0.1541,-0.2255,0.8737,-5.88,7.59,-0.14,19.75
16991,0.156,-0.2283,0.8672,-6.17,7.5,-0.14,19.72
17001,0.1499,-0.2247,0.8608,-5.92,7.36,-0.11,19.73
17011,0.1643,-0.2327,0.8649,-5.74,7.53,-0.21,19.74
17021,0.1586,-0.2269,0.8457,-5.54,7.31,0.17,19.74
17031,0.1509,-0.2212,0.8613,-5.22,7.47,-0.12,19.75
17041,0.1478,-0.2139,0.8741,-5.51,7.94,-0.26,19.74
17051,0.149,-0.2166,0.8752,-6.47,8.23,0.12,19.75
17061,0.1494,-0.217,0.86,-6.7,8.08,0.02,19.72
17071,0.1484,-0.2222,0.8599,-6.56,7.62,-0.18,19.73
17081,0.144,-0.2257,0.858,-6.18,7.57,-0.06,19.75
17091,0.1466,-0.2252,0.8623,-5.56,7.44,-0.09,19.72
17101,0.1489,-0.2222,0.8619,-5.28,7.6,-0.02,19.73
17111,0.1548,-0.2224,0.8772,-5.74,8.0,0.0,19.73
17121,0.1495,-0.2239,0.8705,-6.37,8.06,0.08,19.7
17131,0.1505,-0.2246,0.8625,-6.63,7.79,-0.02,19.74
17141,0.1552,-0.2312,0.8619,-6.35,7.54,-0.09,19.75
17151,0.1528,-0.2294,0.8566,-5.89,7.54,-0.06,19.72
17161,0.1544,-0.2277,0.8579,-5.51,7.6,0.0,19.73
17171,0.1509,-0.224,0.8616,-5.33,7.94,0.06,19.74
17181,0.1528,-0.2214,0.8724,-5.69,8.0,0.11,19.76
17191,0.1522,-0.22,0.871,-6.11,7.83,0.12,19.74
17201,0.1499,-0.2152,0.8654,-6.08,7.51,-0.02,19.75
17211,0.1497,-0.2184,0.8665,-5.86,7.42,-0.08,19.77
17221,0.1533,-0.217,0.864,-5.69,7.57,-0.03,19.74
17231,0.1505,-0.215,0.8673,-5.62,7.79,-0.03,19.73
17241,0.1526,-0.2155,0.8688,-5.97,7.97,0.05,19.73
17251,0.1509,-0.218,0.8722,-6.21,7.95,0.0,19.74
17261,0.1486,-0.2166,0.8661,-6.31,7.86,-0.08,19.74
17271,0.15,-0.2198,0.8668,-6.15,7.56,0.0,19.74
17281,0.1522,-0.2234,0.8666,-6.05,7.6,-0.09,19.73
17291,0.1545,-0.2213,0.8668,-5.91,7.82,-0.09,19.74
17301,0.1509,-0.2205,0.8627,-5.86,7.94,-0.02,19.74
17311,0.1497,-0.2206,0.8669,-6.03,7.83,0.02,19.75
17321,0.1514,-0.2209,0.8634,-6.24,7.85,-0.05,19.74
17331,0.1538,-0.2216,0.8635,-6.08,7.63,-0.05,19.73
17341,0.1493,-0.2214,0.8605,-6.06,7.68,-0.11,19.74
17351,0.151,-0.2202,0.8617,-6.03,7.56,-0.05,19.74
17361,0.1515,-0.2185,0.8647,-5.86,7.6,-0.2,19.77
17371,0.1526,-0.2184,0.8624,-6.03,7.51,-0.09,19.73
17381,0.1547,-0.2206,0.8651,-5.95,7.68,-0.03,19.74
17391,0.1536,-0.2194,0.8684,-5.98,7.86,-0.06,19.74
17401,0.1512,-0.223,0.8685,-6.0,7.89,-0.06,19.75
17411,0.1486,-0.2242,0.8647,-6.05,7.73,0.02,19.74
17421,0.1487,-0.2188,0.8679,-6.18,7.63,-0.03,19.75
17431,0.1483,-0.2223,0.8633,-6.2,7.51,0.0,19.77
17441,0.1514,-0.2231,0.8556,-6.03,7.63,0.0,19.75
17451,0.1504,-0.2252,0.8623,-5.88,7.8,0.02,19.76
17461,0.1508,-0.2229,0.8656,-5.83,7.97,0.0,19.75
17471,0.1487,-0.226,0.868,-5.86,7.79,-0.09,19.76
17481,0.1495,-0.2236,0.8712,-6.05,7.59,0.03,19.75
17491,0.1512,-0.2239,0.8676,-6.24,7.57,-0.09,19.76
17501,0.1486,-0.2219,0.8628,-6.23,7.62,-0.11,19.74
17511,0.1538,-0.2251,0.8638,-6.03,7.82,-0.09,19.75
17521,0.1521,-0.224,0.8635,-5.95,7.86,0.02,19.74
17531,0.1517,-0.2263,0.8677,-5.82,7.76,0.02,19.76
17541,0.1515,-0.2249,0.8723,-5.77,7.6,0.0,19.74
17551,0.1512,-0.2216,0.8718,-5.88,7.47,-0.05,19.75
17561,0.1527,-0.2223,0.8649,-6.09,7.63,-0.06,19.75
17571,0.1497,-0.2216,0.8651,-6.05,7.76,0.0,19.74
17581,0.1494,-0.222,0.8602,-6.03,7.86,0.08,19.75
17591,0.1504,-0.2219,0.8643,-5.88,7.85,-0.08,19.74
17601,0.1484,-0.2178,0.8633,-5.82,7.73,-0.03,19.76
17611,0.1521,-0.218,0.8645,-5.92,7.68,-0.05,19.74
17621,0.1511,-0.2167,0.8655,-6.05,7.63,-0.08,19.74
17631,0.1552,-0.2169,0.8616,-6.08,7.77,-0.06,19.74
17641,0.1525,-0.2205,0.8635,-6.17,7.89,-0.06,19.75
17651,0.1515,-0.223,0.8625,-5.97,7.85,-0.02,19.75
17661,0.1495,-0.2236,0.8624,-6.05,7.79,-0.05,19.74
17671,0.1526,-0.2238,0.8634,-6.11,7.56,-0.02,19.75
17681,0.1525,-0.2228,0.8611,-5.88,7.51,-0.08,19.74
17691,0.1548,-0.2213,0.8636,-5.89,7.65,-0.05,19.73
17701,0.1534,-0.2201,0.8667,-5.91,7.85,0.14,19.75
17711,0.1487,-0.2181,0.8658,-5.89,7.94,0.03,19.73
17721,0.1499,-0.2196,0.866,-5.97,7.85,-0.02,19.74
17731,0.1505,-0.2152,0.8679,-6.08,7.59,-0.03,19.74
17741,0.1488,-0.2205,0.8635,-6.08,7.6,-0.03,19.76
17751,0.1482,-0.2218,0.8628,-6.08,7.82,0.0,19.78
17761,0.1512,-0.2213,0.8633,-6.03,7.92,-0.06,19.72
17771,0.1504,-0.2207,0.8689,-5.83,7.91,0.03,19.72
17781,0.1504,-0.224,0.8705,-5.85,7.79,0.11,19.72
17791,0.1489,-0.2211,0.8691,-5.91,7.56,-0.05,19.73
17801,0.151,-0.2202,0.8666,-6.0,7.51,-0.08,19.76
17811,0.1522,-0.2207,0.8663,-6.03,7.68,-0.06,19.71
17821,0.1505,-0.2196,0.8652,-6.0,7.89,0.02,19.74
17831,0.1486,-0.2198,0.8656,-6.03,7.82,-0.02,19.74
17841,0.1478,-0.218,0.8655,-5.85,7.71,0.0,19.74
17851,0.1514,-0.2191,0.8669,-5.83,7.51,-0.14,19.77
17861,0.1539,-0.2167,0.8644,-5.95,7.5,-0.05,19.75
17871,0.1541,-0.2188,0.8668,-6.02,7.65,-0.02,19.74
17881,0.1528,-0.2169,0.8694,-6.09,7.86,-0.03,19.74
17891,0.1506,-0.2188,0.8633,-6.06,7.88,-0.02,19.77
17901,0.1497,-0.2191,0.8628,-6.11,7.73,-0.09,19.75
17911,0.1521,-0.2202,0.8652,-5.89,7.6,-0.05,19.73
17921,0.1505,-0.2195,0.8655,-5.92,7.56,-0.05,19.74
17931,0.1531,-0.2186,0.8645,-6.02,7.66,-0.05,19.73
17941,0.151,-0.223,0.864,-6.06,7.8,-0.02,19.75
17951,0.1512,-0.2219,0.866,-6.05,7.92,0.0,19.72
17961,0.1487,-0.2229,0.8672,-6.08,7.73,-0.03,19.75
17971,0.1493,-0.2236,0.86,-6.14,7.6,-0.02,19.77
17981,0.1489,-0.222,0.8612,-6.02,7.54,-0.03,19.74
17991,0.1511,-0.2224,0.8644,-5.95,7.69,0.03,19.75
18001,0.1516,-0.2234,0.8612,-5.91,7.66,-0.03,19.75
18011,0.1519,-0.2212,0.8622,-5.91,7.79,-0.06,19.75
18021,0.1519,-0.2212,0.8671,-5.92,7.69,-0.05,19.78
18031,0.1538,-0.2214,0.8666,-6.06,7.66,-0.11,19.77
18041,0.1519,-0.2179,0.864,-6.17,7.63,-0.08,19.74
18051,0.1539,-0.2217,0.8573,-6.24,7.71,-0.12,19.76
18061,0.1508,-0.2236,0.8602,-6.08,7.79,-0.11,19.76
18071,0.1512,-0.2222,0.8617,-5.91,7.79,0.11,19.76
18081,0.151,-0.225,0.8645,-5.79,7.59,-0.06,19.77
18091,0.1503,-0.2246,0.8646,-5.88,7.62,-0.02,19.78
18101,0.1533,-0.2203,0.8696,-6.12,7.63,-0.08,19.75
18111,0.1517,-0.2236,0.8665,-6.15,7.74,-0.03,19.74
18121,0.1522,-0.2234,0.8641,-6.09,7.82,-0.02,19.77
18131,0.1497,-0.2241,0.8611,-6.0,7.74,-0.02,19.77
18141,0.1514,-0.2222,0.8638,-5.95,7.74,-0.09,19.76
18151,0.1508,-0.2208,0.8665,-5.88,7.59,-0.09,19.74
18161,0.1497,-0.2202,0.8628,-5.91,7.56,-0.06,19.76
18171,0.1526,-0.2206,0.8625,-5.92,7.53,-0.05,19.74
18181,0.1522,-0.2185,0.8649,-6.06,7.62,-0.06,19.75
18191,0.1547,-0.2172,0.8643,-6.06,7.73,0.03,19.75
18201,0.1503,-0.2224,0.8667,-6.02,7.83,-0.06,19.76
18211,0.1503,-0.2205,0.8635,-6.03,7.74,-0.06,19.76
18221,0.149,-0.2205,0.864,-6.15,7.65,0.03,19.74
18231,0.1527,-0.2192,0.8643,-5.94,7.68,-0.05,19.76
18241,0.1503,-0.2194,0.8652,-5.91,7.65,-0.05,19.75
18251,0.1508,-0.2196,0.8636,-5.91,7.71,-0.03,19.74
18261,0.1484,-0.2185,0.8683,-5.79,7.65,-0.06,19.76
18271,0.1498,-0.2174,0.871,-5.98,7.57,-0.08,19.76
18281,0.1473,-0.2209,0.8693,-6.12,7.62,-0.05,19.77
18291,0.1511,-0.2211,0.8635,-6.18,7.56,-0.05,19.77
18301,0.151,-0.2206,0.8628,-6.2,7.73,0.0,19.77
18311,0.1509,-0.2212,0.8629,-5.95,7.83,-0.05,19.74
18321,0.1503,-0.2228,0.865,-5.85,7.74,0.02,19.77
18331,0.1514,-0.2257,0.8644,-5.71,7.62,-0.05,19.73
18341,0.1447,-0.2209,0.8604,-5.47,6.9,-0.17,19.77
18351,0.1533,-0.2163,0.8663,-5.31,6.69,-0.23,19.77
18361,0.163,-0.2217,0.8745,-5.88,7.6,0.02,19.73
18371,0.1533,-0.2192,0.8658,-6.23,8.18,-0.03,19.76
18381,0.1475,-0.2217,0.8604,-5.97,8.03,0.0,19.75
18391,0.1499,-0.2235,0.8682,-5.69,7.44,-0.12,19.77
18401,0.1495,-0.2241,0.8674,-5.69,6.92,0.05,19.79
18411,0.1577,-0.2256,0.8713,-5.76,7.33,-0.09,19.75
18421,0.1542,-0.2273,0.8665,-6.2,8.0,-0.02,19.74
18431,0.1475,-0.2231,0.8611,-6.2,8.05,0.0,19.76
18441,0.1493,-0.2207,0.8624,-5.82,7.63,0.0,19.77
18451,0.1531,-0.2234,0.8635,-5.44,7.13,-0.21,19.75
18461,0.1493,-0.2205,0.8619,-5.37,6.92,-0.12,19.77
18471,0.1525,-0.2184,0.8634,-5.37,7.08,-0.06,19.75
18481,0.1542,-0.2184,0.8666,-5.47,7.59,-0.02,19.75
18491,0.1548,-0.2208,0.8678,-5.66,7.83,-0.05,19.75
18501,0.1511,-0.222,0.868,-5.66,7.74,-0.05,19.76
18511,0.1514,-0.2247,0.8694,-5.65,7.4,-0.09,19.76
18521,0.1522,-0.2247,0.8646,-5.56,7.27,-0.08,19.76
18531,0.1543,-0.2246,0.8643,-5.4,7.25,-0.12,19.75
18541,0.1531,-0.2207,0.8688,-5.5,7.54,-0.03,19.75
18551,0.1542,-0.22,0.8726,-5.83,7.92,0.15,19.76
18561,0.1505,-0.2189,0.8718,-6.15,8.0,0.11,19.78
18571,0.1519,-0.2208,0.869,-6.49,7.86,0.08,19.77
18581,0.1487,-0.2224,0.8706,-6.46,7.77,-0.06,19.77
18591,0.1471,-0.2262,0.8414,-5.16,7.13,-0.41,19.78
18601,0.132,-0.2208,0.832,-2.63,7.13,-2.27,19.77
18611,0.1561,-0.2274,0.8403,-0.18,6.29,-3.4,19.79
18621,0.1572,-0.2191,0.864,0.5,6.12,-2.9,19.78
18631,0.1886,-0.2188,0.9291,-1.66,6.67,-1.54,19.76
18641,0.1489,-0.1868,0.9229,-6.52,7.85,1.05,19.77
18651,0.168,-0.2037,0.9056,-10.76,10.58,-0.44,19.77
18661,0.1494,-0.2201,0.8574,-11.73,9.77,0.75,19.76
18671,0.1493,-0.2332,0.8353,-9.62,8.49,0.98,19.74
18681,0.1429,-0.2139,0.8268,-6.31,6.32,1.28,19.77
18691,0.1624,-0.2029,0.8641,-5.1,7.27,0.64,19.78
18701,0.1696,-0.2063,0.9054,-7.39,9.48,1.22,19.77
18711,0.1466,-0.2065,0.8975,-10.49,10.82,1.74,19.77
18721,0.1277,-0.2172,0.8492,-10.66,9.86,0.44,19.78
18731,0.1414,-0.2328,0.8268,-8.11,6.98,-0.35,19.76
18741,0.1512,-0.2313,0.8279,-5.3,5.37,-0.14,19.76
18751,0.1577,-0.2223,0.8383,-3.53,6.38,-0.31,19.78
18761,0.1589,-0.2201,0.8665,-3.25,7.62,0.18,19.77
18771,0.1573,-0.2118,0.9033,-5.4,9.31,0.35,19.77
18781,0.1448,-0.2158,0.9016,-8.27,10.64,-0.21,19.79
18791,0.1294,-0.2324,0.8612,-8.64,8.78,0.06,19.79
18801,0.1354,-0.2335,0.8381,-6.15,5.44,-0.49,19.75
18811,0.1631,-0.2234,0.8518,-4.32,4.87,-0.38,19.77
18821,0.1705,-0.2178,0.8658,-4.76,7.76,-0.11,19.76
18831,0.153,-0.215,0.8707,-5.82,9.86,0.43,19.78
18841,0.1406,-0.2201,0.8773,-6.66,9.51,0.18,19.77
18851,0.1389,-0.2246,0.88,-7.42,8.14,0.0,19.78
18861,0.1426,-0.2269,0.8534,-6.76,6.44,-0.37,19.76
18871,0.1573,-0.2261,0.8478,-5.22,5.69,-0.26,19.77
18881,0.1652,-0.2174,0.8628,-4.55,7.13,-0.02,19.75
18891,0.1583,-0.2134,0.8806,-5.04,9.1,0.31,19.78
18901,0.1456,-0.214,0.881,-5.97,9.28,0.17,19.77
18911,0.1379,-0.2168,0.88,-6.84,7.95,-0.08,19.76
18921,0.146,-0.219,0.868,-7.13,6.82,-0.32,19.77
18931,0.1566,-0.2211,0.8491,-6.73,6.72,-0.23,19.78
18941,0.1615,-0.2229,0.8462,-5.76,7.51,-0.08,19.76
18951,0.1576,-0.2228,0.8645,-5.21,8.64,0.2,19.78
18961,0.1521,-0.2206,0.8738,-5.4,8.96,0.26,19.77
18971,0.1442,-0.2192,0.8772,-5.92,7.83,0.03,19.75
18981,0.1523,-0.2228,0.8754,-6.46,6.75,-0.12,19.78
18991,0.1565,-0.222,0.8599,-6.69,6.81,-0.17,19.76
19001,0.1595,-0.2227,0.8507,-6.37,7.77,0.0,19.77
19011,0.1584,-0.2239,0.8568,-5.76,8.7,0.09,19.77
19021,0.1523,-0.2217,0.8699,-5.62,8.9,0.2,19.76
19031,0.1432,-0.2229,0.8711,-5.77,7.97,0.02,19.76
19041,0.144,-0.2218,0.87,-6.05,6.95,-0.18,19.76
19051,0.1536,-0.2235,0.863,-6.26,6.7,-0.14,19.76
19061,0.1565,-0.2173,0.8511,-6.15,7.62,-0.08,19.78
19071,0.1549,-0.2189,0.8567,-5.79,8.44,0.08,19.76
19081,0.1483,-0.217,0.8665,-5.53,8.5,0.15,19.77
19091,0.1447,-0.2163,0.8746,-5.65,7.85,0.05,19.77
19101,0.1486,-0.2151,0.8824,-5.85,7.07,-0.06,19.78
19111,0.1554,-0.2179,0.8723,-6.41,7.08,-0.18,19.77
19121,0.1572,-0.217,0.8611,-6.61,7.76,-0.08,19.78
19131,0.1544,-0.2229,0.8584,-6.35,8.43,0.11,19.78
19141,0.147,-0.2244,0.8564,-5.94,8.52,0.14,19.77
19151,0.142,-0.219,0.8632,-5.66,7.73,0.08,19.8
19161,0.1494,-0.2125,0.8713,-5.57,6.95,-0.11,19.78
19171,0.1526,-0.2133,0.8689,-5.68,6.84,-0.18,19.75
19181,0.1567,-0.2113,0.8685,-6.02,7.63,-0.11,19.79
19191,0.1534,-0.2142,0.8657,-6.32,8.2,-0.06,19.78
19201,0.153,-0.2206,0.8698,-6.41,8.34,-0.06,19.78
19211,0.1482,-0.2206,0.8647,-6.32,7.91,-0.09,19.79
19221,0.1503,-0.2217,0.8605,-6.17,7.3,-0.2,19.77
19231,0.1552,-0.2222,0.8582,-6.11,7.16,-0.17,19.77
19241,0.1582,-0.2194,0.8593,-5.85,7.54,-0.09,19.79
19251,0.1542,-0.2191,0.8623,-5.8,8.05,-0.03,19.8
19261,0.1493,-0.218,0.8674,-5.79,8.06,0.08,19.77
19271,0.1476,-0.2172,0.8716,-5.79,7.65,-0.06,19.75
19281,0.1488,-0.2148,0.8715,-6.0,7.37,-0.21,19.77
19291,0.1533,-0.2129,0.8708,-6.32,7.45,-0.14,19.79
19301,0.1517,-0.2175,0.8676,-6.47,7.82,-0.09,19.78
19311,0.1521,-0.2194,0.863,-6.56,8.26,-0.03,19.79
19321,0.1467,-0.2235,0.8621,-6.4,8.21,-0.05,19.77
19331,0.1465,-0.2238,0.8605,-6.26,7.73,-0.06,19.76
19342,0.1494,-0.2223,0.8628,-6.14,7.34,-0.03,19.77
19352,0.1527,-0.2218,0.8612,-6.15,7.37,0.0,19.75
19362,0.1531,-0.2223,0.8629,-6.11,7.69,-0.11,19.77
19372,0.1533,-0.2211,0.8632,-6.2,8.18,0.06,19.77
19382,0.1515,-0.2244,0.8617,-6.18,8.08,0.0,19.79
19392,0.1459,-0.2251,0.866,-6.06,7.8,-0.02,19.77
19402,0.1499,-0.2262,0.8646,-6.17,7.5,-0.11,19.78
19412,0.1531,-0.2269,0.8625,-6.08,7.53,0.02,19.76
19422,0.1526,-0.2263,0.8607,-6.03,7.77,-0.02,19.79
19432,0.1527,-0.2288,0.8673,-5.83,7.85,0.05,19.79
19442,0.15,-0.2262,0.8679,-5.79,7.8,-0.06,19.77
19452,0.15,-0.2234,0.8707,-5.88,7.65,-0.05,19.76
19462,0.1512,-0.2244,0.8727,-5.97,7.53,-0.12,19.79
19472,0.1515,-0.22,0.8678,-6.09,7.65,-0.14,19.79
19482,0.1573,-0.2222,0.8672,-5.98,7.88,0.02,19.74
19492,0.1509,-0.2229,0.8722,-5.97,7.97,0.05,19.79
19502,0.1512,-0.2261,0.8707,-5.82,7.68,-0.03,19.77
19512,0.1538,-0.2231,0.8704,-5.79,7.51,-0.05,19.77
19522,0.1561,-0.2223,0.8683,-6.02,7.39,-0.06,19.75
19532,0.1559,-0.22,0.8618,-6.06,7.63,-0.03,19.79
19542,0.157,-0.224,0.8606,-6.15,7.86,0.03,19.77
19552,0.1504,-0.2191,0.8619,-6.11,8.14,0.05,19.77
19562,0.1499,-0.2216,0.8643,-5.91,7.88,0.03,19.77
19572,0.1509,-0.2202,0.8677,-5.83,7.57,0.02,19.77
19582,0.1501,-0.2209,0.8657,-5.94,7.5,-0.05,19.76
19592,0.1512,-0.2197,0.8677,-6.11,7.57,-0.06,19.76
19602,0.1506,-0.2196,0.8632,-6.12,7.76,-0.05,19.78
19612,0.1526,-0.2222,0.8618,-6.09,7.89,-0.06,19.79
19622,0.1469,-0.2198,0.8567,-5.94,7.86,0.06,19.78
19632,0.1477,-0.2172,0.8623,-5.85,7.74,-0.05,19.78
19642,0.1505,-0.2168,0.8647,-5.91,7.63,-0.02,19.78
19652,0.1492,-0.217,0.8633,-5.97,7.66,0.0,19.78
19663,0.1522,-0.2173,0.8661,-6.14,7.77,0.0,19.77
19673,0.1475,-0.2159,0.8588,-6.32,7.82,-0.03,19.77
19683,0.1486,-0.2202,0.8586,-6.09,7.8,-0.09,19.76
19693,0.1504,-0.2223,0.8611,-5.97,7.68,-0.06,19.75
19703,0.1484,-0.2218,0.8647,-5.71,7.66,0.0,19.8
19713,0.1506,-0.2233,0.8635,-5.8,7.65,0.02,19.78
19723,0.1486,-0.2201,0.8695,-6.05,7.82,-0.05,19.77
19733,0.1504,-0.2234,0.8645,-6.14,7.8,0.0,19.79
19743,0.15,-0.222,0.8649,-5.79,7.63,-0.06,19.79
19753,0.152,-0.2209,0.8759,-5.5,7.62,-0.05,19.77
19763,0.1506,-0.2146,0.8806,-5.6,7.59,-0.09,19.79
19773,0.1532,-0.2161,0.8752,-5.76,7.44,-0.14,19.78
19783,0.1526,-0.2209,0.8728,-6.06,7.51,-0.11,19.75
19793,0.1523,-0.22,0.8728,-6.56,7.91,-0.21,19.83
19803,0.1503,-0.2197,0.8582,-6.53,7.95,-0.03,19.78
19813,0.1526,-0.2195,0.8596,-5.89,7.71,-0.05,19.8
19823,0.158,-0.2264,0.8636,-5.48,7.63,-0.02,19.8
19833,0.1559,-0.2214,0.8718,-5.42,7.53,-0.08,19.79
19843,0.1549,-0.2155,0.8722,-5.65,7.45,0.0,19.79
19853,0.1548,-0.2159,0.8748,-6.0,7.63,-0.06,19.79
19863,0.1537,-0.2188,0.8667,-6.34,7.82,-0.08,19.8
19873,0.1499,-0.2183,0.8606,-6.56,8.02,-0.03,19.81
19883,0.1495,-0.2228,0.8616,-6.5,8.0,0.15,19.79
19893,0.1493,-0.2242,0.8606,-6.31,8.27,-0.08,19.78
19903,0.1466,-0.2217,0.8624,-6.03,8.0,0.0,19.78
19913,0.1477,-0.2219,0.8683,-5.68,7.47,0.03,19.82
19923,0.1522,-0.2189,0.8658,-5.74,7.19,-0.09,19.77
19933,0.1509,-0.2208,0.8628,-5.83,7.33,-0.11,19.8
19943,0.1539,-0.2205,0.8597,-5.94,7.63,-0.12,19.79
19953,0.151,-0.2181,0.8632,-6.08,7.95,0.0,19.78
19963,0.1482,-0.2208,0.8617,-6.35,8.24,0.05,19.79
19973,0.1473,-0.2271,0.8668,-6.15,8.03,0.02,19.78
19983,0.1454,-0.2273,0.868,-5.85,7.56,0.05,19.79
19993,0.1508,-0.2242,0.8671,-5.65,7.4,-0.09,19.8
20003,0.1494,-0.2217,0.8674,-5.8,7.48,-0.15,19.78
20013,0.1528,-0.2217,0.8678,-5.97,7.66,0.0,19.79
20023,0.1536,-0.2206,0.8649,-6.12,7.82,-0.08,19.8
20033,0.1495,-0.2216,0.8672,-6.43,8.0,-0.03,19.79
20043,0.1487,-0.2227,0.8574,-6.29,7.86,-0.09,19.8
20053,0.1538,-0.2219,0.8584,-6.14,7.8,-0.09,19.81
20063,0.1564,-0.224,0.8613,-5.97,7.8,-0.05,19.8
20073,0.1511,-0.2202,0.8677,-5.73,7.86,0.02,19.79
20083,0.152,-0.2211,0.8755,-5.73,7.66,-0.05,19.79
20093,0.1533,-0.2186,0.8704,-5.88,7.57,-0.03,19.78
20103,0.15,-0.2169,0.8676,-6.05,7.53,-0.05,19.8
20113,0.1533,-0.218,0.8713,-6.09,7.54,-0.09,19.79
20123,0.1534,-0.2184,0.8651,-6.11,7.69,-0.05,19.79
20133,0.1525,-0.219,0.8607,-5.92,7.88,-0.05,19.77
20143,0.1516,-0.2205,0.8649,-5.83,7.69,-0.05,19.78
20153,0.1525,-0.2196,0.866,-5.77,7.66,-0.03,19.79
20163,0.1505,-0.2207,0.8689,-5.86,7.54,0.02,19.79
20173,0.1547,-0.2203,0.8665,-5.98,7.63,-0.11,19.77
20183,0.1509,-0.2194,0.8668,-6.09,7.69,0.03,19.82
20193,0.151,-0.2202,0.8595,-6.06,7.66,-0.05,19.78
20203,0.1515,-0.2205,0.8619,-5.94,7.65,-0.05,19.8
20213,0.1497,-0.2201,0.8651,-5.88,7.71,-0.11,19.81
20223,0.1494,-0.218,0.8663,-6.03,7.89,-0.06,19.78
20233,0.1498,-0.2183,0.863,-6.05,7.88,0.02,19.81
20243,0.1455,-0.2198,0.8604,-6.0,7.65,-0.02,19.81
20253,0.1512,-0.2214,0.8674,-6.15,7.6,-0.09,19.8
20263,0.1504,-0.2216,0.8657,-6.09,7.63,-0.05,19.78
20273,0.15,-0.2168,0.8663,-6.09,7.66,-0.03,19.81
20283,0.1495,-0.2195,0.8667,-6.02,7.66,-0.05,19.81
20293,0.1511,-0.2169,0.8646,-6.06,7.77,0.06,19.79
20303,0.1499,-0.2212,0.8655,-6.06,7.73,-0.06,19.8
20313,0.1512,-0.219,0.8672,-6.0,7.66,-0.08,19.79
20323,0.1512,-0.2201,0.8678,-5.86,7.62,-0.05,19.8
20333,0.1527,-0.2186,0.8739,-5.95,7.69,-0.09,19.79
20343,0.1541,-0.2185,0.8682,-6.17,7.74,-0.06,19.8
20353,0.153,-0.2217,0.8667,-6.29,7.8,-0.09,19.77
20363,0.1504,-0.2209,0.8657,-6.17,7.71,-0.09,19.79
20373,0.1527,-0.222,0.8629,-5.98,7.66,-0.12,19.79
20383,0.1521,-0.2205,0.8625,-5.79,7.62,-0.14,19.79
20393,0.1547,-0.2197,0.8665,-5.92,7.68,0.03,19.79
20403,0.1552,-0.2217,0.8677,-6.18,7.79,-0.02,19.79
20413,0.1523,-0.2225,0.8647,-6.2,7.77,-0.06,19.8
20423,0.1489,-0.2203,0.8657,-6.12,7.76,-0.05,19.79
20433,0.1501,-0.2241,0.863,-6.02,7.68,-0.06,19.77
20443,0.1512,-0.2241,0.8644,-6.08,7.71,-0.08,19.8
20453,0.1516,-0.2206,0.8635,-5.92,7.69,-0.03,19.79
20463,0.1521,-0.2223,0.8677,-5.95,7.69,-0.02,19.82
20473,0.1505,-0.2224,0.8688,-6.0,7.66,-0.06,19.81
20483,0.1527,-0.222,0.8657,-6.12,7.6,-0.11,19.8
20493,0.1508,-0.2229,0.8628,-6.08,7.6,-0.05,19.8
20503,0.1523,-0.2206,0.8646,-6.06,7.62,-0.02,19.79
20513,0.1526,-0.2222,0.8636,-6.12,7.88,-0.05,19.8
20523,0.15,-0.2229,0.8633,-6.05,7.89,-0.11,19.8
20533,0.151,-0.2228,0.8591,-6.0,7.73,0.0,19.8
20543,0.151,-0.2234,0.8633,-6.0,7.77,-0.02,19.81
20553,0.1494,-0.2223,0.8663,-5.8,7.65,-0.06,19.8
20563,0.1487,-0.222,0.866,-6.09,7.74,-0.08,19.79
20573,0.1514,-0.2192,0.863,-6.08,7.69,-0.03,19.79
20583,0.1521,-0.2209,0.8654,-5.98,7.76,-0.06,19.77
20593,0.1487,-0.2219,0.8646,-5.97,7.74,0.0,19.81
20603,0.15,-0.2225,0.8689,-6.03,7.77,0.02,19.79
20613,0.1501,-0.2201,0.8655,-5.86,7.63,-0.02,19.81
20623,0.1526,-0.2189,0.8674,-5.86,7.74,-0.09,19.8
20633,0.1522,-0.2214,0.8672,-6.0,7.73,-0.06,19.79
20643,0.1519,-0.2209,0.8666,-5.95,7.66,0.0,19.8
20653,0.1506,-0.2175,0.8632,-5.94,7.73,-0.06,19.79
20663,0.1515,-0.2177,0.8666,-5.98,7.71,-0.03,19.81
20673,0.152,-0.2195,0.8667,-6.03,7.65,-0.08,19.8
20683,0.1533,-0.2209,0.8671,-6.0,7.8,-0.08,19.79
20693,0.1525,-0.2222,0.866,-5.98,7.8,0.0,19.8
20703,0.1522,-0.2218,0.8706,-6.12,7.82,-0.03,19.8
20713,0.1481,-0.2197,0.8687,-6.12,7.85,0.02,19.81
20723,0.1532,-0.2229,0.8666,-6.21,7.94,-0.02,19.79
20733,0.151,-0.222,0.864,-6.17,7.8,-0.03,19.79
20743,0.1484,-0.2218,0.8671,-6.26,7.86,0.0,19.78
20753,0.1515,-0.2207,0.8606,-6.05,7.82,-0.09,19.79
20763,0.1505,-0.2207,0.8634,-5.98,7.86,-0.03,19.83
20773,0.1498,-0.2189,0.8646,-5.83,7.79,-0.09,19.8
20783,0.1486,-0.2163,0.8651,-5.85,7.62,-0.05,19.79
20793,0.15,-0.2172,0.8663,-5.91,7.56,-0.03,19.76
20803,0.1495,-0.2205,0.8699,-6.14,7.66,-0.05,19.81
20813,0.1472,-0.2188,0.8671,-6.08,7.73,-0.09,19.82
20823,0.1494,-0.2185,0.8577,-5.91,7.62,-0.02,19.81
20833,0.1509,-0.2184,0.8669,-5.89,7.76,-0.08,19.8
20843,0.1484,-0.2145,0.869,-5.83,7.69,-0.09,19.79
20853,0.1497,-0.2152,0.8694,-5.95,7.62,0.02,19.83
20863,0.1516,-0.2167,0.8679,-6.0,7.73,-0.02,19.81
20873,0.1479,-0.2231,0.8679,-6.08,7.77,-0.03,19.81
20883,0.1537,-0.2205,0.865,-6.21,7.82,-0.06,19.83
20893,0.1539,-0.224,0.863,-6.14,7.77,-0.12,19.81
20903,0.1528,-0.223,0.868,-6.06,7.74,-0.09,19.79
20913,0.1508,-0.2252,0.8676,-6.0,7.63,0.02,19.8
20923,0.1516,-0.2212,0.8687,-5.97,7.68,-0.05,19.79
20933,0.1494,-0.2208,0.8721,-5.94,7.68,0.06,19.82
20943,0.1516,-0.2244,0.8677,-5.94,7.73,0.0,19.79
20953,0.1542,-0.2202,0.8669,-6.06,7.71,-0.02,19.8
20963,0.1487,-0.2224,0.8678,-6.08,7.74,0.05,19.82
20973,0.1483,-0.2207,0.868,-6.11,7.73,-0.03,19.82
20983,0.1515,-0.2219,0.8663,-6.05,7.76,-0.02,19.81
20993,0.1497,-0.22,0.8627,-6.02,7.76,0.0,19.79
21003,0.1499,-0.2205,0.8625,-6.0,7.8,0.05,19.82
21013,0.1527,-0.2209,0.8621,-5.88,7.76,0.03,19.82
21023,0.1512,-0.2197,0.8677,-5.88,7.69,0.0,19.82
21033,0.1522,-0.2174,0.869,-5.83,7.69,0.06,19.81
21043,0.1541,-0.2205,0.8673,-5.94,7.66,-0.06,19.82
21053,0.1531,-0.2203,0.8687,-6.08,7.66,-0.11,19.79
21063,0.1509,-0.2192,0.8618,-6.15,7.76,-0.05,19.79
21073,0.1488,-0.222,0.861,-6.12,7.8,0.0,19.81
21083,0.1469,-0.2208,0.8585,-5.98,7.82,0.02,19.8
21093,0.1487,-0.222,0.8636,-5.95,7.76,-0.08,19.82
21103,0.1543,-0.2189,0.8682,-5.83,7.63,-0.06,19.79
21113,0.1487,-0.2201,0.8711,-5.98,7.54,-0.02,19.82
21123,0.1544,-0.22,0.8651,-6.03,7.6,-0.08,19.81
21133,0.1536,-0.2202,0.8685,-6.06,7.68,-0.02,19.81
21143,0.1492,-0.2212,0.8652,-6.06,7.74,0.03,19.82
21153,0.15,-0.2223,0.864,-5.94,7.66,0.0,19.82
21163,0.1503,-0.2233,0.8654,-5.97,7.63,0.03,19.83
21173,0.1503,-0.2184,0.8698,-6.05,7.65,-0.12,19.8
21183,0.1532,-0.2175,0.8695,-5.97,7.65,0.02,19.84
21193,0.1508,-0.2161,0.863,-6.06,7.74,0.03,19.83
21203,0.1508,-0.2207,0.8684,-5.92,7.69,0.06,19.81
21213,0.1477,-0.2156,0.8695,-6.05,7.76,-0.05,19.81
21223,0.1494,-0.2168,0.8669,-6.03,7.6,-0.05,19.83
21233,0.1501,-0.2188,0.8685,-6.09,7.65,-0.15,19.81
21243,0.1525,-0.2231,0.8646,-6.0,7.74,-0.03,19.84
21253,0.1522,-0.2236,0.8679,-6.02,7.74,-0.06,19.8
21263,0.1511,-0.2219,0.8707,-6.17,7.74,-0.08,19.8
21273,0.1527,-0.2197,0.8666,-6.17,7.63,-0.06,19.82
21283,0.1482,-0.22,0.8649,-6.17,7.6,0.0,19.8
21293,0.1488,-0.2202,0.8619,-6.11,7.57,-0.09,19.79
21303,0.1536,-0.2213,0.8591,-6.14,7.62,-0.14,19.8
21313,0.15,-0.2198,0.8619,-6.06,7.71,-0.12,19.82
21323,0.149,-0.2178,0.8634,-5.98,7.68,-0.02,19.81
21333,0.1503,-0.2178,0.8676,-6.0,7.66,-0.05,19.84
21343,0.1512,-0.218,0.8671,-6.18,7.54,-0.09,19.83
21353,0.1483,-0.2197,0.8605,-6.21,7.5,-0.11,19.84
21363,0.1492,-0.2218,0.8621,-6.29,7.65,-0.15,19.83
21373,0.1498,-0.2218,0.8644,-6.2,7.71,-0.06,19.81
21383,0.1504,-0.2228,0.8567,-5.98,7.76,-0.09,19.81
21393,0.1494,-0.223,0.8624,-6.02,7.8,-0.08,19.81
21403,0.152,-0.2205,0.8661,-6.06,7.73,-0.08,19.82
21413,0.1512,-0.223,0.869,-6.09,7.71,-0.12,19.82
21423,0.1532,-0.2206,0.8669,-6.23,7.71,-0.09,19.82
21433,0.1538,-0.2196,0.865,-6.29,7.65,-0.08,19.8
21443,0.1487,-0.219,0.8628,-6.21,7.69,-0.08,19.82
21453,0.1506,-0.2205,0.8636,-6.09,7.73,-0.06,19.8
21463,0.1533,-0.2195,0.861,-5.91,7.71,-0.09,19.81
21473,0.1515,-0.2228,0.8668,-5.94,7.68,-0.09,19.83
21483,0.1509,-0.2223,0.8718,-6.05,7.56,0.02,19.82
21493,0.1517,-0.2213,0.8677,-6.14,7.65,-0.05,19.82
21503,0.1522,-0.2239,0.8671,-6.29,7.63,-0.05,19.82
21513,0.153,-0.2217,0.8652,-6.24,7.6,-0.11,19.82
21523,0.1515,-0.2229,0.8624,-6.15,7.73,-0.09,19.84
21533,0.1514,-0.2197,0.8644,-6.02,7.73,-0.08,19.8
21543,0.1522,-0.2179,0.8662,-6.06,7.57,-0.03,19.8
21553,0.1506,-0.2238,0.8676,-6.11,7.57,-0.12,19.82
21563,0.1532,-0.2225,0.868,-6.26,7.65,-0.12,19.82
21573,0.152,-0.2219,0.8663,-6.37,7.63,-0.15,19.82
21583,0.1541,-0.2264,0.8643,-6.26,7.69,-0.06,19.84
21593,0.1515,-0.2241,0.8624,-6.29,7.71,-0.12,19.81
21603,0.15,-0.2219,0.8654,-6.11,7.62,-0.06,19.81
21613,0.1498,-0.222,0.8628,-6.0,7.45,-0.11,19.81
21623,0.1503,-0.219,0.8654,-6.05,7.53,-0.17,19.82
21633,0.151,-0.2206,0.866,-6.03,7.62,-0.06,19.82
21643,0.1549,-0.2234,0.8671,-6.08,7.73,-0.09,19.83
21653,0.1505,-0.2227,0.8733,-6.18,7.76,-0.08,19.8
21663,0.1516,-0.2206,0.87,-6.12,7.68,-0.08,19.82
21673,0.1481,-0.2179,0.8655,-6.14,7.5,-0.12,19.82
21683,0.1503,-0.2184,0.8658,-6.02,7.47,-0.23,19.82
21693,0.1494,-0.2229,0.8617,-5.89,7.62,-0.08,19.81
21703,0.1515,-0.2208,0.866,-5.85,7.74,-0.06,19.83
21713,0.1517,-0.2198,0.8682,-5.92,7.76,0.0,19.82
21723,0.1517,-0.2195,0.8657,-6.06,7.74,0.0,19.82
21733,0.1504,-0.2242,0.8668,-6.12,7.65,-0.11,19.82
21743,0.1514,-0.2229,0.8646,-6.14,7.68,-0.12,19.83
21753,0.1536,-0.2224,0.8613,-6.15,7.68,0.0,19.82
21763,0.1508,-0.2178,0.8633,-5.94,7.71,-0.06,19.81
21773,0.1512,-0.2174,0.8634,-5.8,7.77,-0.14,19.82
21783,0.1512,-0.2162,0.8683,-5.94,7.68,0.0,19.8
21793,0.1528,-0.2183,0.8687,-5.97,7.65,-0.05,19.82
21803,0.1547,-0.2184,0.8698,-6.15,7.6,-0.06,19.81
21813,0.1549,-0.2225,0.8652,-6.35,7.66,-0.14,19.82
21823,0.1522,-0.2256,0.8643,-6.35,7.91,-0.02,19.82
21833,0.1543,-0.2255,0.8621,-6.15,7.92,-0.09,19.83
21843,0.1554,-0.2275,0.8662,-6.11,7.71,-0.08,19.83
21853,0.1488,-0.2279,0.8641,-5.98,7.62,-0.03,19.81
21863,0.1505,-0.2242,0.8621,-5.86,7.53,-0.05,19.82
21873,0.1506,-0.2219,0.8628,-6.03,7.63,-0.08,19.85
21883,0.1517,-0.2194,0.8663,-5.89,7.51,0.0,19.82
21893,0.1519,-0.2266,0.8693,-5.97,7.79,0.06,19.83
21903,0.1482,-0.2166,0.8656,-6.18,7.95,-0.06,19.81
21913,0.1509,-0.2183,0.8628,-5.94,7.54,-0.05,19.83
21923,0.1517,-0.2247,0.8728,-5.83,7.37,-0.08,19.82
21933,0.1512,-0.2189,0.8673,-6.18,7.77,-0.17,19.82
21943,0.1501,-0.2173,0.8639,-6.02,7.79,-0.02,19.83
21953,0.1493,-0.222,0.8635,-5.94,7.5,0.03,19.84
21963,0.1521,-0.2213,0.863,-6.03,7.73,-0.06,19.84
21973,0.1514,-0.2214,0.8663,-6.11,7.66,-0.05,19.84
21983,0.1537,-0.2229,0.8668,-5.92,7.57,-0.03,19.81
21993,0.1555,-0.2234,0.8678,-6.09,7.71,0.06,19.82
22003,0.1533,-0.2236,0.8634,-6.29,7.95,-0.05,19.83
22013,0.1503,-0.2267,0.8657,-6.12,7.89,-0.03,19.83
22023,0.1528,-0.225,0.8616,-6.09,7.63,-0.03,19.82
22033,0.1531,-0.2257,0.8633,-6.02,7.66,-0.06,19.82
22043,0.1527,-0.2229,0.8623,-5.91,7.6,-0.03,19.82
22053,0.1525,-0.2236,0.866,-5.79,7.56,-0.06,19.84
22063,0.1522,-0.2213,0.8696,-5.88,7.73,-0.06,19.84
22073,0.153,-0.2202,0.8666,-6.11,7.82,-0.03,19.82
22083,0.1532,-0.2247,0.8701,-6.15,7.85,-0.11,19.83
22093,0.1488,-0.2205,0.865,-6.17,7.86,-0.02,19.82
22103,0.1531,-0.2214,0.8645,-6.03,7.73,0.02,19.84
22113,0.1521,-0.2218,0.8613,-6.02,7.73,-0.09,19.82
22123,0.15,-0.2197,0.8627,-5.77,7.68,0.0,19.82
22133,0.1493,-0.2211,0.8688,-5.88,7.71,-0.08,19.83
22143,0.152,-0.2169,0.8702,-6.12,7.79,-0.02,19.82
22153,0.151,-0.2198,0.8678,-6.29,8.03,0.0,19.84
22163,0.1522,-0.2244,0.8663,-6.27,7.92,-0.02,19.83
22173,0.1515,-0.2212,0.8668,-6.21,7.82,-0.02,19.84
22183,0.1501,-0.2256,0.8658,-6.0,7.71,-0.08,19.84
22193,0.1543,-0.2233,0.8652,-5.86,7.65,-0.09,19.82
22203,0.1539,-0.2236,0.8665,-6.0,7.73,0.03,19.81
22213,0.1523,-0.2261,0.8661,-5.98,7.79,-0.12,19.83
22223,0.1523,-0.2219,0.866,-5.89,7.71,-0.03,19.82
22233,0.1494,-0.2251,0.8639,-6.06,7.74,-0.03,19.82
22243,0.1511,-0.2227,0.8629,-5.88,7.8,-0.05,19.82
22253,0.1503,-0.2203,0.8689,-5.97,7.69,0.03,19.83
22263,0.1512,-0.2178,0.8624,-5.94,7.73,-0.05,19.83
22273,0.1497,-0.2185,0.8693,-6.08,7.77,0.03,19.84
22283,0.1503,-0.2173,0.8699,-6.14,7.76,0.02,19.85
22293,0.1501,-0.2211,0.8654,-6.2,7.68,-0.11,19.86
22303,0.1533,-0.22,0.8639,-6.14,7.71,-0.03,19.84
22313,0.1511,-0.2184,0.8632,-5.95,7.68,-0.03,19.84
22323,0.1494,-0.219,0.8647,-6.02,7.8,-0.02,19.83
22333,0.1532,-0.2207,0.8634,-5.83,7.71,-0.05,19.81
22343,0.1499,-0.2195,0.8663,-5.92,7.76,0.09,19.84
22353,0.1547,-0.2245,0.8677,-6.34,7.76,-0.05,19.84
22363,0.1511,-0.2214,0.8667,-6.26,7.79,0.0,19.84
22373,0.1528,-0.2247,0.8605,-6.2,7.79,-0.08,19.82
22383,0.1548,-0.2223,0.8571,-6.03,7.74,-0.11,19.83
22393,0.1508,-0.2225,0.859,-5.89,7.77,0.0,19.84
22403,0.1522,-0.2211,0.8644,-5.83,7.74,-0.03,19.84
22413,0.1521,-0.2201,0.8672,-5.98,7.82,0.08,19.83
22423,0.1533,-0.2211,0.8671,-6.14,7.82,-0.02,19.82
22433,0.153,-0.2233,0.8634,-6.2,7.69,0.02,19.83
22443,0.1528,-0.2208,0.8615,-6.02,7.69,-0.03,19.82
22453,0.1521,-0.2205,0.863,-5.95,7.71,-0.09,19.86
22463,0.1487,-0.219,0.8667,-5.88,7.82,-0.03,19.82
22473,0.1495,-0.2197,0.8641,-6.0,7.8,0.02,19.83
22483,0.1503,-0.2216,0.8668,-6.12,7.8,-0.05,19.82
22493,0.1509,-0.224,0.863,-6.12,7.79,0.0,19.84
22503,0.1532,-0.2209,0.8632,-6.17,7.76,-0.02,19.84
22513,0.1533,-0.2218,0.8617,-6.06,7.63,-0.08,19.83
22523,0.1506,-0.2224,0.8616,-6.0,7.68,-0.03,19.84
22533,0.1526,-0.2206,0.8666,-5.95,7.82,-0.02,19.82
22543,0.1536,-0.2207,0.8674,-5.92,7.66,0.03,19.84
22553,0.1515,-0.2206,0.8666,-6.03,7.66,0.02,19.83
22563,0.1521,-0.2234,0.8673,-6.17,7.82,-0.02,19.82
22573,0.1525,-0.2224,0.8673,-6.12,7.69,-0.03,19.84
22583,0.1525,-0.2207,0.8654,-6.06,7.79,-0.06,19.82
22593,0.1509,-0.2228,0.8649,-5.92,7.76,-0.05,19.83
22603,0.1519,-0.2203,0.868,-5.92,7.71,-0.05,19.84
22613,0.1537,-0.2214,0.8647,-6.0,7.62,-0.14,19.85
22623,0.1542,-0.2196,0.8655,-6.05,7.65,0.03,19.85
22633,0.1525,-0.2219,0.8636,-6.12,7.82,0.0,19.85
22643,0.1532,-0.2242,0.8649,-6.08,7.83,0.0,19.82
22653,0.152,-0.2207,0.8669,-5.89,7.79,-0.05,19.82
22663,0.1504,-0.2197,0.8655,-6.03,7.65,0.03,19.81
22673,0.1532,-0.2222,0.8678,-5.97,7.63,-0.05,19.83
22683,0.1523,-0.2202,0.8651,-6.12,7.63,0.0,19.85
22693,0.1526,-0.2197,0.8632,-6.12,7.71,-0.02,19.82
22703,0.1514,-0.219,0.8649,-6.06,7.8,-0.03,19.84
22713,0.1504,-0.2203,0.8645,-5.94,7.76,0.0,19.82
22723,0.1512,-0.2216,0.8646,-5.98,7.74,0.03,19.82
22733,0.1494,-0.2238,0.866,-5.94,7.73,-0.06,19.83
22743,0.1504,-0.2207,0.8654,-6.08,7.74,-0.05,19.82
22753,0.1523,-0.2213,0.8613,-6.14,7.73,-0.08,19.82
22763,0.1526,-0.2209,0.8566,-6.12,7.8,0.0,19.81
22773,0.1531,-0.2224,0.8633,-6.05,7.73,0.02,19.83
22783,0.1487,-0.2229,0.8635,-6.02,7.71,-0.06,19.83
22793,0.153,-0.2239,0.8689,-6.02,7.6,-0.03,19.85
22803,0.1533,-0.2213,0.866,-5.92,7.71,-0.15,19.84
22813,0.1505,-0.2217,0.8644,-6.08,7.73,-0.08,19.82
22823,0.1511,-0.2214,0.8641,-6.08,7.77,-0.05,19.82
22833,0.1508,-0.222,0.865,-5.97,7.74,-0.08,19.85
22843,0.1501,-0.2241,0.8638,-5.88,7.66,-0.12,19.85
22853,0.1514,-0.2261,0.8621,-5.77,7.56,-0.08,19.84
22863,0.1501,-0.2225,0.8662,-5.8,7.6,0.03,19.85
22873,0.1508,-0.2206,0.8672,-5.89,7.65,0.0,19.84
22883,0.1516,-0.2208,0.8715,-5.98,7.66,0.0,19.86
22893,0.1506,-0.2211,0.8652,-6.15,7.66,0.0,19.82
22903,0.1536,-0.2196,0.8684,-6.15,7.82,-0.05,19.83
22913,0.1499,-0.2192,0.8669,-6.11,7.73,-0.08,19.85
22923,0.1533,-0.2195,0.8672,-5.95,7.68,0.08,19.84
22933,0.153,-0.2219,0.8662,-5.97,7.69,0.03,19.84
22943,0.1497,-0.2207,0.8674,-6.05,7.69,-0.08,19.84
22953,0.1516,-0.2192,0.8667,-6.02,7.77,-0.05,19.82
22963,0.15,-0.2228,0.8647,-6.03,7.66,0.0,19.84
22973,0.1505,-0.2218,0.8643,-6.09,7.69,-0.08,19.83
22983,0.1539,-0.2213,0.8627,-6.11,7.71,-0.02,19.85
22993,0.1504,-0.2196,0.8654,-6.11,7.71,-0.02,19.84
23003,0.1523,-0.2233,0.866,-6.05,7.66,-0.02,19.85
23013,0.1525,-0.2216,0.8621,-6.0,7.66,0.05,19.86
23023,0.1536,-0.2217,0.8654,-6.09,7.8,-0.11,19.86
23033,0.1495,-0.2224,0.8693,-6.06,7.82,0.03,19.84
23043,0.1544,-0.2203,0.8644,-6.12,7.63,-0.09,19.83
23053,0.1537,-0.2258,0.8613,-6.06,7.68,-0.17,19.85
23063,0.1531,-0.223,0.8689,-5.95,7.79,-0.02,19.83
23073,0.1495,-0.2281,0.8658,-6.05,7.77,-0.03,19.86
23083,0.1514,-0.2234,0.8661,-5.95,7.74,-0.12,19.84
23093,0.1501,-0.2196,0.8638,-5.8,7.68,0.03,19.86
23103,0.1525,-0.2186,0.8658,-6.0,7.6,-0.05,19.84
23113,0.1497,-0.2196,0.8688,-6.08,7.6,-0.09,19.85
23123,0.1528,-0.2235,0.8619,-5.98,7.73,0.02,19.86
23133,0.1533,-0.2245,0.8633,-6.0,7.71,0.02,19.84
23143,0.1553,-0.2209,0.8661,-6.08,7.83,-0.02,19.84
23153,0.1516,-0.2216,0.8645,-5.97,7.86,0.06,19.87
23163,0.1533,-0.2231,0.8687,-5.98,7.76,0.0,19.86
23173,0.1501,-0.2203,0.8636,-5.98,7.79,-0.03,19.84
23183,0.1538,-0.2219,0.8627,-5.88,7.71,-0.11,19.84
23193,0.152,-0.219,0.8599,-5.94,7.65,0.06,19.84
23203,0.1516,-0.2192,0.8661,-5.91,7.8,-0.05,19.84
23213,0.1501,-0.2216,0.8662,-6.03,7.77,0.08,19.85
23223,0.1461,-0.2217,0.8695,-5.94,7.77,-0.03,19.84
23233,0.1503,-0.2213,0.8593,-5.85,7.56,-0.06,19.84
23243,0.1533,-0.2217,0.8613,-5.65,7.25,-0.03,19.84
23253,0.1543,-0.2148,0.8602,-5.48,7.37,0.0,19.84
23263,0.1541,-0.2177,0.8652,-5.83,7.68,-0.03,19.85
23273,0.1549,-0.2189,0.8643,-5.98,7.73,-0.02,19.86
23283,0.1532,-0.2173,0.8687,-6.05,7.91,-0.03,19.86
23293,0.1549,-0.2228,0.8655,-6.11,7.85,0.06,19.85
23303,0.1505,-0.2222,0.8651,-6.08,7.76,-0.05,19.84
23313,0.1516,-0.2184,0.8666,-6.09,7.71,-0.06,19.83
23323,0.1515,-0.2198,0.8633,-6.05,7.69,-0.06,19.86
23333,0.1497,-0.217,0.8662,-5.98,7.71,-0.05,19.87
23343,0.15,-0.2205,0.8643,-6.05,7.83,-0.03,19.87
23353,0.1488,-0.2206,0.868,-5.97,7.76,-0.06,19.85
23363,0.1488,-0.22,0.8663,-6.02,7.63,-0.05,19.86
23373,0.1515,-0.2227,0.8647,-6.05,7.68,-0.09,19.86
23383,0.1521,-0.2219,0.8638,-6.08,7.71,-0.09,19.84
23393,0.1519,-0.2209,0.8618,-5.98,7.82,-0.05,19.86
23403,0.1519,-0.2222,0.8674,-6.0,7.83,-0.03,19.85
23413,0.1516,-0.2223,0.8643,-6.0,7.73,-0.11,19.87
23423,0.1517,-0.2209,0.8633,-5.95,7.66,-0.08,19.88
23433,0.1541,-0.2227,0.8661,-6.03,7.63,0.0,19.87
23443,0.1501,-0.2236,0.8704,-6.02,7.62,-0.08,19.85
23453,0.1538,-0.2219,0.863,-5.98,7.76,-0.06,19.84
23463,0.1547,-0.2224,0.8657,-5.94,7.73,0.02,19.83
23473,0.1519,-0.2235,0.8698,-5.91,7.8,-0.02,19.84
23483,0.1528,-0.2228,0.8684,-6.05,7.63,0.0,19.84
23493,0.1494,-0.2231,0.8627,-6.03,7.76,-0.03,19.84
23503,0.1487,-0.2218,0.8601,-5.97,7.66,-0.03,19.86
23513,0.152,-0.2201,0.8654,-5.8,7.63,0.03,19.82
23523,0.1499,-0.2181,0.8669,-5.88,7.63,-0.08,19.83
23533,0.1517,-0.2202,0.8633,-5.88,7.63,-0.11,19.86
23543,0.1539,-0.2188,0.8679,-5.85,7.66,0.0,19.84
23553,0.1567,-0.2217,0.8673,-6.03,7.82,-0.02,19.86
23563,0.1509,-0.2209,0.866,-5.97,7.79,-0.03,19.86
23573,0.1505,-0.2214,0.8669,-5.98,7.73,-0.06,19.86
23583,0.1525,-0.2244,0.868,-5.98,7.63,-0.05,19.88
23593,0.1495,-0.2225,0.8636,-6.0,7.6,0.02,19.84
23603,0.1528,-0.2223,0.866,-5.98,7.66,-0.08,19.84
23613,0.1537,-0.2183,0.8658,-6.08,7.73,0.02,19.86
23623,0.1487,-0.22,0.8623,-6.03,7.8,-0.08,19.86
23633,0.1508,-0.2223,0.8656,-6.03,7.74,-0.08,19.85
23643,0.1536,-0.22,0.8668,-6.12,7.6,-0.05,19.84
23653,0.1522,-0.2198,0.8652,-6.08,7.59,-0.03,19.84
23663,0.1537,-0.2229,0.8668,-6.0,7.56,-0.05,19.85
23673,0.1531,-0.2238,0.8652,-5.97,7.56,-0.12,19.86
23683,0.1525,-0.2229,0.8615,-5.92,7.59,-0.11,19.86
23693,0.1514,-0.2211,0.8652,-6.0,7.69,0.02,19.87
23703,0.1527,-0.2231,0.8661,-5.97,7.79,0.03,19.84
23713,0.1519,-0.2246,0.8625,-6.09,7.82,0.0,19.87
23723,0.1511,-0.2207,0.8644,-6.15,7.8,0.0,19.85
23733,0.1498,-0.223,0.8661,-5.98,7.69,-0.12,19.84
23743,0.1539,-0.2212,0.8654,-5.91,7.73,-0.06,19.88
23753,0.1517,-0.2225,0.8612,-5.94,7.63,-0.05,19.86
23763,0.1503,-0.2184,0.8657,-6.02,7.76,-0.11,19.86
23773,0.1523,-0.219,0.8678,-6.02,7.76,-0.05,19.83
23783,0.1515,-0.2183,0.8634,-6.0,7.77,-0.06,19.86
23793,0.151,-0.2191,0.8645,-5.95,7.71,-0.05,19.84
23803,0.15,-0.2219,0.8666,-6.05,7.69,-0.03,19.84
23813,0.1493,-0.2196,0.8636,-5.91,7.71,-0.11,19.87
23823,0.1512,-0.2225,0.8647,-6.06,7.68,-0.06,19.84
23833,0.1536,-0.2213,0.8667,-6.12,7.71,-0.06,19.83
23843,0.1537,-0.2209,0.8687,-6.03,7.65,0.03,19.84
23853,0.1541,-0.2218,0.8629,-6.11,7.74,-0.03,19.84
23863,0.1522,-0.2224,0.8602,-6.09,7.71,-0.03,19.84
23873,0.1509,-0.2216,0.8608,-5.85,7.66,-0.08,19.82
23883,0.1505,-0.2196,0.8649,-5.79,7.8,0.0,19.86
23893,0.1532,-0.2188,0.8685,-5.89,7.77,0.0,19.87
23903,0.1554,-0.2202,0.8679,-6.03,7.77,-0.11,19.84
23913,0.1493,-0.2158,0.8662,-6.18,7.85,-0.02,19.84
23923,0.1498,-0.2207,0.8662,-6.34,7.86,-0.05,19.84
23933,0.1531,-0.2269,0.8654,-6.26,7.98,0.03,19.87
23943,0.1497,-0.2249,0.8643,-6.09,7.74,-0.08,19.86
23953,0.1514,-0.2224,0.8611,-5.94,7.56,0.02,19.83
23963,0.1521,-0.2229,0.8651,-6.0,7.5,-0.08,19.85
23973,0.1527,-0.2203,0.8647,-6.05,7.62,-0.02,19.85
23983,0.1544,-0.218,0.8644,-6.2,7.8,0.02,19.85
23993,0.1538,-0.2197,0.8655,-6.17,7.91,-0.12,19.85
24003,0.1521,-0.2209,0.8688,-6.12,7.91,-0.06,19.85
24013,0.1464,-0.2281,0.8767,-5.97,8.11,-0.11,19.84
24023,0.1528,-0.2249,0.8688,-5.94,7.66,-0.17,19.86
24033,0.1514,-0.2239,0.8628,-5.92,7.4,0.2,19.88
24043,0.1451,-0.2207,0.8679,-5.76,7.5,-0.56,19.86
24053,0.1486,-0.2198,0.8685,-5.86,7.28,0.05,19.87
24063,0.1565,-0.2153,0.8634,-6.27,7.95,0.11,19.87
24073,0.1553,-0.2216,0.8636,-6.53,8.43,-0.02,19.85
24083,0.1439,-0.2238,0.8693,-6.44,8.12,0.02,19.86
24093,0.1459,-0.224,0.8663,-6.11,7.63,-0.06,19.86
24103,0.1481,-0.2267,0.861,-5.65,7.24,-0.17,19.84
24113,0.1567,-0.2212,0.8649,-5.47,7.11,-0.06,19.85
24123,0.1558,-0.2208,0.8698,-5.8,7.63,0.03,19.87
24133,0.1537,-0.2219,0.8684,-6.29,8.31,0.11,19.87
24143,0.1515,-0.2219,0.8685,-6.37,8.29,-0.03,19.86
24153,0.1492,-0.2234,0.8655,-6.21,7.77,0.02,19.88
24163,0.1526,-0.2213,0.8607,-5.85,7.33,-0.09,19.85
24173,0.1537,-0.219,0.8616,-5.57,7.34,-0.11,19.87
24183,0.1523,-0.22,0.8665,-5.65,7.77,0.03,19.86
24193,0.1523,-0.2218,0.871,-6.0,8.23,0.12,19.85
24203,0.1471,-0.2225,0.8679,-6.24,8.21,0.08,19.87
24213,0.1471,-0.2225,0.8646,-6.29,7.73,0.03,19.85
24223,0.1478,-0.2192,0.8607,-6.03,7.42,-0.02,19.85
24233,0.1522,-0.2203,0.8597,-5.73,7.33,-0.02,19.83
24243,0.1519,-0.214,0.8636,-5.6,7.63,-0.09,19.84
24253,0.151,-0.2157,0.8676,-5.82,7.98,0.0,19.85
24263,0.1492,-0.2156,0.8708,-6.15,8.09,0.06,19.85
24273,0.147,-0.2185,0.8679,-6.29,7.91,-0.05,19.85
24283,0.1527,-0.2212,0.8597,-6.24,7.59,-0.08,19.86
24293,0.1516,-0.2191,0.8618,-6.06,7.62,-0.05,19.84
24303,0.1523,-0.2198,0.8632,-5.85,7.63,0.0,19.85
24313,0.1539,-0.2219,0.8679,-5.83,7.79,0.05,19.85
24323,0.1538,-0.2186,0.8685,-5.91,7.91,-0.02,19.87
24333,0.1505,-0.2208,0.8677,-6.14,7.85,0.02,19.85
24343,0.1505,-0.219,0.8684,-6.23,7.59,-0.08,19.87
24353,0.1521,-0.2177,0.8617,-6.2,7.62,-0.05,19.87
24363,0.1505,-0.2227,0.8666,-6.03,7.69,-0.09,19.87
24373,0.1542,-0.2225,0.8658,-5.94,7.97,0.05,19.85
24383,0.1532,-0.2217,0.871,-6.0,7.89,0.0,19.86
24393,0.149,-0.2253,0.8715,-6.09,7.71,0.02,19.82
24403,0.1494,-0.2236,0.8696,-6.24,7.57,-0.06,19.86
24413,0.1517,-0.2236,0.8612,-6.09,7.59,-0.05,19.85
24423,0.152,-0.2235,0.8634,-6.09,7.82,0.03,19.85
24433,0.1503,-0.2223,0.8596,-5.86,8.0,0.0,19.86
24443,0.1494,-0.2206,0.8646,-5.82,7.89,0.09,19.86
24453,0.1462,-0.2191,0.8685,-5.88,7.59,-0.05,19.88
24463,0.1493,-0.2194,0.8689,-6.0,7.4,-0.11,19.86
24473,0.1522,-0.2209,0.8652,-6.11,7.63,-0.09,19.87
24483,0.1539,-0.2241,0.8641,-5.98,7.95,0.05,19.86
24493,0.1554,-0.2262,0.8644,-5.94,8.26,0.05,19.87
24503,0.1489,-0.228,0.8724,-5.91,8.09,-0.05,19.85
24513,0.149,-0.2256,0.869,-5.98,7.62,-0.05,19.87
24523,0.1504,-0.2222,0.8618,-5.98,7.3,-0.08,19.85
24533,0.1528,-0.2244,0.8599,-6.12,7.56,0.03,19.86
24543,0.1547,-0.2197,0.856,-5.82,7.95,0.0,19.86
24553,0.151,-0.2214,0.865,-5.71,8.11,0.05,19.84
24563,0.1461,-0.2222,0.8707,-5.69,7.95,0.05,19.86
24573,0.1488,-0.2157,0.8757,-5.79,7.73,0.08,19.86
24583,0.1489,-0.2161,0.8702,-5.97,7.33,-0.11,19.85
24593,0.1519,-0.2202,0.8672,-6.23,7.56,-0.11,19.86
24603,0.1522,-0.2191,0.86,-6.26,7.86,-0.08,19.87
24613,0.1538,-0.2216,0.8588,-6.02,8.0,-0.05,19.87
24623,0.1478,-0.2196,0.8647,-5.76,7.91,-0.02,19.88
24633,0.1521,-0.2195,0.8669,-5.62,7.56,-0.06,19.86
24643,0.155,-0.2192,0.8691,-5.8,7.28,0.02,19.85
24653,0.1562,-0.215,0.8663,-6.03,7.37,-0.09,19.88
24663,0.1578,-0.2177,0.8649,-6.15,7.65,-0.03,19.87
24673,0.1605,-0.2161,0.8628,-6.17,7.88,-0.02,19.87
24683,0.1562,-0.2161,0.8645,-6.14,7.91,-0.02,19.87
24693,0.1533,-0.2159,0.8645,-5.97,7.77,-0.11,19.88
24703,0.1534,-0.2147,0.8673,-5.88,7.59,-0.09,19.86
24713,0.1545,-0.2184,0.8643,-6.06,7.65,-0.09,19.89
24723,0.1534,-0.2197,0.8657,-6.14,7.69,-0.09,19.87
24733,0.1515,-0.2194,0.8658,-6.17,7.97,-0.03,19.86
24743,0.15,-0.2261,0.8673,-6.09,7.86,-0.08,19.86
24753,0.1477,-0.2242,0.87,-5.98,7.68,-0.05,19.84
24763,0.1493,-0.2214,0.8645,-5.91,7.54,-0.11,19.87
24773,0.1471,-0.2223,0.8689,-6.08,7.51,-0.17,19.87
24783,0.1511,-0.2217,0.8684,-6.2,7.53,-0.11,19.87
24793,0.1494,-0.2227,0.8644,-6.11,7.68,-0.02,19.87
24803,0.1489,-0.2222,0.8661,-6.09,7.74,-0.05,19.87
24813,0.1503,-0.2209,0.8704,-5.95,7.66,-0.06,19.87
24823,0.1506,-0.222,0.8632,-5.98,7.57,-0.14,19.85
24833,0.1492,-0.2194,0.8688,-5.92,7.5,-0.08,19.84
24843,0.153,-0.22,0.8616,-6.02,7.62,-0.08,19.87
24853,0.1512,-0.2225,0.8668,-6.08,7.73,-0.02,19.88
24863,0.1516,-0.2184,0.8691,-6.05,7.79,-0.05,19.82
24873,0.1536,-0.2196,0.8671,-6.08,7.79,-0.11,19.87
24883,0.1544,-0.2159,0.8667,-6.05,7.89,-0.03,19.85
24893,0.1573,-0.2212,0.8671,-6.06,7.8,-0.06,19.86
24903,0.1541,-0.2211,0.8707,-6.08,7.83,0.0,19.86
24913,0.1519,-0.2202,0.8677,-6.09,7.86,-0.15,19.87
24923,0.1503,-0.2208,0.8641,-6.14,7.63,-0.08,19.88
24933,0.1519,-0.2153,0.8612,-6.12,7.68,-0.15,19.86
24943,0.1522,-0.2162,0.8575,-6.05,7.59,-0.11,19.87
24953,0.1528,-0.2194,0.8644,-5.97,7.73,-0.05,19.87
24963,0.1541,-0.2163,0.8662,-5.92,7.76,-0.05,19.85
24973,0.153,-0.217,0.8668,-6.06,7.65,-0.08,19.88
24983,0.1523,-0.2211,0.8625,-6.37,7.54,-0.14,19.89
24993,0.156,-0.2231,0.8597,-6.43,7.5,-0.15,19.88
25003,0.1586,-0.2261,0.8663,-6.35,7.69,-0.08,19.87
25013,0.1619,-0.2322,0.8694,-6.05,8.06,0.09,19.87
25023,0.161,-0.2327,0.8717,-5.82,8.14,0.09,19.87
25033,0.16,-0.2284,0.8724,-5.68,7.85,0.09,19.88
25043,0.1558,-0.2303,0.8684,-6.02,7.31,-0.11,19.85
25053,0.1526,-0.226,0.8665,-6.2,7.27,-0.17,19.87
25063,0.1536,-0.2231,0.8606,-6.02,7.44,-0.06,19.87
25073,0.1565,-0.2184,0.8586,-5.45,7.85,-0.05,19.88
25083,0.1553,-0.2191,0.8702,-5.21,8.09,0.05,19.88
25093,0.1526,-0.2153,0.8798,-5.33,8.0,-0.08,19.87
25103,0.149,-0.2142,0.8801,-5.8,7.53,-0.08,19.87
25113,0.1516,-0.2209,0.8752,-6.27,7.27,-0.2,19.87
25123,0.1515,-0.2198,0.8651,-6.43,7.62,-0.15,19.86
25133,0.1548,-0.2137,0.8588,-6.52,7.33,0.18,19.86
25143,0.1628,-0.2368,0.9045,-7.8,10.35,0.79,19.86
25153,0.0787,-0.2072,0.8644,-6.87,8.89,0.93,19.87
25163,0.162,-0.2181,0.8448,-5.79,8.55,-2.14,19.87
25173,0.1609,-0.2242,0.8468,-4.67,6.7,0.66,19.86
25183,0.1453,-0.2189,0.8585,-3.77,6.9,-0.75,19.88
25193,0.1311,-0.2159,0.8782,-3.51,5.53,0.11,19.88
25203,0.1542,-0.214,0.8933,-5.07,7.16,-0.84,19.88
25213,0.1583,-0.226,0.8826,-7.6,8.82,0.08,19.86
25223,0.149,-0.2349,0.8617,-9.05,9.24,0.11,19.88
25233,0.1462,-0.2352,0.8424,-8.55,8.89,0.17,19.88
25243,0.1486,-0.2339,0.8312,-6.72,8.12,-0.11,19.89
25253,0.1475,-0.2256,0.8411,-3.88,6.49,-0.09,19.88
25263,0.1526,-0.2115,0.8655,-2.5,5.97,-0.11,19.88
25273,0.1562,-0.2024,0.8898,-3.19,6.47,-0.17,19.86
25283,0.1552,-0.2008,0.8939,-5.51,7.63,-0.06,19.87
25293,0.1538,-0.2046,0.8821,-7.83,8.34,0.09,19.86
25303,0.1466,-0.2103,0.8627,-8.73,8.58,-0.02,19.86
25313,0.1499,-0.2213,0.8495,-7.92,8.37,-0.08,19.87
25323,0.1514,-0.2251,0.8457,-6.0,8.03,-0.03,19.87
25333,0.1497,-0.2214,0.86,-4.49,7.68,0.0,19.87
25343,0.1473,-0.2231,0.876,-4.4,7.4,0.05,19.89
25353,0.1489,-0.2202,0.8832,-5.65,7.44,-0.09,19.87
25363,0.1498,-0.2156,0.8739,-6.96,7.44,-0.17,19.88
25373,0.1549,-0.218,0.8597,-7.37,7.48,-0.03,19.88
25383,0.155,-0.225,0.8513,-6.82,8.02,-0.06,19.87
25393,0.1521,-0.2225,0.8551,-5.71,8.03,0.0,19.88
25403,0.1509,-0.2183,0.8684,-4.85,7.53,-0.06,19.87
25413,0.1489,-0.2096,0.8774,-4.87,7.18,-0.08,19.87
25423,0.1516,-0.2122,0.8776,-5.86,7.08,-0.17,19.88
25433,0.1567,-0.2169,0.8708,-6.84,7.45,-0.18,19.87
25443,0.1608,-0.2249,0.8646,-7.16,8.03,-0.29,19.89
25453,0.1517,-0.2228,0.8616,-6.84,8.29,-0.08,19.9
25463,0.1548,-0.2247,0.861,-5.79,7.63,0.06,19.88
25473,0.1569,-0.2229,0.8752,-5.48,7.3,0.11,19.87
25483,0.15,-0.2209,0.876,-5.94,7.74,-0.34,19.87
25493,0.152,-0.2183,0.8705,-6.66,7.56,-0.06,19.89
25503,0.1572,-0.2233,0.8615,-7.01,7.97,-0.09,19.86
25513,0.151,-0.2271,0.8534,-7.33,8.78,0.08,19.85
25523,0.1422,-0.2325,0.8514,-6.67,8.69,-0.14,19.89
25533,0.15,-0.2283,0.8567,-5.31,7.44,0.12,19.89
25543,0.1476,-0.229,0.8687,-4.79,7.02,-0.18,19.88
25553,0.15,-0.2295,0.8766,-5.16,7.05,-0.08,19.9
25563,0.1545,-0.2242,0.8757,-5.73,7.48,-0.11,19.88
25573,0.1504,-0.2225,0.8688,-6.29,7.89,0.08,19.88
25583,0.147,-0.2284,0.8638,-6.58,8.09,0.05,19.87
25593,0.151,-0.2211,0.8613,-6.43,8.0,0.0,19.89
25603,0.1453,-0.2163,0.8604,-5.8,7.68,0.11,19.88
25613,0.1506,-0.2156,0.8685,-5.44,7.53,0.05,19.87
25623,0.1504,-0.2146,0.8668,-5.57,7.5,0.0,19.87
25633,0.1543,-0.2167,0.8683,-5.77,7.71,0.03,19.89
25643,0.149,-0.2179,0.8688,-6.0,7.76,-0.06,19.88
25653,0.1516,-0.2196,0.8724,-6.21,7.86,0.05,19.89
25663,0.1547,-0.2212,0.8673,-6.23,7.77,-0.02,19.87
25673,0.1562,-0.223,0.865,-6.0,7.68,-0.05,19.86
25683,0.1559,-0.2224,0.8654,-5.76,7.65,0.0,19.86
25693,0.1573,-0.2166,0.8699,-5.98,7.8,-0.09,19.89
25703,0.1525,-0.2186,0.8657,-6.06,7.83,0.0,19.89
25713,0.1498,-0.2169,0.8641,-6.27,7.91,-0.15,19.88
25723,0.1484,-0.2194,0.8651,-6.27,7.79,-0.12,19.89
25733,0.1504,-0.2256,0.8643,-6.15,7.69,-0.05,19.88
25743,0.1482,-0.2252,0.8662,-5.98,7.8,-0.06,19.89
25753,0.1486,-0.2245,0.868,-5.97,7.71,0.03,19.89
25763,0.1482,-0.2219,0.8639,-5.97,7.57,0.06,19.89
25773,0.1508,-0.2206,0.8608,-5.95,7.51,-0.15,19.88
25783,0.1492,-0.2198,0.8606,-5.91,7.42,-0.02,19.87
25793,0.1509,-0.2164,0.859,-5.79,7.42,0.02,19.88
25803,0.1521,-0.2152,0.8654,-5.71,7.65,0.06,19.89
25813,0.1503,-0.2111,0.8677,-5.89,7.76,0.09,19.87
25823,0.15,-0.2141,0.8656,-6.03,7.69,0.11,19.88
25833,0.1497,-0.2157,0.8661,-6.09,7.69,0.03,19.88
25843,0.1542,-0.218,0.8673,-6.17,7.54,-0.14,19.87
25853,0.1566,-0.2185,0.8662,-6.21,7.76,-0.05,19.86
25863,0.1533,-0.2216,0.8693,-6.18,7.85,-0.03,19.88
25873,0.1503,-0.222,0.8695,-6.23,7.97,0.03,19.87
25883,0.1472,-0.2236,0.8663,-6.12,7.77,-0.05,19.89
25893,0.1499,-0.2241,0.8641,-6.06,7.47,-0.08,19.89
25903,0.1526,-0.2222,0.8627,-5.98,7.51,-0.11,19.87
25913,0.1511,-0.2209,0.8611,-6.09,7.76,-0.05,19.88
25923,0.1527,-0.2229,0.8685,-6.14,7.94,-0.06,19.87
25933,0.1503,-0.2228,0.8674,-6.18,7.92,-0.03,19.88
25943,0.149,-0.2208,0.8667,-6.11,7.79,-0.08,19.86
25953,0.1528,-0.2202,0.8658,-6.14,7.47,-0.11,19.87
25963,0.1528,-0.22,0.8599,-6.18,7.45,-0.11,19.89
25973,0.1528,-0.2208,0.8687,-6.2,7.74,-0.08,19.87
25983,0.1533,-0.22,0.8616,-6.15,8.02,-0.02,19.87
25993,0.1521,-0.2225,0.8627,-5.97,8.05,-0.09,19.92
26003,0.1547,-0.223,0.8727,-5.88,7.77,0.02,19.9
26013,0.1517,-0.225,0.8688,-5.83,7.44,-0.06,19.89
26023,0.1556,-0.2216,0.8687,-5.94,7.33,-0.06,19.91
26033,0.1547,-0.223,0.8699,-6.23,7.79,-0.06,19.88
26043,0.1539,-0.2201,0.8622,-6.41,8.14,-0.03,19.89
26053,0.1511,-0.2227,0.86,-6.29,8.08,0.02,19.87
26063,0.1477,-0.2249,0.8647,-5.95,7.82,-0.02,19.88
26073,0.1508,-0.2241,0.8639,-5.76,7.34,-0.06,19.87
26083,0.1482,-0.223,0.8624,-5.71,7.37,-0.05,19.91
26093,0.1541,-0.2233,0.8646,-5.91,7.65,0.02,19.88
26103,0.1517,-0.2249,0.8657,-6.12,8.0,-0.09,19.88
26113,0.1526,-0.2212,0.8625,-6.15,7.88,0.12,19.9
26123,0.1542,-0.2244,0.8676,-5.97,7.68,-0.02,19.89
26133,0.1476,-0.2213,0.861,-5.92,7.53,-0.11,19.89
26143,0.1508,-0.2172,0.8643,-5.77,7.34,-0.11,19.91
26153,0.1532,-0.217,0.8682,-5.85,7.57,-0.05,19.89
26163,0.1509,-0.2167,0.8674,-6.05,7.91,-0.06,19.88
26173,0.1501,-0.2186,0.8704,-6.23,8.02,0.08,19.89
26183,0.1479,-0.2202,0.8678,-6.34,7.85,-0.03,19.91
26193,0.1504,-0.22,0.8622,-6.27,7.47,-0.02,19.89
26203,0.1526,-0.2224,0.859,-5.97,7.37,-0.09,19.89
26213,0.1554,-0.2213,0.8638,-5.82,7.6,0.05,19.88
26223,0.1555,-0.2173,0.8656,-5.77,7.88,0.03,19.92
26233,0.1489,-0.2195,0.869,-6.11,8.03,-0.05,19.9
26243,0.1487,-0.2222,0.8716,-6.31,7.86,0.03,19.9
26253,0.149,-0.2235,0.8632,-6.27,7.62,-0.02,19.87
26263,0.1525,-0.2231,0.8674,-6.2,7.73,-0.12,19.9
26273,0.1544,-0.2275,0.8639,-6.23,7.94,-0.03,19.89
26283,0.151,-0.2242,0.8644,-6.03,7.98,-0.02,19.9
26293,0.151,-0.2241,0.8657,-5.82,7.89,-0.02,19.91
26303,0.149,-0.2209,0.864,-5.8,7.66,-0.05,19.9
26313,0.1505,-0.2218,0.8711,-5.85,7.44,-0.14,19.89
26323,0.1506,-0.2217,0.8662,-5.77,7.39,-0.17,19.92
26333,0.1506,-0.2201,0.861,-5.94,7.66,-0.12,19.88
26343,0.149,-0.2201,0.8674,-5.97,7.92,-0.03,19.89
26353,0.1455,-0.2201,0.8677,-5.89,7.85,0.05,19.89
26363,0.1476,-0.2203,0.8656,-5.98,7.68,0.0,19.89
26373,0.1505,-0.218,0.8672,-6.03,7.59,-0.14,19.9
26383,0.1539,-0.2155,0.8665,-6.09,7.57,-0.09,19.89
26393,0.1548,-0.2179,0.8645,-6.12,7.89,-0.05,19.9
26403,0.153,-0.2203,0.8645,-6.0,8.0,-0.08,19.9
26413,0.1506,-0.2196,0.8672,-5.65,7.56,-0.08,19.9
26423,0.152,-0.2203,0.868,-5.66,7.33,-0.11,19.9
26433,0.1505,-0.224,0.876,-6.03,7.66,-0.17,19.88
