t_ms,accel_x_g,accel_y_g,accel_z_g,gyro_x_dps,gyro_y_dps,gyro_z_dps,imu_temp_c
2261,0.0673,-0.2827,0.8563,-5.66,8.81,-0.08,19.77
2271,0.0665,-0.283,0.8575,-6.03,8.6,-0.12,19.82
2281,0.0634,-0.2859,0.8601,-6.2,7.89,-0.21,19.78
2291,0.0635,-0.2875,0.8577,-6.2,7.08,-0.27,19.8
2301,0.0697,-0.285,0.8572,-6.27,6.89,-0.32,19.79
2311,0.0698,-0.283,0.8541,-6.4,7.05,-0.31,19.8
2321,0.0676,-0.2827,0.8481,-6.46,7.79,-0.31,19.78
2331,0.0651,-0.2871,0.8414,-6.27,8.66,-0.41,19.79
2341,0.0739,-0.2861,0.8507,-5.24,7.66,-0.21,19.79
2351,0.0707,-0.2805,0.8522,-5.22,7.97,0.0,19.78
2361,0.0624,-0.2822,0.8638,-5.76,8.12,-0.23,19.79
2371,0.0629,-0.28,0.8685,-6.2,8.37,-0.35,19.78
2381,0.0656,-0.2811,0.8635,-6.31,7.62,-0.23,19.78
2391,0.0664,-0.2826,0.8564,-6.14,7.11,-0.32,19.79
2401,0.0669,-0.2802,0.8496,-6.02,6.37,-0.26,19.8
2411,0.0732,-0.2789,0.8514,-5.89,7.08,-0.15,19.8
2421,0.0714,-0.2767,0.8491,-6.18,8.06,-0.02,19.79
2431,0.0721,-0.2817,0.8464,-6.34,8.56,0.06,19.79
2441,0.0671,-0.2806,0.8536,-6.15,8.95,0.08,19.8
2451,0.062,-0.2842,0.8597,-6.03,8.47,0.14,19.81
2461,0.0613,-0.2856,0.8656,-5.6,7.33,0.0,19.79
2471,0.0657,-0.2843,0.8689,-5.77,6.63,-0.27,19.82
2481,0.0704,-0.2794,0.8553,-6.24,6.79,-0.35,19.79
2491,0.0699,-0.2849,0.8529,-6.85,7.53,-0.32,19.8
2501,0.0701,-0.2817,0.8472,-6.81,8.14,-0.06,19.82
2511,0.0669,-0.2842,0.8459,-6.17,8.37,0.05,19.78
2521,0.0654,-0.2867,0.8499,-5.54,8.34,0.09,19.8
2531,0.0662,-0.2847,0.8584,-5.34,8.15,0.15,19.79
2541,0.0664,-0.2845,0.8617,-5.44,7.88,0.03,19.78
2551,0.0624,-0.2855,0.8636,-5.69,7.36,0.0,19.82
2561,0.0629,-0.2887,0.8624,-5.94,6.87,-0.15,19.8
2571,0.0668,-0.2838,0.8566,-6.02,6.53,-0.29,19.82
2581,0.0724,-0.2821,0.8529,-6.05,6.72,-0.18,19.79
2591,0.0765,-0.283,0.8484,-5.97,7.59,-0.03,19.8
2601,0.0677,-0.2783,0.848,-5.95,8.23,0.15,19.8
2611,0.0693,-0.2837,0.8528,-5.68,8.56,0.11,19.8
2621,0.0658,-0.2771,0.8589,-5.68,8.53,0.11,19.79
2631,0.0634,-0.2814,0.8606,-6.06,8.15,0.08,19.8
2641,0.0627,-0.2819,0.8635,-6.11,7.37,0.06,19.83
2651,0.0621,-0.285,0.8636,-6.08,6.67,-0.27,19.8
2661,0.0647,-0.2815,0.8523,-6.06,6.27,-0.35,19.8
2671,0.0717,-0.2781,0.8478,-5.95,6.47,-0.23,19.81
2681,0.0768,-0.2765,0.8505,-6.2,7.34,0.03,19.81
2691,0.0736,-0.2789,0.8523,-6.34,8.6,0.08,19.83
2701,0.0708,-0.2832,0.8507,-6.35,9.51,0.21,19.8
2711,0.0624,-0.2865,0.8535,-6.02,9.3,0.29,19.8
2721,0.0616,-0.2855,0.861,-5.56,8.27,0.21,19.81
2731,0.0647,-0.2856,0.8601,-5.57,7.16,-0.03,19.82
2741,0.0648,-0.2828,0.8597,-5.98,6.46,-0.29,19.8
2751,0.0685,-0.2826,0.853,-6.37,6.12,-0.32,19.81
2761,0.0747,-0.2832,0.8496,-6.66,6.55,-0.32,19.82
2771,0.0729,-0.2812,0.8453,-6.58,7.82,-0.12,19.81
2781,0.0732,-0.2827,0.8434,-6.4,8.69,0.12,19.82
2791,0.067,-0.2847,0.8467,-5.79,8.98,0.26,19.83
2801,0.0629,-0.285,0.856,-5.42,8.95,0.27,19.83
2811,0.0631,-0.2848,0.8644,-5.45,8.4,0.14,19.83
2821,0.0632,-0.2836,0.8665,-5.74,7.53,-0.03,19.83
2831,0.0621,-0.2827,0.8657,-6.27,7.02,-0.26,19.86
2841,0.067,-0.2808,0.8546,-6.61,6.75,-0.26,19.83
2851,0.0687,-0.2837,0.8503,-6.44,6.5,-0.24,19.82
2861,0.0743,-0.28,0.8456,-6.05,7.01,-0.17,19.8
2871,0.0735,-0.2831,0.8485,-5.76,7.5,0.06,19.79
2881,0.0724,-0.281,0.8518,-5.63,8.21,0.11,19.84
2891,0.0687,-0.2819,0.856,-5.83,8.7,0.21,19.82
2901,0.0658,-0.2841,0.8645,-6.14,8.76,0.09,19.83
2911,0.0642,-0.2847,0.859,-6.31,8.38,-0.03,19.82
2921,0.0673,-0.2826,0.8624,-6.53,8.02,-0.15,19.83
2931,0.0658,-0.2854,0.8564,-6.41,7.53,-0.14,19.83
2941,0.0702,-0.2876,0.8541,-6.29,7.27,-0.2,19.82
2951,0.0688,-0.2834,0.8521,-6.08,7.57,-0.08,19.83
2961,0.0392,-0.2897,0.863,-5.5,6.55,0.26,19.83
2971,0.0669,-0.2788,0.8716,-4.93,7.18,0.05,19.84
2981,0.064,-0.2805,0.8562,-5.69,8.18,-0.31,19.82
2991,0.0604,-0.2769,0.8567,-6.58,8.46,0.31,19.82
3001,0.0714,-0.2858,0.8591,-6.78,8.4,0.12,19.84
3011,0.0645,-0.2893,0.8459,-6.31,8.06,-0.12,19.85
3021,0.0562,-0.2821,0.854,-5.88,7.34,0.09,19.83
3031,0.0641,-0.2871,0.8588,-5.65,6.75,-0.14,19.84
3041,0.0684,-0.2838,0.8556,-5.79,7.21,-0.09,19.84
3051,0.0679,-0.2844,0.8513,-6.21,7.25,0.02,19.84
3061,0.0725,-0.2836,0.8507,-6.29,7.74,0.03,19.85
3071,0.0699,-0.2837,0.8488,-6.02,7.69,0.08,19.84
3081,0.0647,-0.2887,0.8578,-5.62,7.13,0.05,19.83
3091,0.0653,-0.2852,0.8597,-5.37,6.69,-0.06,19.86
3101,0.071,-0.282,0.8602,-5.8,6.99,-0.15,19.84
3111,0.0713,-0.2784,0.8556,-6.5,8.09,-0.14,19.85
3121,0.069,-0.2795,0.8505,-7.02,9.07,0.06,19.84
3131,0.067,-0.283,0.851,-6.84,9.48,0.14,19.84
3141,0.063,-0.2887,0.8495,-6.05,8.58,0.17,19.86
3151,0.0629,-0.2867,0.8578,-5.28,7.65,0.11,19.83
3161,0.067,-0.2845,0.8595,-5.3,7.01,0.0,19.84
3171,0.0691,-0.2777,0.8612,-5.74,6.95,-0.17,19.84
3181,0.0698,-0.2806,0.8566,-6.64,7.74,-0.24,19.83
3191,0.0647,-0.2839,0.8478,-7.08,7.97,-0.12,19.83
3201,0.0641,-0.2863,0.8464,-6.75,8.02,-0.08,19.84
3211,0.0677,-0.2871,0.8442,-6.02,7.91,-0.02,19.85
3221,0.0667,-0.2867,0.8506,-5.57,7.94,0.11,19.84
3231,0.0676,-0.2833,0.8522,-5.6,7.97,0.18,19.87
3241,0.0679,-0.2853,0.8578,-5.85,7.83,0.06,19.86
3251,0.0656,-0.2836,0.8628,-6.11,7.88,0.0,19.85
3261,0.0615,-0.2838,0.8567,-6.26,7.33,-0.09,19.86
3271,0.0684,-0.2863,0.8594,-6.24,7.18,-0.2,19.85
3281,0.0677,-0.2825,0.8494,-6.31,7.51,-0.18,19.85
3291,0.0676,-0.2803,0.8455,-6.26,7.91,-0.05,19.86
3301,0.0676,-0.2833,0.8485,-5.94,8.23,0.06,19.84
3311,0.0645,-0.2838,0.8535,-5.82,8.18,0.15,19.86
3321,0.0656,-0.281,0.8593,-5.57,8.02,0.0,19.86
3331,0.0646,-0.282,0.861,-5.79,7.85,0.09,19.87
3341,0.0647,-0.2834,0.8583,-6.17,7.56,0.0,19.84
3351,0.0677,-0.2808,0.8579,-6.23,7.22,-0.12,19.86
3361,0.067,-0.2826,0.8524,-6.21,7.56,-0.15,19.85
3371,0.0604,-0.2877,0.8475,-5.77,7.24,-0.46,19.84
3381,0.0631,-0.2836,0.8656,-5.54,7.1,0.02,19.82
3391,0.0693,-0.2772,0.86,-6.08,8.79,0.03,19.85
3401,0.0612,-0.2859,0.853,-6.23,8.64,0.05,19.86
3411,0.0616,-0.2834,0.8586,-6.43,8.46,0.31,19.84
3421,0.0656,-0.2893,0.8595,-6.14,7.83,0.12,19.84
3431,0.0615,-0.2855,0.8613,-5.68,6.96,-0.21,19.86
3441,0.0688,-0.2827,0.8569,-5.8,6.5,-0.11,19.85
3451,0.0713,-0.2832,0.8536,-6.08,6.72,-0.23,19.87
3461,0.0721,-0.282,0.8505,-6.43,7.54,-0.23,19.86
3471,0.0692,-0.286,0.8483,-6.52,8.55,0.0,19.87
3481,0.0665,-0.2878,0.8501,-5.95,8.44,0.12,19.86
3491,0.0621,-0.2863,0.8522,-5.36,7.92,0.17,19.84
3501,0.0604,-0.2869,0.8617,-5.1,7.21,0.05,19.87
3511,0.0623,-0.2863,0.8612,-5.18,6.64,-0.08,19.84
3521,0.0675,-0.2825,0.8657,-5.94,6.69,-0.24,19.84
3531,0.0675,-0.2817,0.8611,-6.79,7.33,-0.26,19.84
3541,0.0715,-0.2859,0.8506,-7.01,7.94,-0.11,19.85
3551,0.0676,-0.2887,0.8416,-6.38,7.98,-0.08,19.88
3561,0.0668,-0.2888,0.8451,-5.66,7.92,0.14,19.85
3571,0.069,-0.2852,0.8522,-5.15,7.82,0.15,19.87
3581,0.0674,-0.2804,0.8617,-5.33,7.82,0.09,19.85
3591,0.0645,-0.2797,0.8622,-5.97,7.71,0.08,19.86
3601,0.0634,-0.2831,0.8624,-6.29,7.27,-0.15,19.89
3611,0.0658,-0.2848,0.86,-6.43,6.93,-0.27,19.87
3621,0.0681,-0.2795,0.8536,-6.23,6.96,-0.26,19.86
3631,0.0707,-0.2834,0.851,-6.24,7.18,-0.11,19.84
3641,0.0715,-0.2827,0.8524,-5.89,7.69,-0.06,19.88
3651,0.0702,-0.2798,0.8518,-5.85,8.41,0.06,19.88
3661,0.0682,-0.285,0.8572,-5.79,8.56,0.14,19.87
3671,0.0636,-0.2847,0.8593,-5.68,8.23,0.15,19.85
3681,0.0616,-0.2885,0.865,-5.79,7.59,-0.06,19.86
3691,0.0609,-0.2898,0.8588,-6.09,7.11,-0.15,19.88
3701,0.0631,-0.2856,0.8531,-6.24,6.76,-0.34,19.9
3711,0.0662,-0.2861,0.8483,-6.29,6.81,-0.21,19.87
3721,0.0709,-0.2853,0.845,-6.06,7.3,-0.23,19.84
3731,0.0696,-0.2874,0.8455,-6.02,7.86,0.05,19.86
3741,0.0713,-0.2869,0.8553,-5.83,8.23,0.11,19.86
3751,0.0721,-0.2855,0.8536,-5.76,8.4,0.14,19.86
3761,0.0676,-0.2825,0.858,-6.02,8.47,0.05,19.88
3771,0.0618,-0.2804,0.8553,-6.0,8.09,0.05,19.85
3781,0.0607,-0.2826,0.8591,-5.92,7.39,-0.06,19.87
3791,0.0637,-0.2812,0.8636,-6.05,6.9,-0.15,19.87
3801,0.0688,-0.2802,0.8555,-5.97,6.92,-0.24,19.89
3811,0.0691,-0.2811,0.8573,-6.17,7.24,-0.15,19.88
3821,0.0715,-0.2799,0.8552,-6.14,7.85,-0.05,19.87
3831,0.0703,-0.2823,0.8506,-5.89,7.92,0.02,19.88
3841,0.0673,-0.28,0.85,-5.54,7.88,0.08,19.87
3851,0.068,-0.2843,0.8612,-5.53,7.57,0.08,19.87
3861,0.0674,-0.2848,0.8608,-5.8,7.42,0.11,19.87
3871,0.0641,-0.2827,0.8611,-6.08,7.4,-0.12,19.87
3881,0.0648,-0.2811,0.8595,-6.38,7.31,-0.14,19.87
3891,0.0665,-0.2854,0.8574,-6.29,7.28,-0.11,19.87
3901,0.0715,-0.2842,0.8477,-6.17,7.59,-0.06,19.88
3911,0.0713,-0.2848,0.8523,-6.03,7.98,0.05,19.87
3921,0.0693,-0.2854,0.8508,-5.83,8.05,0.12,19.89
3931,0.0665,-0.2855,0.8529,-5.63,7.86,0.15,19.88
3941,0.0657,-0.2845,0.8556,-5.65,7.53,0.08,19.89
3951,0.0679,-0.2852,0.8605,-5.82,7.18,-0.05,19.88
3961,0.0675,-0.2843,0.8604,-6.27,7.36,-0.12,19.91
3971,0.0685,-0.2856,0.8525,-6.6,7.73,-0.06,19.89
3981,0.0685,-0.2881,0.8453,-6.56,7.82,-0.05,19.88
3991,0.0677,-0.2892,0.8499,-6.15,8.08,0.02,19.86
4001,0.0691,-0.2854,0.8524,-5.79,7.98,0.06,19.89
4011,0.0673,-0.286,0.8547,-5.62,7.88,0.11,19.9
4021,0.066,-0.2845,0.8602,-5.86,7.77,0.11,19.89
4031,0.0638,-0.2843,0.8586,-6.08,7.63,0.02,19.89
4041,0.0626,-0.2794,0.8604,-6.14,7.51,-0.11,19.88
4051,0.0693,-0.2799,0.8575,-6.27,7.47,-0.12,19.87
4061,0.0682,-0.2831,0.8544,-6.24,7.54,-0.09,19.89
4071,0.0673,-0.2792,0.8524,-6.11,7.62,0.02,19.89
4081,0.0688,-0.282,0.8566,-5.77,7.91,0.08,19.89
4091,0.0704,-0.2787,0.8546,-5.83,8.05,0.06,19.88
4101,0.0696,-0.2809,0.856,-5.82,8.03,0.14,19.88
4111,0.0687,-0.281,0.8588,-6.0,7.85,0.06,19.87
4121,0.0675,-0.2836,0.8599,-6.2,7.69,0.02,19.87
4131,0.0664,-0.283,0.8525,-6.17,7.63,-0.05,19.9
4141,0.0671,-0.2849,0.8525,-6.09,7.56,-0.14,19.9
4151,0.0698,-0.2858,0.8518,-5.94,7.5,-0.08,19.88
4161,0.0703,-0.2896,0.8541,-5.74,7.37,-0.03,19.9
4171,0.0703,-0.2822,0.8503,-5.83,7.85,-0.02,19.88
4181,0.0674,-0.2856,0.8522,-6.08,8.32,0.03,19.87
4191,0.0679,-0.2889,0.8505,-6.34,8.23,0.11,19.87
4201,0.0659,-0.2885,0.8555,-6.21,8.23,-0.05,19.87
4211,0.0658,-0.2888,0.8562,-6.24,8.12,-0.11,19.89
4221,0.0652,-0.288,0.8522,-6.03,7.79,-0.14,19.86
4231,0.0698,-0.2865,0.8528,-5.89,7.83,-0.14,19.89
4241,0.0668,-0.2859,0.8538,-6.02,7.48,0.03,19.88
4251,0.064,-0.2837,0.8563,-5.82,7.34,-0.14,19.89
4261,0.0616,-0.2828,0.856,-5.71,7.15,-0.03,19.89
4271,0.0657,-0.281,0.8539,-5.86,6.93,-0.06,19.87
4281,0.0673,-0.2794,0.8585,-5.76,7.01,-0.11,19.88
4291,0.0714,-0.2784,0.858,-6.08,7.69,-0.17,19.88
4301,0.0704,-0.2794,0.853,-6.56,8.79,0.02,19.89
4311,0.0673,-0.2823,0.8512,-6.46,9.15,0.12,19.9
4321,0.0656,-0.282,0.8551,-6.14,8.84,0.2,19.88
4331,0.0624,-0.2839,0.8579,-5.79,8.17,0.11,19.91
4341,0.0663,-0.2823,0.8619,-5.83,7.36,-0.05,19.89
4351,0.0665,-0.2805,0.8617,-6.14,7.11,-0.14,19.9
4361,0.0662,-0.2832,0.8578,-6.6,7.42,-0.29,19.87
4371,0.0657,-0.2852,0.8488,-6.76,7.45,-0.11,19.9
4381,0.0706,-0.2899,0.8488,-6.38,7.48,-0.11,19.89
4391,0.0732,-0.291,0.8481,-5.98,8.18,0.02,19.91
4401,0.0669,-0.2877,0.849,-5.8,8.6,0.11,19.9
4411,0.0641,-0.2888,0.8572,-5.48,8.64,0.2,19.91
4421,0.0641,-0.2856,0.8575,-5.51,8.29,0.24,19.89
4431,0.0627,-0.2889,0.8634,-5.63,7.91,0.02,19.9
4441,0.0643,-0.2855,0.8633,-6.0,7.66,-0.06,19.9
4451,0.0679,-0.2882,0.8562,-6.52,7.31,-0.18,19.89
4461,0.0699,-0.2877,0.8495,-6.43,7.31,-0.17,19.9
4471,0.0704,-0.29,0.8478,-6.34,7.36,-0.14,19.87
4481,0.069,-0.2831,0.8472,-6.02,7.85,-0.06,19.91
4491,0.0671,-0.2854,0.8484,-5.79,8.09,0.03,19.89
4501,0.0668,-0.2844,0.8588,-5.73,8.2,0.2,19.88
4511,0.0623,-0.2843,0.8588,-5.82,8.02,0.12,19.9
4521,0.0658,-0.2858,0.8589,-5.86,7.37,-0.06,19.89
4531,0.0636,-0.2819,0.861,-5.95,6.6,-0.12,19.89
4541,0.0687,-0.2815,0.8541,-6.06,6.52,-0.26,19.92
4551,0.0741,-0.2787,0.8497,-6.43,7.31,-0.26,19.89
4561,0.0663,-0.2793,0.8477,-6.66,8.09,0.0,19.92
4571,0.0692,-0.2843,0.8501,-6.26,8.58,0.12,19.91
4581,0.0649,-0.2867,0.8521,-5.89,8.7,0.23,19.9
4591,0.0613,-0.2847,0.8531,-5.54,8.31,0.2,19.9
4601,0.0634,-0.2845,0.8617,-5.53,7.57,0.02,19.91
4611,0.0647,-0.2863,0.8682,-5.86,7.04,-0.08,19.92
4621,0.0656,-0.2855,0.8629,-6.29,6.99,-0.29,19.92
4631,0.0698,-0.2861,0.8518,-6.85,7.27,-0.26,19.9
4641,0.0696,-0.2866,0.8453,-6.78,7.56,-0.23,19.9
4651,0.074,-0.2908,0.8435,-6.18,7.85,0.03,19.89
4661,0.067,-0.2876,0.845,-5.54,8.05,0.09,19.92
4671,0.0662,-0.2866,0.8544,-5.27,8.09,0.2,19.91
4681,0.0629,-0.286,0.8619,-5.48,7.91,0.15,19.9
4691,0.0615,-0.2837,0.864,-5.97,7.83,-0.03,19.91
4701,0.0614,-0.287,0.861,-6.47,7.57,-0.17,19.88
4711,0.0665,-0.2864,0.8569,-6.82,7.6,-0.34,19.92
4721,0.0674,-0.2837,0.848,-6.72,7.57,-0.27,19.9
4731,0.0684,-0.2832,0.8464,-6.41,7.65,-0.08,19.91
4741,0.0688,-0.2849,0.8506,-5.95,8.02,0.12,19.92
4751,0.0676,-0.2832,0.851,-5.74,8.27,0.2,19.92
4761,0.0654,-0.2854,0.8542,-5.76,8.34,0.12,19.89
4771,0.0634,-0.2821,0.8638,-6.17,8.15,0.09,19.92
4781,0.0645,-0.282,0.8624,-6.41,8.05,0.05,19.92
4791,0.0619,-0.2825,0.8539,-6.55,7.65,-0.15,19.93
4801,0.0619,-0.2867,0.8528,-6.55,7.02,-0.2,19.93
4811,0.0664,-0.2843,0.8572,-6.26,6.87,-0.11,19.93
4821,0.0681,-0.2839,0.8524,-6.12,7.16,-0.12,19.92
4831,0.0729,-0.2843,0.8527,-6.11,7.89,-0.17,19.92
4841,0.0713,-0.2828,0.8546,-6.4,8.87,-0.05,19.91
4851,0.0686,-0.2853,0.8521,-6.52,9.42,0.11,19.92
4861,0.0428,-0.3018,0.8563,-5.88,7.53,0.29,19.92
4871,0.0563,-0.2795,0.8717,-5.44,7.19,0.11,19.94
4881,0.0757,-0.2844,0.8605,-5.95,6.93,-0.24,19.9
4891,0.0566,-0.286,0.858,-6.75,7.71,-0.11,19.94
4901,0.0598,-0.2908,0.8569,-6.93,7.63,-0.12,19.92
4911,0.0688,-0.2881,0.8485,-6.46,7.89,-0.09,19.92
4921,0.0724,-0.2863,0.8446,-6.15,8.0,-0.06,19.92
4931,0.0717,-0.2874,0.8478,-5.86,8.27,0.09,19.94
4941,0.0667,-0.2839,0.8552,-5.92,8.79,0.06,19.91
4951,0.0608,-0.286,0.8613,-5.94,8.75,0.14,19.92
4961,0.0593,-0.2872,0.8589,-5.85,7.92,0.11,19.93
4971,0.0594,-0.2885,0.8608,-5.65,6.84,-0.09,19.92
4981,0.062,-0.2852,0.8612,-5.68,6.35,-0.21,19.93
4991,0.0681,-0.2826,0.8514,-6.17,6.38,-0.32,19.92
5001,0.0726,-0.2838,0.8503,-6.49,7.22,-0.18,19.93
5011,0.0704,-0.2848,0.8451,-6.47,8.03,-0.09,19.92
5021,0.0693,-0.2885,0.8481,-6.11,8.73,0.09,19.94
5031,0.0632,-0.2865,0.8503,-5.77,8.58,0.12,19.93
5041,0.062,-0.2861,0.8569,-5.4,8.23,0.26,19.93
5051,0.0624,-0.2845,0.863,-5.5,7.51,0.14,19.91
5061,0.0642,-0.282,0.8645,-6.09,7.44,-0.14,19.94
5071,0.0662,-0.2841,0.8596,-6.73,7.37,-0.21,19.92
5081,0.0675,-0.2871,0.856,-6.61,7.05,-0.14,19.89
5091,0.0674,-0.2885,0.8474,-6.32,7.22,-0.12,19.94
5101,0.0682,-0.285,0.8478,-5.98,7.66,-0.08,19.92
5111,0.0688,-0.2842,0.8438,-5.77,8.26,0.08,19.93
5121,0.0674,-0.2871,0.8536,-5.73,8.79,0.14,19.94
5131,0.0663,-0.2855,0.8577,-5.91,8.76,0.14,19.92
5141,0.0597,-0.2883,0.8589,-6.08,8.2,0.05,19.94
5151,0.0598,-0.2871,0.8588,-6.21,7.63,-0.14,19.92
5161,0.064,-0.2872,0.8547,-6.27,7.1,-0.24,19.91
5171,0.0625,-0.2852,0.8505,-6.31,6.84,-0.27,19.95
5181,0.0658,-0.2839,0.8506,-6.15,6.93,-0.08,19.93
5191,0.068,-0.2842,0.849,-5.85,7.62,-0.12,19.92
5201,0.0691,-0.2864,0.8472,-5.89,8.29,0.12,19.94
5211,0.0674,-0.286,0.8529,-5.83,8.55,0.18,19.95
5221,0.0641,-0.2878,0.8575,-5.85,8.47,0.11,19.95
5231,0.061,-0.2911,0.8595,-5.86,8.14,0.06,19.94
5241,0.0608,-0.2865,0.8623,-6.08,7.57,-0.09,19.93
5251,0.0609,-0.2867,0.8555,-6.29,6.98,-0.26,19.92
5261,0.0662,-0.288,0.854,-6.15,6.92,-0.12,19.93
5271,0.071,-0.2852,0.851,-6.35,7.27,-0.21,19.92
5281,0.0699,-0.2863,0.8466,-6.18,7.68,-0.03,19.94
5291,0.0654,-0.2875,0.8499,-6.02,8.15,0.11,19.92
5301,0.0677,-0.2858,0.8582,-5.76,8.06,0.09,19.93
5311,0.067,-0.2863,0.8557,-5.51,8.03,-0.02,19.91
5321,0.0643,-0.2852,0.8617,-5.79,7.76,-0.08,19.94
5331,0.0649,-0.2842,0.86,-6.0,7.4,-0.03,19.92
5341,0.0612,-0.2877,0.8542,-6.17,6.89,-0.08,19.94
5351,0.0643,-0.2894,0.8538,-6.08,6.84,-0.17,19.96
5361,0.0668,-0.283,0.8486,-6.12,7.34,-0.26,19.94
5371,0.0703,-0.2841,0.8455,-6.32,8.32,0.0,19.96
5381,0.0696,-0.287,0.8468,-6.44,8.89,0.05,19.94
5391,0.0632,-0.2877,0.8496,-5.98,8.93,0.2,19.93
5401,0.0618,-0.2906,0.8627,-5.74,8.32,0.08,19.92
5411,0.0613,-0.2906,0.8622,-5.63,7.63,0.05,19.95
5421,0.062,-0.2859,0.8652,-6.03,7.22,-0.09,19.94
5431,0.0659,-0.2878,0.8593,-6.41,7.1,-0.18,19.94
5441,0.0659,-0.2878,0.849,-6.46,7.19,-0.2,19.95
5451,0.0667,-0.287,0.8448,-6.34,7.54,-0.06,19.94
5461,0.0692,-0.2856,0.8458,-6.08,7.73,0.0,19.93
5471,0.0681,-0.2844,0.8588,-5.95,8.27,0.09,19.95
5481,0.064,-0.2866,0.8556,-5.95,8.61,0.09,19.93
5491,0.0647,-0.2889,0.8621,-5.98,8.44,0.09,19.95
5501,0.0626,-0.2864,0.8585,-6.11,8.05,0.0,19.93
5511,0.063,-0.2924,0.8533,-6.37,7.69,-0.14,19.95
5521,0.0654,-0.2878,0.8545,-6.43,7.45,-0.17,19.93
5531,0.0646,-0.2882,0.8516,-6.24,7.36,-0.12,19.93
5541,0.0649,-0.2854,0.8494,-6.06,7.36,-0.05,19.93
5551,0.0662,-0.2872,0.8489,-5.77,7.45,-0.03,19.93
5561,0.0646,-0.2875,0.8531,-5.68,7.65,0.09,19.94
5571,0.0636,-0.2861,0.8574,-5.66,7.71,0.08,19.97
5581,0.0668,-0.2882,0.8607,-5.79,7.77,0.06,19.94
5591,0.0673,-0.2847,0.8571,-5.98,7.65,-0.08,19.93
5601,0.0645,-0.2843,0.8541,-6.15,7.8,-0.05,19.95
5611,0.064,-0.2827,0.8525,-6.27,7.76,0.02,19.94
5621,0.0632,-0.2861,0.8506,-5.98,7.56,-0.03,19.97
5631,0.0638,-0.2861,0.8516,-5.73,7.42,-0.08,19.94
5641,0.0636,-0.2837,0.8549,-5.66,7.31,-0.09,19.97
5651,0.0656,-0.2847,0.8571,-5.98,7.57,-0.12,19.94
5661,0.0688,-0.2842,0.8557,-6.26,7.95,-0.03,19.93
5671,0.0641,-0.2877,0.8546,-6.41,8.06,-0.08,19.94
5681,0.0616,-0.2869,0.848,-6.18,7.95,0.02,19.93
5691,0.0638,-0.2885,0.8529,-5.82,7.57,0.09,19.95
5701,0.0631,-0.2878,0.8562,-5.76,7.34,0.05,19.94
5711,0.0626,-0.287,0.8573,-5.91,7.04,-0.09,19.95
5721,0.0662,-0.2852,0.8575,-5.92,7.16,-0.12,19.96
5731,0.0698,-0.2855,0.8522,-6.2,7.4,-0.18,19.96
5741,0.0707,-0.2865,0.8518,-6.4,7.83,-0.12,19.96
5751,0.0688,-0.2859,0.8486,-6.29,8.23,0.03,19.97
5761,0.0643,-0.2882,0.8536,-6.09,8.05,0.11,19.94
5771,0.0647,-0.2893,0.8594,-5.59,7.73,0.12,19.94
5781,0.0645,-0.2878,0.8606,-5.63,7.59,-0.08,19.94
5791,0.0645,-0.2842,0.8601,-6.03,7.76,-0.11,19.95
5801,0.0676,-0.2866,0.8566,-6.46,7.92,-0.14,19.95
5811,0.0621,-0.2874,0.8491,-6.5,7.88,-0.05,19.95
5821,0.0674,-0.2882,0.8488,-6.21,7.74,-0.02,19.94
5831,0.0671,-0.2894,0.8481,-5.86,7.57,0.0,19.94
5841,0.0645,-0.2916,0.8538,-5.83,7.65,0.05,19.95
5851,0.0662,-0.2881,0.856,-5.82,7.8,-0.03,19.94
5861,0.0671,-0.2904,0.8579,-5.98,7.69,0.06,19.93
5871,0.0587,-0.2866,0.858,-5.98,7.76,-0.09,19.94
5881,0.0636,-0.2837,0.8582,-6.03,7.65,-0.02,19.97
5891,0.0641,-0.2844,0.8521,-6.14,7.66,-0.09,19.93
5901,0.0675,-0.2892,0.8508,-6.09,7.73,0.05,19.95
5911,0.0668,-0.2825,0.8502,-6.05,7.76,-0.03,19.97
5921,0.0632,-0.2861,0.8613,-5.92,7.47,-0.05,19.94
5931,0.0642,-0.2867,0.8531,-5.88,7.54,-0.03,19.93
5941,0.0651,-0.2826,0.8542,-6.02,7.76,-0.03,19.95
5951,0.068,-0.2848,0.8547,-6.4,7.8,-0.08,19.93
5961,0.0677,-0.2844,0.8551,-6.26,7.88,-0.08,19.94
5971,0.0618,-0.2849,0.8575,-6.24,8.15,0.03,19.95
5981,0.0631,-0.2848,0.8535,-6.05,8.02,-0.03,19.96
5991,0.0598,-0.2888,0.8557,-5.89,7.77,0.09,19.96
6001,0.0613,-0.2836,0.8575,-5.92,7.25,0.02,19.94
6011,0.0703,-0.291,0.8607,-5.83,7.15,-0.17,19.96
6021,0.0697,-0.2808,0.8491,-6.08,7.4,-0.11,19.97
6031,0.0696,-0.2906,0.8499,-6.43,7.53,-0.12,19.94
6041,0.0713,-0.2871,0.8484,-6.32,8.02,-0.06,19.95
6051,0.0646,-0.2874,0.8441,-6.14,8.0,0.06,19.96
6061,0.0579,-0.291,0.8464,-5.74,7.77,0.03,19.94
6071,0.0667,-0.2932,0.86,-5.85,7.68,0.06,19.96
6081,0.0643,-0.2885,0.8583,-5.89,8.37,0.0,19.94
6091,0.0646,-0.292,0.8506,-6.24,7.89,0.03,19.96
6101,0.0691,-0.2953,0.8621,-6.11,7.51,-0.15,19.98
6111,0.067,-0.288,0.8533,-5.94,7.37,-0.08,19.97
6121,0.0648,-0.2844,0.8502,-5.74,7.28,-0.03,19.98
6131,0.0691,-0.2902,0.8539,-6.09,7.44,-0.08,19.94
6141,0.072,-0.2854,0.8553,-6.09,8.47,0.06,19.97
6151,0.0603,-0.283,0.8463,-6.18,8.73,0.12,19.94
6161,0.058,-0.2888,0.8545,-6.03,7.98,0.05,19.95
6171,0.0601,-0.2849,0.8602,-5.71,7.66,0.02,19.98
6181,0.0603,-0.28,0.8582,-5.88,7.34,-0.06,19.95
6191,0.0614,-0.2823,0.8556,-6.17,6.96,-0.18,19.97
6201,0.0662,-0.2832,0.8564,-6.37,6.84,-0.12,19.96
6211,0.0653,-0.2837,0.8523,-6.2,7.21,-0.08,19.95
6221,0.0663,-0.2822,0.8475,-6.21,7.31,-0.03,19.96
6231,0.0701,-0.286,0.8562,-5.94,7.51,0.08,19.97
6241,0.0682,-0.2834,0.8536,-5.89,8.17,0.09,19.97
6251,0.0662,-0.2817,0.8535,-5.97,8.44,0.12,19.97
6261,0.0635,-0.2838,0.8569,-6.06,8.24,0.09,19.97
6271,0.0618,-0.2869,0.8624,-5.97,7.89,0.02,19.95
6281,0.0608,-0.2869,0.8572,-5.95,7.66,-0.02,19.93
6291,0.0614,-0.2872,0.8531,-6.03,6.98,-0.14,19.95
6301,0.0681,-0.2894,0.859,-6.0,7.01,-0.12,19.95
6311,0.0664,-0.2889,0.8474,-6.18,7.3,-0.11,19.96
6321,0.0703,-0.2893,0.8522,-6.23,7.79,0.0,19.96
6331,0.0654,-0.2911,0.8484,-6.05,7.92,-0.05,19.97
6341,0.0665,-0.2941,0.8542,-5.74,8.03,0.02,19.95
6351,0.0636,-0.2916,0.8517,-5.69,8.18,0.06,19.94
6361,0.0648,-0.2888,0.8575,-5.94,8.06,-0.05,19.94
6371,0.0635,-0.2922,0.855,-6.09,7.8,0.0,19.97
6381,0.0635,-0.2905,0.8589,-6.29,7.47,-0.15,19.96
6391,0.0624,-0.2876,0.8547,-6.12,7.54,-0.14,19.96
6401,0.0658,-0.2899,0.8518,-6.11,7.53,-0.02,19.96
6411,0.0669,-0.2876,0.851,-6.12,7.76,-0.02,19.97
6421,0.0647,-0.2861,0.8507,-5.94,7.76,0.06,19.96
6431,0.0643,-0.2834,0.8558,-5.8,7.76,0.03,19.96
6446,0.0627,-0.2815,0.856,-5.82,7.79,0.67,19.96
6456,0.0642,-0.2819,0.8564,-6.06,7.56,0.02,19.97
6466,0.0635,-0.2823,0.8558,-6.29,7.62,-0.02,19.96
6476,0.0656,-0.2841,0.8517,-6.29,7.6,0.03,19.98
6486,0.066,-0.2821,0.8496,-6.12,7.62,-0.11,19.95
6496,0.067,-0.2853,0.8499,-6.08,7.68,-0.05,19.95
6506,0.0647,-0.2859,0.8511,-6.06,7.97,0.05,19.97
6516,0.0649,-0.2877,0.8521,-6.08,8.08,0.02,19.99
6526,0.0637,-0.2886,0.8523,-6.11,7.97,0.03,19.98
6536,0.063,-0.2906,0.8556,-6.06,7.73,-0.02,19.95
6547,0.0656,-0.2893,0.8539,-6.2,7.54,-0.06,19.96
6557,0.0643,-0.2902,0.8521,-6.17,7.5,-0.11,19.97
6567,0.0682,-0.2898,0.8523,-6.12,7.56,-0.05,19.97
6577,0.0665,-0.2889,0.8484,-6.09,7.82,0.03,19.95
6587,0.0668,-0.288,0.849,-5.95,7.92,-0.02,19.95
6597,0.0627,-0.2946,0.8522,-5.92,7.98,0.12,20.0
6607,0.0627,-0.2893,0.8544,-5.89,8.0,0.15,19.96
6617,0.0656,-0.2881,0.8523,-5.69,7.86,0.03,19.98
6627,0.0627,-0.2876,0.8556,-5.94,7.63,-0.09,19.95
6637,0.0646,-0.2871,0.8542,-6.08,7.56,-0.06,19.98
6647,0.066,-0.2855,0.8545,-6.08,7.6,-0.11,19.99
6657,0.066,-0.2887,0.85,-6.11,7.69,-0.09,20.0
6667,0.0631,-0.2852,0.849,-5.97,7.79,0.0,19.99
6677,0.066,-0.2883,0.8496,-5.86,7.77,0.02,19.97
6687,0.0634,-0.2889,0.8525,-5.94,7.97,0.05,19.96
6697,0.0616,-0.2861,0.8567,-6.08,7.74,0.05,19.98
6707,0.0641,-0.2877,0.8582,-6.06,7.8,-0.05,19.99
6717,0.0649,-0.2896,0.8567,-6.2,7.92,-0.05,19.98
6727,0.063,-0.2881,0.8521,-6.27,7.97,-0.08,19.98
6737,0.0624,-0.2911,0.8518,-6.24,7.66,-0.09,19.97
6747,0.0635,-0.2909,0.8501,-6.05,7.65,0.03,19.99
6757,0.0667,-0.2872,0.8553,-6.05,7.91,0.02,19.97
6767,0.0652,-0.29,0.8556,-5.94,7.73,-0.06,19.98
6777,0.0635,-0.2916,0.8535,-5.92,7.65,-0.03,19.97
6787,0.0637,-0.2885,0.8585,-5.88,7.56,-0.05,20.0
6797,0.0647,-0.2883,0.8549,-6.14,7.48,-0.15,20.01
6807,0.0638,-0.2866,0.8512,-6.08,7.48,-0.08,20.0
6817,0.0662,-0.2856,0.8542,-6.12,7.36,-0.09,19.98
6827,0.0643,-0.2855,0.8585,-6.06,7.62,-0.12,19.99
6837,0.0647,-0.288,0.8512,-6.17,8.18,-0.03,19.94
6847,0.0651,-0.2899,0.8522,-6.26,8.2,0.05,19.98
6858,0.062,-0.2883,0.8549,-5.89,8.12,0.05,19.98
6868,0.0626,-0.2881,0.8595,-5.85,7.91,0.0,19.97
6878,0.0619,-0.2864,0.8585,-5.85,7.73,0.03,19.98
6888,0.0602,-0.286,0.8572,-5.88,7.3,-0.03,19.96
6898,0.0634,-0.2872,0.8556,-6.14,7.22,-0.11,19.99
6908,0.0648,-0.2864,0.8499,-6.23,7.24,-0.03,20.01
6918,0.067,-0.2876,0.8529,-6.21,7.37,-0.03,19.99
6928,0.067,-0.2889,0.8473,-6.0,7.73,-0.09,19.98
6938,0.0691,-0.2905,0.855,-5.94,8.2,-0.03,19.99
6948,0.0667,-0.288,0.8549,-5.92,8.23,0.06,19.99
6958,0.0616,-0.2891,0.8558,-5.6,7.77,0.15,19.98
6968,0.0612,-0.2902,0.8569,-5.53,7.42,0.02,19.99
6978,0.0649,-0.2885,0.8521,-5.8,7.07,-0.15,19.99
6988,0.0654,-0.2887,0.8539,-6.12,7.4,-0.15,20.0
6998,0.0656,-0.2877,0.8484,-6.4,7.62,-0.09,20.02
7008,0.0648,-0.2887,0.8525,-6.34,7.91,-0.03,19.98
7018,0.0664,-0.2926,0.8477,-5.97,7.97,0.02,19.99
7028,0.0629,-0.2869,0.8505,-5.83,8.24,0.0,19.97
7038,0.0632,-0.2878,0.8575,-5.76,8.09,0.09,19.99
7048,0.0653,-0.2885,0.8589,-5.82,7.89,0.08,19.99
7060,0.061,-0.2859,0.8536,-6.08,7.44,-0.03,19.99
7070,0.0645,-0.2908,0.8569,-6.15,7.01,-0.21,20.0
7080,0.0659,-0.2865,0.8538,-6.14,6.9,-0.2,19.99
7090,0.0701,-0.2871,0.8461,-6.37,7.27,-0.18,19.99
7100,0.0696,-0.2888,0.8474,-6.37,8.02,-0.05,20.0
7110,0.0679,-0.2855,0.8466,-6.32,8.46,0.14,19.98
7120,0.0638,-0.2908,0.8516,-5.89,8.46,0.15,19.99
7130,0.0593,-0.2913,0.8583,-5.77,7.91,0.11,20.03
7140,0.0618,-0.2915,0.8601,-5.6,7.3,0.0,20.01
7150,0.0629,-0.2871,0.8627,-6.14,7.19,-0.12,20.02
7160,0.0648,-0.2914,0.8575,-6.53,7.1,-0.24,19.99
7170,0.0663,-0.2905,0.851,-6.61,7.5,-0.21,20.0
7180,0.0681,-0.288,0.8478,-6.41,7.83,-0.11,20.0
7190,0.0663,-0.2906,0.8452,-6.15,7.86,-0.02,19.99
7200,0.0643,-0.2914,0.8525,-5.71,7.89,0.12,20.02
7210,0.0616,-0.2869,0.8569,-5.65,8.2,0.06,20.01
7220,0.0609,-0.2863,0.8556,-6.06,7.97,0.14,20.02
7230,0.0597,-0.2889,0.8597,-6.4,7.5,0.0,19.99
7240,0.0636,-0.2882,0.8608,-6.49,7.19,-0.21,20.01
7250,0.0681,-0.2861,0.855,-6.47,7.11,-0.14,20.0
7260,0.0671,-0.287,0.8486,-6.41,7.5,-0.17,20.01
7270,0.067,-0.2849,0.8458,-6.43,7.89,-0.08,19.99
7280,0.0657,-0.2892,0.8467,-6.02,8.06,0.12,19.99
7290,0.0646,-0.2881,0.8551,-5.82,8.18,0.15,19.99
7300,0.0591,-0.2885,0.858,-5.82,7.94,0.12,20.0
7310,0.0607,-0.2865,0.8605,-5.94,7.37,0.02,19.99
7320,0.0603,-0.2874,0.861,-6.23,6.87,-0.03,20.01
7330,0.0624,-0.2877,0.8519,-6.46,7.02,-0.17,19.99
7340,0.0679,-0.2883,0.8472,-6.52,7.28,-0.24,19.99
7350,0.0693,-0.2888,0.8458,-6.6,7.68,-0.23,20.02
7360,0.0701,-0.2894,0.8462,-6.34,8.4,0.02,20.02
7370,0.063,-0.2908,0.8506,-6.08,8.78,0.2,20.0
7380,0.0624,-0.2889,0.8522,-5.82,8.67,0.23,20.01
7390,0.0582,-0.2919,0.8542,-5.82,8.05,0.09,19.99
7400,0.0575,-0.2898,0.8584,-5.92,7.13,0.05,19.98
7410,0.061,-0.2871,0.8584,-6.15,6.89,-0.15,20.0
7420,0.064,-0.2869,0.8514,-6.29,6.76,-0.23,20.02
7430,0.0667,-0.2865,0.8481,-6.43,7.1,-0.18,20.01
7440,0.0709,-0.2863,0.8439,-6.34,7.91,-0.2,19.99
7450,0.0697,-0.2888,0.8444,-6.26,8.55,0.03,20.01
7460,0.0632,-0.2917,0.8494,-5.82,8.76,0.21,20.0
7471,0.0598,-0.2904,0.8616,-5.44,8.26,0.2,20.0
7481,0.0604,-0.2859,0.8677,-5.44,7.6,0.08,20.01
7491,0.0609,-0.2882,0.864,-5.89,7.07,-0.12,20.0
7501,0.0625,-0.29,0.8568,-6.55,6.9,-0.38,20.02
7511,0.0656,-0.2915,0.8467,-6.78,7.07,-0.26,20.0
7521,0.069,-0.2905,0.8431,-6.34,7.28,-0.14,20.01
7531,0.0671,-0.2891,0.8508,-5.76,7.66,-0.05,19.99
7541,0.0665,-0.2871,0.8491,-5.48,8.09,0.09,19.98
7551,0.0636,-0.2913,0.8555,-5.51,8.5,0.18,20.04
7561,0.0612,-0.2881,0.8623,-5.77,8.47,0.14,20.04
7571,0.0562,-0.2874,0.8597,-5.94,7.82,0.0,20.01
7581,0.0613,-0.2878,0.8586,-5.97,6.82,-0.2,20.03
7591,0.0668,-0.2872,0.8571,-6.06,6.7,-0.18,20.03
7601,0.0717,-0.286,0.8523,-6.43,7.19,-0.27,20.01
7611,0.0658,-0.2866,0.8472,-6.52,7.68,-0.12,20.0
7621,0.0673,-0.2889,0.849,-6.08,8.17,0.0,20.05
7631,0.068,-0.291,0.8506,-5.71,8.24,0.14,20.03
7641,0.0621,-0.2908,0.8546,-5.37,8.15,0.24,20.01
7651,0.0627,-0.2871,0.8574,-5.5,7.77,0.02,20.02
7661,0.0629,-0.2897,0.8606,-5.77,7.15,-0.03,20.01
7671,0.0625,-0.2892,0.8601,-6.32,7.15,-0.09,20.01
7681,0.0648,-0.2878,0.8519,-6.6,7.45,-0.21,20.02
7691,0.0665,-0.2883,0.8442,-6.38,7.83,-0.17,20.03
7701,0.0645,-0.2905,0.842,-6.09,8.02,-0.03,20.03
7711,0.0676,-0.2897,0.8481,-5.57,8.11,0.17,20.03
7721,0.0632,-0.2888,0.8514,-5.34,8.03,0.2,20.0
7731,0.0608,-0.2899,0.8638,-5.47,7.85,0.12,19.99
7741,0.0587,-0.291,0.8668,-6.0,7.63,-0.02,20.0
7751,0.0632,-0.2899,0.8606,-6.52,7.65,-0.14,20.0
7761,0.0646,-0.2909,0.8506,-6.6,7.65,-0.21,20.0
7771,0.0658,-0.2886,0.8523,-6.24,7.39,-0.09,20.01
7781,0.0677,-0.2891,0.8458,-5.86,7.57,-0.08,20.05
7791,0.0697,-0.2883,0.856,-5.73,7.77,0.03,19.99
7801,0.0638,-0.287,0.8518,-5.89,8.17,0.12,19.99
7811,0.0603,-0.2917,0.8577,-5.82,7.98,0.14,20.01
7821,0.0623,-0.2898,0.8597,-5.88,7.59,-0.02,20.02
7831,0.0627,-0.2899,0.8593,-6.23,7.4,-0.15,20.02
7841,0.0654,-0.2871,0.8513,-6.38,7.68,-0.08,20.03
7851,0.0673,-0.2903,0.8457,-6.34,7.91,-0.02,20.01
7861,0.0662,-0.2894,0.8474,-6.05,7.98,-0.06,20.03
7871,0.0664,-0.29,0.8485,-5.6,7.94,0.02,20.02
7881,0.0638,-0.2882,0.8575,-5.53,7.83,0.05,19.99
7891,0.0616,-0.286,0.8584,-5.82,7.86,0.0,20.04
7901,0.0649,-0.2865,0.859,-6.2,7.97,-0.05,19.99
7911,0.0629,-0.2887,0.8506,-6.43,7.86,-0.18,20.03
7921,0.0618,-0.2906,0.8519,-6.34,7.76,-0.15,20.02
7931,0.0648,-0.2899,0.8481,-6.05,7.51,-0.08,20.02
7941,0.0626,-0.2919,0.849,-5.77,7.3,-0.05,20.01
7951,0.0656,-0.2878,0.854,-5.65,7.51,-0.02,20.02
7961,0.0667,-0.2925,0.8553,-6.05,8.03,0.0,20.03
7971,0.0677,-0.2924,0.8491,-6.15,8.21,0.03,20.01
7981,0.0615,-0.293,0.8495,-6.23,7.94,-0.03,20.02
7991,0.0627,-0.2914,0.8481,-6.03,7.74,-0.05,20.02
8001,0.0603,-0.2899,0.8569,-5.95,7.54,0.02,20.02
8011,0.0601,-0.2893,0.8572,-5.92,7.4,-0.02,20.03
8021,0.0724,-0.2849,0.8372,-5.8,6.76,0.34,20.03
8031,0.0652,-0.2858,0.8612,-5.53,7.07,-0.2,20.05
8041,0.0818,-0.2852,0.851,-6.05,7.31,-0.09,20.04
8051,0.0735,-0.2844,0.8499,-6.47,8.35,0.12,20.04
8061,0.0631,-0.2858,0.8489,-6.35,8.64,0.02,20.04
8071,0.0532,-0.2911,0.8507,-5.74,8.44,0.08,20.02
8081,0.0417,-0.2899,0.8689,-5.16,7.53,-0.27,20.04
8091,0.057,-0.2892,0.8586,-5.39,6.69,-0.14,20.04
8101,0.0615,-0.2817,0.8621,-6.12,7.15,-0.21,20.02
8111,0.0703,-0.2872,0.8484,-6.69,7.33,-0.27,20.03
8121,0.0732,-0.2875,0.844,-6.52,7.63,-0.11,20.01
8131,0.0679,-0.2898,0.8472,-6.09,7.92,-0.11,20.03
8141,0.0621,-0.2897,0.845,-5.69,7.85,0.08,20.04
8151,0.0603,-0.2917,0.8589,-5.45,7.74,0.2,20.04
8161,0.0604,-0.2874,0.8585,-5.47,7.5,0.06,20.04
8171,0.0618,-0.2897,0.8591,-5.68,6.89,-0.11,20.03
8181,0.0612,-0.2881,0.8588,-5.92,6.63,-0.09,20.03
8191,0.0706,-0.2859,0.8547,-6.32,6.9,-0.2,20.06
8201,0.0736,-0.2905,0.848,-6.53,7.53,-0.11,20.03
8211,0.067,-0.2904,0.8434,-6.37,8.03,-0.06,20.04
8221,0.069,-0.2933,0.8451,-6.02,8.43,0.08,20.04
8231,0.0654,-0.2917,0.8495,-5.62,8.6,0.12,20.03
8241,0.0598,-0.2909,0.8528,-5.53,8.11,0.2,20.03
8251,0.0575,-0.2899,0.8615,-5.73,7.62,0.02,20.02
8261,0.0597,-0.2897,0.8601,-6.08,7.05,-0.12,20.04
8271,0.0613,-0.2886,0.8563,-6.46,6.56,-0.32,20.05
8281,0.0665,-0.2853,0.8496,-6.46,6.76,-0.29,20.04
8291,0.0703,-0.286,0.8457,-6.4,7.11,-0.26,20.03
8301,0.068,-0.2858,0.843,-6.03,7.88,-0.08,20.06
8311,0.0702,-0.2848,0.8444,-5.59,8.44,0.15,20.04
8321,0.0637,-0.2844,0.8575,-5.45,8.73,0.27,20.05
8331,0.0601,-0.2892,0.864,-5.6,8.44,0.21,20.04
8341,0.0554,-0.2892,0.865,-5.92,7.65,0.15,20.04
8351,0.0597,-0.288,0.8669,-6.38,6.92,-0.15,20.03
8361,0.0654,-0.2854,0.8616,-6.63,6.73,-0.34,20.04
8371,0.068,-0.2854,0.8455,-6.7,7.08,-0.29,20.03
8381,0.0698,-0.29,0.8398,-6.43,7.66,-0.03,20.04
8391,0.0691,-0.2913,0.8401,-6.05,8.46,0.14,20.02
8401,0.0668,-0.2911,0.8475,-5.6,8.82,0.34,20.04
8411,0.0599,-0.2903,0.8584,-5.33,8.6,0.29,20.04
8421,0.0583,-0.2905,0.8594,-5.51,7.94,0.09,20.04
8431,0.0604,-0.2906,0.8645,-5.91,7.42,-0.12,20.04
8441,0.0627,-0.2863,0.8595,-6.5,7.24,-0.26,20.04
8451,0.0635,-0.293,0.8503,-6.84,7.18,-0.31,20.04
8461,0.0695,-0.292,0.8436,-6.52,7.44,-0.29,20.04
8471,0.0712,-0.2911,0.8408,-6.05,7.83,-0.09,20.04
8481,0.0662,-0.2927,0.8475,-5.53,8.41,0.08,20.06
8491,0.0587,-0.2876,0.8547,-5.34,8.52,0.24,20.04
8501,0.0597,-0.2892,0.8607,-5.39,8.06,0.23,20.03
8511,0.058,-0.286,0.8618,-5.69,7.65,0.06,20.04
8521,0.0627,-0.287,0.8636,-6.27,7.1,-0.2,20.03
8531,0.0659,-0.2847,0.8561,-6.56,6.95,-0.31,20.03
8541,0.064,-0.2855,0.8505,-6.47,6.85,-0.31,20.04
8551,0.0679,-0.285,0.8463,-6.11,7.22,-0.08,20.04
8561,0.0674,-0.2885,0.8419,-5.63,7.71,0.0,20.03
8571,0.0691,-0.2875,0.8491,-5.36,8.29,0.14,20.04
8581,0.0629,-0.2839,0.8564,-5.44,8.67,0.12,20.05
8591,0.0559,-0.2906,0.8611,-5.76,8.24,0.17,20.07
8601,0.0601,-0.2924,0.8623,-5.95,7.57,-0.06,20.06
8611,0.0588,-0.2908,0.8612,-6.09,6.93,-0.24,20.04
8621,0.0653,-0.2897,0.8558,-6.23,6.63,-0.31,20.05
8631,0.0687,-0.2892,0.8475,-6.23,6.98,-0.2,20.03
8641,0.0686,-0.2871,0.8451,-6.08,7.85,-0.06,20.05
8651,0.0681,-0.2892,0.8407,-6.03,8.7,0.06,20.04
8661,0.0635,-0.291,0.8508,-5.6,8.72,0.17,20.05
8671,0.0624,-0.2905,0.8553,-5.42,8.44,0.17,20.04
8681,0.059,-0.2908,0.8611,-5.68,7.85,0.18,20.04
8691,0.0594,-0.2877,0.8647,-6.08,7.24,-0.06,20.06
8701,0.062,-0.2906,0.8585,-6.4,6.82,-0.27,20.03
8711,0.0621,-0.2897,0.8527,-6.55,6.61,-0.37,20.06
8721,0.0663,-0.2898,0.8486,-6.38,6.98,-0.26,20.07
8731,0.0712,-0.2894,0.8444,-6.09,7.94,-0.14,20.06
8741,0.0698,-0.2885,0.8475,-5.91,8.81,0.14,20.04
8751,0.0621,-0.2858,0.8481,-5.6,9.21,0.31,20.07
8761,0.0591,-0.2915,0.8572,-5.39,8.56,0.34,20.06
8771,0.057,-0.2904,0.8639,-5.4,7.62,0.02,20.04
8781,0.0581,-0.286,0.8668,-5.8,6.6,-0.2,20.05
8791,0.062,-0.286,0.8595,-6.27,6.31,-0.34,20.04
8801,0.0696,-0.2848,0.8513,-6.72,6.6,-0.34,20.04
8811,0.0717,-0.286,0.8456,-6.75,7.34,-0.17,20.07
8821,0.0704,-0.2896,0.838,-6.18,7.98,-0.08,20.05
8831,0.0646,-0.2886,0.8452,-5.69,8.58,0.21,20.06
8841,0.0641,-0.2882,0.8511,-5.31,8.58,0.29,20.06
8851,0.0619,-0.2899,0.8663,-5.44,8.24,0.24,20.07
8861,0.0607,-0.2881,0.8646,-5.88,7.69,0.02,20.06
8871,0.0618,-0.2892,0.8622,-6.18,7.08,-0.23,20.04
8881,0.0636,-0.2881,0.8544,-6.43,6.64,-0.32,20.06
8891,0.0657,-0.2885,0.8486,-6.44,6.85,-0.31,20.04
8901,0.072,-0.2903,0.8453,-6.23,7.39,-0.17,20.06
8911,0.068,-0.2849,0.8448,-5.82,8.11,0.06,20.03
8921,0.0673,-0.2877,0.8502,-5.51,8.38,0.2,20.05
8931,0.0632,-0.2875,0.8573,-5.37,8.43,0.21,20.09
8941,0.0587,-0.2883,0.8633,-5.66,8.11,0.06,20.06
8951,0.0568,-0.2861,0.8632,-6.02,7.65,-0.06,20.06
8961,0.0612,-0.2919,0.8607,-6.41,7.01,-0.17,20.05
8971,0.0632,-0.2882,0.8528,-6.63,6.82,-0.32,20.05
8981,0.0681,-0.2888,0.8505,-6.58,7.1,-0.23,20.06
8991,0.0691,-0.2902,0.8464,-6.27,7.57,-0.09,20.07
9001,0.0651,-0.2905,0.8467,-5.94,7.95,0.08,20.05
9011,0.0652,-0.2916,0.851,-5.63,8.29,0.15,20.06
9021,0.0612,-0.2924,0.8613,-5.6,8.37,0.14,20.05
9031,0.0599,-0.2926,0.8632,-5.91,8.03,0.03,20.07
9041,0.0581,-0.2896,0.8596,-6.21,7.8,-0.06,20.06
9051,0.0618,-0.2915,0.8584,-6.29,7.13,-0.15,20.07
9061,0.0642,-0.2916,0.8546,-6.26,7.01,-0.17,20.07
9071,0.0631,-0.2904,0.8491,-6.2,7.1,-0.11,20.06
9081,0.0679,-0.2872,0.8477,-6.08,7.56,-0.11,20.05
9091,0.0663,-0.2896,0.8506,-5.86,7.95,0.05,20.07
9101,0.0647,-0.2888,0.8562,-5.68,7.98,0.05,20.06
9111,0.0658,-0.29,0.8586,-5.65,7.98,0.0,20.07
9121,0.063,-0.2916,0.8613,-6.03,7.74,0.11,20.05
9131,0.0618,-0.2911,0.8557,-6.2,7.54,-0.08,20.08
9141,0.0626,-0.2938,0.8517,-6.21,7.28,-0.18,20.07
9151,0.0637,-0.2908,0.8483,-6.06,7.22,-0.17,20.07
9161,0.0634,-0.2876,0.8481,-5.91,7.24,-0.02,20.08
9171,0.0675,-0.2859,0.8538,-5.73,7.53,0.02,20.07
9181,0.0681,-0.2883,0.853,-5.88,7.88,0.08,20.04
9191,0.0656,-0.2908,0.8527,-6.14,7.88,0.11,20.07
9201,0.0653,-0.2911,0.854,-6.15,8.05,0.11,20.07
9211,0.0609,-0.2899,0.8508,-6.18,7.71,-0.06,20.05
9221,0.0614,-0.2889,0.8569,-5.91,7.44,-0.17,20.08
9231,0.0675,-0.2861,0.8502,-5.89,7.45,-0.14,20.06
9241,0.0663,-0.2864,0.8545,-6.05,7.62,0.03,20.07
9251,0.0665,-0.2865,0.8489,-5.95,7.74,0.09,20.07
9261,0.0637,-0.2906,0.8529,-5.8,7.62,0.05,20.06
9271,0.0631,-0.2871,0.8573,-5.74,7.59,0.03,20.06
9281,0.0664,-0.286,0.8529,-5.8,7.56,-0.06,20.06
9291,0.0664,-0.2856,0.8544,-5.92,7.65,-0.03,20.05
9301,0.0641,-0.2876,0.8529,-6.23,7.95,-0.02,20.05
9311,0.0647,-0.2905,0.8533,-6.34,7.89,0.02,20.06
9321,0.0615,-0.2905,0.854,-6.05,7.79,0.03,20.05
9331,0.0605,-0.2904,0.8516,-5.77,7.56,-0.02,20.05
9341,0.0654,-0.288,0.8546,-5.85,7.6,0.0,20.06
9351,0.0687,-0.2914,0.8517,-6.02,7.69,-0.06,20.06
9361,0.0631,-0.2914,0.8527,-6.08,7.83,0.0,20.07
9371,0.0642,-0.2899,0.8518,-6.17,7.86,-0.05,20.06
9381,0.0646,-0.2925,0.8508,-6.2,7.91,0.0,20.08
9391,0.0605,-0.293,0.8512,-5.95,7.79,0.02,20.07
9401,0.0636,-0.2916,0.8503,-5.88,7.62,0.05,20.06
9411,0.0651,-0.2883,0.8557,-5.91,7.53,-0.05,20.07
9421,0.0646,-0.2887,0.8567,-6.03,7.5,-0.12,20.07
9431,0.0654,-0.2876,0.8533,-6.17,7.66,-0.15,20.07
9441,0.064,-0.2861,0.8516,-6.2,7.85,0.02,20.06
9451,0.0626,-0.286,0.8505,-5.98,7.92,0.08,20.05
9461,0.062,-0.2855,0.8531,-5.73,7.85,0.0,20.09
9471,0.0605,-0.2876,0.8568,-5.53,7.54,0.09,20.07
9481,0.0614,-0.2865,0.8573,-5.73,7.4,0.0,20.07
9491,0.0642,-0.2881,0.8561,-6.02,7.44,-0.12,20.08
9501,0.0629,-0.2915,0.8508,-6.34,7.53,-0.11,20.07
9511,0.0652,-0.2896,0.8511,-6.23,7.57,-0.11,20.08
9521,0.0675,-0.2875,0.8492,-6.06,7.66,-0.06,20.08
9531,0.0679,-0.288,0.8483,-5.95,7.88,0.02,20.07
9541,0.0608,-0.2887,0.8525,-5.85,8.09,0.03,20.07
9551,0.0645,-0.2908,0.855,-5.97,8.05,0.03,20.05
9561,0.0599,-0.2906,0.8583,-5.85,7.82,0.09,20.07
9571,0.0626,-0.2909,0.8619,-5.91,7.44,-0.02,20.07
9581,0.0658,-0.2903,0.8539,-6.05,7.24,-0.2,20.07
9591,0.0652,-0.2889,0.8516,-6.23,7.48,-0.05,20.07
9601,0.0693,-0.2915,0.8499,-6.44,7.74,-0.08,20.07
9611,0.066,-0.2877,0.8469,-6.17,7.97,-0.03,20.07
9621,0.0613,-0.2899,0.8517,-5.79,8.11,0.09,20.09
9631,0.0621,-0.2898,0.8562,-5.74,8.05,0.08,20.06
9641,0.0612,-0.2875,0.8601,-5.89,7.92,0.02,20.08
9651,0.0637,-0.2872,0.8578,-6.17,7.74,-0.03,20.09
9661,0.0647,-0.2888,0.8541,-6.37,7.59,-0.08,20.07
9671,0.0653,-0.2897,0.851,-6.29,7.45,-0.18,20.09
9681,0.0651,-0.2855,0.8517,-6.21,7.6,-0.15,20.06
9691,0.0642,-0.2897,0.8516,-6.17,7.8,0.03,20.09
9701,0.0632,-0.2891,0.8511,-6.0,7.94,0.02,20.09
9711,0.0619,-0.2906,0.855,-5.79,7.95,0.11,20.07
9721,0.0645,-0.2867,0.8564,-5.83,7.71,0.08,20.08
9731,0.0641,-0.2858,0.8561,-6.06,7.5,0.05,20.08
9741,0.0636,-0.2882,0.8562,-6.41,7.57,-0.02,20.1
9751,0.0637,-0.2889,0.8523,-6.49,7.71,-0.11,20.09
9761,0.0665,-0.2908,0.8491,-6.32,7.76,-0.08,20.09
9771,0.0657,-0.2946,0.8511,-6.03,7.8,-0.03,20.1
9781,0.0646,-0.2925,0.8453,-5.85,7.76,0.11,20.08
9791,0.0652,-0.2916,0.8518,-5.74,7.65,0.08,20.09
9801,0.0624,-0.2915,0.8555,-5.91,7.6,0.0,20.08
9811,0.0638,-0.2917,0.8553,-6.03,7.57,0.02,20.07
9821,0.0664,-0.2913,0.8564,-6.18,7.48,-0.06,20.08
9831,0.0647,-0.2905,0.8462,-6.34,7.71,-0.21,20.07
9841,0.0677,-0.2949,0.8489,-6.21,7.83,-0.17,20.09
9851,0.0659,-0.2915,0.8519,-5.92,7.94,-0.03,20.1
9861,0.0645,-0.2872,0.8529,-5.66,7.88,0.06,20.09
9871,0.0648,-0.2878,0.8513,-5.66,7.8,0.06,20.08
9881,0.0624,-0.2889,0.8599,-5.85,7.71,0.02,20.12
9891,0.0586,-0.2877,0.8562,-6.02,7.39,-0.03,20.08
9901,0.0643,-0.2888,0.8531,-6.18,7.4,-0.17,20.11
9911,0.0642,-0.2913,0.8542,-6.14,7.42,-0.09,20.08
9921,0.0645,-0.2906,0.8503,-6.08,7.5,-0.09,20.09
9931,0.0648,-0.2891,0.8505,-5.89,7.82,-0.03,20.08
9941,0.0659,-0.2875,0.8514,-5.97,8.12,0.02,20.1
9951,0.0656,-0.2892,0.8549,-5.95,8.32,0.18,20.1
9961,0.0609,-0.2902,0.8538,-5.85,8.02,0.14,20.08
9971,0.0604,-0.2916,0.8568,-5.85,7.36,-0.03,20.07
9981,0.0623,-0.2908,0.8567,-6.05,7.15,-0.12,20.09
9991,0.0662,-0.2885,0.8558,-6.15,7.22,-0.12,20.09
10001,0.0653,-0.2886,0.8496,-6.37,7.5,-0.12,20.06
10011,0.0658,-0.2871,0.8462,-6.27,7.88,0.0,20.09
10021,0.0642,-0.2899,0.8494,-6.0,8.02,0.09,20.08
10031,0.0648,-0.2898,0.8542,-5.65,7.97,0.08,20.1
10041,0.0608,-0.2914,0.858,-5.62,7.79,-0.02,20.1
10051,0.061,-0.2865,0.8591,-5.91,7.69,0.02,20.08
10061,0.0609,-0.2887,0.8591,-6.26,7.48,-0.05,20.09
10071,0.0621,-0.2882,0.8573,-6.26,7.28,-0.15,20.09
10081,0.0681,-0.2914,0.8527,-6.31,7.34,-0.15,20.1
10091,0.0646,-0.2874,0.8453,-6.11,7.68,-0.09,20.08
10101,0.0637,-0.291,0.8485,-5.94,7.98,0.0,20.1
10111,0.0636,-0.288,0.8502,-5.83,8.23,0.06,20.11
10121,0.0654,-0.2919,0.8567,-5.8,8.17,0.03,20.12
10131,0.063,-0.2909,0.8579,-5.91,7.92,0.03,20.11
10141,0.0616,-0.2875,0.8555,-6.32,7.6,-0.14,20.1
10151,0.0623,-0.2906,0.8552,-6.41,7.33,-0.17,20.1
10161,0.0641,-0.2894,0.8551,-6.31,7.36,-0.18,20.1
10171,0.0669,-0.2896,0.8486,-6.17,7.44,-0.12,20.09
10181,0.0667,-0.2899,0.8488,-6.03,7.6,0.05,20.08
10191,0.0659,-0.2885,0.8545,-5.83,7.91,0.0,20.09
10201,0.0647,-0.2908,0.8521,-5.8,7.86,0.14,20.07
10211,0.062,-0.2908,0.8597,-5.83,7.83,0.06,20.07
10221,0.0649,-0.2898,0.8578,-5.83,7.6,-0.03,20.09
10231,0.0635,-0.2911,0.8555,-6.06,7.47,-0.09,20.09
10241,0.0636,-0.2899,0.8507,-6.08,7.37,-0.09,20.06
10251,0.0626,-0.2908,0.8502,-6.12,7.48,-0.09,20.09
10261,0.0616,-0.2888,0.8512,-6.2,7.71,0.03,20.07
10271,0.0645,-0.2933,0.8521,-6.05,7.88,0.03,20.08
10281,0.0664,-0.2887,0.8485,-6.06,7.95,0.02,20.08
10291,0.0667,-0.2893,0.8561,-5.91,7.86,-0.05,20.09
10301,0.0653,-0.2903,0.8535,-6.11,7.91,-0.03,20.11
10311,0.0645,-0.2896,0.8545,-6.27,7.83,0.0,20.1
10321,0.0635,-0.287,0.8585,-6.24,7.62,-0.08,20.1
10331,0.0612,-0.2915,0.8516,-5.86,7.44,-0.06,20.11
10341,0.062,-0.2863,0.8516,-5.74,7.44,0.0,20.09
10351,0.0619,-0.288,0.8555,-5.85,7.5,-0.05,20.09
10361,0.0649,-0.2872,0.8518,-6.02,7.79,-0.15,20.09
10371,0.0621,-0.2875,0.8572,-6.11,7.91,0.0,20.08
10381,0.0632,-0.2896,0.8531,-6.17,7.88,0.06,20.09
10391,0.0614,-0.2874,0.8531,-6.08,7.74,-0.03,20.08
10401,0.064,-0.2886,0.8544,-6.0,7.51,-0.11,20.11
10411,0.0642,-0.2893,0.853,-5.95,7.48,0.02,20.1
10421,0.0646,-0.2905,0.8529,-5.98,7.47,0.02,20.1
10431,0.0643,-0.2902,0.8527,-5.95,7.56,0.09,20.09
10441,0.0624,-0.2886,0.8529,-5.95,7.66,0.0,20.09
10451,0.0623,-0.2902,0.8539,-6.06,7.8,0.06,20.1
10461,0.062,-0.29,0.8562,-6.03,7.95,0.05,20.1
10471,0.0613,-0.2911,0.8513,-5.94,7.68,0.03,20.12
10481,0.0632,-0.2914,0.8577,-5.77,7.51,-0.02,20.12
10491,0.0642,-0.291,0.856,-5.85,7.51,-0.05,20.11
10501,0.0631,-0.2904,0.8529,-6.24,7.79,-0.11,20.06
10511,0.0632,-0.2908,0.8527,-6.46,8.0,-0.12,20.09
10522,0.0623,-0.2921,0.8529,-6.23,8.02,-0.03,20.1
10532,0.0651,-0.2921,0.8544,-5.8,7.89,-0.05,20.06
10542,0.0623,-0.2883,0.8534,-5.73,7.85,-0.06,20.09
10552,0.0641,-0.2874,0.8557,-5.76,7.63,-0.11,20.09
10562,0.0647,-0.2894,0.8552,-6.23,7.73,-0.05,20.08
10572,0.0615,-0.2867,0.8571,-6.14,7.53,-0.06,20.09
10582,0.0629,-0.2876,0.8558,-6.05,7.16,-0.03,20.1
10592,0.063,-0.2897,0.8533,-5.8,7.15,-0.11,20.09
10603,0.0667,-0.2866,0.8506,-6.03,7.48,-0.02,20.09
10613,0.0636,-0.2885,0.8513,-6.29,7.85,-0.06,20.04
10623,0.0662,-0.2891,0.8512,-6.18,8.34,0.09,20.09
10633,0.063,-0.2876,0.8467,-5.98,8.43,0.06,20.08
10643,0.0594,-0.2893,0.8558,-5.65,7.86,0.02,20.1
10653,0.0587,-0.2891,0.8583,-5.56,7.48,0.0,20.1
10663,0.062,-0.2891,0.8601,-5.8,7.33,-0.12,20.09
10673,0.0608,-0.2892,0.8555,-6.27,7.6,-0.15,20.11
10683,0.0652,-0.2924,0.8499,-6.43,7.74,0.0,20.1
10693,0.069,-0.2919,0.8461,-6.2,7.91,-0.03,20.1
10703,0.0638,-0.2938,0.8462,-5.85,7.74,0.0,20.12
10713,0.0619,-0.2894,0.8516,-5.65,7.73,0.08,20.12
10723,0.0642,-0.2898,0.8556,-5.82,7.62,0.05,20.09
10733,0.0615,-0.2891,0.8605,-5.97,7.85,-0.03,20.11
10743,0.0647,-0.2874,0.8602,-6.29,7.69,-0.12,20.05
10753,0.0636,-0.2891,0.8541,-6.24,7.6,-0.12,20.1
10763,0.0654,-0.2881,0.8497,-6.03,7.51,-0.11,20.09
10773,0.0646,-0.2904,0.8497,-5.86,7.57,-0.12,20.11
10783,0.0631,-0.2903,0.8513,-5.74,7.85,-0.03,20.12
10793,0.0648,-0.2865,0.8486,-5.83,7.91,0.0,20.12
10803,0.0623,-0.2874,0.8521,-6.02,8.02,-0.06,20.09
10813,0.0637,-0.2888,0.8544,-5.92,7.94,-0.09,20.14
10823,0.0626,-0.2896,0.8544,-6.08,7.68,-0.02,20.08
10833,0.0634,-0.293,0.8534,-6.2,7.42,-0.08,20.11
10843,0.0663,-0.2891,0.8534,-6.27,7.59,-0.08,20.12
10853,0.0643,-0.2899,0.8446,-6.14,7.71,-0.08,20.07
10863,0.0621,-0.2896,0.8506,-5.95,7.74,0.0,20.1
10873,0.0624,-0.2908,0.8508,-5.85,7.73,0.05,20.09
10883,0.0637,-0.2863,0.8567,-5.79,7.94,0.14,20.1
10893,0.0612,-0.2899,0.8561,-5.89,7.77,0.06,20.1
10903,0.0627,-0.2878,0.8544,-6.03,7.71,0.02,20.11
10913,0.0646,-0.2878,0.854,-6.2,7.51,-0.08,20.09
10923,0.063,-0.2916,0.8534,-6.09,7.51,-0.06,20.12
10933,0.0645,-0.2871,0.8521,-5.97,7.65,-0.08,20.09
10943,0.0625,-0.2892,0.8508,-5.95,7.8,0.0,20.11
10953,0.0631,-0.2898,0.8516,-5.83,7.71,0.08,20.09
10963,0.0636,-0.2919,0.8535,-5.8,7.65,0.03,20.1
10973,0.0634,-0.2911,0.8524,-5.79,7.71,-0.09,20.13
10983,0.0613,-0.2906,0.8547,-6.06,7.54,-0.05,20.12
10993,0.0638,-0.2886,0.8535,-6.18,7.68,-0.11,20.09
11003,0.0648,-0.2891,0.8521,-6.21,7.76,-0.08,20.09
11013,0.0641,-0.2922,0.8495,-6.05,7.83,0.03,20.1
11023,0.0615,-0.2883,0.849,-5.95,7.77,-0.03,20.12
11033,0.0616,-0.2874,0.8516,-5.71,7.47,0.06,20.1
11043,0.0627,-0.287,0.855,-5.71,7.54,0.0,20.11
11053,0.0629,-0.2922,0.8564,-6.05,7.65,0.0,20.11
11063,0.0654,-0.2922,0.8542,-6.29,7.63,-0.11,20.13
11073,0.0671,-0.291,0.853,-6.35,7.5,-0.14,20.1
11083,0.0675,-0.2913,0.8552,-6.14,7.66,-0.12,20.1
11093,0.0671,-0.2887,0.8488,-5.82,7.91,-0.08,20.09
11103,0.0652,-0.2892,0.8483,-5.8,8.12,0.03,20.09
11113,0.0637,-0.2921,0.8573,-5.74,8.26,0.06,20.11
11123,0.0608,-0.2922,0.8511,-5.86,8.11,0.08,20.13
11134,0.0579,-0.2913,0.86,-5.97,7.73,0.0,20.11
11144,0.0613,-0.2899,0.8586,-6.02,7.36,-0.08,20.09
11154,0.0646,-0.2858,0.8563,-6.0,7.28,-0.18,20.11
11164,0.0671,-0.2905,0.8542,-6.03,7.19,-0.08,20.1
11174,0.0686,-0.2896,0.8527,-6.12,7.59,0.0,20.09
11184,0.0667,-0.2861,0.8496,-6.02,7.82,0.08,20.1
11195,0.0634,-0.2865,0.8496,-5.83,7.98,0.17,20.09
11205,0.0637,-0.2877,0.8542,-5.86,8.06,0.11,20.08
11215,0.0613,-0.2892,0.8558,-6.0,8.09,0.0,20.1
11225,0.061,-0.2889,0.8567,-6.18,8.06,0.0,20.09
11235,0.0631,-0.2892,0.8546,-6.17,7.71,0.03,20.12
11245,0.0638,-0.2933,0.8519,-6.0,7.45,-0.05,20.12
11255,0.0636,-0.291,0.8507,-6.03,7.21,-0.03,20.11
11265,0.0648,-0.2924,0.8501,-5.91,7.18,-0.06,20.12
11275,0.0638,-0.29,0.8519,-6.03,7.5,-0.05,20.1
11285,0.0624,-0.2903,0.8511,-6.08,7.66,-0.02,20.12
11295,0.0664,-0.2892,0.8524,-6.14,7.97,0.11,20.1
11305,0.0646,-0.2891,0.8575,-6.14,8.08,0.03,20.12
11316,0.0632,-0.2883,0.8533,-6.06,8.06,0.03,20.11
11326,0.0626,-0.2898,0.8535,-6.02,7.68,0.02,20.12
11336,0.056,-0.2872,0.8557,-5.68,7.44,0.0,20.12
11346,0.0583,-0.2886,0.8584,-5.69,7.04,-0.11,20.11
11356,0.0636,-0.2866,0.8562,-5.83,7.02,-0.11,20.12
11366,0.0659,-0.2843,0.8518,-6.26,7.42,-0.09,20.12
11376,0.0665,-0.2897,0.851,-6.37,8.02,-0.11,20.11
11386,0.0613,-0.2904,0.8502,-6.26,8.08,0.03,20.12
11397,0.0638,-0.2915,0.8534,-5.89,7.8,0.09,20.09
11407,0.0613,-0.2909,0.8536,-5.45,7.51,0.03,20.11
11417,0.062,-0.2864,0.8586,-5.59,7.28,0.06,20.1
11427,0.0637,-0.2889,0.8604,-6.15,7.53,-0.05,20.1
11437,0.0614,-0.2931,0.8511,-6.32,7.4,-0.18,20.11
11447,0.0735,-0.2909,0.8529,-6.31,7.36,-0.11,20.14
11457,0.0613,-0.2889,0.8527,-6.06,7.65,-0.2,20.15
11467,0.0682,-0.2904,0.8455,-5.88,7.66,-0.12,20.12
11477,0.0605,-0.2885,0.8533,-5.82,8.27,-0.03,20.12
11487,0.0562,-0.2888,0.8586,-5.73,8.23,0.06,20.12
11497,0.0588,-0.2885,0.8555,-5.8,8.24,0.06,20.13
11507,0.0624,-0.2865,0.8552,-6.08,7.76,-0.02,20.14
11517,0.0626,-0.2903,0.8563,-6.11,7.44,-0.05,20.12
11527,0.0616,-0.288,0.8523,-6.15,7.07,-0.09,20.11
11537,0.064,-0.2874,0.8557,-5.94,6.92,-0.15,20.12
11547,0.0681,-0.2866,0.8534,-5.86,7.39,-0.15,20.11
11557,0.0662,-0.2856,0.8478,-6.06,7.89,0.0,20.1
11567,0.0651,-0.2913,0.8525,-5.95,8.23,0.12,20.11
11577,0.0605,-0.2885,0.8546,-5.76,8.17,0.06,20.14
11587,0.0613,-0.2894,0.8584,-5.74,8.03,0.11,20.11
11597,0.0631,-0.2896,0.8582,-5.94,7.65,0.02,20.12
11607,0.0601,-0.2925,0.8607,-6.09,7.11,-0.06,20.13
11617,0.0625,-0.29,0.8527,-6.23,6.75,-0.18,20.11
11627,0.0662,-0.2911,0.8519,-6.43,6.9,-0.24,20.11
11638,0.0681,-0.2892,0.8507,-6.18,7.51,-0.11,20.13
11648,0.0648,-0.2892,0.8446,-6.05,8.05,0.08,20.12
11658,0.0631,-0.2898,0.8494,-5.88,8.41,0.15,20.13
11668,0.061,-0.2924,0.8539,-5.69,8.49,0.17,20.13
11678,0.0587,-0.2893,0.8583,-5.83,8.15,0.08,20.12
11688,0.0603,-0.2903,0.8627,-5.86,7.74,-0.05,20.1
11698,0.0604,-0.2881,0.8585,-6.29,7.42,-0.08,20.12
11708,0.0656,-0.2921,0.8555,-6.23,7.36,-0.21,20.12
11718,0.0673,-0.2906,0.8473,-6.23,7.39,-0.17,20.14
11728,0.0668,-0.2902,0.8469,-6.14,7.66,-0.11,20.13
11738,0.0643,-0.2889,0.8461,-5.91,7.98,0.12,20.13
11748,0.0624,-0.2891,0.8486,-5.82,8.03,0.15,20.13
11758,0.0616,-0.2888,0.8528,-5.74,8.05,0.05,20.13
11768,0.0602,-0.2892,0.8584,-5.83,7.74,-0.02,20.12
11779,0.064,-0.2917,0.8574,-6.03,7.37,-0.06,20.14
11789,0.0629,-0.291,0.8563,-6.29,7.48,-0.08,20.14
11799,0.0658,-0.2865,0.8528,-6.41,7.54,-0.14,20.1
11809,0.0637,-0.291,0.8492,-6.21,7.68,0.03,20.12
11819,0.0653,-0.2899,0.8523,-6.0,7.76,-0.03,20.12
11829,0.0605,-0.288,0.8483,-5.79,7.79,0.03,20.14
11839,0.0634,-0.2867,0.8595,-5.85,7.74,0.06,20.12
11849,0.0648,-0.2899,0.8601,-5.95,7.74,0.11,20.14
11859,0.0625,-0.288,0.8528,-6.18,7.69,-0.03,20.14
11869,0.0626,-0.2888,0.8535,-6.27,7.85,-0.09,20.14
11879,0.0624,-0.287,0.8512,-6.11,7.85,-0.02,20.12
11889,0.0642,-0.2915,0.85,-5.91,7.79,-0.05,20.15
11899,0.0646,-0.2893,0.8522,-5.8,7.83,-0.03,20.14
11909,0.0618,-0.2899,0.8522,-5.86,7.77,0.03,20.12
11919,0.0636,-0.2902,0.8571,-5.95,7.53,-0.02,20.13
11929,0.0637,-0.2932,0.8563,-6.02,7.34,-0.05,20.14
11939,0.0669,-0.2914,0.8496,-6.09,7.48,-0.12,20.12
11949,0.0664,-0.2933,0.8499,-6.26,7.4,-0.18,20.14
11959,0.0659,-0.2938,0.8458,-6.0,7.69,-0.06,20.14
11969,0.0634,-0.2919,0.8452,-5.8,7.83,-0.03,20.12
11979,0.0623,-0.2939,0.8501,-5.85,7.91,0.03,20.14
11989,0.0643,-0.2917,0.856,-5.82,7.97,0.14,20.14
11999,0.0624,-0.2878,0.8608,-6.11,7.94,-0.02,20.15
12009,0.062,-0.2924,0.8525,-6.29,7.86,-0.03,20.14
12019,0.0612,-0.2882,0.8544,-6.08,7.44,-0.12,20.14
12029,0.0623,-0.2903,0.8552,-5.94,7.11,-0.24,20.15
12039,0.0698,-0.2877,0.8513,-5.79,7.28,-0.11,20.14
12049,0.0665,-0.2867,0.8491,-5.95,7.54,-0.03,20.13
12059,0.0656,-0.2876,0.8527,-6.08,7.97,-0.03,20.12
12069,0.0614,-0.2865,0.8551,-5.94,8.09,0.02,20.13
12079,0.0583,-0.2877,0.8556,-5.89,7.8,0.03,20.12
12089,0.0602,-0.2892,0.8569,-5.88,7.39,0.0,20.13
12099,0.0624,-0.2881,0.8594,-5.94,7.31,-0.09,20.14
12109,0.0641,-0.29,0.8579,-6.15,7.31,-0.18,20.16
12119,0.0663,-0.288,0.8534,-6.11,7.42,-0.02,20.13
12129,0.0671,-0.2837,0.8503,-6.08,7.68,0.0,20.14
12139,0.0625,-0.2843,0.8462,-5.91,7.88,0.06,20.15
12149,0.0635,-0.2891,0.8544,-5.77,7.89,0.18,20.14
12159,0.0604,-0.2906,0.855,-5.88,7.71,0.02,20.13
12169,0.0621,-0.2891,0.858,-6.05,7.39,-0.02,20.15
12179,0.0638,-0.2903,0.8572,-6.14,7.25,-0.17,20.15
12189,0.0654,-0.2913,0.8562,-6.37,7.3,-0.17,20.13
12199,0.0664,-0.2943,0.8546,-6.4,7.69,-0.12,20.15
12209,0.0688,-0.293,0.8451,-6.41,8.08,0.02,20.13
12219,0.0656,-0.297,0.8441,-6.29,8.37,0.08,20.13
12229,0.0627,-0.2939,0.8496,-5.88,8.15,0.15,20.12
12239,0.0615,-0.2971,0.8563,-5.57,7.82,0.05,20.13
12249,0.0593,-0.2915,0.8604,-5.77,7.59,0.03,20.13
12259,0.0645,-0.2898,0.8552,-6.06,7.25,-0.11,20.14
12269,0.0667,-0.2885,0.8529,-6.29,7.39,-0.17,20.16
12279,0.0668,-0.2903,0.8484,-6.41,7.65,-0.12,20.15
12289,0.0651,-0.2865,0.8475,-6.05,7.85,0.0,20.17
12299,0.0625,-0.287,0.8495,-5.77,7.97,0.05,20.15
12310,0.0623,-0.2896,0.851,-5.63,7.98,0.12,20.11
12320,0.061,-0.2853,0.8578,-5.73,7.91,0.09,20.15
12331,0.0634,-0.2865,0.8589,-6.11,7.83,0.03,20.16
12341,0.0614,-0.2864,0.8601,-6.58,7.4,-0.09,20.14
12351,0.0625,-0.2893,0.853,-6.38,7.15,-0.18,20.16
12361,0.0658,-0.2876,0.854,-6.18,7.16,-0.12,20.14
12371,0.0635,-0.2865,0.8489,-6.02,7.37,0.0,20.15
12381,0.0635,-0.2869,0.8488,-5.83,7.56,0.14,20.15
12391,0.0643,-0.2871,0.8544,-5.73,7.92,0.08,20.13
12401,0.0607,-0.288,0.8536,-5.82,7.91,0.06,20.16
12411,0.0601,-0.2886,0.8591,-5.77,7.73,0.05,20.14
12421,0.0609,-0.2882,0.859,-5.89,7.33,-0.06,20.13
12431,0.0601,-0.2893,0.8534,-5.82,6.9,-0.05,20.14
12441,0.0665,-0.2904,0.8512,-5.88,7.15,-0.12,20.16
12451,0.0652,-0.2893,0.8507,-5.98,7.63,-0.12,20.17
12461,0.0658,-0.2896,0.8488,-6.05,8.18,-0.02,20.14
12471,0.0626,-0.2911,0.8503,-5.85,8.4,0.11,20.14
12481,0.0618,-0.295,0.8485,-5.65,8.17,0.14,20.13
12491,0.0586,-0.2941,0.8621,-5.62,7.62,0.15,20.16
12501,0.0591,-0.2922,0.8635,-5.82,7.21,-0.03,20.14
12511,0.0643,-0.2915,0.8602,-6.18,6.98,-0.14,20.16
12521,0.0688,-0.2903,0.855,-6.46,6.79,-0.17,20.18
12531,0.0721,-0.2925,0.8502,-6.49,7.37,-0.12,20.15
12541,0.067,-0.2957,0.8439,-6.32,7.65,-0.05,20.15
12551,0.0642,-0.2936,0.842,-5.71,7.92,-0.02,20.14
12561,0.0627,-0.2921,0.8485,-5.48,8.14,0.18,20.15
12571,0.0602,-0.291,0.8562,-5.45,8.17,0.09,20.15
12581,0.0615,-0.2909,0.8575,-5.53,7.88,0.02,20.14
12591,0.0607,-0.2908,0.8608,-5.63,7.3,-0.03,20.14
12601,0.0656,-0.2917,0.8612,-5.71,6.79,-0.21,20.16
12611,0.0675,-0.2881,0.8495,-6.05,6.87,-0.24,20.15
12621,0.0708,-0.286,0.8489,-6.18,7.37,-0.21,20.14
12631,0.0662,-0.288,0.8481,-6.08,8.29,-0.02,20.15
12641,0.0657,-0.2905,0.8439,-5.98,8.85,0.17,20.14
12651,0.0609,-0.2927,0.8519,-5.6,8.95,0.23,20.14
12661,0.0596,-0.2905,0.858,-5.59,8.49,0.23,20.17
12671,0.0592,-0.291,0.8625,-5.73,7.66,0.03,20.17
12681,0.0597,-0.2882,0.8599,-6.02,6.98,-0.14,20.14
12691,0.0609,-0.2887,0.8557,-6.32,6.67,-0.23,20.15
12701,0.0665,-0.2874,0.8523,-6.47,6.75,-0.29,20.14
12711,0.0692,-0.2897,0.8458,-6.41,7.34,-0.2,20.12
12721,0.0692,-0.2832,0.8424,-6.09,8.27,-0.03,20.17
12731,0.0657,-0.2891,0.8485,-5.88,8.79,0.18,20.15
12741,0.0605,-0.2889,0.8536,-5.57,8.9,0.27,20.14
12751,0.0576,-0.2878,0.8639,-5.53,8.34,0.08,20.13
12761,0.0552,-0.2883,0.8619,-5.73,7.66,-0.06,20.15
12771,0.0627,-0.2894,0.8622,-6.0,6.96,-0.14,20.14
12781,0.0648,-0.2935,0.8552,-6.43,6.52,-0.32,20.15
12791,0.0649,-0.2911,0.8484,-6.43,6.75,-0.21,20.16
12801,0.0712,-0.2899,0.8408,-6.31,7.27,-0.11,20.16
12811,0.0676,-0.2878,0.8439,-5.89,7.98,0.12,20.15
12821,0.0647,-0.2869,0.8458,-5.68,8.46,0.24,20.14
12831,0.0626,-0.2904,0.8563,-5.59,8.56,0.31,20.19
12841,0.0604,-0.2886,0.8608,-5.79,8.08,0.15,20.16
12851,0.0607,-0.2877,0.8615,-5.98,7.45,-0.05,20.17
12861,0.0626,-0.2906,0.8616,-6.44,7.13,-0.23,20.14
12871,0.0674,-0.291,0.8538,-6.78,7.05,-0.34,20.14
12881,0.0638,-0.2913,0.85,-6.73,7.33,-0.24,20.15
12891,0.0686,-0.2925,0.8445,-6.29,7.82,0.0,20.16
12901,0.0673,-0.2908,0.8457,-5.82,7.98,0.12,20.16
12911,0.063,-0.2908,0.8496,-5.76,8.12,0.15,20.16
12921,0.0657,-0.2894,0.8579,-5.94,8.14,0.14,20.14
12931,0.054,-0.2875,0.8605,-6.29,7.94,0.08,20.16
12941,0.0619,-0.2881,0.8602,-6.49,7.59,-0.2,20.15
12951,0.0643,-0.2881,0.8586,-6.53,7.42,-0.23,20.15
12961,0.0704,-0.2869,0.8503,-6.49,7.27,-0.18,20.17
12971,0.0657,-0.2877,0.8461,-6.14,7.62,0.0,20.14
12981,0.0677,-0.2916,0.8474,-5.98,7.97,0.03,20.15
12991,0.063,-0.2908,0.8533,-5.8,8.24,0.11,20.15
13001,0.0612,-0.2889,0.8562,-5.66,8.14,0.14,20.15
13011,0.0597,-0.2914,0.86,-5.85,7.89,0.06,20.17
13021,0.0598,-0.2905,0.863,-6.11,7.68,-0.17,20.16
13031,0.0624,-0.2914,0.8529,-6.31,7.54,-0.21,20.15
13041,0.063,-0.2903,0.8533,-6.5,7.36,-0.23,20.16
13051,0.0651,-0.2944,0.8494,-6.32,7.37,-0.14,20.15
13061,0.0656,-0.2937,0.8483,-5.97,7.59,0.0,20.15
13071,0.0636,-0.2902,0.851,-5.95,7.62,0.11,20.16
13081,0.0609,-0.2925,0.8557,-5.86,7.85,0.0,20.14
13091,0.0641,-0.29,0.8577,-6.09,8.0,0.06,20.17
13101,0.0648,-0.291,0.853,-6.32,8.05,0.05,20.15
13111,0.063,-0.2915,0.8499,-6.32,7.82,-0.06,20.17
13121,0.0614,-0.2933,0.8551,-6.17,7.62,-0.06,20.16
13131,0.0641,-0.2903,0.8524,-5.97,7.45,-0.05,20.16
13141,0.063,-0.2904,0.8489,-5.88,7.53,0.02,20.18
13151,0.0649,-0.2908,0.8584,-6.05,7.68,-0.03,20.15
13161,0.0615,-0.2887,0.8551,-6.03,7.69,0.05,20.15
13171,0.0652,-0.2894,0.8528,-6.03,7.76,0.0,20.15
13181,0.0602,-0.2891,0.8547,-5.97,7.69,0.0,20.18
13191,0.0641,-0.2897,0.8539,-5.86,7.62,-0.11,20.19
13201,0.0646,-0.2899,0.8531,-5.91,7.63,-0.02,20.17
13211,0.0681,-0.2898,0.8517,-6.06,7.71,-0.05,20.15
13221,0.0643,-0.2893,0.8545,-6.17,7.89,-0.06,20.17
13231,0.0607,-0.288,0.8495,-6.06,7.85,-0.05,20.16
13241,0.0642,-0.292,0.8568,-5.91,7.73,-0.02,20.14
13251,0.0649,-0.2903,0.853,-5.88,7.77,-0.03,20.15
13261,0.0631,-0.2915,0.8571,-5.86,7.73,-0.09,20.16
13271,0.063,-0.29,0.8544,-5.83,7.54,-0.03,20.15
13281,0.0653,-0.2924,0.8527,-5.98,7.6,-0.05,20.15
13291,0.0652,-0.2931,0.8519,-5.94,7.68,-0.03,20.17
13301,0.0641,-0.2902,0.8497,-6.02,7.77,-0.05,20.17
13311,0.066,-0.2915,0.854,-6.02,7.89,0.06,20.18
13321,0.064,-0.2906,0.8524,-6.02,8.09,-0.03,20.18
13331,0.0616,-0.2905,0.8519,-5.82,8.06,-0.03,20.19
13341,0.0613,-0.2924,0.8588,-5.69,7.69,-0.03,20.16
13351,0.0629,-0.2894,0.8551,-5.74,7.56,0.0,20.14
13361,0.064,-0.2908,0.8563,-5.95,7.59,-0.08,20.15
13372,0.064,-0.2902,0.8531,-5.95,7.73,-0.17,20.15
13382,0.0616,-0.2902,0.85,-5.94,7.57,-0.09,20.16
13392,0.0615,-0.2909,0.8544,-5.71,7.6,-0.08,20.17
13402,0.0643,-0.2914,0.8538,-5.73,7.69,-0.02,20.14
13412,0.0647,-0.2905,0.8574,-5.83,7.88,-0.02,20.13
13422,0.0632,-0.2908,0.856,-5.98,7.98,0.0,20.15
13432,0.0637,-0.2904,0.8544,-6.03,7.91,0.05,20.17
13442,0.0635,-0.2892,0.8522,-5.92,7.85,0.03,20.15
13452,0.0654,-0.2921,0.8522,-5.79,7.45,-0.05,20.18
13462,0.0631,-0.2888,0.8566,-5.85,7.3,-0.05,20.15
13472,0.0592,-0.2897,0.8502,-6.0,7.22,0.05,20.17
13482,0.062,-0.2882,0.8522,-6.17,7.48,-0.05,20.15
13492,0.0664,-0.2896,0.8503,-6.26,7.57,-0.08,20.17
13502,0.0648,-0.292,0.8545,-6.17,7.69,-0.02,20.17
13512,0.0638,-0.288,0.8501,-6.02,8.18,-0.06,20.18
13522,0.0662,-0.2902,0.8546,-6.18,8.23,0.03,20.17
13532,0.0624,-0.2899,0.8499,-6.18,8.49,0.18,20.15
13542,0.0652,-0.2914,0.8578,-6.21,8.17,0.15,20.16
13552,0.0603,-0.2905,0.8546,-5.97,7.76,0.05,20.16
13562,0.0579,-0.292,0.8585,-5.62,6.79,-0.18,20.16
13573,0.0654,-0.29,0.8627,-5.62,6.78,-0.17,20.16
13583,0.0635,-0.2871,0.8511,-5.98,6.98,-0.23,20.17
13593,0.0684,-0.2903,0.8495,-6.24,7.34,-0.12,20.17
13603,0.064,-0.2891,0.8458,-6.08,7.88,0.08,20.13
13613,0.0679,-0.2897,0.8513,-5.95,8.15,0.08,20.13
13623,0.0643,-0.2891,0.8542,-5.91,8.38,0.06,20.17
13633,0.0638,-0.2902,0.856,-5.94,8.14,0.06,20.17
13643,0.0623,-0.291,0.8586,-6.18,8.02,0.03,20.17
13653,0.0615,-0.2933,0.8557,-6.46,7.53,-0.05,20.17
13663,0.0657,-0.2905,0.8558,-6.41,7.28,-0.21,20.15
13673,0.0623,-0.2869,0.85,-6.23,7.22,-0.14,20.16
13683,0.0651,-0.2877,0.8501,-6.11,7.28,-0.18,20.19
13693,0.0675,-0.2869,0.8502,-6.09,7.86,0.09,20.17
13703,0.0645,-0.2917,0.8488,-6.06,8.03,0.11,20.17
13713,0.0625,-0.292,0.8544,-5.85,8.14,0.03,20.17
13723,0.0569,-0.2872,0.8547,-5.8,7.86,-0.03,20.18
13733,0.0592,-0.2874,0.8584,-5.91,7.68,-0.06,20.17
13743,0.0613,-0.2887,0.8495,-6.0,7.73,-0.08,20.17
13753,0.0632,-0.2904,0.8539,-6.05,7.63,0.02,20.17
13763,0.0638,-0.2883,0.8502,-5.92,7.47,-0.11,20.17
13773,0.0647,-0.2935,0.8492,-5.63,7.31,-0.14,20.17
13783,0.0642,-0.2931,0.8521,-5.62,7.4,-0.02,20.15
13793,0.0664,-0.2902,0.8562,-5.79,7.66,-0.05,20.17
13803,0.0647,-0.2913,0.8552,-6.02,7.74,0.06,20.15
13813,0.0614,-0.2969,0.8517,-6.15,7.74,0.02,20.16
13823,0.0618,-0.2938,0.8531,-5.98,7.5,-0.03,20.16
13833,0.0614,-0.2913,0.8503,-5.95,7.22,-0.12,20.14
13843,0.063,-0.2899,0.8555,-5.89,7.27,-0.06,20.17
13853,0.0658,-0.2899,0.8556,-6.0,7.51,-0.11,20.17
13863,0.068,-0.2925,0.8494,-6.14,7.97,-0.03,20.16
13873,0.0652,-0.2896,0.8494,-6.11,8.08,0.02,20.17
13883,0.0627,-0.2881,0.8542,-5.89,7.85,0.09,20.15
13893,0.063,-0.2905,0.853,-5.79,7.44,0.09,20.18
13903,0.0632,-0.2882,0.8606,-5.8,7.39,0.05,20.16
13913,0.0623,-0.2842,0.8558,-6.21,6.99,-0.08,20.17
13923,0.0663,-0.2904,0.8567,-6.32,6.95,-0.12,20.18
13933,0.0646,-0.2869,0.8514,-6.17,7.16,-0.12,20.17
13943,0.0681,-0.2928,0.8577,-6.0,6.95,-0.08,20.17
13953,0.0663,-0.2889,0.8499,-5.91,7.22,-0.11,20.15
13963,0.0653,-0.2856,0.8512,-6.15,8.03,0.05,20.19
13973,0.0614,-0.2885,0.8505,-6.26,8.41,0.14,20.18
13983,0.0653,-0.2908,0.8506,-6.12,8.34,0.08,20.19
13993,0.062,-0.2926,0.8591,-5.83,7.85,0.03,20.2
14003,0.0627,-0.2921,0.8564,-5.77,7.5,-0.06,20.16
14013,0.063,-0.2898,0.8539,-5.8,7.42,-0.18,20.18
14023,0.0667,-0.2914,0.8492,-5.95,7.3,-0.15,20.17
14033,0.0648,-0.2905,0.8533,-6.15,7.28,-0.15,20.18
14043,0.0664,-0.2889,0.8502,-6.2,7.65,-0.12,20.16
14053,0.0682,-0.2878,0.8508,-6.27,8.11,-0.02,20.18
14063,0.0625,-0.2926,0.8496,-6.15,8.35,0.09,20.19
14073,0.0642,-0.2919,0.8503,-5.86,8.12,0.18,20.18
14083,0.063,-0.293,0.8575,-5.74,7.77,0.03,20.17
14093,0.0649,-0.2899,0.8591,-5.83,7.36,-0.02,20.18
14103,0.0602,-0.2892,0.8582,-6.02,7.22,-0.06,20.17
14113,0.0605,-0.2885,0.8508,-6.17,7.21,-0.14,20.18
14123,0.0648,-0.2867,0.853,-6.06,7.31,-0.17,20.18
14133,0.0648,-0.2872,0.8422,-5.98,7.69,-0.03,20.16
14143,0.0659,-0.2891,0.8499,-5.86,7.97,0.05,20.19
14153,0.0642,-0.2875,0.8539,-5.83,8.14,0.05,20.2
14163,0.0629,-0.2891,0.8586,-5.65,7.98,0.03,20.18
14173,0.0614,-0.2886,0.8594,-5.91,7.48,-0.03,20.19
14183,0.0615,-0.2913,0.8604,-5.89,7.37,-0.21,20.18
14193,0.0645,-0.2871,0.8527,-6.0,7.19,-0.18,20.18
14203,0.0654,-0.2902,0.8555,-6.14,7.28,-0.26,20.18
14213,0.0681,-0.2913,0.8462,-6.09,7.6,-0.15,20.2
14223,0.0674,-0.2897,0.8495,-6.08,7.88,0.05,20.17
14233,0.0624,-0.2908,0.8549,-6.0,8.29,0.12,20.21
14243,0.0631,-0.291,0.8525,-5.92,8.21,0.17,20.19
14253,0.0603,-0.2908,0.8589,-5.8,8.0,0.12,20.17
14263,0.0605,-0.2933,0.8594,-5.92,7.5,-0.08,20.2
14273,0.0658,-0.2909,0.854,-6.03,7.44,-0.21,20.18
14283,0.0663,-0.2889,0.8531,-6.38,7.44,-0.26,20.17
14293,0.066,-0.2854,0.8485,-6.52,7.79,-0.12,20.18
14303,0.0651,-0.2919,0.8463,-6.23,7.92,0.02,20.18
14313,0.0599,-0.2892,0.8474,-5.83,8.03,0.12,20.2
14323,0.0599,-0.2899,0.8531,-5.47,7.94,0.02,20.18
14333,0.0631,-0.2877,0.8577,-5.53,7.63,0.02,20.2
14343,0.0602,-0.2888,0.8572,-5.98,7.63,-0.11,20.19
14353,0.0656,-0.2908,0.8558,-6.29,7.65,-0.14,20.18
14363,0.063,-0.2927,0.854,-6.56,7.63,-0.09,20.18
14373,0.0649,-0.2931,0.8505,-6.27,7.47,-0.06,20.2
14383,0.0629,-0.291,0.8481,-6.09,7.66,0.03,20.18
14393,0.0643,-0.2892,0.8508,-5.82,7.92,0.06,20.2
14403,0.0653,-0.2917,0.8529,-5.88,7.92,0.08,20.2
14413,0.0621,-0.2874,0.8562,-6.02,7.97,-0.02,20.19
14423,0.0636,-0.2892,0.8545,-6.08,8.05,0.03,20.2
14433,0.0607,-0.2892,0.8569,-6.23,7.8,-0.08,20.19
14443,0.0598,-0.2881,0.8545,-6.14,7.34,-0.18,20.2
14453,0.0657,-0.2891,0.8528,-5.98,7.25,-0.18,20.2
14463,0.0667,-0.2928,0.8508,-5.98,7.4,-0.02,20.2
14473,0.0673,-0.2874,0.8521,-6.08,7.82,0.02,20.18
14483,0.0671,-0.287,0.851,-6.14,8.2,0.05,20.22
14493,0.0605,-0.2905,0.85,-6.06,8.23,0.09,20.2
14503,0.061,-0.2909,0.8547,-5.91,7.88,0.05,20.18
14513,0.062,-0.2909,0.8611,-5.8,7.59,-0.05,20.22
14523,0.066,-0.2911,0.8557,-5.92,7.28,-0.11,20.19
14533,0.0635,-0.2876,0.856,-6.21,7.33,-0.15,20.22
14543,0.0641,-0.2899,0.8497,-6.23,7.37,-0.03,20.19
14553,0.0647,-0.292,0.8507,-6.12,7.65,-0.08,20.21
14563,0.066,-0.287,0.849,-6.03,7.86,-0.03,20.2
14573,0.0649,-0.2898,0.8538,-6.0,8.23,0.06,20.2
14583,0.0626,-0.2883,0.8525,-6.08,8.43,0.09,20.2
14593,0.0576,-0.2915,0.8522,-5.89,7.98,0.12,20.18
14603,0.0608,-0.2947,0.8629,-5.86,7.4,-0.09,20.2
14613,0.0645,-0.2871,0.8586,-5.86,7.21,-0.18,20.2
14623,0.0645,-0.2883,0.8508,-6.23,7.45,-0.14,20.21
14633,0.0634,-0.2889,0.849,-6.43,7.77,-0.09,20.2
14643,0.0634,-0.2893,0.8473,-6.12,7.97,0.05,20.17
14653,0.0621,-0.2885,0.8486,-5.8,8.11,0.17,20.17
14663,0.0607,-0.2906,0.8535,-5.48,7.89,0.09,20.2
14673,0.063,-0.292,0.854,-5.74,7.88,0.03,20.19
14683,0.0627,-0.2876,0.8549,-6.14,7.74,-0.06,20.2
14694,0.0662,-0.2906,0.8558,-6.35,7.69,-0.06,20.2
14704,0.0643,-0.2885,0.853,-6.34,7.48,-0.09,20.2
14715,0.0662,-0.2904,0.8539,-6.08,7.45,-0.11,20.18
14725,0.0642,-0.2875,0.8503,-5.76,7.42,0.05,20.19
14736,0.0657,-0.2937,0.8506,-5.68,7.8,-0.02,20.18
14746,0.0668,-0.2887,0.8539,-5.74,8.26,0.08,20.22
14756,0.0582,-0.291,0.8574,-6.02,8.15,0.03,20.21
14766,0.0601,-0.2938,0.8564,-6.0,7.77,0.03,20.2
14776,0.0618,-0.2916,0.8577,-6.03,7.34,-0.11,20.23
14786,0.0637,-0.2897,0.8564,-6.0,7.37,-0.15,20.21
14796,0.0615,-0.2906,0.8541,-6.23,7.45,-0.17,20.18
14806,0.0649,-0.2906,0.8516,-6.14,7.65,-0.08,20.18
14816,0.0642,-0.2883,0.8463,-5.94,7.89,-0.11,20.19
14826,0.0637,-0.2909,0.8511,-5.77,7.98,0.03,20.22
14837,0.0641,-0.2882,0.856,-5.88,8.0,0.02,20.19
14847,0.0613,-0.2898,0.8546,-5.98,7.92,0.03,20.2
14857,0.0599,-0.292,0.8545,-6.09,7.59,0.0,20.2
14867,0.0601,-0.2903,0.8521,-6.03,7.13,-0.18,20.21
14877,0.0642,-0.2897,0.8558,-6.09,6.95,-0.24,20.22
14887,0.066,-0.2899,0.8516,-6.15,7.21,-0.11,20.19
14897,0.0684,-0.2886,0.8501,-6.11,7.44,-0.03,20.2
14907,0.0675,-0.29,0.8485,-5.98,7.8,-0.03,20.2
14917,0.0656,-0.2905,0.8527,-5.86,7.82,0.0,20.22
14927,0.066,-0.2913,0.8552,-5.83,8.0,0.05,20.19
14937,0.0646,-0.287,0.8502,-6.02,7.91,0.06,20.19
14947,0.0591,-0.2892,0.8607,-6.02,7.98,0.0,20.22
14957,0.0591,-0.2877,0.8517,-6.17,7.88,0.02,20.21
14967,0.0638,-0.2919,0.8503,-6.12,7.47,-0.12,20.22
14977,0.0631,-0.2892,0.8527,-5.79,7.4,-0.18,20.2
14987,0.067,-0.2893,0.8508,-5.89,7.47,-0.08,20.22
14997,0.0654,-0.2888,0.8508,-5.86,7.57,-0.03,20.24
15007,0.0656,-0.2904,0.8553,-5.92,7.69,-0.09,20.21
15017,0.0667,-0.2913,0.8519,-6.09,7.77,-0.06,20.19
15027,0.0619,-0.2897,0.8516,-5.98,7.88,-0.02,20.19
15037,0.0636,-0.2883,0.855,-6.15,7.6,-0.06,20.22
15047,0.0619,-0.2896,0.8528,-6.06,7.8,-0.09,20.22
15057,0.0637,-0.2903,0.8525,-6.11,7.71,-0.05,20.22
15067,0.0634,-0.2887,0.848,-6.15,7.63,0.03,20.2
15077,0.0635,-0.2902,0.8538,-5.98,7.76,0.03,20.22
15087,0.0634,-0.2874,0.8508,-6.02,7.8,0.03,20.18
15097,0.0618,-0.2906,0.8546,-5.98,7.62,-0.02,20.19
15107,0.0619,-0.293,0.8522,-6.08,7.51,0.02,20.21
15117,0.0643,-0.2927,0.8551,-6.08,7.54,-0.05,20.2
15127,0.0625,-0.2935,0.8497,-6.14,7.63,-0.06,20.23
15137,0.0626,-0.2925,0.8489,-6.12,7.71,-0.02,20.24
15147,0.0625,-0.2905,0.8542,-5.95,7.79,0.08,20.23
15157,0.0658,-0.2942,0.8525,-5.83,7.53,0.06,20.24
15167,0.0648,-0.2898,0.8557,-6.0,7.51,-0.03,20.19
15177,0.0631,-0.291,0.8562,-6.08,7.56,-0.05,20.19
15187,0.0642,-0.2911,0.853,-6.03,7.57,-0.11,20.21
15197,0.064,-0.2909,0.8524,-6.06,7.76,-0.14,20.2
15207,0.064,-0.2902,0.8502,-6.11,7.89,-0.02,20.21
15217,0.0646,-0.2883,0.8522,-5.95,8.05,-0.03,20.22
15227,0.0621,-0.2888,0.8534,-5.94,8.06,0.08,20.21
15237,0.062,-0.2881,0.8563,-5.86,7.82,0.05,20.22
15247,0.063,-0.2885,0.8562,-5.79,7.3,-0.05,20.22
15257,0.0638,-0.288,0.8557,-5.86,7.16,-0.08,20.22
15267,0.0637,-0.2904,0.8563,-6.18,7.08,-0.12,20.21
15277,0.0649,-0.2906,0.8531,-6.34,7.37,-0.12,20.22
15287,0.0685,-0.2892,0.8485,-6.29,7.82,-0.02,20.21
15297,0.0668,-0.2926,0.8478,-6.03,8.03,-0.03,20.2
15308,0.0659,-0.2886,0.8431,-5.65,8.08,0.11,20.22
15318,0.0637,-0.2886,0.8556,-5.68,8.03,0.12,20.19
15328,0.0625,-0.2897,0.8604,-5.83,7.91,-0.03,20.22
15338,0.0615,-0.2896,0.8588,-6.08,7.83,-0.03,20.18
15349,0.0599,-0.2899,0.8499,-6.12,7.56,-0.11,20.23
15359,0.0659,-0.2904,0.853,-6.08,7.18,-0.2,20.22
15369,0.0669,-0.2906,0.848,-5.76,7.24,-0.12,20.22
15379,0.0656,-0.2908,0.8502,-5.73,7.57,-0.08,20.23
15389,0.0645,-0.2914,0.8522,-5.86,7.86,0.05,20.2
15399,0.0667,-0.2921,0.8558,-5.94,8.15,0.08,20.23
15410,0.0613,-0.2903,0.8584,-6.14,8.12,0.08,20.24
15420,0.0624,-0.2896,0.8551,-6.0,7.73,-0.08,20.21
15430,0.066,-0.2887,0.8572,-6.12,7.45,-0.05,20.2
15440,0.0687,-0.291,0.855,-6.05,7.28,-0.09,20.23
15450,0.0654,-0.286,0.8507,-6.11,7.42,-0.11,20.22
15460,0.0659,-0.2875,0.8533,-6.2,7.68,-0.05,20.24
15470,0.0662,-0.286,0.8503,-6.11,8.09,0.02,20.22
15480,0.0592,-0.2876,0.8556,-5.97,8.14,0.12,20.21
15490,0.0614,-0.2878,0.8583,-5.98,8.0,0.09,20.23
15500,0.061,-0.2883,0.8575,-6.03,7.8,-0.03,20.24
15510,0.0618,-0.288,0.8595,-6.11,7.68,-0.09,20.23
15520,0.0619,-0.2898,0.854,-6.29,7.68,-0.14,20.23
15530,0.0641,-0.291,0.8521,-6.37,7.54,-0.09,20.24
15541,0.0642,-0.29,0.8546,-6.0,7.65,-0.08,20.23
15551,0.0626,-0.2941,0.8492,-5.95,7.95,0.02,20.21
15561,0.0635,-0.2924,0.8505,-5.98,8.05,0.05,20.19
15571,0.0591,-0.2943,0.8538,-5.89,7.92,0.17,20.23
15581,0.0598,-0.2906,0.8584,-5.82,7.59,-0.02,20.22
15591,0.0613,-0.2915,0.8588,-5.86,7.36,-0.06,20.24
15601,0.0641,-0.2902,0.8589,-5.95,7.25,-0.17,20.22
15611,0.0653,-0.2865,0.8539,-6.23,7.36,-0.09,20.22
15621,0.0698,-0.2905,0.8501,-6.26,7.66,-0.03,20.21
15631,0.0674,-0.2897,0.8535,-6.12,8.17,-0.06,20.19
15641,0.0627,-0.2899,0.8467,-5.86,8.24,0.12,20.22
15651,0.0619,-0.2882,0.8551,-5.76,8.18,0.12,20.22
15661,0.0587,-0.2889,0.8578,-5.83,7.98,0.11,20.22
15671,0.0592,-0.2897,0.8595,-6.12,7.66,-0.02,20.22
15681,0.0629,-0.2917,0.8531,-6.24,7.3,-0.23,20.21
15691,0.0613,-0.2925,0.8546,-6.43,7.31,-0.21,20.23
15701,0.0649,-0.2926,0.8506,-6.34,7.62,-0.15,20.22
15711,0.0636,-0.2888,0.8479,-6.17,7.8,-0.11,20.2
15721,0.0642,-0.2906,0.8483,-5.86,7.95,0.02,20.19
15731,0.0635,-0.2887,0.8521,-5.65,8.12,0.09,20.22
15741,0.062,-0.2904,0.8579,-5.76,8.02,0.05,20.21
15751,0.0596,-0.2908,0.8612,-5.85,7.77,-0.08,20.24
15761,0.0601,-0.2887,0.8579,-5.94,7.3,-0.08,20.23
15771,0.0663,-0.2881,0.8558,-6.21,7.22,-0.2,20.22
15781,0.0662,-0.2871,0.8522,-6.23,7.34,-0.17,20.22
15791,0.0697,-0.2911,0.8495,-6.12,7.53,-0.12,20.23
15801,0.0686,-0.2928,0.8467,-6.02,7.85,0.05,20.24
15811,0.0608,-0.2927,0.8525,-5.91,8.14,0.12,20.24
15821,0.0629,-0.2913,0.853,-5.83,8.18,0.12,20.22
15831,0.0616,-0.2903,0.8547,-5.95,7.88,0.05,20.21
15841,0.0599,-0.292,0.8583,-5.98,7.62,-0.05,20.19
15851,0.0604,-0.2885,0.8528,-6.12,7.31,-0.15,20.23
15861,0.0626,-0.2914,0.8524,-6.21,7.37,-0.05,20.25
15871,0.0664,-0.2899,0.8536,-6.11,7.42,-0.2,20.22
15881,0.0649,-0.2874,0.8485,-5.91,7.71,-0.05,20.24
15891,0.0668,-0.2887,0.8497,-5.91,8.03,-0.05,20.23
15901,0.0673,-0.2883,0.8505,-6.02,8.41,0.11,20.24
15911,0.0607,-0.2878,0.8496,-6.0,8.32,0.09,20.23
15921,0.0607,-0.2904,0.8541,-5.94,7.97,0.0,20.24
15931,0.0581,-0.2878,0.8572,-6.17,7.62,-0.09,20.25
15941,0.0612,-0.2943,0.8551,-6.11,7.4,-0.08,20.25
15951,0.0629,-0.2911,0.8511,-6.2,7.34,-0.17,20.23
15961,0.0654,-0.2913,0.848,-6.27,7.51,-0.15,20.24
15971,0.0664,-0.2891,0.8478,-6.12,7.74,-0.03,20.24
15981,0.064,-0.2919,0.8514,-5.88,7.89,0.08,20.24
15991,0.0625,-0.2909,0.8539,-5.83,8.11,0.12,20.22
16001,0.0603,-0.2924,0.8557,-5.91,7.91,0.06,20.24
16011,0.0586,-0.2894,0.8577,-6.06,7.73,-0.03,20.25
16021,0.064,-0.2894,0.8569,-6.08,7.63,-0.09,20.22
16031,0.0635,-0.2914,0.8517,-6.2,7.5,-0.11,20.22
16041,0.064,-0.2911,0.8523,-6.08,7.5,-0.12,20.24
16051,0.0662,-0.2894,0.8516,-6.08,7.68,-0.12,20.25
16061,0.0659,-0.2878,0.8477,-5.97,8.02,0.02,20.24
16071,0.0601,-0.2886,0.8538,-5.82,7.95,0.11,20.25
16081,0.0605,-0.2896,0.8545,-5.86,7.89,0.06,20.23
16091,0.0632,-0.2887,0.8599,-5.98,7.71,0.09,20.25
16101,0.0646,-0.2891,0.8564,-6.03,7.66,-0.12,20.26
16111,0.0615,-0.2892,0.8583,-6.21,7.65,-0.17,20.24
16121,0.0625,-0.2874,0.8513,-6.23,7.48,-0.12,20.25
16131,0.064,-0.2888,0.8489,-6.08,7.63,-0.03,20.23
16141,0.0629,-0.2911,0.8511,-5.94,7.86,-0.02,20.25
16151,0.0624,-0.287,0.8522,-5.69,7.79,0.05,20.24
16161,0.0616,-0.2871,0.8547,-5.83,7.77,0.08,20.22
16171,0.064,-0.292,0.8545,-5.97,7.94,-0.05,20.26
16181,0.0616,-0.2932,0.8544,-6.23,7.89,-0.08,20.26
16191,0.0619,-0.2898,0.854,-6.09,7.6,-0.06,20.22
16201,0.0593,-0.2931,0.8528,-5.94,7.4,-0.09,20.22
16211,0.0645,-0.2903,0.8545,-5.83,7.37,0.03,20.26
16221,0.0647,-0.2891,0.8556,-6.03,7.66,-0.11,20.24
16231,0.067,-0.2942,0.8507,-6.27,8.18,-0.03,20.25
16241,0.0637,-0.2913,0.8505,-6.18,8.18,0.05,20.24
16251,0.062,-0.2955,0.849,-5.85,8.0,-0.02,20.24
16261,0.0597,-0.2898,0.8542,-5.76,7.79,0.06,20.26
16271,0.0608,-0.2872,0.859,-5.83,7.69,-0.03,20.26
16281,0.0594,-0.2896,0.8575,-6.14,7.51,-0.05,20.26
16291,0.0627,-0.2877,0.8562,-6.2,7.51,-0.05,20.25
16301,0.0592,-0.2883,0.8494,-6.0,7.27,-0.15,20.23
16311,0.0656,-0.2874,0.8506,-5.68,7.05,-0.12,20.25
16321,0.0652,-0.2848,0.8501,-5.74,7.42,-0.09,20.24
16331,0.0651,-0.2864,0.8556,-6.06,7.8,0.03,20.24
16341,0.0624,-0.2848,0.8533,-6.2,8.02,0.09,20.23
16351,0.0618,-0.2888,0.854,-6.14,7.91,0.0,20.22
16361,0.0608,-0.2905,0.8529,-6.05,7.83,0.0,20.24
16371,0.0603,-0.2903,0.8545,-6.02,7.59,-0.03,20.23
16381,0.061,-0.2919,0.8564,-6.03,7.42,-0.05,20.22
16391,0.0621,-0.2914,0.8512,-6.08,7.54,-0.03,20.25
16401,0.0665,-0.2932,0.8495,-6.11,7.53,-0.08,20.28
16411,0.0667,-0.2954,0.849,-6.09,7.5,0.0,20.24
16421,0.0676,-0.2911,0.8483,-6.0,7.48,0.02,20.24
16431,0.0652,-0.2909,0.8552,-6.0,7.57,-0.03,20.24
16441,0.0646,-0.2902,0.8549,-6.08,7.88,-0.02,20.25
16451,0.0634,-0.2904,0.8538,-6.26,8.06,-0.05,20.25
16461,0.0632,-0.2921,0.8531,-6.17,7.89,0.05,20.26
16471,0.0607,-0.2905,0.8534,-6.0,7.54,-0.11,20.22
16481,0.0621,-0.2926,0.8553,-5.86,7.39,-0.11,20.23
16491,0.0662,-0.2882,0.8521,-5.88,7.3,-0.08,20.25
16501,0.0652,-0.288,0.8511,-6.05,7.53,-0.06,20.25
16511,0.0623,-0.2902,0.8514,-6.14,7.71,0.03,20.23
16521,0.0604,-0.2891,0.8507,-5.95,7.57,0.05,20.24
16531,0.062,-0.2908,0.8528,-5.71,7.44,-0.03,20.27
16541,0.0638,-0.2867,0.8528,-5.79,7.39,-0.02,20.25
16551,0.064,-0.2899,0.8544,-6.02,7.25,0.02,20.24
16561,0.0619,-0.2905,0.8591,-6.08,7.27,-0.02,20.25
16571,0.0621,-0.2904,0.8541,-6.09,7.08,-0.08,20.25
16581,0.0663,-0.2902,0.8535,-5.95,6.98,-0.11,20.25
16591,0.0657,-0.2889,0.8505,-5.73,7.15,-0.09,20.26
16601,0.0634,-0.2881,0.8475,-5.71,7.37,-0.05,20.25
16611,0.0637,-0.2889,0.8501,-5.69,7.69,0.06,20.27
16621,0.0652,-0.2904,0.8538,-5.85,7.74,0.09,20.28
16631,0.0619,-0.2888,0.8541,-5.68,7.65,-0.02,20.25
16641,0.0638,-0.2903,0.8585,-5.59,7.36,-0.05,20.26
16651,0.0641,-0.2889,0.8545,-5.73,7.39,-0.02,20.26
16661,0.0614,-0.2876,0.8569,-5.94,7.5,-0.15,20.26
16671,0.0636,-0.2896,0.8535,-6.0,7.88,-0.05,20.26
16681,0.0652,-0.2891,0.8546,-5.95,7.95,-0.03,20.26
16691,0.0679,-0.2886,0.8502,-5.74,8.08,-0.03,20.24
16701,0.0656,-0.2894,0.8508,-5.86,8.06,0.09,20.25
16711,0.0616,-0.291,0.8555,-5.74,7.88,0.08,20.24
16721,0.0601,-0.2937,0.8525,-5.85,7.66,0.06,20.24
16731,0.0612,-0.2914,0.8556,-5.92,7.45,-0.11,20.25
16741,0.0641,-0.2905,0.8521,-6.0,7.48,-0.11,20.26
16751,0.0651,-0.2902,0.8521,-6.18,7.45,-0.14,20.25
16761,0.0664,-0.2915,0.8497,-6.31,7.91,-0.06,20.27
16771,0.0664,-0.2908,0.8477,-6.12,8.0,-0.05,20.25
16781,0.0652,-0.2906,0.8555,-5.97,8.34,-0.06,20.25
16791,0.0632,-0.2864,0.8489,-5.82,8.34,0.11,20.25
16801,0.0607,-0.2878,0.8563,-5.73,8.05,0.18,20.25
16811,0.0598,-0.2898,0.8545,-5.69,7.73,0.02,20.25
16821,0.061,-0.2872,0.8593,-6.06,7.39,-0.15,20.27
16831,0.0646,-0.2892,0.8549,-6.26,7.28,-0.18,20.26
16841,0.0667,-0.2859,0.8535,-6.35,7.37,-0.17,20.26
16851,0.0642,-0.2858,0.8513,-6.17,7.57,-0.11,20.26
16861,0.0618,-0.2892,0.8457,-5.88,7.82,-0.06,20.26
16871,0.0638,-0.2908,0.8508,-5.76,7.89,0.11,20.24
16881,0.0629,-0.292,0.8512,-5.62,7.95,0.05,20.24
16891,0.058,-0.2947,0.8593,-5.88,7.77,0.05,20.26
16901,0.0605,-0.2921,0.8584,-6.18,7.71,0.02,20.26
16911,0.0612,-0.2913,0.8562,-6.34,7.42,-0.11,20.26
16921,0.0645,-0.2888,0.8519,-6.47,7.07,-0.18,20.25
16931,0.0676,-0.2926,0.8496,-6.35,7.24,-0.12,20.27
16941,0.0674,-0.2957,0.8528,-6.15,7.54,-0.08,20.27
16951,0.0638,-0.2909,0.8486,-5.94,7.94,0.11,20.26
16961,0.0605,-0.2905,0.855,-5.77,8.17,0.03,20.27
16971,0.0623,-0.2924,0.8547,-5.51,8.18,0.05,20.25
16981,0.0586,-0.2885,0.8613,-5.66,7.95,0.09,20.24
16991,0.059,-0.2889,0.8594,-5.98,7.71,-0.08,20.25
17001,0.0626,-0.2867,0.8574,-6.34,7.48,-0.08,20.28
17011,0.0673,-0.2883,0.8542,-6.4,7.28,-0.06,20.25
17021,0.0643,-0.2891,0.8469,-6.29,7.16,-0.09,20.29
17031,0.0632,-0.2889,0.8495,-5.95,7.25,-0.11,20.26
17041,0.0626,-0.2885,0.8481,-5.71,7.57,0.05,20.25
17051,0.068,-0.2872,0.8508,-5.69,8.03,0.12,20.26
17061,0.0613,-0.2894,0.8557,-6.05,8.08,0.03,20.25
17071,0.0596,-0.2906,0.8591,-6.2,8.23,-0.02,20.25
17081,0.0588,-0.2899,0.8538,-6.12,7.54,-0.14,20.25
17091,0.0679,-0.2942,0.8589,-5.89,6.95,-0.18,20.23
17101,0.066,-0.2847,0.8486,-5.88,7.4,-0.18,20.27
17111,0.0664,-0.2911,0.8472,-6.35,7.3,-0.15,20.25
17121,0.0679,-0.2914,0.851,-6.21,8.15,0.0,20.24
17131,0.0636,-0.2908,0.8502,-6.2,8.29,0.05,20.29
17141,0.0613,-0.2939,0.8558,-5.69,8.03,0.15,20.27
17151,0.0629,-0.2865,0.855,-5.62,7.42,0.03,20.27
17161,0.0658,-0.2882,0.8656,-5.73,7.28,-0.02,20.27
17171,0.0631,-0.2841,0.8536,-6.2,7.51,-0.2,20.26
17181,0.0641,-0.287,0.8566,-6.6,7.21,-0.23,20.25
17191,0.0632,-0.2874,0.85,-6.21,7.33,-0.17,20.25
17201,0.0669,-0.2874,0.8446,-5.94,7.39,-0.08,20.27
17211,0.0658,-0.2866,0.8489,-5.62,7.91,0.06,20.24
17221,0.066,-0.2876,0.8518,-5.73,8.24,0.06,20.27
17231,0.0627,-0.2883,0.8546,-5.83,8.58,0.11,20.25
17241,0.0609,-0.2906,0.8566,-6.15,8.38,0.09,20.25
17251,0.0598,-0.293,0.8619,-6.2,7.73,-0.08,20.27
17261,0.0579,-0.2942,0.8555,-6.15,7.07,-0.27,20.25
17271,0.0664,-0.2915,0.8547,-6.09,6.75,-0.23,20.27
17281,0.0693,-0.2887,0.85,-6.14,7.19,-0.2,20.29
17291,0.0701,-0.2921,0.8431,-6.26,7.79,-0.14,20.26
17301,0.068,-0.2927,0.8466,-6.14,8.35,0.08,20.28
17311,0.0612,-0.2924,0.8503,-5.94,8.55,0.14,20.27
17321,0.0612,-0.2969,0.8535,-5.76,8.23,0.15,20.25
17331,0.0593,-0.2935,0.86,-5.65,7.79,-0.03,20.28
17341,0.0635,-0.2891,0.8611,-5.77,7.25,-0.11,20.27
17351,0.0623,-0.2928,0.8615,-6.23,7.18,-0.17,20.27
17361,0.0654,-0.288,0.8536,-6.49,7.42,-0.23,20.27
17371,0.0659,-0.29,0.8453,-6.44,7.56,-0.08,20.27
17381,0.0685,-0.2894,0.8459,-5.98,7.85,-0.08,20.26
17391,0.0635,-0.2903,0.8502,-5.79,8.09,0.09,20.27
17401,0.0616,-0.2892,0.8506,-5.59,8.37,0.21,20.25
17411,0.0609,-0.2877,0.8591,-5.71,7.98,0.15,20.29
17421,0.0592,-0.2893,0.8585,-5.86,7.57,0.03,20.24
17431,0.062,-0.2858,0.8572,-6.18,7.25,-0.06,20.28
17441,0.0634,-0.2888,0.8552,-6.4,7.08,-0.09,20.27
17451,0.0659,-0.2896,0.848,-6.41,7.3,-0.09,20.27
17461,0.0649,-0.2894,0.8488,-6.17,7.68,0.0,20.27
17471,0.0664,-0.2914,0.8464,-5.97,8.11,0.09,20.26
17481,0.0619,-0.2876,0.8473,-5.73,8.08,0.11,20.27
17491,0.0609,-0.291,0.8569,-5.68,7.91,0.14,20.29
17501,0.0625,-0.2893,0.8575,-5.85,7.62,-0.08,20.29
17511,0.0619,-0.2919,0.8574,-6.08,7.42,-0.12,20.27
17521,0.0638,-0.2936,0.8575,-6.21,7.16,-0.27,20.25
17531,0.0664,-0.2882,0.85,-6.14,7.42,-0.21,20.27
17541,0.0679,-0.2914,0.8446,-6.18,7.66,-0.09,20.28
17551,0.0668,-0.2903,0.851,-5.91,7.92,0.03,20.29
17561,0.0634,-0.2882,0.8508,-5.79,8.12,0.12,20.27
17571,0.0596,-0.2902,0.8621,-5.76,8.2,0.08,20.27
17581,0.0602,-0.2913,0.8596,-6.03,7.94,0.03,20.25
17591,0.0602,-0.2893,0.8585,-6.09,7.6,-0.05,20.27
17601,0.0588,-0.2877,0.8539,-6.18,7.25,-0.11,20.27
17611,0.0631,-0.2855,0.8523,-6.26,7.04,-0.11,20.25
17621,0.0667,-0.2898,0.849,-6.18,7.1,-0.05,20.27
17631,0.0668,-0.2886,0.8497,-6.05,7.47,0.0,20.27
17641,0.064,-0.2883,0.8521,-5.92,7.82,0.03,20.24
17651,0.0643,-0.2885,0.8517,-5.82,8.21,0.15,20.26
17661,0.0629,-0.2927,0.8523,-5.92,8.17,0.14,20.3
17671,0.0642,-0.2916,0.8617,-5.97,8.03,0.02,20.27
17681,0.0594,-0.2927,0.8577,-6.06,7.6,-0.05,20.27
17691,0.0615,-0.2904,0.8536,-6.17,7.25,-0.23,20.27
17701,0.0631,-0.2913,0.8512,-6.15,7.15,-0.15,20.27
17711,0.0675,-0.2893,0.8485,-6.14,7.33,-0.14,20.26
17721,0.0652,-0.2916,0.8475,-6.03,7.73,-0.08,20.26
17731,0.0649,-0.292,0.8477,-5.88,8.21,0.06,20.28
17741,0.0653,-0.2906,0.8506,-5.76,8.17,0.12,20.26
17751,0.0638,-0.2896,0.8569,-5.82,8.14,0.12,20.25
17761,0.0634,-0.2881,0.8569,-5.83,7.79,0.0,20.28
17771,0.0603,-0.2903,0.8568,-5.92,7.34,-0.09,20.28
17781,0.0605,-0.2864,0.8594,-6.09,7.11,-0.18,20.28
17791,0.0625,-0.2875,0.8593,-6.12,7.22,-0.21,20.27
17801,0.0659,-0.2889,0.8507,-6.27,7.53,-0.15,20.3
17811,0.0631,-0.2896,0.8505,-6.15,7.97,-0.09,20.3
17821,0.0667,-0.2904,0.8502,-6.02,8.26,0.02,20.27
17831,0.0664,-0.2887,0.8538,-5.71,8.34,0.09,20.27
17841,0.0625,-0.2909,0.8552,-5.8,8.06,0.08,20.28
17851,0.0609,-0.2904,0.8593,-5.86,7.76,0.05,20.27
17861,0.0637,-0.2906,0.8547,-6.09,7.4,-0.15,20.27
17871,0.0643,-0.2927,0.8557,-6.32,7.45,-0.15,20.27
17881,0.0632,-0.2921,0.8494,-6.34,7.47,-0.08,20.26
17891,0.0632,-0.2908,0.8481,-6.18,7.73,-0.02,20.27
17901,0.0657,-0.2897,0.8489,-6.06,8.11,0.09,20.28
17911,0.0635,-0.2911,0.8521,-5.73,8.03,0.14,20.27
17921,0.0614,-0.2921,0.8582,-5.63,7.94,0.06,20.29
17931,0.064,-0.2925,0.8569,-5.82,7.86,-0.06,20.29
17941,0.0626,-0.2887,0.8538,-6.03,7.77,-0.11,20.28
17951,0.0627,-0.2899,0.854,-6.21,7.53,-0.08,20.28
17961,0.0657,-0.2894,0.8522,-6.17,7.48,-0.12,20.26
17971,0.0648,-0.2914,0.848,-6.11,7.59,-0.05,20.28
17981,0.0627,-0.2931,0.8495,-6.02,7.77,-0.11,20.27
17991,0.0616,-0.2897,0.8522,-6.0,7.92,-0.06,20.28
18001,0.0604,-0.2889,0.8545,-5.97,7.94,0.09,20.26
18011,0.0596,-0.2911,0.8514,-6.05,7.76,0.08,20.27
18021,0.0629,-0.2893,0.8535,-6.17,7.47,-0.02,20.29
18031,0.062,-0.2914,0.8549,-6.21,7.3,0.02,20.27
18041,0.0634,-0.2887,0.8555,-6.12,7.24,-0.17,20.25
18051,0.0649,-0.2903,0.8508,-6.05,7.45,-0.14,20.27
18061,0.0671,-0.2898,0.8502,-5.95,7.69,-0.02,20.3
18071,0.0676,-0.2892,0.8461,-5.8,7.95,0.05,20.29
18081,0.0621,-0.2909,0.8568,-5.95,8.08,0.09,20.29
18091,0.0632,-0.2904,0.8528,-6.03,8.08,0.08,20.28
18101,0.0599,-0.2905,0.8544,-6.15,7.88,-0.02,20.28
18111,0.0601,-0.29,0.855,-6.05,7.6,-0.03,20.3
18121,0.0659,-0.2899,0.8524,-6.11,7.51,-0.09,20.28
18131,0.0646,-0.2914,0.8503,-6.18,7.63,-0.06,20.29
18141,0.0651,-0.2913,0.8571,-6.09,7.76,0.0,20.29
18151,0.0647,-0.2919,0.8499,-6.08,7.82,0.0,20.3
18162,0.0649,-0.2922,0.8547,-5.88,7.77,-0.02,20.27
18172,0.0646,-0.2883,0.8527,-5.85,7.8,0.06,20.28
18182,0.0615,-0.2896,0.8555,-5.95,7.65,-0.08,20.29
18193,0.0625,-0.2902,0.8556,-6.11,7.5,-0.03,20.28
18203,0.0657,-0.2877,0.8524,-6.08,7.48,-0.06,20.27
18213,0.0647,-0.2883,0.8524,-6.15,7.62,-0.17,20.28
18223,0.0623,-0.2856,0.8517,-6.15,7.69,-0.14,20.29
18233,0.0638,-0.2887,0.8518,-5.95,7.95,-0.05,20.28
18243,0.0646,-0.2875,0.8527,-5.88,7.98,-0.02,20.28
18253,0.0641,-0.2877,0.8534,-5.8,7.91,0.15,20.29
18306,0.0591,-0.2878,0.853,-5.94,7.27,-0.03,20.29
18316,0.0636,-0.2876,0.8541,-5.68,7.16,-0.11,20.3
18326,0.0642,-0.285,0.8567,-5.82,7.25,0.02,20.28
18337,0.0646,-0.2885,0.855,-6.08,7.54,0.06,20.29
18347,0.0629,-0.2887,0.853,-6.24,7.65,-0.02,20.31
18357,0.0642,-0.2888,0.8564,-6.38,7.65,-0.05,20.29
18367,0.0634,-0.2897,0.8519,-6.5,8.08,0.05,20.27
18377,0.0632,-0.2856,0.8527,-6.41,8.41,-0.06,20.29
18387,0.0627,-0.2902,0.8522,-6.37,8.58,0.06,20.29
18397,0.0588,-0.2917,0.8481,-6.24,8.41,0.03,20.31
18407,0.0616,-0.2919,0.8546,-5.95,8.03,-0.03,20.26
18417,0.0607,-0.2908,0.8583,-5.8,7.65,0.05,20.3
18427,0.0621,-0.291,0.856,-5.85,7.34,-0.09,20.31
18437,0.0658,-0.292,0.8546,-5.92,7.5,-0.12,20.28
18447,0.0618,-0.2892,0.8507,-6.29,7.73,-0.15,20.29
18457,0.0654,-0.2898,0.8485,-6.18,7.89,-0.03,20.3
18467,0.0627,-0.2876,0.8507,-6.06,8.08,-0.02,20.29
18477,0.0645,-0.2919,0.8518,-5.83,8.18,0.08,20.3
18487,0.0619,-0.2921,0.8568,-5.71,8.0,0.03,20.29
18497,0.0601,-0.2908,0.8563,-5.73,7.69,-0.03,20.29
18507,0.0632,-0.292,0.861,-5.82,7.39,-0.15,20.29
18517,0.0643,-0.2896,0.8512,-5.98,7.22,-0.14,20.28
18527,0.0649,-0.2904,0.855,-5.94,7.21,-0.2,20.28
18537,0.0638,-0.29,0.8511,-6.02,7.53,-0.03,20.28
18547,0.066,-0.2896,0.8506,-6.05,7.8,0.03,20.27
18557,0.0613,-0.2921,0.8505,-5.88,8.09,0.08,20.28
18567,0.0601,-0.2903,0.85,-5.85,8.08,0.06,20.29
18577,0.0596,-0.2897,0.8542,-5.82,7.89,0.05,20.25
18587,0.0609,-0.288,0.8561,-5.83,7.48,-0.02,20.26
18597,0.0642,-0.2878,0.8553,-5.88,7.07,-0.11,20.28
18607,0.0651,-0.2898,0.853,-5.95,7.01,-0.15,20.29
18617,0.0641,-0.2883,0.8506,-6.08,7.28,-0.17,20.27
18627,0.0671,-0.2902,0.8501,-6.12,7.65,-0.09,20.3
18637,0.0619,-0.2903,0.8478,-5.88,8.02,-0.02,20.28
18647,0.0603,-0.2913,0.8508,-5.62,8.17,0.18,20.29
18657,0.0591,-0.291,0.853,-5.57,7.86,0.03,20.31
18667,0.0607,-0.2894,0.8607,-5.76,7.57,0.03,20.29
18677,0.063,-0.2902,0.8562,-5.98,7.39,-0.08,20.31
18687,0.0599,-0.2899,0.8549,-6.31,7.34,-0.11,20.29
18697,0.0626,-0.2897,0.8545,-6.43,7.36,-0.18,20.3
18707,0.0649,-0.2898,0.8491,-6.29,7.71,-0.05,20.28
18717,0.0635,-0.2917,0.8484,-6.05,7.91,0.02,20.31
18727,0.0615,-0.2904,0.8549,-5.79,8.09,0.09,20.26
18737,0.0597,-0.2896,0.8556,-5.88,8.09,0.09,20.3
18747,0.0579,-0.2897,0.861,-5.82,7.91,0.08,20.29
18757,0.0609,-0.2887,0.8546,-5.98,7.44,0.05,20.3
18767,0.0645,-0.2893,0.8568,-6.21,7.24,-0.14,20.29
18777,0.0641,-0.2876,0.8492,-6.21,7.3,-0.11,20.29
18787,0.0649,-0.2893,0.8464,-6.17,7.51,-0.08,20.27
18797,0.0696,-0.2894,0.8463,-6.15,7.95,-0.05,20.29
18807,0.0638,-0.2896,0.8447,-5.86,8.08,0.06,20.3
18817,0.0625,-0.2908,0.853,-5.68,8.05,0.08,20.33
18827,0.0621,-0.2891,0.8542,-5.57,7.94,0.09,20.32
18837,0.062,-0.2909,0.8571,-6.0,7.76,-0.06,20.3
18847,0.0609,-0.293,0.8557,-6.29,7.79,-0.09,20.33
18857,0.064,-0.2932,0.8514,-6.46,7.65,-0.12,20.32
18867,0.0651,-0.2904,0.8496,-6.24,7.5,-0.2,20.32
18877,0.0664,-0.2894,0.8506,-5.92,7.65,-0.2,20.32
18887,0.0652,-0.2888,0.8489,-5.97,7.91,-0.03,20.3
18897,0.0612,-0.2866,0.8521,-5.85,8.26,0.08,20.32
18907,0.0597,-0.2892,0.8557,-6.05,8.38,0.03,20.31
18917,0.0581,-0.2931,0.859,-6.03,8.11,0.05,20.31
18927,0.0605,-0.2941,0.8536,-6.06,7.71,-0.02,20.33
18937,0.0648,-0.2898,0.8555,-6.12,7.47,-0.18,20.32
18947,0.0669,-0.2889,0.8518,-6.24,7.5,-0.12,20.3
18957,0.066,-0.2903,0.8481,-6.34,7.6,-0.12,20.31
18967,0.0618,-0.2903,0.8494,-6.08,7.6,-0.02,20.3
18977,0.062,-0.2913,0.8531,-5.77,7.57,0.02,20.31
18987,0.0647,-0.2869,0.8538,-5.83,7.63,-0.05,20.32
18997,0.0612,-0.287,0.8574,-5.97,7.77,-0.06,20.3
19007,0.0618,-0.2908,0.8524,-6.05,7.56,-0.02,20.32
19017,0.0632,-0.2864,0.8551,-6.12,7.3,-0.12,20.3
19027,0.0615,-0.2877,0.8545,-5.91,7.1,-0.15,20.3
19037,0.0654,-0.2889,0.8521,-5.97,7.18,-0.11,20.3
19047,0.0692,-0.2897,0.851,-6.05,7.6,-0.11,20.3
19057,0.064,-0.2864,0.8513,-6.23,7.95,-0.02,20.28
19067,0.0641,-0.292,0.8533,-6.05,8.14,0.11,20.3
19077,0.0598,-0.2941,0.8522,-5.69,7.82,0.06,20.29
19087,0.061,-0.2944,0.8547,-5.57,7.45,0.02,20.3
19097,0.062,-0.2896,0.8547,-5.8,7.15,-0.12,20.32
19107,0.0643,-0.2916,0.8572,-6.09,7.33,-0.09,20.3
19117,0.0647,-0.2924,0.8517,-6.38,7.45,-0.15,20.32
19127,0.0635,-0.2903,0.8507,-6.17,7.62,-0.09,20.33
19137,0.0627,-0.2916,0.85,-5.8,7.56,-0.11,20.3
19147,0.0636,-0.2896,0.8457,-5.63,7.92,0.03,20.29
19157,0.067,-0.2916,0.8497,-5.88,8.08,0.02,20.3
19167,0.0603,-0.2911,0.8531,-6.03,8.08,0.11,20.33
19177,0.0636,-0.2908,0.8568,-6.06,7.76,0.0,20.31
19187,0.0629,-0.2909,0.8534,-6.08,7.34,-0.08,20.31
19197,0.063,-0.2913,0.8547,-6.08,7.24,-0.21,20.29
19207,0.0669,-0.287,0.8502,-6.15,7.39,-0.12,20.32
19217,0.0621,-0.2889,0.8501,-6.15,7.77,-0.14,20.32
19227,0.064,-0.2899,0.8563,-6.02,8.11,0.05,20.34
19237,0.0599,-0.2904,0.8525,-5.86,8.2,0.09,20.34
19247,0.0618,-0.2889,0.8567,-5.79,8.14,0.05,20.32
19257,0.0607,-0.2927,0.8597,-5.95,7.97,0.03,20.32
19267,0.0604,-0.2882,0.8585,-6.08,7.54,-0.08,20.3
19277,0.0632,-0.2937,0.8584,-5.98,7.16,-0.18,20.32
19287,0.063,-0.2902,0.8534,-6.0,7.11,-0.14,20.3
19297,0.0638,-0.2899,0.8508,-6.06,7.36,-0.14,20.32
19307,0.0657,-0.2904,0.8477,-5.95,7.69,-0.02,20.33
19317,0.0659,-0.2891,0.8513,-5.88,8.02,0.02,20.34
19327,0.0563,-0.2909,0.8528,-5.88,8.18,0.12,20.31
19337,0.0632,-0.2898,0.8542,-5.76,7.88,0.09,20.32
19347,0.0608,-0.2905,0.8574,-5.77,7.57,0.06,20.29
19357,0.0618,-0.2881,0.8571,-6.11,7.39,-0.03,20.31
19367,0.0658,-0.2863,0.8546,-6.21,7.37,-0.14,20.31
19378,0.0636,-0.2883,0.8519,-6.23,7.44,-0.12,20.31
19388,0.0659,-0.2871,0.8501,-6.08,7.74,-0.02,20.32
19398,0.0651,-0.2902,0.8451,-5.88,7.74,0.08,20.3
19408,0.0647,-0.2889,0.8503,-5.8,7.98,0.08,20.3
19418,0.0648,-0.2877,0.8555,-5.98,7.92,0.11,20.33
19428,0.0634,-0.2913,0.8571,-6.17,7.85,0.05,20.33
19438,0.0594,-0.2922,0.8545,-6.14,7.51,-0.05,20.32
19448,0.0612,-0.2916,0.8551,-6.12,7.13,-0.08,20.3
19458,0.0616,-0.2889,0.8574,-6.0,6.96,-0.12,20.33
19468,0.0638,-0.2897,0.8477,-6.02,7.21,-0.15,20.31
19478,0.0662,-0.2891,0.85,-6.11,7.66,0.0,20.33
19489,0.0663,-0.2878,0.8466,-6.08,7.94,-0.02,20.32
19499,0.0643,-0.2892,0.8534,-6.0,8.15,0.08,20.31
19509,0.0647,-0.2886,0.8549,-5.86,8.03,0.09,20.32
19519,0.0614,-0.2885,0.8553,-5.82,7.66,0.02,20.32
19529,0.0631,-0.293,0.855,-5.95,7.57,-0.18,20.34
19539,0.0643,-0.2911,0.8534,-6.02,7.4,-0.14,20.31
19549,0.0626,-0.2921,0.8527,-6.03,7.31,-0.11,20.32
19559,0.0646,-0.2921,0.854,-5.83,7.37,-0.08,20.31
19569,0.064,-0.292,0.8489,-5.97,7.59,-0.02,20.33
19579,0.0638,-0.291,0.8495,-5.85,7.76,0.03,20.34
19589,0.0635,-0.291,0.8531,-6.0,7.82,0.0,20.32
19599,0.0648,-0.291,0.8578,-6.0,7.76,-0.02,20.33
19609,0.0618,-0.2921,0.8615,-6.02,7.68,0.08,20.33
19619,0.062,-0.2896,0.8573,-6.15,7.53,-0.03,20.32
19629,0.0664,-0.2889,0.8542,-6.11,7.56,-0.08,20.33
19639,0.0649,-0.2861,0.8549,-6.24,7.8,-0.09,20.31
19649,0.0624,-0.2869,0.8538,-6.12,7.94,0.05,20.32
19659,0.0625,-0.2894,0.8541,-5.98,7.91,0.05,20.34
19669,0.0632,-0.2908,0.856,-5.76,7.88,0.11,20.32
19679,0.0624,-0.2903,0.8586,-5.79,7.68,0.02,20.35
19689,0.0631,-0.2887,0.8579,-5.92,7.63,-0.08,20.33
19699,0.0615,-0.2914,0.8522,-6.15,7.71,-0.15,20.32
19709,0.0635,-0.2908,0.8516,-6.14,7.57,-0.11,20.33
19719,0.0643,-0.2926,0.8496,-6.0,7.65,-0.08,20.33
19729,0.0654,-0.2938,0.8455,-5.83,7.82,-0.05,20.35
19739,0.0645,-0.2905,0.855,-5.71,7.88,0.09,20.33
19749,0.0625,-0.2881,0.8535,-5.79,7.95,0.06,20.33
19759,0.0608,-0.2889,0.8593,-5.98,7.89,0.02,20.32
19769,0.0656,-0.2906,0.8539,-6.06,7.6,-0.06,20.35
19779,0.064,-0.2897,0.8549,-6.05,7.47,-0.15,20.32
19789,0.0635,-0.2893,0.8541,-6.06,7.36,-0.11,20.33
19799,0.0632,-0.2871,0.8522,-5.95,7.34,-0.06,20.35
19809,0.0615,-0.2876,0.8523,-6.02,7.63,-0.03,20.31
19819,0.0612,-0.2915,0.8578,-5.94,7.92,-0.09,20.33
19829,0.064,-0.2888,0.8513,-5.79,7.92,0.09,20.34
19839,0.0631,-0.2914,0.8571,-5.83,7.8,0.05,20.32
19849,0.0636,-0.2885,0.8557,-5.73,7.51,-0.08,20.31
19859,0.0634,-0.2878,0.8606,-5.89,7.4,-0.09,20.33
19869,0.068,-0.2832,0.856,-6.12,7.74,-0.08,20.32
19879,0.067,-0.2883,0.8517,-6.18,7.94,-0.09,20.32
19889,0.0647,-0.2903,0.8495,-6.21,7.97,-0.02,20.32
19899,0.0679,-0.2903,0.8524,-5.89,8.0,0.05,20.33
19909,0.0671,-0.2871,0.8525,-5.68,7.82,0.06,20.32
19919,0.0629,-0.2874,0.8573,-5.77,7.74,0.03,20.32
19929,0.0637,-0.2885,0.8578,-5.85,7.62,-0.02,20.34
19939,0.0641,-0.2894,0.8604,-5.82,7.34,-0.03,20.32
19949,0.0603,-0.2911,0.8563,-5.86,7.31,-0.05,20.33
19959,0.0637,-0.2888,0.85,-5.94,7.45,-0.02,20.34
19969,0.0624,-0.2892,0.8489,-5.77,7.66,-0.12,20.32
19979,0.0654,-0.2927,0.8492,-5.71,7.94,0.0,20.36
19989,0.0634,-0.2913,0.8477,-5.57,8.09,0.03,20.33
19999,0.0627,-0.2883,0.8529,-5.44,7.94,-0.03,20.31
20009,0.0627,-0.2903,0.8596,-5.47,7.83,0.02,20.32
20019,0.0608,-0.2892,0.859,-5.62,7.86,-0.08,20.32
20029,0.0607,-0.292,0.8555,-5.95,8.09,-0.63,20.31
20039,0.0566,-0.295,0.8484,-6.05,8.18,-1.3,20.32
20049,0.0527,-0.2965,0.8717,-5.36,5.47,-0.29,20.31
20059,0.0643,-0.2805,0.8625,-5.34,7.22,-0.35,20.33
20069,0.0686,-0.2834,0.8472,-6.95,7.48,-0.21,20.34
20079,0.0695,-0.2963,0.849,-6.6,8.64,-0.06,20.32
20089,0.0609,-0.2844,0.8416,-6.21,8.84,0.06,20.34
20099,0.0629,-0.2985,0.8553,-5.56,8.02,0.02,20.32
20109,0.059,-0.2856,0.8533,-4.93,7.89,-0.06,20.34
20119,0.0618,-0.2891,0.8613,-5.69,7.42,-0.26,20.33
20129,0.0612,-0.2853,0.8615,-5.95,8.08,-0.2,20.32
20139,0.0557,-0.2848,0.858,-6.56,7.45,-0.17,20.33
20149,0.061,-0.2899,0.8577,-6.2,7.39,-0.24,20.32
20159,0.0619,-0.2834,0.8439,-5.83,7.05,-0.23,20.32
20169,0.0698,-0.2906,0.8524,-5.77,6.67,-0.24,20.33
20179,0.0687,-0.2806,0.8523,-5.82,8.17,0.06,20.32
20189,0.061,-0.2854,0.8524,-6.12,7.94,0.0,20.33
20199,0.0613,-0.2913,0.8599,-5.77,8.02,0.12,20.36
20209,0.0596,-0.2844,0.8578,-5.92,7.65,0.0,20.33
20219,0.0613,-0.29,0.8599,-5.88,7.33,0.02,20.33
20229,0.0599,-0.2894,0.8485,-6.03,6.95,-0.11,20.3
20239,0.0642,-0.2903,0.8578,-6.23,6.92,-0.14,20.33
20249,0.0669,-0.2896,0.8485,-6.09,7.39,-0.06,20.36
20259,0.0654,-0.2883,0.851,-6.06,7.28,-0.06,20.33
20269,0.0662,-0.2921,0.8523,-5.68,7.68,-0.02,20.32
20279,0.0636,-0.2881,0.8534,-5.65,7.62,0.11,20.35
20289,0.0636,-0.2915,0.8577,-5.76,7.59,0.11,20.32
20300,0.0643,-0.2888,0.854,-5.83,7.57,-0.08,20.35
20310,0.0626,-0.291,0.8591,-6.03,7.44,-0.12,20.34
20320,0.0642,-0.2905,0.859,-6.14,7.59,-0.06,20.34
20330,0.0632,-0.2914,0.8544,-6.34,7.45,-0.08,20.35
20340,0.064,-0.2904,0.8512,-5.97,7.51,-0.06,20.32
20350,0.0658,-0.2888,0.8497,-5.74,7.31,-0.09,20.33
20360,0.0671,-0.2874,0.856,-5.68,7.33,0.02,20.35
20371,0.066,-0.2875,0.8517,-5.73,7.48,0.03,20.34
20381,0.0645,-0.2871,0.86,-6.05,7.59,0.05,20.34
20391,0.0645,-0.2908,0.8569,-6.14,7.79,-0.05,20.35
20401,0.0602,-0.2894,0.854,-6.09,7.47,-0.14,20.35
20411,0.0599,-0.2888,0.8539,-6.02,7.3,-0.11,20.36
20421,0.0647,-0.2871,0.8533,-5.91,6.99,-0.09,20.35
20431,0.0652,-0.2854,0.8546,-5.83,7.15,-0.08,20.36
20441,0.0609,-0.2881,0.8564,-5.85,7.24,0.03,20.35
20451,0.0634,-0.286,0.8571,-5.89,7.39,0.03,20.33
20461,0.0657,-0.2863,0.8547,-5.92,7.39,0.14,20.32
20471,0.0659,-0.2881,0.8541,-5.94,7.16,0.06,20.34
20481,0.0654,-0.2856,0.8586,-5.95,7.21,0.05,20.33
20491,0.0673,-0.2863,0.8558,-6.06,7.21,0.06,20.35
20501,0.0685,-0.2883,0.8544,-6.26,7.5,0.09,20.36
20511,0.0668,-0.2904,0.85,-6.52,7.74,0.21,20.34
20521,0.0634,-0.2908,0.8478,-6.37,7.68,0.35,20.35
20531,0.0657,-0.2897,0.8499,-6.21,7.54,0.61,20.35
20541,0.0657,-0.2896,0.8534,-6.06,7.25,0.89,20.33
20551,0.0656,-0.2933,0.8507,-5.94,7.19,1.02,20.33
20561,0.0656,-0.2914,0.8521,-6.05,7.3,0.9,20.35
20571,0.0647,-0.2925,0.8546,-6.03,7.24,0.82,20.34
20581,0.0646,-0.2919,0.85,-5.94,7.1,0.69,20.34
20591,0.0685,-0.2906,0.8561,-5.97,7.33,0.27,20.35
20601,0.0698,-0.2853,0.8531,-6.02,7.68,0.05,20.34
20611,0.0709,-0.2844,0.8571,-6.34,8.27,0.05,20.35
20621,0.0669,-0.2869,0.8501,-7.01,8.92,0.21,20.33
20631,0.0614,-0.2925,0.8529,-7.07,8.99,0.12,20.34
20641,0.0598,-0.2908,0.855,-6.64,8.7,-0.05,20.36
20651,0.061,-0.2931,0.8534,-5.92,7.91,-0.06,20.36
20661,0.0648,-0.2885,0.853,-5.63,7.62,-0.15,20.34
20671,0.0679,-0.2844,0.8542,-6.03,7.83,-0.08,20.36
20681,0.0629,-0.2864,0.8524,-6.24,8.2,0.06,20.34
20691,0.0634,-0.2914,0.8535,-5.91,7.92,0.02,20.35
20701,0.0623,-0.2894,0.8478,-5.37,7.51,-0.03,20.36
20711,0.0616,-0.2881,0.8555,-4.82,6.96,0.02,20.35
20721,0.0654,-0.2858,0.8541,-4.7,6.81,0.02,20.33
20731,0.0615,-0.2859,0.8551,-5.19,7.1,-0.02,20.32
20741,0.0668,-0.2863,0.8594,-5.74,7.59,-0.02,20.35
20751,0.0691,-0.2888,0.853,-6.31,8.17,-0.09,20.34
20761,0.0681,-0.2892,0.8535,-6.56,8.52,-0.05,20.37
20771,0.0685,-0.2887,0.8508,-6.66,8.81,-0.03,20.35
20781,0.0652,-0.2939,0.8495,-6.56,8.81,0.0,20.34
20791,0.0607,-0.2949,0.8531,-6.32,8.5,0.12,20.35
20801,0.0601,-0.2949,0.8542,-5.79,7.88,0.02,20.35
20811,0.0652,-0.2883,0.8597,-5.92,7.59,-0.34,20.34
20821,0.0616,-0.2874,0.8546,-6.49,7.1,0.12,20.33
20831,0.0703,-0.2941,0.8652,-6.31,7.34,-0.27,20.34
20841,0.0621,-0.285,0.8442,-6.29,8.03,-0.06,20.35
20851,0.0645,-0.2949,0.8484,-5.92,7.65,-0.14,20.37
20861,0.0664,-0.2838,0.8467,-5.56,8.0,-0.02,20.36
20871,0.0697,-0.2885,0.8529,-6.12,8.56,-0.06,20.36
20881,0.0658,-0.285,0.854,-6.26,9.48,0.08,20.34
20891,0.0581,-0.2886,0.8563,-6.61,8.58,-0.02,20.35
20901,0.0603,-0.2897,0.8641,-6.56,8.26,-0.02,20.36
20911,0.0565,-0.2898,0.8573,-6.75,7.18,-0.17,20.35
20921,0.0605,-0.2917,0.8601,-6.44,6.44,-0.14,20.32
20931,0.0602,-0.2887,0.8517,-5.89,5.82,-0.41,20.34
20941,0.0671,-0.2911,0.8475,-5.65,5.79,-0.35,20.37
20951,0.072,-0.2848,0.8451,-5.97,7.1,-0.2,20.32
20961,0.0701,-0.2854,0.8491,-6.82,8.69,0.08,20.33
20971,0.071,-0.29,0.853,-6.95,9.77,0.23,20.35
20981,0.062,-0.2902,0.8546,-6.73,9.8,0.31,20.34
20991,0.057,-0.2931,0.8589,-6.14,8.73,0.14,20.36
21001,0.0582,-0.2917,0.8612,-5.85,7.42,-0.08,20.35
21011,0.0607,-0.2921,0.8625,-6.05,6.56,-0.23,20.32
21021,0.062,-0.2909,0.8536,-6.4,6.64,-0.35,20.32
21031,0.0677,-0.287,0.8458,-6.63,6.78,-0.26,20.32
21041,0.0671,-0.2897,0.8472,-6.53,7.54,-0.18,20.35
21051,0.0679,-0.2915,0.8416,-6.2,8.43,0.06,20.36
21061,0.0673,-0.2891,0.8477,-5.8,8.5,0.18,20.34
21071,0.0594,-0.2903,0.8547,-5.44,8.44,0.29,20.35
21081,0.0599,-0.2871,0.8611,-5.63,7.98,0.11,20.36
21091,0.0619,-0.2889,0.8666,-5.88,7.48,-0.03,20.34
21101,0.0585,-0.2872,0.8634,-6.43,7.15,-0.21,20.35
21111,0.0647,-0.2926,0.855,-6.78,6.9,-0.34,20.35
21121,0.0632,-0.2919,0.8448,-6.53,6.87,-0.24,20.34
21131,0.0688,-0.2931,0.8444,-6.23,7.19,-0.15,20.34
21141,0.0656,-0.2909,0.8455,-5.82,7.86,0.05,20.35
21151,0.0658,-0.2869,0.853,-5.68,8.23,0.23,20.35
21161,0.0638,-0.2903,0.8583,-5.6,8.27,0.29,20.33
21171,0.0599,-0.2904,0.859,-5.94,8.23,0.18,20.32
21181,0.0576,-0.2894,0.8633,-6.31,7.79,0.03,20.34
21191,0.0599,-0.2898,0.8602,-6.52,7.33,-0.03,20.34
21201,0.0624,-0.2914,0.8529,-6.55,7.21,-0.29,20.35
21211,0.0648,-0.2854,0.849,-6.53,7.54,-0.18,20.36
21221,0.0669,-0.2867,0.8452,-6.37,8.05,-0.02,20.36
21231,0.0641,-0.2902,0.8483,-5.97,8.29,0.15,20.34
21241,0.0609,-0.2905,0.8547,-5.59,8.2,0.23,20.35
21251,0.0585,-0.2913,0.8578,-5.45,7.74,0.08,20.36
21261,0.0596,-0.2891,0.864,-5.69,7.27,-0.12,20.37
21271,0.0599,-0.2848,0.864,-6.31,7.39,-0.12,20.37
21281,0.0653,-0.2903,0.8556,-6.76,7.56,-0.24,20.35
21291,0.0668,-0.2896,0.8484,-6.81,7.66,-0.15,20.35
21301,0.066,-0.2897,0.8439,-6.46,7.98,-0.09,20.36
21311,0.061,-0.292,0.8475,-6.05,8.21,0.05,20.35
21321,0.063,-0.2904,0.854,-5.76,8.38,0.14,20.33
21331,0.0638,-0.2904,0.8577,-5.95,8.44,0.11,20.35
21341,0.0587,-0.2913,0.8619,-6.11,8.06,0.03,20.37
21351,0.0601,-0.2943,0.8632,-6.64,7.82,-0.05,20.38
21361,0.0603,-0.2924,0.8574,-6.92,7.79,-0.17,20.36
21371,0.0618,-0.2909,0.8546,-7.15,7.95,-0.2,20.36
21381,0.0688,-0.2943,0.8407,-7.04,8.24,-0.08,20.37
21391,0.0691,-0.2925,0.849,-6.96,8.67,-0.08,20.34
21401,0.0638,-0.2919,0.8512,-6.69,8.93,0.12,20.36
21411,0.0636,-0.2939,0.8485,-6.35,8.89,0.12,20.34
21421,0.0564,-0.2958,0.856,-6.17,8.46,0.2,20.35
21431,0.0601,-0.297,0.8611,-6.02,7.79,0.03,20.33
21441,0.0607,-0.2932,0.8628,-5.95,7.16,-0.14,20.34
21451,0.0629,-0.2874,0.8534,-6.17,6.99,-0.26,20.37
21461,0.0635,-0.2904,0.8502,-6.05,7.02,-0.18,20.37
21471,0.0618,-0.2917,0.8461,-5.92,7.24,-0.05,20.38
21481,0.0603,-0.2916,0.844,-5.59,7.53,0.05,20.37
21491,0.0642,-0.291,0.8494,-5.39,7.77,0.09,20.37
21501,0.0604,-0.2896,0.8546,-5.34,8.09,0.14,20.36
21511,0.0588,-0.2917,0.8573,-5.5,7.88,-0.02,20.36
21521,0.0619,-0.2904,0.8611,-5.44,7.68,0.02,20.35
21531,0.0596,-0.2908,0.8542,-5.62,7.3,-0.06,20.37
21541,0.0601,-0.2919,0.8557,-5.66,7.04,-0.11,20.34
21551,0.063,-0.2894,0.8518,-5.54,6.92,-0.08,20.34
21561,0.0679,-0.2892,0.8511,-5.36,6.96,-0.06,20.34
21571,0.0667,-0.2888,0.8492,-5.37,7.36,0.02,20.39
21581,0.0656,-0.2893,0.8495,-5.51,7.65,-0.03,20.38
21591,0.0642,-0.2897,0.8552,-5.71,8.09,0.14,20.37
21601,0.0625,-0.2881,0.856,-6.03,8.43,0.15,20.35
21611,0.0593,-0.2925,0.8567,-6.11,8.31,-0.03,20.37
21621,0.0632,-0.2891,0.8571,-6.21,8.12,-0.05,20.39
21631,0.0629,-0.2905,0.8563,-6.37,7.92,-0.14,20.39
21641,0.063,-0.2926,0.855,-6.32,7.8,-0.06,20.37
21651,0.0627,-0.291,0.8502,-6.17,7.57,-0.12,20.37
21661,0.0607,-0.2953,0.8536,-5.95,7.6,-0.03,20.36
21671,0.0626,-0.2924,0.8545,-5.88,7.68,-0.08,20.37
21681,0.062,-0.2908,0.8531,-5.6,7.77,0.0,20.35
21691,0.064,-0.2887,0.8549,-5.76,7.71,0.03,20.37
21701,0.0663,-0.2905,0.8521,-5.91,7.62,0.0,20.37
21711,0.064,-0.2915,0.8585,-5.91,7.66,0.14,20.37
21721,0.0648,-0.2874,0.8536,-5.91,7.45,0.02,20.35
21731,0.0635,-0.2896,0.8503,-5.98,7.19,-0.09,20.36
21741,0.0623,-0.2906,0.8494,-5.8,7.27,-0.17,20.37
21751,0.0631,-0.2874,0.8527,-5.68,7.47,-0.08,20.37
21761,0.063,-0.2911,0.8544,-5.44,7.54,-0.05,20.4
21771,0.0674,-0.292,0.8505,-4.95,7.51,0.0,20.37
21781,0.0659,-0.2908,0.8572,-4.49,7.25,-0.08,20.41
21791,0.0604,-0.2896,0.8502,-4.31,7.48,-0.15,20.39
21801,0.0594,-0.2908,0.8489,-4.18,7.54,-0.35,20.37
21811,0.056,-0.2921,0.8484,-4.43,7.94,-1.45,20.38
21821,0.0598,-0.2919,0.8529,-4.18,8.0,-2.27,20.4
21831,0.0625,-0.2924,0.856,-4.0,8.05,-2.6,20.37
21841,0.0624,-0.2836,0.8513,-4.02,7.89,-2.63,20.34
21851,0.0609,-0.2802,0.8718,-4.34,4.64,-0.73,20.38
21861,0.0709,-0.2893,0.8827,-4.37,6.72,-0.37,20.36
21871,0.054,-0.2783,0.8474,-6.66,7.88,-0.08,20.37
21881,0.0668,-0.295,0.8542,-7.02,7.73,-0.11,20.4
21891,0.0638,-0.2837,0.8418,-5.98,7.8,-0.15,20.39
21901,0.0676,-0.2944,0.8439,-5.56,6.64,-0.11,20.37
21911,0.0654,-0.2876,0.8491,-4.44,7.1,0.02,20.35
21921,0.0679,-0.2804,0.8511,-4.9,6.79,-0.05,20.37
21931,0.0664,-0.2869,0.8644,-5.34,7.33,0.05,20.37
21941,0.0615,-0.2816,0.8528,-5.86,7.33,0.02,20.36
21951,0.0653,-0.2905,0.8608,-6.44,7.13,-0.2,20.39
21961,0.0641,-0.2898,0.8539,-6.37,7.27,-0.11,20.39
21971,0.0653,-0.2906,0.8481,-6.4,6.63,-0.15,20.4
21981,0.0693,-0.2903,0.8512,-6.17,7.27,-0.06,20.39
21991,0.0671,-0.2874,0.8502,-6.44,7.74,0.12,20.38
22001,0.0658,-0.2892,0.8528,-6.35,8.21,0.14,20.39
22011,0.0647,-0.2871,0.8553,-6.34,8.5,0.18,20.37
22021,0.0643,-0.2935,0.8602,-6.23,7.95,0.05,20.4
22032,0.0619,-0.287,0.8563,-5.97,7.37,-0.12,20.38
22042,0.0616,-0.2853,0.8595,-5.91,6.6,-0.17,20.39
22052,0.0662,-0.2867,0.8578,-5.74,6.47,-0.2,20.38
22062,0.0647,-0.2838,0.8511,-6.02,6.81,-0.18,20.37
22072,0.0663,-0.2883,0.8506,-6.24,7.24,-0.05,20.39
22082,0.0684,-0.2865,0.8499,-6.15,7.76,0.0,20.39
22092,0.066,-0.2853,0.8546,-6.17,7.89,0.09,20.37
22102,0.0686,-0.2858,0.8567,-5.97,7.86,0.02,20.39
22112,0.0667,-0.2847,0.855,-6.05,7.68,0.0,20.4
22122,0.0629,-0.2886,0.856,-6.15,7.66,0.03,20.35
22132,0.0669,-0.287,0.8542,-6.24,7.53,0.0,20.38
22142,0.0612,-0.2888,0.8518,-6.34,7.56,-0.09,20.35
22152,0.0642,-0.2883,0.8577,-6.17,7.79,0.05,20.39
22162,0.0664,-0.2883,0.8517,-6.11,7.98,0.09,20.4
22172,0.0635,-0.2903,0.8558,-6.05,8.09,0.14,20.39
22183,0.0656,-0.2882,0.851,-5.85,7.74,0.03,20.38
22193,0.0669,-0.2909,0.8545,-5.76,7.42,-0.02,20.36
22203,0.0665,-0.2878,0.8523,-5.92,7.56,-0.03,20.39
22213,0.0671,-0.2899,0.8534,-6.4,7.83,-0.05,20.38
22223,0.0636,-0.2894,0.8513,-6.35,7.89,-0.02,20.37
22233,0.0645,-0.2903,0.8511,-5.94,7.83,0.06,20.38
22243,0.0662,-0.2926,0.8501,-5.62,7.82,0.05,20.39
22253,0.0619,-0.2924,0.8507,-5.47,7.45,0.0,20.39
22263,0.0641,-0.2841,0.8538,-5.19,7.22,-0.05,20.38
22273,0.0706,-0.2871,0.8611,-5.21,7.53,0.0,20.39
22283,0.0665,-0.2816,0.8525,-5.21,8.02,-0.17,20.41
22293,0.0654,-0.2825,0.8489,-5.15,8.43,0.0,20.4
22303,0.0667,-0.2826,0.8488,-4.89,8.44,-0.05,20.38
22313,0.0664,-0.2798,0.8533,-4.82,8.78,0.08,20.39
22323,0.0651,-0.2759,0.8357,-4.98,8.17,0.55,20.39
22333,0.0698,-0.2972,0.8662,-4.72,6.15,-0.14,20.38
22343,0.0652,-0.2787,0.8651,-5.05,6.89,-0.08,20.39
22353,0.0664,-0.2817,0.8635,-6.44,6.12,-0.4,20.39
22363,0.0712,-0.2858,0.8577,-6.34,6.99,-0.55,20.39
22373,0.0691,-0.2821,0.8387,-7.31,7.57,-0.29,20.4
22383,0.0737,-0.2909,0.8474,-7.27,8.67,-0.03,20.37
22393,0.0631,-0.2861,0.8362,-6.56,9.28,0.35,20.38
22403,0.0608,-0.2975,0.8569,-5.88,8.53,0.46,20.38
22413,0.0562,-0.291,0.866,-4.99,7.97,0.34,20.4
22423,0.0543,-0.2892,0.864,-5.08,6.26,-0.02,20.38
22433,0.0629,-0.2899,0.8657,-5.5,5.73,-0.17,20.37
22443,0.0646,-0.2869,0.8546,-6.53,5.5,-0.31,20.38
22453,0.0747,-0.2897,0.8547,-7.34,6.03,-0.43,20.41
22463,0.072,-0.2865,0.8446,-7.48,7.37,-0.17,20.41
22473,0.0718,-0.2933,0.8444,-7.16,7.94,0.03,20.38
22483,0.0686,-0.2944,0.8428,-6.08,8.41,0.26,20.37
22493,0.0646,-0.2915,0.8514,-5.65,8.15,0.38,20.37
22503,0.064,-0.2903,0.8625,-5.51,7.76,0.4,20.41
22513,0.0635,-0.2865,0.8694,-5.97,7.05,0.46,20.42
22523,0.0718,-0.2836,0.8717,-6.56,5.82,1.21,20.39
22533,0.0756,-0.281,0.8645,-7.11,5.25,2.38,20.38
22543,0.0758,-0.2806,0.8485,-7.89,6.31,3.1,20.39
22553,0.0695,-0.2847,0.8381,-8.14,7.63,2.63,20.39
22563,0.0645,-0.2906,0.8318,-6.99,8.5,1.89,20.39
22573,0.0637,-0.2921,0.8408,-5.5,8.41,1.3,20.4
22583,0.0608,-0.286,0.8517,-4.49,8.14,0.85,20.39
22593,0.0594,-0.2806,0.8671,-4.76,7.98,0.49,20.41
22603,0.0586,-0.2841,0.8699,-5.57,7.62,0.26,20.38
22613,0.0605,-0.2885,0.8668,-6.24,7.08,-0.03,20.41
22623,0.0637,-0.2891,0.8575,-6.41,6.27,-0.14,20.38
22633,0.0677,-0.2939,0.8444,-6.11,6.06,-0.24,20.4
22643,0.0751,-0.2897,0.8387,-5.51,6.35,-0.11,20.38
22653,0.0731,-0.2861,0.8395,-4.93,7.21,0.02,20.38
22663,0.0724,-0.2883,0.8458,-4.63,8.21,0.31,20.39
22673,0.068,-0.2886,0.8522,-4.69,8.72,0.43,20.4
22683,0.0645,-0.2845,0.8685,-4.64,8.34,0.32,20.41
22693,0.0574,-0.2871,0.8671,-5.02,7.86,0.05,20.39
22703,0.0601,-0.2861,0.8679,-5.63,6.76,-0.21,20.39
22713,0.0752,-0.2861,0.8589,-6.03,6.53,-0.29,20.39
22723,0.0704,-0.2849,0.8459,-6.26,6.53,-0.41,20.38
22733,0.0734,-0.2854,0.8418,-6.11,7.3,-0.14,20.39
22743,0.0728,-0.2793,0.8424,-6.09,8.6,0.03,20.42
22753,0.0718,-0.2815,0.8485,-6.09,9.73,0.21,20.4
22763,0.0663,-0.2849,0.8566,-6.24,10.27,0.47,20.37
22773,0.0593,-0.2881,0.8632,-6.17,9.57,0.27,20.39
22783,0.0576,-0.2883,0.8708,-6.0,8.02,0.09,20.39
22793,0.0549,-0.2864,0.8705,-6.24,6.98,-0.18,20.4
22803,0.0652,-0.2853,0.8591,-6.64,6.43,-0.44,20.41
22813,0.0728,-0.2841,0.8486,-7.11,6.6,-0.44,20.38
22823,0.0719,-0.2865,0.8447,-6.96,7.27,-0.27,20.41
22833,0.0699,-0.2867,0.8381,-6.29,7.97,-0.03,20.39
22843,0.0708,-0.2877,0.8441,-5.66,8.56,0.2,20.39
22853,0.0673,-0.2855,0.856,-5.63,8.85,0.35,20.38
22863,0.0625,-0.2866,0.8654,-5.85,8.61,0.29,20.39
22873,0.0613,-0.2882,0.8672,-6.31,8.03,0.08,20.38
22883,0.0602,-0.2875,0.8647,-6.79,7.18,-0.23,20.41
22893,0.0619,-0.2887,0.8572,-6.92,6.49,-0.4,20.39
22903,0.0662,-0.2886,0.8505,-6.87,6.14,-0.41,20.41
22913,0.0712,-0.2874,0.8429,-6.46,6.41,-0.24,20.39
22923,0.0751,-0.2858,0.8435,-5.92,7.19,0.0,20.39
22933,0.0719,-0.2869,0.8503,-5.56,8.03,0.21,20.39
22943,0.0721,-0.2872,0.8502,-5.39,8.2,0.21,20.4
22953,0.0641,-0.2881,0.8564,-5.66,8.38,0.2,20.4
22963,0.0598,-0.288,0.8624,-6.14,8.2,0.03,20.38
22973,0.0625,-0.2893,0.8645,-6.52,7.63,-0.14,20.4
22983,0.0654,-0.2887,0.8545,-6.66,7.28,-0.2,20.39
22993,0.066,-0.2908,0.8541,-6.66,7.18,-0.18,20.39
23003,0.0704,-0.2911,0.8462,-6.47,7.47,-0.17,20.41
23013,0.0669,-0.2915,0.847,-6.0,7.76,0.05,20.4
23023,0.0669,-0.2898,0.8491,-5.68,8.03,0.09,20.41
23033,0.0646,-0.2882,0.8549,-5.54,8.12,0.08,20.41
23043,0.0638,-0.2889,0.8595,-5.45,8.06,0.11,20.39
23053,0.0646,-0.2854,0.86,-5.83,7.73,-0.08,20.4
23063,0.0667,-0.2885,0.8635,-5.89,7.53,-0.12,20.4
23073,0.0646,-0.285,0.854,-6.06,7.28,-0.26,20.42
23083,0.0681,-0.2866,0.8507,-6.12,7.42,-0.17,20.39
23093,0.0686,-0.2853,0.8479,-6.14,7.88,-0.06,20.41
23103,0.0691,-0.2853,0.8503,-5.88,8.32,0.05,20.39
23113,0.0656,-0.2875,0.8501,-5.66,8.4,0.11,20.42
23123,0.0677,-0.2871,0.8568,-5.44,8.34,0.17,20.4
23133,0.0619,-0.2849,0.8601,-5.47,8.15,0.14,20.42
23143,0.0634,-0.2867,0.8585,-5.8,7.86,0.02,20.41
23153,0.0619,-0.2887,0.8604,-6.2,7.56,-0.15,20.42
23163,0.0685,-0.2872,0.8562,-6.32,7.63,-0.15,20.42
23173,0.0675,-0.2856,0.8521,-6.56,8.09,-0.15,20.42
23183,0.0698,-0.2859,0.8505,-6.5,8.64,-0.06,20.4
23193,0.0657,-0.2888,0.8491,-6.26,8.87,0.06,20.42
23203,0.0607,-0.2898,0.8527,-6.0,8.66,0.09,20.39
23213,0.0609,-0.2905,0.8589,-5.8,8.18,0.08,20.41
23223,0.0624,-0.2859,0.8634,-5.85,7.76,-0.06,20.42
23233,0.0663,-0.2849,0.8629,-6.23,7.68,-0.18,20.42
23243,0.0651,-0.2826,0.8549,-6.58,7.63,-0.2,20.41
23253,0.0667,-0.2864,0.8488,-6.66,7.62,-0.2,20.4
23264,0.0704,-0.2834,0.8527,-6.23,7.71,-0.15,20.41
23274,0.0703,-0.2839,0.8464,-5.92,8.15,-0.03,20.42
23284,0.066,-0.2805,0.8528,-5.73,8.44,0.03,20.42
23297,0.0656,-0.2842,0.8611,-5.98,8.76,0.08,20.39
23307,0.067,-0.2858,0.8606,-6.27,8.69,-0.05,20.39
23317,0.0626,-0.288,0.8563,-6.44,8.11,-0.18,20.41
23327,0.0623,-0.2891,0.8569,-6.53,7.6,-0.31,20.4
23337,0.0634,-0.2837,0.8539,-6.4,7.37,-0.37,20.42
23347,0.0642,-0.2869,0.8531,-6.41,7.53,-0.26,20.39
23357,0.0714,-0.2896,0.8472,-6.5,8.03,-0.27,20.41
23367,0.067,-0.2888,0.8478,-6.43,8.41,-0.14,20.39
23377,0.0653,-0.2917,0.8505,-6.24,8.66,-0.02,20.42
23387,0.0642,-0.2911,0.854,-6.31,8.69,0.02,20.42
23397,0.0607,-0.2894,0.8588,-6.24,8.18,-0.05,20.41
23407,0.059,-0.2928,0.8615,-6.21,7.85,-0.12,20.4
23417,0.0651,-0.2872,0.8546,-6.4,7.37,-0.23,20.4
23427,0.0629,-0.2914,0.8521,-6.47,7.11,-0.14,20.42
23437,0.0657,-0.2888,0.8521,-6.41,7.11,-0.23,20.42
23447,0.0673,-0.2872,0.8494,-6.31,7.4,-0.12,20.42
23457,0.0676,-0.2828,0.85,-6.15,7.85,-0.03,20.39
23467,0.0685,-0.2843,0.8511,-6.12,8.21,0.09,20.42
23477,0.0632,-0.2819,0.8538,-6.11,8.73,0.17,20.44
23487,0.0623,-0.2863,0.8585,-6.31,8.53,0.12,20.4
23497,0.0607,-0.2874,0.8649,-6.35,7.94,0.05,20.43
23507,0.0619,-0.2855,0.8583,-6.37,7.36,-0.06,20.41
23519,0.0618,-0.2841,0.8572,-6.49,6.99,-0.26,20.44
23529,0.0658,-0.2854,0.8538,-6.46,7.02,-0.15,20.41
23539,0.0671,-0.2847,0.8475,-6.32,7.42,-0.06,20.42
23549,0.0657,-0.2845,0.8435,-6.23,7.77,0.0,20.42
23559,0.0649,-0.2875,0.8467,-5.92,8.0,0.09,20.42
23569,0.0648,-0.2877,0.8521,-5.6,8.03,0.15,20.42
23579,0.0609,-0.2874,0.8599,-5.65,7.82,0.2,20.43
23589,0.0593,-0.2892,0.8605,-5.88,7.54,0.02,20.42
23599,0.0629,-0.2908,0.8636,-6.21,7.21,-0.08,20.41
23609,0.064,-0.2886,0.8586,-6.37,7.28,-0.2,20.43
23619,0.0663,-0.2877,0.8506,-6.55,7.53,-0.14,20.4
23629,0.0669,-0.2925,0.8458,-6.32,7.92,-0.11,20.41
23639,0.0671,-0.2897,0.8492,-6.05,8.05,0.09,20.4
23649,0.0656,-0.29,0.8536,-5.69,8.27,0.09,20.41
23659,0.061,-0.2872,0.8539,-5.59,8.4,0.17,20.41
23669,0.0626,-0.2882,0.8596,-5.88,8.24,0.08,20.41
23679,0.0621,-0.2904,0.8573,-6.12,8.12,0.0,20.4
23689,0.0596,-0.2914,0.8533,-6.46,7.71,-0.11,20.39
23699,0.0636,-0.2894,0.8535,-6.38,7.57,-0.15,20.43
23709,0.0667,-0.2898,0.851,-6.32,7.6,-0.12,20.42
23719,0.071,-0.2903,0.8453,-6.24,8.06,0.02,20.44
23729,0.0636,-0.2902,0.8453,-6.05,8.0,0.08,20.41
23739,0.0637,-0.2899,0.8545,-5.88,8.23,0.11,20.42
23749,0.0625,-0.2858,0.8547,-5.69,8.32,0.05,20.41
23759,0.0605,-0.2836,0.8558,-5.79,7.98,0.09,20.41
23769,0.0654,-0.2891,0.8599,-5.85,7.83,-0.03,20.43
23779,0.0657,-0.2828,0.8541,-6.17,7.66,-0.17,20.43
23789,0.0653,-0.2843,0.8533,-6.12,7.34,-0.12,20.43
23799,0.0613,-0.2872,0.8536,-5.85,7.22,-0.17,20.4
23809,0.0627,-0.286,0.8549,-5.73,6.9,-0.11,20.4
23819,0.0658,-0.2858,0.8529,-5.73,7.08,-0.09,20.42
23829,0.067,-0.2893,0.8518,-5.98,7.19,-0.06,20.42
23839,0.0656,-0.2886,0.8489,-6.03,7.3,-0.11,20.43
23849,0.0629,-0.2882,0.8551,-5.89,7.16,-0.09,20.42
23859,0.063,-0.2881,0.8585,-5.91,7.13,-0.06,20.43
23869,0.0675,-0.2919,0.8535,-5.98,7.25,-0.12,20.44
23879,0.0654,-0.2871,0.8518,-6.08,7.65,-0.03,20.41
23889,0.0652,-0.2894,0.8475,-6.24,8.15,0.06,20.43
23899,0.0615,-0.2883,0.8489,-6.15,8.11,0.14,20.43
23909,0.0632,-0.293,0.8521,-5.69,7.76,0.11,20.43
23919,0.0614,-0.2906,0.8577,-5.56,7.42,0.03,20.41
23929,0.066,-0.2908,0.8584,-5.59,7.05,-0.08,20.42
23939,0.0691,-0.2889,0.8557,-6.03,7.39,-0.11,20.42
23949,0.0686,-0.2915,0.8503,-6.61,7.88,-0.08,20.42
23959,0.0665,-0.2922,0.8523,-6.52,8.2,-0.06,20.41
23969,0.0619,-0.2916,0.8473,-6.31,8.31,0.05,20.41
23979,0.0629,-0.2898,0.8525,-5.89,8.27,0.14,20.42
23989,0.0615,-0.2859,0.8536,-5.76,8.0,0.09,20.46
23999,0.0636,-0.2891,0.8616,-5.76,7.54,0.0,20.42
24009,0.0625,-0.2867,0.8572,-5.89,7.24,-0.11,20.44
24019,0.0625,-0.2843,0.8593,-6.23,6.92,-0.14,20.46
24029,0.0645,-0.2802,0.8551,-6.31,6.84,-0.23,20.42
24039,0.0686,-0.2842,0.8521,-6.58,7.07,-0.05,20.41
24049,0.0676,-0.2842,0.8474,-6.6,7.86,0.02,20.42
24059,0.0671,-0.2819,0.845,-6.5,8.37,0.06,20.43
24069,0.0651,-0.2876,0.8556,-6.31,8.79,0.2,20.44
24079,0.064,-0.2878,0.849,-6.29,8.73,0.09,20.41
24089,0.0613,-0.2891,0.8585,-6.21,8.08,0.17,20.43
24099,0.0576,-0.293,0.8602,-6.2,7.76,-0.06,20.41
24109,0.0565,-0.29,0.86,-6.37,7.31,-0.15,20.42
24119,0.0601,-0.2937,0.86,-6.46,7.47,-0.31,20.42
24129,0.0635,-0.2908,0.8508,-6.6,7.53,-0.17,20.42
24139,0.0703,-0.2953,0.8462,-6.18,7.77,-0.06,20.43
24149,0.0699,-0.291,0.8447,-5.74,8.24,0.08,20.43
24159,0.0649,-0.2915,0.8492,-5.59,8.44,0.15,20.43
24169,0.064,-0.2906,0.8571,-5.69,8.52,0.06,20.41
24179,0.0615,-0.2893,0.8584,-5.88,8.38,0.09,20.41
24189,0.0583,-0.2894,0.8589,-6.02,7.91,0.08,20.43
24199,0.0553,-0.2917,0.8578,-5.88,7.04,-0.09,20.44
24209,0.0629,-0.2867,0.8553,-5.76,6.5,-0.26,20.44
24219,0.071,-0.2816,0.8557,-5.91,6.64,-0.23,20.44
24229,0.0688,-0.2834,0.8494,-6.08,7.24,-0.23,20.44
24239,0.0582,-0.282,0.8525,-6.29,8.4,-0.03,20.41
24249,0.0522,-0.2822,0.8678,-6.08,8.67,0.05,20.41
24259,0.0432,-0.2841,0.8665,-5.97,9.16,0.09,20.45
24269,0.0486,-0.2806,0.8684,-5.88,8.7,0.12,20.44
24279,0.0487,-0.2864,0.8639,-5.95,8.27,0.17,20.45
24289,0.0609,-0.2916,0.8572,-6.21,7.31,-0.06,20.42
24299,0.0668,-0.2949,0.8496,-6.4,6.92,-0.11,20.43
24309,0.0721,-0.2954,0.8461,-6.34,7.08,-0.09,20.44
24319,0.0693,-0.2977,0.8394,-6.14,7.34,-0.06,20.44
24329,0.0712,-0.2915,0.8417,-5.77,7.68,-0.09,20.43
24339,0.0671,-0.2888,0.8455,-5.56,8.12,0.09,20.42
24349,0.064,-0.2891,0.856,-5.74,8.96,0.2,20.44
24359,0.0591,-0.29,0.8569,-6.24,9.07,0.09,20.47
24369,0.0651,-0.2975,0.8489,-6.23,7.85,0.18,20.43
24379,0.0485,-0.2871,0.8608,-6.37,7.5,-0.08,20.44
24389,0.0575,-0.2904,0.8513,-6.18,6.7,-0.31,20.44
24399,0.0631,-0.2889,0.8562,-6.17,7.16,-0.27,20.43
24409,0.0746,-0.2866,0.8446,-6.24,7.74,-0.11,20.43
24419,0.0776,-0.2899,0.8391,-6.24,8.27,0.08,20.42
24429,0.068,-0.2878,0.8494,-6.12,8.2,0.12,20.44
24439,0.0583,-0.2937,0.8545,-5.82,8.21,0.08,20.43
24449,0.056,-0.2875,0.8608,-5.83,7.92,0.08,20.43
24459,0.059,-0.2866,0.8638,-6.2,7.77,-0.12,20.44
24469,0.0603,-0.2856,0.863,-6.66,8.06,-0.06,20.42
24479,0.0598,-0.286,0.8568,-7.04,8.14,-0.12,20.44
24489,0.0603,-0.2903,0.8505,-7.07,8.18,-0.15,20.43
24499,0.0669,-0.2922,0.8501,-6.84,8.09,-0.14,20.42
24509,0.064,-0.2905,0.8517,-6.5,8.5,-0.17,20.45
24519,0.0601,-0.2878,0.8511,-6.34,8.66,-0.56,20.41
24529,0.0577,-0.2906,0.8523,-6.06,8.58,-1.16,20.42
24539,0.0594,-0.2903,0.8577,-5.71,8.31,-1.63,20.43
24549,0.0635,-0.2866,0.8611,-5.53,7.83,-1.53,20.44
24559,0.062,-0.2822,0.864,-5.8,7.07,-0.64,20.4
24569,0.0618,-0.2891,0.8579,-6.44,7.16,-0.32,20.43
24579,0.0642,-0.2919,0.8519,-6.85,7.68,-0.12,20.44
24589,0.0624,-0.2911,0.8478,-6.32,7.56,-0.11,20.41
24599,0.0616,-0.291,0.848,-5.5,6.99,0.03,20.46
24609,0.0643,-0.2905,0.8536,-4.87,6.52,-0.02,20.44
24619,0.0658,-0.2877,0.8607,-4.92,6.55,0.03,20.43
24629,0.066,-0.2906,0.8582,-5.71,7.18,0.02,20.45
24639,0.0587,-0.2943,0.8575,-6.2,7.77,-0.06,20.45
24649,0.0676,-0.2867,0.8502,-6.11,7.62,-0.06,20.43
24659,0.063,-0.2935,0.8513,-6.03,7.42,-0.12,20.46
24669,0.0591,-0.2927,0.853,-5.54,7.39,-0.06,20.44
24679,0.0743,-0.2916,0.8463,-5.37,6.96,-0.02,20.44
24689,0.0574,-0.2921,0.8596,-5.27,7.36,-0.05,20.43
24699,0.0649,-0.292,0.8527,-5.37,7.15,-0.03,20.44
24709,0.0607,-0.2864,0.858,-5.37,7.22,-0.11,20.42
24719,0.0604,-0.2882,0.8575,-5.56,7.25,-0.08,20.43
24729,0.0652,-0.2869,0.856,-5.76,7.28,-0.05,20.43
24739,0.0634,-0.2833,0.8549,-5.82,7.68,0.08,20.44
24749,0.066,-0.2874,0.8549,-5.97,7.63,0.09,20.44
24759,0.0626,-0.2837,0.8573,-5.91,7.65,-0.02,20.45
24769,0.0586,-0.287,0.8533,-5.88,7.42,-0.02,20.43
24779,0.0573,-0.2883,0.8562,-5.74,7.59,-0.09,20.46
24789,0.0613,-0.285,0.8547,-5.73,7.56,-0.11,20.43
24799,0.0677,-0.2888,0.8555,-5.91,7.47,0.0,20.44
24809,0.0695,-0.2885,0.8524,-6.09,7.59,-0.12,20.47
24819,0.0704,-0.2916,0.8475,-6.11,7.62,0.0,20.45
24829,0.0677,-0.2892,0.8496,-6.02,7.54,-0.05,20.44
24839,0.0634,-0.2888,0.8555,-5.86,7.65,-0.08,20.45
24849,0.0621,-0.2902,0.8563,-5.95,7.83,-0.11,20.46
24859,0.066,-0.2904,0.853,-6.06,7.97,-0.11,20.48
24869,0.0658,-0.2885,0.8517,-6.4,8.23,0.05,20.45
24879,0.063,-0.292,0.8574,-6.52,8.23,0.11,20.43
24889,0.0656,-0.29,0.8546,-6.37,8.15,-0.03,20.45
24899,0.0607,-0.2863,0.8534,-6.24,7.97,0.02,20.43
24909,0.0624,-0.2863,0.8563,-6.15,7.82,-0.02,20.46
24919,0.0619,-0.2919,0.8567,-6.06,7.62,0.02,20.46
24929,0.063,-0.2882,0.86,-5.98,7.65,-0.17,20.46
24939,0.0625,-0.2889,0.8531,-6.12,7.62,0.03,20.43
24949,0.0659,-0.2856,0.8521,-6.12,7.63,-0.02,20.44
24959,0.0665,-0.2856,0.8521,-6.15,7.83,-0.11,20.45
24969,0.0625,-0.2864,0.8541,-6.17,8.14,-0.06,20.46
24979,0.0605,-0.2883,0.8496,-6.18,8.29,0.03,20.46
24989,0.0616,-0.2894,0.8531,-6.14,8.03,0.05,20.47
24999,0.0619,-0.2897,0.8571,-5.98,7.89,0.03,20.46
25009,0.0623,-0.2887,0.8616,-6.05,7.79,-0.02,20.45
25019,0.064,-0.2899,0.8544,-6.09,7.6,-0.08,20.47
25029,0.0637,-0.286,0.8514,-6.24,7.65,-0.03,20.46
25039,0.0657,-0.288,0.8514,-6.26,7.74,-0.09,20.47
25049,0.0632,-0.2892,0.8478,-6.27,7.79,0.02,20.47
25059,0.062,-0.2886,0.8536,-6.09,7.51,-0.03,20.47
25069,0.0642,-0.2887,0.8544,-6.09,7.53,-0.03,20.44
25079,0.0665,-0.2892,0.858,-6.11,7.92,-0.08,20.44
25089,0.0613,-0.2902,0.8524,-6.26,7.85,-0.05,20.45
25099,0.0621,-0.2938,0.8503,-6.17,7.62,0.05,20.47
25109,0.0636,-0.2916,0.8541,-6.06,7.44,-0.06,20.46
25119,0.0651,-0.2903,0.8557,-6.02,7.31,-0.03,20.45
25129,0.0665,-0.2915,0.8505,-5.98,7.28,-0.11,20.46
25139,0.0626,-0.2867,0.8547,-6.0,7.22,-0.15,20.44
25149,0.0663,-0.287,0.8534,-5.95,7.69,-0.05,20.44
25159,0.066,-0.2878,0.8531,-6.08,8.06,0.09,20.47
25169,0.0651,-0.2906,0.8512,-5.97,8.24,0.12,20.45
25179,0.0629,-0.2897,0.8551,-5.86,8.0,0.08,20.49
25189,0.064,-0.2908,0.8574,-5.89,7.76,0.05,20.44
25199,0.0609,-0.2889,0.8589,-6.0,7.51,-0.08,20.44
25209,0.0624,-0.2877,0.8549,-6.12,7.45,-0.05,20.45
25219,0.0664,-0.2885,0.8563,-6.32,7.5,-0.09,20.45
25229,0.0658,-0.2896,0.8573,-6.17,7.65,-0.15,20.47
25239,0.0615,-0.292,0.8496,-6.06,7.69,0.03,20.45
25249,0.0658,-0.2886,0.851,-5.86,7.92,0.0,20.48
25259,0.0635,-0.2921,0.8503,-5.85,7.86,-0.02,20.46
25269,0.0626,-0.2939,0.8561,-5.79,7.98,0.06,20.45
25279,0.0637,-0.2924,0.8528,-5.92,7.88,0.06,20.45
25289,0.063,-0.2902,0.8552,-6.08,7.79,0.03,20.47
25299,0.0659,-0.2911,0.8541,-6.18,7.85,-0.06,20.46
25309,0.0631,-0.2911,0.853,-6.31,8.03,-0.21,20.45
25319,0.0658,-0.2885,0.8461,-6.2,8.11,0.02,20.44
25329,0.0615,-0.2906,0.8514,-5.92,8.06,-0.06,20.45
25339,0.063,-0.2889,0.8547,-5.8,7.95,-0.02,20.46
25349,0.0626,-0.2867,0.8523,-5.77,7.92,0.0,20.44
25359,0.0636,-0.2881,0.8517,-5.95,7.77,-0.06,20.47
25369,0.0624,-0.29,0.8503,-6.12,7.89,-0.09,20.43
25379,0.0632,-0.2892,0.8511,-6.27,7.88,-0.08,20.45
25389,0.0608,-0.2897,0.8551,-6.08,7.77,-0.12,20.45
25399,0.0657,-0.2869,0.8502,-5.97,7.85,-0.05,20.45
25409,0.0684,-0.2858,0.8555,-6.0,7.95,-0.08,20.45
25419,0.0662,-0.2878,0.8539,-6.0,8.26,-0.03,20.46
25429,0.0634,-0.2899,0.8531,-6.02,7.98,-0.15,20.46
25439,0.0605,-0.2909,0.8589,-5.66,7.56,-0.14,20.46
25449,0.0615,-0.2861,0.8602,-5.63,7.08,-0.2,20.45
25459,0.062,-0.2853,0.8605,-5.86,7.24,-0.21,20.46
25469,0.0635,-0.285,0.85,-6.17,7.8,-0.31,20.44
25479,0.0656,-0.2927,0.8494,-6.37,7.89,-0.24,20.45
25489,0.0652,-0.2922,0.8502,-6.05,8.27,-0.17,20.45
25499,0.0636,-0.291,0.8486,-5.83,8.06,-0.15,20.45
25509,0.0634,-0.2888,0.8538,-5.56,7.98,-0.18,20.45
25519,0.0632,-0.2887,0.8591,-5.68,7.57,-0.26,20.46
25529,0.0624,-0.2866,0.8627,-5.74,7.76,-0.24,20.45
25539,0.063,-0.2844,0.8578,-6.08,7.74,-0.23,20.47
25549,0.0619,-0.2899,0.8535,-6.26,7.57,-0.29,20.48
25559,0.0646,-0.2919,0.8535,-6.2,7.56,-0.4,20.45
25569,0.0629,-0.2893,0.8473,-5.94,7.57,-0.21,20.46
25580,0.0623,-0.2852,0.847,-5.8,7.66,-0.12,20.45
25590,0.0625,-0.2882,0.8539,-5.77,7.56,-0.09,20.46
25600,0.0627,-0.2867,0.8615,-5.74,7.82,-0.05,20.44
25610,0.0637,-0.2898,0.8553,-6.14,7.86,-0.05,20.48
25620,0.0585,-0.2878,0.8564,-6.56,8.02,-0.11,20.43
25630,0.0615,-0.2872,0.8511,-6.37,7.71,-0.11,20.46
25640,0.0603,-0.2893,0.8529,-6.14,7.36,-0.03,20.43
25650,0.0612,-0.2887,0.8523,-5.98,7.18,-0.12,20.44
25660,0.0649,-0.291,0.8505,-5.98,7.33,-0.06,20.47
25670,0.0654,-0.2872,0.8495,-6.17,7.56,0.02,20.45
25680,0.0657,-0.2906,0.8563,-6.27,7.66,-0.03,20.45
25690,0.0652,-0.2878,0.8572,-6.15,7.66,-0.08,20.47
25701,0.062,-0.2921,0.8508,-6.15,7.68,-0.11,20.48
25711,0.0652,-0.2882,0.8542,-6.02,7.68,0.06,20.48
25721,0.0635,-0.2894,0.8547,-5.97,7.56,-0.03,20.49
25731,0.0612,-0.2875,0.8552,-6.0,7.53,0.03,20.47
25741,0.0608,-0.2899,0.8545,-5.83,7.18,-0.05,20.49
25751,0.0618,-0.2887,0.8551,-5.88,7.11,-0.14,20.48
25761,0.0652,-0.287,0.8568,-5.94,7.15,-0.14,20.45
25771,0.0647,-0.2841,0.8595,-6.05,7.34,-0.05,20.44
25781,0.0673,-0.2866,0.8575,-6.12,7.62,-0.02,20.46
25791,0.066,-0.2878,0.8527,-6.08,7.69,-0.03,20.44
25801,0.0643,-0.2908,0.8531,-5.94,7.71,0.0,20.47
25811,0.0638,-0.2886,0.8534,-6.03,7.65,0.05,20.45
25821,0.0625,-0.2878,0.853,-5.76,7.53,0.03,20.46
25831,0.0636,-0.2887,0.8544,-5.8,7.44,0.06,20.45
25841,0.0603,-0.2898,0.8586,-5.79,7.25,-0.06,20.47
25851,0.0632,-0.29,0.8507,-5.82,6.93,-0.06,20.45
25861,0.0653,-0.2926,0.8531,-5.88,6.96,-0.08,20.47
25871,0.0647,-0.2896,0.8518,-5.97,7.3,-0.06,20.47
25881,0.066,-0.2891,0.8514,-6.06,7.62,-0.08,20.46
25891,0.0641,-0.2902,0.8556,-5.92,8.0,-0.05,20.47
25901,0.0665,-0.2942,0.8535,-6.08,8.12,0.09,20.47
25911,0.0654,-0.2942,0.8511,-5.91,8.0,-0.02,20.48
25921,0.063,-0.2887,0.8574,-5.79,7.79,-0.03,20.44
25931,0.0616,-0.29,0.8552,-5.82,7.66,-0.03,20.47
25941,0.0662,-0.2874,0.8582,-5.89,7.5,-0.06,20.46
25951,0.0662,-0.2886,0.8516,-6.14,7.6,-0.05,20.47
25961,0.0647,-0.2874,0.8568,-6.02,7.8,0.03,20.48
25971,0.0663,-0.2841,0.8523,-6.02,7.79,-0.03,20.46
25981,0.0662,-0.2842,0.8544,-5.94,7.95,-0.02,20.47
25991,0.0605,-0.2827,0.8567,-5.89,7.91,0.03,20.48
26001,0.0624,-0.2848,0.8589,-6.09,7.82,0.11,20.47
26011,0.0656,-0.286,0.8574,-6.09,7.63,0.03,20.47
26021,0.0614,-0.2856,0.8567,-6.12,7.56,-0.06,20.47
26031,0.0679,-0.2872,0.8564,-6.06,7.3,-0.12,20.49
26041,0.0653,-0.2874,0.8533,-6.09,7.33,-0.08,20.48
26051,0.0681,-0.2878,0.8541,-6.17,7.56,-0.09,20.5
26061,0.0659,-0.2932,0.8463,-6.08,7.77,0.03,20.48
26071,0.0631,-0.2919,0.8542,-5.89,7.86,0.0,20.49
26081,0.0631,-0.2932,0.8556,-5.83,7.68,-0.02,20.47
26091,0.0632,-0.2917,0.8566,-5.82,7.73,-0.06,20.48
26101,0.0626,-0.2891,0.8528,-5.98,7.68,0.02,20.46
26111,0.0634,-0.2924,0.8549,-6.17,7.39,-0.05,20.48
26121,0.0664,-0.2887,0.8511,-6.11,7.68,-0.09,20.47
26131,0.0653,-0.2894,0.8517,-6.32,7.42,-0.15,20.47
26141,0.0685,-0.2917,0.8521,-6.23,7.94,-0.02,20.48
26151,0.0673,-0.288,0.8542,-6.12,8.08,-0.08,20.49
26161,0.0643,-0.286,0.8535,-5.95,8.35,-0.03,20.47
26171,0.0631,-0.2856,0.8536,-6.0,8.08,0.14,20.47
26181,0.0619,-0.2866,0.8575,-5.89,7.85,0.08,20.46
26191,0.0592,-0.2853,0.858,-6.08,7.51,-0.15,20.49
26201,0.0636,-0.287,0.8512,-6.21,7.25,-0.12,20.48
26211,0.0637,-0.2849,0.8588,-6.24,7.21,-0.18,20.49
26221,0.0646,-0.2865,0.8528,-6.29,7.31,-0.11,20.44
26231,0.0669,-0.2909,0.8519,-6.03,7.48,-0.08,20.49
26241,0.0667,-0.2897,0.8499,-5.82,7.73,0.05,20.48
26251,0.0654,-0.2944,0.8529,-5.89,7.85,0.03,20.48
26261,0.0647,-0.2916,0.8541,-6.0,7.95,0.11,20.48
26271,0.0626,-0.293,0.8613,-6.27,7.95,0.03,20.48
26281,0.0623,-0.2906,0.855,-6.31,7.74,-0.02,20.49
26291,0.0627,-0.2928,0.8536,-6.23,7.45,-0.02,20.49
26301,0.0649,-0.2913,0.8534,-6.31,7.3,-0.17,20.47
26311,0.0627,-0.2877,0.8488,-6.23,7.53,-0.12,20.48
26321,0.068,-0.2886,0.8452,-6.29,7.82,-0.02,20.48
26331,0.0653,-0.2869,0.8503,-6.17,8.03,0.03,20.48
26341,0.063,-0.2887,0.8546,-5.89,7.85,0.11,20.46
26351,0.0605,-0.2863,0.8579,-5.83,7.74,0.12,20.5
26361,0.0627,-0.2877,0.8574,-5.98,7.8,-0.09,20.46
26371,0.0638,-0.2887,0.8573,-6.24,7.68,-0.08,20.49
26381,0.0632,-0.2876,0.854,-6.34,7.62,-0.06,20.5
26391,0.0654,-0.2916,0.8545,-6.21,7.73,-0.14,20.46
26401,0.0636,-0.2893,0.8489,-6.05,7.83,-0.02,20.47
26411,0.0657,-0.2906,0.8495,-5.89,7.76,-0.05,20.49
26421,0.0662,-0.291,0.8563,-5.79,7.85,0.02,20.47
26431,0.0637,-0.2911,0.8599,-5.86,7.92,-0.03,20.49
26441,0.0646,-0.2888,0.8574,-6.11,7.97,-0.11,20.5
26451,0.0638,-0.2899,0.8541,-6.26,7.97,-0.05,20.49
26461,0.061,-0.2932,0.853,-6.4,7.97,-0.08,20.49
26471,0.0587,-0.2922,0.8531,-6.18,7.66,-0.05,20.47
26481,0.0641,-0.2921,0.8512,-5.89,7.4,-0.02,20.49
26491,0.0637,-0.2885,0.8507,-5.74,7.28,-0.05,20.49
26501,0.0623,-0.2904,0.8555,-5.8,7.31,-0.06,20.46
