t_ms,accel_x_g,accel_y_g,accel_z_g,gyro_x_dps,gyro_y_dps,gyro_z_dps,imu_temp_c
3285,0.2107,-0.0143,0.8872,-6.87,7.98,-0.05,30.64
3295,0.2104,-0.0172,0.8878,-6.73,7.92,0.02,30.65
3305,0.2141,-0.0125,0.8842,-6.84,7.92,-0.03,30.66
3315,0.2178,-0.0227,0.8923,-6.78,8.0,-0.15,30.67
3325,0.2157,-0.0159,0.8868,-6.82,7.97,0.02,30.66
3335,0.2145,-0.0226,0.8881,-6.75,7.98,0.0,30.67
3345,0.2134,-0.0171,0.8915,-6.9,7.86,-0.05,30.68
3355,0.2131,-0.0151,0.8813,-6.9,8.02,0.0,30.68
3365,0.2106,-0.0199,0.8915,-6.78,7.95,-0.05,30.69
3375,0.2144,-0.0154,0.8884,-6.82,7.92,-0.06,30.68
3385,0.2054,-0.0184,0.8942,-6.87,8.03,-0.05,30.67
3396,0.2113,-0.0187,0.8867,-6.76,8.03,-0.08,30.64
3406,0.2134,-0.0212,0.89,-6.81,7.98,-0.03,30.7
3416,0.2148,-0.0168,0.8933,-6.75,7.95,-0.03,30.67
3426,0.218,-0.0216,0.8942,-6.78,8.0,-0.08,30.69
3436,0.2168,-0.0177,0.8879,-6.82,7.88,0.0,30.68
3446,0.2175,-0.0184,0.8884,-6.79,7.95,-0.06,30.68
3456,0.2152,-0.0187,0.8888,-6.82,7.88,-0.06,30.69
3466,0.2115,-0.021,0.8895,-6.87,8.02,-0.05,30.67
3476,0.2136,-0.0195,0.8911,-6.73,7.98,-0.14,30.67
3488,0.2119,-0.0173,0.8875,-6.72,7.94,-0.08,30.67
3498,0.2119,-0.0182,0.8929,-6.89,8.02,-0.08,30.67
3508,0.2119,-0.0139,0.8887,-6.78,7.97,0.02,30.7
3518,0.2102,-0.0156,0.8881,-6.79,7.98,-0.05,30.68
3528,0.2126,-0.0135,0.8896,-6.75,7.98,0.0,30.67
3538,0.2086,0.0034,0.8824,-6.73,8.03,0.08,30.67
3548,0.2083,-0.0292,0.8844,-6.84,8.15,0.0,30.7
3558,0.1982,-0.0181,0.8914,-7.01,7.79,-0.12,30.71
3568,0.2228,-0.0232,0.8823,-6.85,7.88,-0.2,30.69
3578,0.215,-0.0281,0.897,-6.95,7.92,-0.02,30.68
3588,0.2146,-0.0278,0.8804,-6.81,8.02,-0.02,30.7
3598,0.2166,-0.0149,0.8986,-6.78,7.95,-0.03,30.72
3608,0.2201,-0.0123,0.8947,-6.87,8.03,0.0,30.72
3618,0.2145,-0.0272,0.8977,-6.81,8.11,-0.05,30.72
3628,0.2101,-0.0234,0.8938,-6.73,7.97,-0.06,30.7
3638,0.2091,-0.0223,0.9015,-6.66,8.27,0.02,30.71
3648,0.214,-0.0182,0.8826,-6.93,7.94,0.0,30.68
3658,0.1931,-0.0148,0.8826,-6.79,8.08,0.03,30.73
3668,0.2026,-0.0009,0.8936,-6.87,7.88,-0.08,30.7
3678,0.2152,-0.0159,0.8958,-6.75,8.08,-0.05,30.72
3688,0.2087,-0.0156,0.9073,-6.82,8.18,-0.11,30.7
3698,0.2161,-0.0156,0.8857,-6.73,7.83,-0.05,30.71
3708,0.2186,-0.0262,0.8954,-6.79,8.08,-0.08,30.69
3718,0.1718,-0.0033,0.9297,-7.11,8.37,-0.14,30.72
3728,0.2135,-0.04,0.8861,-6.47,8.89,-0.15,30.7
3738,0.1974,-0.0133,0.9105,-7.18,8.06,-0.08,30.74
3748,0.2029,-0.02,0.8796,-6.53,8.15,0.06,30.71
3758,0.2056,-0.0225,0.9062,-6.69,7.85,-0.02,30.71
3769,0.2211,-0.0116,0.8931,-6.78,7.88,0.0,30.71
3779,0.2091,-0.0092,0.8971,-6.89,8.11,0.03,30.7
3789,0.2063,-0.0157,0.8838,-6.85,7.97,-0.03,30.71
3799,0.2107,-0.0184,0.8949,-6.79,7.92,-0.12,30.7
3809,0.21,-0.0192,0.8911,-6.84,7.97,-0.02,30.72
3819,0.207,-0.0225,0.8793,-6.82,8.05,-0.12,30.71
3829,0.2124,-0.0155,0.881,-6.81,7.8,-0.06,30.69
3839,0.2135,-0.0132,0.8864,-6.79,7.89,-0.09,30.72
3849,0.2123,-0.0159,0.8931,-6.9,8.06,-0.11,30.72
3859,0.2157,-0.0125,0.887,-6.93,7.91,-0.06,30.72
3869,0.2173,-0.0149,0.8945,-6.76,7.94,-0.12,30.73
3879,0.2144,-0.0233,0.8938,-6.78,7.95,-0.05,30.73
3889,0.2155,-0.0247,0.8927,-6.76,8.03,0.02,30.72
3899,0.2117,-0.0217,0.8887,-6.81,8.03,-0.06,30.72
3909,0.2112,-0.0177,0.8875,-6.69,7.95,-0.03,30.71
3919,0.2064,-0.0175,0.8887,-6.82,8.05,-0.05,30.71
3929,0.2087,-0.0143,0.8895,-6.81,8.03,-0.02,30.72
3939,0.2111,-0.0139,0.8893,-6.73,7.95,-0.11,30.71
3949,0.2155,-0.0178,0.891,-6.78,7.89,-0.06,30.74
3959,0.2163,-0.0181,0.8918,-6.75,7.82,-0.11,30.7
3969,0.2151,-0.0199,0.8889,-6.75,7.97,-0.05,30.73
3979,0.2135,-0.0192,0.8879,-6.82,7.92,-0.05,30.73
3989,0.2119,-0.0135,0.8949,-6.81,8.02,-0.03,30.73
3999,0.2097,-0.0197,0.8882,-6.79,8.02,-0.08,30.75
4009,0.2092,-0.0237,0.8887,-6.78,8.0,-0.03,30.71
4019,0.2131,-0.0216,0.8871,-6.79,8.0,-0.12,30.73
4029,0.2137,-0.0215,0.8892,-6.76,7.97,0.02,30.73
4039,0.2122,-0.0199,0.8899,-6.75,8.0,-0.09,30.71
4049,0.2161,-0.0167,0.8883,-6.81,7.91,-0.06,30.72
4059,0.2136,-0.0151,0.8904,-6.82,7.92,-0.05,30.74
4069,0.2112,-0.0159,0.8878,-6.87,7.98,-0.06,30.77
4079,0.2114,-0.0204,0.8883,-6.78,7.97,0.0,30.76
4089,0.2115,-0.0188,0.8895,-6.73,7.94,0.02,30.77
4099,0.2115,-0.0203,0.8879,-6.78,7.97,-0.02,30.73
4109,0.2115,-0.0179,0.8889,-6.75,7.94,-0.12,30.75
4119,0.2145,-0.0164,0.8862,-6.81,7.97,0.0,30.73
4129,0.2158,-0.0161,0.8868,-6.73,8.0,-0.09,30.73
4139,0.2114,-0.0138,0.8925,-6.82,7.98,-0.08,30.73
4149,0.2111,-0.0171,0.891,-6.85,7.97,-0.08,30.73
4159,0.2062,-0.0197,0.8975,-6.92,8.14,-0.69,30.75
4169,0.2144,-0.02,0.8904,-6.84,7.97,-0.11,30.72
4179,0.2126,-0.0173,0.8904,-6.79,8.03,0.0,30.74
4189,0.2069,-0.0153,0.8921,-6.82,7.97,-0.06,30.74
4199,0.2103,-0.0181,0.8875,-6.81,7.98,-0.03,30.73
4209,0.2117,-0.0165,0.8861,-6.87,8.02,-0.06,30.73
4219,0.2124,-0.0204,0.8866,-6.82,7.92,-0.06,30.75
4229,0.2124,-0.0176,0.885,-6.85,7.98,-0.02,30.75
4239,0.2119,-0.0188,0.891,-6.84,8.03,-0.11,30.76
4249,0.2108,-0.0229,0.8885,-6.82,7.97,-0.08,30.72
4259,0.2097,-0.0175,0.8879,-6.78,7.97,-0.11,30.73
4269,0.2124,-0.0155,0.8864,-6.85,7.89,0.0,30.74
4279,0.2108,-0.0166,0.8861,-6.82,7.92,-0.08,30.76
4289,0.2131,-0.0177,0.8887,-6.89,7.95,0.02,30.75
4299,0.2135,-0.0173,0.8882,-6.79,7.94,-0.09,30.74
4309,0.2137,-0.0193,0.8916,-6.79,7.98,-0.03,30.72
4319,0.2126,-0.02,0.8895,-6.75,8.06,-0.09,30.73
4329,0.2133,-0.0187,0.8861,-6.82,8.08,-0.05,30.77
4339,0.2106,-0.0189,0.8867,-6.72,7.94,-0.05,30.75
4349,0.2083,-0.0219,0.8848,-6.73,7.95,0.0,30.74
4359,0.2115,-0.0215,0.8907,-6.85,8.09,-0.05,30.77
4369,0.2123,-0.0184,0.8905,-6.76,8.0,-0.03,30.75
4379,0.2135,-0.016,0.8893,-6.81,7.89,-0.03,30.75
4389,0.2147,-0.0162,0.8915,-6.78,7.98,-0.09,30.76
4399,0.2144,-0.0167,0.881,-6.75,7.97,-0.11,30.78
4409,0.2092,-0.0203,0.89,-6.72,8.0,-0.09,30.77
4419,0.2118,-0.0167,0.8906,-6.89,7.8,-0.03,30.74
4429,0.2094,-0.0177,0.8879,-6.73,8.03,-0.03,30.76
4439,0.2114,-0.0223,0.8906,-6.85,7.97,-0.02,30.76
4449,0.2117,-0.019,0.8881,-6.82,7.97,-0.03,30.76
4459,0.2114,-0.0198,0.8911,-6.85,8.0,0.0,30.74
4469,0.212,-0.02,0.89,-6.85,7.89,-0.05,30.74
4479,0.2115,-0.02,0.8917,-6.81,8.03,0.02,30.76
4489,0.2115,-0.02,0.887,-6.72,8.0,-0.03,30.76
4499,0.2078,-0.0184,0.8855,-6.76,8.02,-0.11,30.78
4509,0.2133,-0.0181,0.8889,-6.79,7.97,-0.09,30.76
4519,0.2159,-0.0155,0.8872,-6.81,8.0,-0.09,30.75
4529,0.2125,-0.0155,0.8939,-6.79,8.05,0.02,30.75
4539,0.2124,-0.0161,0.8881,-6.75,7.95,-0.08,30.76
4549,0.213,-0.0209,0.8931,-6.81,7.98,0.02,30.77
4559,0.2111,-0.0201,0.8859,-6.76,7.94,-0.03,30.79
4569,0.2112,-0.02,0.8826,-6.76,8.05,-0.05,30.78
4579,0.2112,-0.0179,0.8905,-6.81,8.0,-0.06,30.78
4589,0.2125,-0.019,0.8883,-6.75,8.02,-0.03,30.8
4599,0.212,-0.0171,0.8882,-6.85,8.06,-0.03,30.77
4609,0.2147,-0.0172,0.88,-6.87,7.89,-0.12,30.78
4620,0.21,-0.0171,0.8962,-6.78,7.88,-0.02,30.75
4630,0.2195,-0.0125,0.8848,-6.93,7.94,-0.05,30.77
4640,0.2139,-0.0203,0.8743,-6.78,7.79,-0.03,30.79
4650,0.1727,0.0143,0.9065,-6.93,8.31,-0.17,30.8
4660,0.2417,0.0045,0.8529,-6.95,7.68,-0.12,30.79
4670,0.2206,0.0084,0.8788,-6.73,7.89,0.0,30.79
4680,0.2059,-0.0145,0.8894,-6.63,7.85,-0.03,30.78
4690,0.2029,-0.0082,0.9049,-7.01,8.15,-0.12,30.79
4700,0.2024,-0.0155,0.8871,-6.76,8.21,-0.09,30.77
4712,0.2101,-0.0238,0.8763,-6.84,7.82,-0.11,30.75
4722,0.2097,-0.0197,0.8918,-6.76,7.74,-0.03,30.77
4732,0.2118,-0.0265,0.8948,-6.81,7.89,-0.05,30.77
4742,0.2168,-0.0168,0.8944,-6.78,7.97,-0.09,30.77
4752,0.2151,-0.0046,0.8895,-6.92,7.94,-0.06,30.78
4762,0.2233,-0.0164,0.8828,-6.78,8.06,-0.03,30.81
4772,0.2206,-0.0205,0.8923,-6.87,7.95,-0.14,30.77
4782,0.223,-0.0214,0.8837,-6.84,8.09,-0.11,30.76
4792,0.2133,-0.0314,0.8835,-6.81,8.0,0.0,30.75
4802,0.217,-0.0278,0.8859,-6.81,7.94,0.0,30.79
4812,0.2142,-0.0208,0.8904,-6.73,8.02,0.03,30.79
4822,0.2126,-0.0133,0.8867,-6.84,8.0,-0.02,30.78
4832,0.2079,-0.0104,0.8914,-6.75,7.98,0.02,30.78
4842,0.2032,-0.0071,0.8927,-6.73,8.0,0.03,30.77
4852,0.1979,-0.0121,0.8909,-6.84,8.05,0.03,30.78
4862,0.2019,-0.021,0.8862,-6.78,7.98,-0.03,30.78
4873,0.2109,-0.0234,0.8843,-6.84,7.91,-0.09,30.76
4883,0.2118,-0.0192,0.8851,-6.82,7.88,-0.02,30.78
4893,0.2113,-0.0193,0.8881,-6.79,7.94,0.02,30.77
4903,0.2157,-0.0139,0.894,-6.73,7.86,-0.11,30.79
4913,0.2191,-0.0133,0.8949,-6.81,7.92,0.02,30.79
4923,0.2194,-0.0143,0.8905,-6.76,8.05,-0.02,30.78
4933,0.217,-0.0194,0.8912,-6.89,8.0,-0.06,30.78
4943,0.2164,-0.0255,0.8853,-6.89,7.95,-0.06,30.79
4953,0.2145,-0.025,0.8875,-6.89,8.03,-0.02,30.77
4963,0.2137,-0.0236,0.8864,-6.81,8.05,0.0,30.79
4973,0.2102,-0.0181,0.8907,-6.81,8.09,-0.02,30.79
4983,0.2097,-0.0168,0.8892,-6.78,8.02,-0.06,30.79
4993,0.2103,-0.0156,0.8911,-6.78,7.95,-0.05,30.81
5003,0.2074,-0.0181,0.8889,-6.82,7.95,-0.05,30.78
5013,0.2078,-0.0176,0.8881,-6.79,8.0,0.0,30.77
5023,0.2094,-0.0204,0.8918,-6.75,7.92,-0.12,30.81
5033,0.2144,-0.0157,0.8868,-6.85,7.98,-0.05,30.78
5043,0.2131,-0.0171,0.8887,-6.82,8.02,-0.08,30.8
5053,0.2136,-0.0154,0.8903,-6.87,8.0,-0.03,30.81
5063,0.2185,-0.0156,0.89,-6.84,7.95,-0.06,30.8
5073,0.2136,-0.0146,0.8896,-6.87,8.05,-0.05,30.8
5083,0.2181,-0.0195,0.8888,-6.87,7.98,-0.05,30.81
5093,0.2166,-0.0227,0.8909,-6.9,8.05,-0.06,30.8
5103,0.2102,-0.02,0.889,-6.79,8.03,0.03,30.82
5113,0.2108,-0.0183,0.8909,-6.84,8.02,0.0,30.82
5123,0.2098,-0.0181,0.8892,-6.87,7.97,-0.06,30.8
5133,0.208,-0.0181,0.8878,-6.81,7.94,0.02,30.81
5143,0.2111,-0.0171,0.891,-6.75,8.0,-0.05,30.8
5153,0.2106,-0.0168,0.8862,-6.79,8.0,-0.02,30.81
5163,0.2152,-0.0209,0.8893,-6.89,7.95,0.0,30.8
5173,0.214,-0.0175,0.8864,-6.85,8.03,0.0,30.81
5183,0.2174,-0.0195,0.8851,-6.76,7.97,-0.02,30.8
5193,0.2152,-0.0156,0.8876,-6.81,7.97,-0.09,30.82
5203,0.215,-0.0159,0.8873,-6.76,8.06,-0.05,30.82
5213,0.2139,-0.0188,0.8905,-6.81,8.08,-0.09,30.83
5223,0.2129,-0.0199,0.8912,-6.81,7.92,-0.05,30.82
5233,0.2113,-0.017,0.8937,-6.81,8.05,-0.05,30.82
5243,0.2131,-0.0175,0.8905,-6.87,8.12,-0.05,30.82
5253,0.2103,-0.0182,0.8899,-6.82,7.94,-0.05,30.82
5263,0.2094,-0.0148,0.8855,-6.75,7.92,-0.03,30.81
5273,0.2117,-0.0182,0.8907,-6.78,7.98,-0.09,30.81
5283,0.2122,-0.0166,0.8853,-6.81,7.94,-0.05,30.81
5293,0.2147,-0.0165,0.8861,-6.76,8.05,-0.03,30.82
5303,0.2146,-0.0201,0.8868,-6.81,8.02,0.0,30.79
5313,0.2162,-0.0178,0.8861,-6.85,7.98,-0.03,30.82
5323,0.2136,-0.0172,0.8899,-6.89,8.11,-0.02,30.81
5333,0.2113,-0.0189,0.8887,-6.84,8.03,-0.06,30.79
5343,0.2118,-0.0203,0.8885,-6.82,8.02,0.02,30.82
5353,0.2136,-0.0187,0.8843,-6.82,7.98,-0.03,30.8
5363,0.2102,-0.0199,0.8903,-6.84,8.05,-0.05,30.82
5373,0.2114,-0.0209,0.8879,-6.78,8.02,-0.02,30.83
5383,0.2113,-0.0182,0.8966,-6.84,7.94,0.03,30.81
5393,0.2135,-0.0175,0.8876,-6.79,7.97,0.0,30.81
5403,0.2125,-0.0156,0.8877,-6.79,8.0,-0.05,30.82
5413,0.2079,-0.0187,0.8904,-6.84,7.94,-0.05,30.81
5423,0.2094,-0.0168,0.8898,-6.79,7.98,0.03,30.79
5433,0.2106,-0.0182,0.8873,-6.85,7.98,-0.06,30.84
5443,0.2107,-0.0178,0.8887,-6.78,8.02,0.02,30.82
5453,0.2091,-0.0184,0.8862,-6.81,8.0,-0.03,30.8
5463,0.2152,-0.0167,0.8866,-6.81,7.97,-0.02,30.82
5473,0.2129,-0.0181,0.8889,-6.82,8.05,-0.08,30.84
5483,0.2103,-0.0208,0.8905,-6.84,7.91,-0.03,30.81
5493,0.2153,-0.0192,0.8903,-6.79,7.94,-0.03,30.79
5503,0.2136,-0.0186,0.8955,-6.78,8.0,-0.05,30.82
5513,0.2158,-0.0184,0.8896,-6.82,7.91,0.0,30.82
5523,0.2147,-0.0157,0.892,-6.84,7.97,-0.08,30.81
5533,0.2129,-0.0175,0.8904,-6.81,7.92,-0.05,30.82
5543,0.2122,-0.0198,0.8899,-6.87,8.02,-0.05,30.82
5553,0.2133,-0.0178,0.8888,-6.7,8.02,-0.06,30.81
5563,0.2136,-0.0182,0.8862,-6.76,7.95,-0.14,30.84
5573,0.2086,-0.0183,0.8896,-6.81,8.0,-0.02,30.81
5583,0.21,-0.0183,0.8898,-6.78,8.02,-0.08,30.83
5593,0.2117,-0.0139,0.8872,-6.82,7.98,-0.05,30.82
5603,0.2108,-0.0179,0.8903,-6.84,7.97,0.05,30.81
5613,0.2101,-0.0195,0.8899,-6.85,7.97,-0.05,30.82
5623,0.2134,-0.0184,0.8906,-6.89,8.02,-0.06,30.81
5633,0.2145,-0.0232,0.892,-6.79,7.97,-0.12,30.82
5643,0.214,-0.0198,0.8928,-6.82,7.98,0.0,30.81
5653,0.2126,-0.0197,0.8887,-6.85,8.0,-0.11,30.83
5663,0.2126,-0.0195,0.8926,-6.82,7.98,-0.06,30.84
5673,0.2126,-0.0217,0.8909,-6.85,8.0,-0.12,30.83
5683,0.212,-0.0209,0.8884,-6.78,7.98,-0.08,30.83
5693,0.2137,-0.0206,0.8872,-6.85,8.02,-0.06,30.83
5703,0.2092,-0.0198,0.8846,-6.81,7.98,-0.03,30.84
5713,0.212,-0.0203,0.8856,-6.89,8.06,-0.11,30.84
5723,0.2126,-0.0137,0.8865,-6.73,8.02,-0.05,30.84
5733,0.2133,-0.0155,0.8889,-6.81,8.09,0.03,30.83
5743,0.2156,-0.0153,0.8864,-6.81,7.97,-0.05,30.86
5753,0.212,-0.014,0.8873,-6.75,8.03,0.02,30.84
5763,0.2139,-0.0184,0.8885,-6.87,7.97,-0.11,30.84
5773,0.2148,-0.0166,0.89,-6.81,8.02,0.0,30.83
5783,0.2135,-0.0198,0.8926,-6.82,7.95,-0.08,30.84
5793,0.2107,-0.0157,0.8905,-6.87,8.05,-0.05,30.83
5803,0.2107,-0.0166,0.8839,-6.87,8.05,-0.06,30.85
5813,0.2108,-0.0172,0.8881,-6.79,7.94,-0.03,30.83
5823,0.2092,-0.0208,0.8893,-6.9,7.98,-0.02,30.84
5833,0.2128,-0.0219,0.8833,-6.76,7.98,-0.02,30.85
5843,0.2136,-0.0181,0.8892,-6.82,8.0,-0.03,30.86
5853,0.2134,-0.0199,0.8903,-6.79,7.95,-0.08,30.83
5863,0.2124,-0.0167,0.8881,-6.87,8.02,-0.11,30.84
5873,0.2131,-0.0156,0.8898,-6.87,7.97,-0.09,30.85
5883,0.2134,-0.0146,0.8901,-6.9,8.0,-0.02,30.84
5893,0.2129,-0.0178,0.8899,-6.81,8.03,0.0,30.84
5903,0.2112,-0.0195,0.8881,-6.85,8.0,-0.08,30.82
5913,0.2126,-0.0188,0.8855,-6.79,7.97,0.0,30.86
5923,0.2147,-0.0165,0.8859,-6.81,7.97,-0.08,30.85
5933,0.2113,-0.0177,0.8905,-6.82,7.95,-0.06,30.86
5943,0.21,-0.0188,0.8938,-6.82,8.0,0.0,30.87
5953,0.2115,-0.0182,0.8883,-6.81,8.03,0.02,30.85
5963,0.2128,-0.0206,0.8914,-6.78,7.97,-0.08,30.83
5973,0.2106,-0.0189,0.8862,-6.84,7.98,0.0,30.83
5983,0.2119,-0.0194,0.8923,-6.85,8.03,0.0,30.84
5993,0.2106,-0.0184,0.8966,-6.81,7.98,-0.05,30.86
6003,0.2126,-0.0177,0.8928,-6.78,8.0,-0.06,30.87
6013,0.2128,-0.0173,0.8871,-6.85,8.03,-0.02,30.85
6023,0.2115,-0.0166,0.889,-6.89,8.05,-0.05,30.84
6033,0.2128,-0.019,0.886,-6.84,8.02,-0.12,30.87
6043,0.2122,-0.0195,0.8864,-6.81,7.98,0.0,30.85
6053,0.2119,-0.0177,0.8867,-6.81,7.92,-0.02,30.84
6063,0.2115,-0.0178,0.8851,-6.82,8.03,0.03,30.83
6073,0.2113,-0.0157,0.8909,-6.79,7.95,0.0,30.84
6083,0.2107,-0.0175,0.8896,-6.79,7.97,-0.02,30.86
6093,0.213,-0.0178,0.8896,-6.79,8.0,-0.03,30.85
6103,0.2145,-0.0188,0.8889,-6.87,7.98,-0.02,30.83
6113,0.2094,-0.0177,0.8894,-6.89,8.02,-0.03,30.86
6123,0.2134,-0.02,0.8892,-6.9,7.92,-0.02,30.85
6133,0.2123,-0.0208,0.8947,-6.82,7.92,-0.11,30.83
6143,0.2137,-0.0177,0.8901,-6.87,8.0,-0.03,30.87
6153,0.2134,-0.0177,0.89,-6.79,7.97,-0.02,30.87
6163,0.2155,-0.02,0.8853,-6.82,7.95,-0.02,30.86
6173,0.2139,-0.0176,0.8885,-6.78,7.95,-0.05,30.88
6183,0.2124,-0.0195,0.8898,-6.78,7.91,-0.09,30.86
6193,0.2119,-0.0182,0.8911,-6.81,7.92,-0.08,30.86
6203,0.2107,-0.0215,0.8882,-6.81,7.92,-0.08,30.87
6213,0.2107,-0.0165,0.8866,-6.75,7.97,-0.08,30.85
6223,0.2128,-0.0177,0.8871,-6.79,7.98,0.03,30.84
6233,0.2141,-0.0167,0.8878,-6.84,7.98,0.0,30.85
6243,0.215,-0.0146,0.8954,-6.81,7.94,-0.05,30.88
6253,0.2111,-0.0171,0.8945,-6.92,7.94,-0.05,30.86
6263,0.214,-0.0171,0.8929,-6.81,7.94,0.03,30.85
6273,0.2139,-0.0173,0.8876,-6.79,7.98,-0.02,30.87
6283,0.2131,-0.0192,0.8904,-6.84,8.02,-0.11,30.87
6293,0.21,-0.019,0.8909,-6.79,8.05,-0.02,30.85
6303,0.213,-0.019,0.8848,-6.76,7.92,0.02,30.85
6313,0.2101,-0.019,0.8838,-6.76,8.0,-0.05,30.86
6323,0.209,-0.0166,0.8872,-6.84,7.97,-0.09,30.86
6333,0.2118,-0.0177,0.8876,-6.78,7.95,-0.09,30.84
6343,0.2106,-0.0195,0.8898,-6.75,7.98,-0.09,30.86
6353,0.2095,-0.0176,0.8914,-6.81,8.0,-0.09,30.86
6363,0.2119,-0.0156,0.8931,-6.81,7.92,-0.15,30.86
6373,0.2131,-0.0165,0.8903,-6.82,8.0,-0.08,30.85
6383,0.2129,-0.015,0.8945,-6.84,8.05,-0.12,30.87
6393,0.2102,-0.0161,0.8923,-6.85,7.94,-0.06,30.86
6403,0.2119,-0.0172,0.8887,-6.81,8.02,0.0,30.86
6413,0.2151,-0.0198,0.8887,-6.84,8.02,-0.03,30.87
6423,0.212,-0.0188,0.8892,-6.76,8.0,-0.09,30.87
6433,0.2113,-0.0223,0.889,-6.87,7.97,-0.11,30.88
6446,0.2104,-0.0186,0.8882,-6.7,7.98,-0.2,30.85
6456,0.2144,-0.0204,0.8879,-6.84,7.91,-0.03,30.86
6466,0.2104,-0.0175,0.895,-6.81,8.03,-0.06,30.88
6476,0.2119,-0.0212,0.8904,-6.92,8.0,-0.08,30.87
6487,0.2108,-0.017,0.8916,-6.73,8.05,-0.09,30.87
6497,0.2113,-0.0199,0.8862,-6.89,8.11,-0.09,30.87
6507,0.2151,-0.0187,0.8892,-6.79,7.94,-0.11,30.85
6517,0.213,-0.0176,0.8896,-6.81,8.02,-0.05,30.87
6527,0.2123,-0.0211,0.8884,-6.76,8.09,0.02,30.86
6537,0.2119,-0.0199,0.8895,-6.89,8.05,-0.02,30.87
6547,0.2113,-0.0192,0.8878,-6.81,8.02,-0.06,30.88
6557,0.2129,-0.0186,0.8943,-6.85,8.0,0.0,30.9
6567,0.2106,-0.0201,0.8885,-6.9,7.94,-0.06,30.88
6577,0.208,-0.0176,0.8925,-6.89,7.97,-0.03,30.87
6587,0.2086,-0.0188,0.8894,-6.81,7.92,0.02,30.87
6597,0.213,-0.0172,0.8917,-6.81,7.95,-0.06,30.87
6607,0.2134,-0.0214,0.8892,-6.73,7.95,-0.05,30.86
6617,0.2156,-0.0188,0.889,-6.84,7.95,-0.05,30.87
6627,0.2144,-0.0189,0.8903,-6.79,7.94,-0.02,30.87
6637,0.2158,-0.0222,0.8936,-6.84,8.03,-0.02,30.88
6647,0.2124,-0.0186,0.8914,-6.73,8.0,-0.08,30.89
6657,0.2104,-0.017,0.8898,-6.92,7.94,-0.08,30.87
6667,0.2095,-0.0216,0.884,-6.82,7.95,-0.03,30.88
6677,0.2109,-0.0199,0.8816,-6.87,7.95,-0.09,30.86
6687,0.2128,-0.0142,0.8849,-6.76,7.92,0.0,30.88
6697,0.2123,-0.0164,0.8878,-6.92,7.95,-0.03,30.87
6707,0.2148,-0.0195,0.8917,-6.82,8.05,-0.03,30.86
6717,0.2091,-0.0209,0.8915,-6.85,7.95,-0.11,30.86
6727,0.2139,-0.0194,0.8923,-6.92,8.03,-0.12,30.87
6737,0.2126,-0.022,0.8914,-6.78,7.98,0.02,30.86
6747,0.2115,-0.0172,0.8909,-6.79,8.02,-0.09,30.86
6757,0.2098,-0.0199,0.8884,-6.85,8.03,-0.06,30.88
6767,0.2135,-0.0153,0.8917,-6.87,8.02,-0.05,30.87
6777,0.2081,-0.0204,0.8875,-6.76,8.02,-0.05,30.87
6787,0.2069,-0.0182,0.887,-6.82,7.98,-0.02,30.88
6797,0.2102,-0.0225,0.8853,-6.9,7.98,-0.05,30.88
6807,0.2107,-0.0197,0.8872,-6.84,8.0,0.03,30.88
6817,0.2126,-0.0204,0.887,-6.84,8.06,0.0,30.89
6827,0.2124,-0.0167,0.8907,-6.79,7.97,-0.09,30.89
6837,0.2147,-0.0166,0.8864,-6.82,7.91,-0.02,30.86
6847,0.2109,-0.0167,0.8857,-6.87,7.97,0.02,30.86
6857,0.214,-0.0153,0.8898,-6.87,7.91,-0.09,30.88
6867,0.2139,-0.019,0.8932,-6.82,7.92,-0.08,30.87
6877,0.212,-0.0176,0.8933,-6.92,7.97,0.03,30.87
6887,0.2136,-0.0189,0.8909,-6.81,7.97,-0.02,30.9
6897,0.2113,-0.0188,0.8872,-6.89,8.03,0.02,30.87
6907,0.2108,-0.0203,0.8917,-6.76,8.02,-0.06,30.91
6917,0.209,-0.019,0.8894,-6.78,7.94,-0.06,30.89
6927,0.2095,-0.0193,0.889,-6.82,8.02,-0.06,30.89
6937,0.2125,-0.0162,0.8855,-6.84,8.02,-0.03,30.89
6947,0.2119,-0.0172,0.8862,-6.92,8.03,-0.03,30.88
6957,0.2109,-0.0198,0.8885,-6.82,7.98,-0.05,30.87
6967,0.2122,-0.0167,0.8903,-6.79,8.02,-0.03,30.87
6977,0.2135,-0.0176,0.8892,-6.78,7.95,-0.09,30.89
6987,0.2141,-0.0178,0.8922,-6.89,7.95,0.0,30.89
6997,0.2126,-0.0181,0.895,-6.85,7.98,-0.05,30.88
7009,0.2117,-0.0197,0.8899,-6.81,8.0,-0.03,30.88
7019,0.2155,-0.019,0.8882,-6.82,8.03,-0.11,30.88
7029,0.2111,-0.0172,0.8896,-6.79,7.98,-0.09,30.89
7039,0.2141,-0.0195,0.89,-6.85,8.02,-0.08,30.87
7049,0.2117,-0.0182,0.8921,-6.78,7.95,-0.08,30.91
7059,0.2104,-0.0172,0.8898,-6.81,8.06,-0.09,30.88
7069,0.2101,-0.0175,0.8901,-6.79,8.0,-0.03,30.91
7079,0.2094,-0.0166,0.892,-6.81,7.95,-0.09,30.89
7089,0.2108,-0.0192,0.8887,-6.84,7.94,-0.11,30.88
7099,0.2142,-0.0201,0.8917,-6.85,8.02,-0.12,30.89
7109,0.2117,-0.0157,0.8888,-6.79,8.02,-0.08,30.87
7119,0.2119,-0.0186,0.8873,-6.84,7.97,-0.11,30.9
7129,0.2112,-0.0195,0.8894,-6.75,8.0,-0.02,30.89
7139,0.2117,-0.0195,0.8879,-6.81,8.0,-0.03,30.88
7149,0.215,-0.0166,0.8861,-6.85,8.0,0.0,30.92
7159,0.2131,-0.0194,0.8906,-6.87,8.06,-0.06,30.92
7169,0.214,-0.0215,0.8842,-6.85,7.97,-0.06,30.88
7179,0.2141,-0.0192,0.8846,-6.76,8.03,-0.06,30.9
7189,0.212,-0.0148,0.8849,-6.81,8.05,-0.08,30.89
7199,0.2111,-0.0176,0.8888,-6.85,8.02,-0.09,30.89
7209,0.2085,-0.0183,0.8895,-6.82,7.98,-0.12,30.89
7219,0.2125,-0.0166,0.8899,-6.85,8.0,-0.03,30.89
7229,0.2106,-0.0155,0.8907,-6.72,7.97,-0.03,30.88
7239,0.2136,-0.0176,0.8925,-6.81,7.97,-0.12,30.89
7249,0.2133,-0.0179,0.8933,-6.81,7.98,-0.02,30.91
7259,0.2129,-0.0155,0.8926,-6.81,8.0,-0.03,30.9
7269,0.2112,-0.0182,0.8939,-6.87,8.03,-0.02,30.9
7279,0.2128,-0.0153,0.8921,-6.9,8.03,-0.06,30.92
7290,0.2091,-0.02,0.887,-6.81,8.03,-0.03,30.87
7300,0.2079,-0.0187,0.8892,-6.84,8.0,-0.08,30.89
7310,0.213,-0.0182,0.8878,-6.81,8.02,-0.08,30.91
7320,0.2092,-0.0168,0.8855,-6.79,7.98,-0.05,30.89
7330,0.2133,-0.0178,0.8888,-6.84,7.98,0.0,30.91
7340,0.2119,-0.0177,0.8906,-6.78,7.94,-0.05,30.9
7350,0.212,-0.0184,0.8911,-6.92,8.02,-0.03,30.92
7360,0.2133,-0.0149,0.8925,-6.85,7.94,-0.08,30.89
7370,0.2109,-0.019,0.8907,-6.79,7.97,-0.06,30.89
7380,0.2115,-0.0204,0.8922,-6.79,7.97,0.02,30.89
7390,0.2114,-0.0189,0.891,-6.82,7.97,-0.06,30.92
7400,0.2119,-0.0178,0.8883,-6.82,8.02,-0.02,30.91
7410,0.2098,-0.0188,0.8865,-6.85,8.02,-0.03,30.89
7420,0.2123,-0.0192,0.8883,-6.85,8.05,-0.08,30.9
7430,0.2084,-0.0197,0.885,-6.87,7.92,-0.02,30.89
7440,0.2136,-0.0201,0.8838,-6.79,8.0,-0.02,30.89
7450,0.2129,-0.0204,0.8872,-6.76,8.0,0.0,30.9
7460,0.2115,-0.0192,0.8853,-6.84,7.98,-0.02,30.88
7470,0.2107,-0.0193,0.8905,-6.89,7.95,-0.02,30.94
7480,0.2124,-0.0199,0.8921,-6.82,7.98,0.02,30.92
7490,0.214,-0.0188,0.894,-6.82,7.97,-0.08,30.89
7500,0.2135,-0.0198,0.8951,-6.79,7.95,-0.08,30.89
7510,0.2173,-0.0178,0.8896,-6.92,8.0,-0.03,30.91
7520,0.2103,-0.0193,0.8878,-6.79,7.95,-0.06,30.88
7530,0.2146,-0.0181,0.8885,-6.78,8.03,-0.08,30.91
7540,0.2119,-0.0184,0.8865,-6.76,8.0,-0.05,30.9
7550,0.2101,-0.0184,0.8927,-6.79,8.0,-0.06,30.91
7561,0.2112,-0.0149,0.8884,-6.79,7.97,-0.05,30.92
7571,0.2122,-0.0161,0.8885,-6.76,7.91,-0.08,30.9
7581,0.2097,-0.0189,0.8918,-6.78,7.89,-0.03,30.91
7591,0.215,-0.0184,0.887,-6.85,7.94,-0.03,30.9
7601,0.2134,-0.017,0.8903,-6.84,7.97,0.02,30.93
7611,0.2144,-0.0172,0.8925,-6.82,7.94,0.06,30.92
7621,0.2114,-0.0212,0.8927,-6.79,7.97,-0.06,30.92
7631,0.2111,-0.0205,0.8889,-6.78,8.03,-0.05,30.89
7641,0.2123,-0.0154,0.8875,-6.81,8.05,-0.11,30.9
7651,0.2102,-0.0173,0.8934,-6.76,8.03,-0.06,30.9
7661,0.2115,-0.0204,0.889,-6.85,8.11,-0.06,30.88
7671,0.2096,-0.0181,0.8895,-6.84,7.97,0.0,30.89
7681,0.2133,-0.0179,0.8875,-6.78,7.92,-0.03,30.9
7691,0.2112,-0.0184,0.8857,-6.82,7.91,-0.11,30.89
7701,0.2081,-0.0171,0.8889,-6.89,7.95,-0.09,30.93
7711,0.2085,-0.0211,0.8914,-6.82,7.95,-0.09,30.9
7721,0.2095,-0.0187,0.8885,-6.85,8.03,-0.02,30.93
7731,0.2117,-0.0179,0.8923,-6.78,7.92,-0.02,30.94
7741,0.2108,-0.0181,0.889,-6.82,7.92,-0.08,30.89
7751,0.2103,-0.0177,0.8882,-6.85,7.95,-0.02,30.91
7761,0.2147,-0.0154,0.8896,-6.85,7.91,-0.02,30.92
7771,0.2137,-0.0198,0.8885,-6.87,7.94,-0.02,30.92
7781,0.2118,-0.0192,0.8938,-6.85,7.94,-0.06,30.9
7791,0.2141,-0.0162,0.8915,-6.87,8.05,-0.05,30.9
7801,0.2141,-0.0177,0.8879,-6.82,8.0,0.02,30.93
7811,0.2161,-0.0194,0.8914,-6.84,7.94,0.0,30.93
7821,0.2134,-0.0177,0.8883,-6.85,7.98,-0.02,30.91
7831,0.2124,-0.021,0.8916,-6.84,8.02,-0.06,30.93
7841,0.2115,-0.0206,0.8921,-6.85,8.02,-0.02,30.91
7851,0.2086,-0.0197,0.8845,-6.9,8.0,-0.03,30.93
7861,0.2101,-0.0168,0.8881,-6.87,7.98,-0.03,30.93
7871,0.2114,-0.0154,0.8888,-6.89,8.0,-0.06,30.91
7881,0.2113,-0.019,0.8887,-6.85,8.03,-0.12,30.9
7891,0.2107,-0.0209,0.8864,-6.82,8.02,-0.03,30.9
7901,0.2122,-0.0171,0.8875,-6.87,7.95,-0.09,30.91
7911,0.214,-0.0206,0.8882,-6.79,7.94,-0.15,30.92
7921,0.2133,-0.0208,0.889,-6.84,8.0,-0.08,30.89
7931,0.2141,-0.0187,0.8884,-6.82,7.92,-0.11,30.89
7941,0.212,-0.0172,0.8895,-6.87,8.0,-0.02,30.91
7951,0.2103,-0.0194,0.8907,-6.79,8.0,-0.06,30.94
7961,0.2125,-0.0204,0.8861,-6.82,8.03,-0.09,30.93
7973,0.2103,-0.021,0.886,-6.82,8.0,-0.09,30.92
7983,0.2146,-0.0156,0.8865,-6.81,7.98,-0.06,30.9
7993,0.2084,-0.0176,0.8893,-6.79,8.02,-0.11,30.92
8003,0.2128,-0.0186,0.8892,-6.81,7.97,-0.06,30.92
8013,0.2078,-0.0201,0.8866,-6.87,7.97,-0.02,30.9
8023,0.209,-0.0211,0.8905,-6.73,8.09,-0.05,30.93
8033,0.2137,-0.0187,0.8882,-6.82,7.98,-0.11,30.93
8043,0.2145,-0.0143,0.8883,-6.9,7.98,0.03,30.93
8053,0.219,-0.0155,0.8909,-6.89,8.02,-0.08,30.92
8063,0.2108,-0.0228,0.8915,-6.81,8.0,-0.11,30.93
8073,0.2141,-0.0198,0.8944,-6.78,8.08,-0.08,30.92
8083,0.2112,-0.0178,0.8931,-6.9,7.97,-0.06,30.93
8093,0.2122,-0.0099,0.8864,-6.85,8.11,-0.17,30.91
8103,0.2222,-0.0135,0.8669,-6.98,7.54,0.0,30.91
8113,0.2115,-0.022,0.8926,-6.73,7.71,-0.08,30.91
8123,0.2189,-0.0186,0.8776,-6.87,7.88,-0.05,30.94
8133,0.2068,-0.0117,0.882,-6.73,8.05,-0.05,30.94
8143,0.2152,-0.0172,0.8762,-6.95,7.91,-0.06,30.93
8153,0.203,-0.0021,0.89,-6.67,8.11,-0.02,30.94
8163,0.2001,-0.0182,0.8929,-6.81,8.09,-0.03,30.94
8173,0.2087,-0.027,0.8903,-6.78,7.86,-0.02,30.93
8183,0.2151,-0.0173,0.8958,-6.75,7.85,-0.05,30.93
8193,0.2181,-0.0132,0.8955,-6.81,7.85,-0.02,30.91
8203,0.2178,-0.0172,0.8945,-6.89,7.92,-0.08,30.9
8213,0.2186,-0.0172,0.8896,-6.87,7.98,-0.06,30.92
8223,0.2147,-0.024,0.8912,-6.84,7.98,-0.05,30.92
8233,0.2147,-0.0227,0.8895,-6.76,8.05,-0.06,30.91
8243,0.2137,-0.0225,0.8857,-6.76,8.06,-0.08,30.92
8253,0.2083,-0.0155,0.885,-6.76,8.09,-0.08,30.92
8263,0.2152,-0.0192,0.8856,-6.81,7.95,-0.06,30.93
8273,0.2128,-0.0116,0.8881,-6.73,7.98,-0.02,30.93
8283,0.2068,-0.0125,0.8862,-6.79,8.08,-0.03,30.94
8293,0.2048,-0.02,0.8821,-6.79,8.0,-0.08,30.92
8303,0.2063,-0.0193,0.891,-6.79,7.98,-0.03,30.94
8313,0.2101,-0.0194,0.8875,-6.79,7.97,-0.09,30.93
8323,0.209,-0.016,0.8887,-6.81,7.92,-0.12,30.93
8333,0.2101,-0.0172,0.8854,-6.84,7.98,-0.11,30.93
8343,0.2147,-0.0179,0.8877,-6.9,7.92,0.02,30.94
8353,0.2145,-0.0204,0.8915,-6.92,7.98,0.02,30.94
8363,0.2134,-0.0219,0.8927,-6.79,8.02,-0.03,30.94
8373,0.2135,-0.0193,0.8938,-6.84,7.94,-0.08,30.94
8383,0.2156,-0.0209,0.8948,-6.9,7.92,-0.08,30.92
8393,0.2153,-0.0205,0.8918,-6.82,7.98,-0.02,30.93
8403,0.2152,-0.0166,0.892,-6.85,8.0,-0.05,30.93
8413,0.2117,-0.0172,0.8932,-6.73,7.95,-0.05,30.96
8423,0.2122,-0.0168,0.8882,-6.85,7.92,-0.08,30.94
8433,0.2128,-0.0221,0.8845,-6.81,7.97,0.0,30.93
8443,0.2123,-0.0204,0.8881,-6.78,7.89,-0.09,30.95
8453,0.2104,-0.0189,0.8843,-6.87,8.0,-0.12,30.92
8463,0.2114,-0.0181,0.8883,-6.73,7.97,-0.06,30.94
8473,0.2103,-0.0177,0.8909,-6.87,7.98,0.0,30.94
8483,0.2117,-0.0168,0.8882,-6.82,7.85,-0.03,30.92
8493,0.2141,-0.0159,0.8905,-6.81,7.95,-0.02,30.94
8503,0.2125,-0.0176,0.8914,-6.76,7.97,0.02,30.94
8513,0.2141,-0.0155,0.8909,-6.76,7.95,-0.11,30.96
8523,0.2146,-0.0188,0.8909,-6.82,8.02,-0.11,30.94
8533,0.2158,-0.0177,0.8903,-6.85,7.98,-0.08,30.94
8543,0.2141,-0.0167,0.8899,-6.87,7.95,0.0,30.95
8553,0.2135,-0.019,0.8887,-6.84,7.94,-0.05,30.94
8563,0.2111,-0.0182,0.8867,-6.85,7.98,-0.06,30.93
8573,0.2111,-0.0193,0.8866,-6.89,8.03,0.03,30.96
8583,0.2103,-0.0176,0.887,-6.84,8.03,-0.05,30.93
8593,0.209,-0.0204,0.8878,-6.9,7.97,-0.08,30.94
8603,0.209,-0.0198,0.8884,-6.82,7.95,-0.06,30.95
8613,0.2083,-0.0189,0.8892,-6.76,7.95,0.0,30.94
8623,0.2112,-0.0167,0.8895,-6.76,7.95,-0.05,30.94
8633,0.2111,-0.0168,0.89,-6.87,7.95,-0.14,30.95
8643,0.2146,-0.0178,0.8872,-6.84,7.98,-0.11,30.94
8653,0.2155,-0.0164,0.889,-6.78,7.97,0.0,30.94
8663,0.2114,-0.0183,0.8903,-6.85,7.88,0.03,30.92
8673,0.2142,-0.0181,0.8887,-6.81,8.06,-0.03,30.94
8683,0.2144,-0.0181,0.8899,-6.82,8.02,0.08,30.94
8693,0.2118,-0.0153,0.8868,-6.78,7.98,-0.05,30.96
8703,0.2046,-0.0198,0.8898,-6.87,8.02,-0.08,30.94
8713,0.2141,-0.0187,0.8839,-6.84,7.88,-0.09,30.93
8723,0.2045,-0.0194,0.8927,-6.84,8.06,0.03,30.95
8733,0.2086,-0.0143,0.8868,-6.79,8.02,-0.05,30.95
8743,0.2141,-0.0161,0.8878,-6.81,7.89,-0.09,30.93
8753,0.2151,-0.0227,0.8878,-6.79,7.94,0.0,30.97
8763,0.2146,-0.0184,0.8865,-6.93,8.08,-0.05,30.93
8773,0.2131,-0.0178,0.8872,-6.9,8.09,-0.06,30.97
8783,0.2125,-0.0195,0.8956,-6.81,8.08,-0.05,30.93
8793,0.2114,-0.0154,0.896,-6.82,8.06,-0.05,30.94
8803,0.2097,-0.0203,0.8887,-6.84,8.02,-0.11,30.97
8813,0.2084,-0.0206,0.8889,-6.85,7.94,-0.05,30.95
8823,0.2122,-0.0209,0.8859,-6.79,7.95,-0.06,30.96
8833,0.2111,-0.0198,0.8878,-6.93,7.95,0.08,30.94
8843,0.2117,-0.0211,0.8879,-6.84,8.02,0.0,30.94
8853,0.2103,-0.02,0.8882,-6.79,7.94,-0.05,30.95
8863,0.2136,-0.0157,0.886,-6.92,7.89,0.0,30.93
8873,0.2112,-0.0123,0.8821,-6.84,7.86,-0.06,30.95
8883,0.2064,-0.0164,0.8926,-6.75,8.11,-0.11,30.94
8893,0.2168,-0.0209,0.8829,-6.89,7.77,-0.05,30.95
8903,0.2189,-0.0189,0.8911,-6.72,7.89,-0.05,30.95
8913,0.2179,-0.0106,0.8977,-6.87,7.91,-0.05,30.95
8923,0.2151,-0.0153,0.8901,-6.85,8.12,-0.06,30.94
8933,0.2145,-0.021,0.8864,-6.85,7.98,-0.06,30.96
8943,0.2128,-0.0194,0.8876,-6.79,7.94,0.0,30.96
8953,0.212,-0.0192,0.8936,-6.82,8.05,0.0,30.95
8963,0.2119,-0.0184,0.8859,-6.89,7.97,-0.02,30.95
8973,0.2102,-0.0165,0.8895,-6.84,8.0,-0.03,30.97
8983,0.2107,-0.0179,0.8877,-6.84,7.86,-0.05,30.94
8994,0.2112,-0.0203,0.8916,-6.84,7.92,0.02,30.96
9004,0.2137,-0.0165,0.896,-6.87,7.94,-0.08,30.97
9014,0.2119,-0.0166,0.8917,-6.82,7.95,-0.02,30.96
9024,0.2136,-0.0171,0.8955,-6.87,7.92,-0.03,30.97
9034,0.2133,-0.0176,0.891,-6.92,7.97,-0.08,30.95
9044,0.2126,-0.0165,0.8882,-6.87,7.98,-0.05,30.99
9054,0.2158,-0.0183,0.8905,-6.79,7.89,-0.05,30.96
9064,0.2134,-0.0198,0.8936,-6.92,8.03,0.02,30.96
9074,0.2131,-0.0188,0.8887,-6.82,8.14,-0.03,30.96
9084,0.2134,-0.016,0.887,-6.79,8.05,-0.11,30.99
9095,0.2142,-0.0171,0.8868,-6.79,8.0,-0.08,30.99
9106,0.2148,-0.0183,0.8925,-6.9,7.94,0.02,30.98
9116,0.2126,-0.0199,0.8911,-6.78,8.03,-0.08,30.95
9126,0.2101,-0.0216,0.8901,-6.79,8.0,0.0,30.96
9136,0.2083,-0.0155,0.8851,-6.82,7.94,-0.12,30.97
9147,0.2117,-0.0183,0.8921,-6.84,8.02,-0.03,30.95
9157,0.2126,-0.0168,0.885,-6.76,8.02,0.0,30.98
9167,0.2119,-0.0166,0.8887,-6.82,7.92,0.02,30.97
9177,0.2123,-0.0159,0.8846,-6.84,7.98,0.0,30.96
9189,0.2069,-0.0188,0.8873,-6.81,7.94,-0.08,30.96
9199,0.2117,-0.0187,0.8916,-6.72,7.95,-0.03,30.98
9209,0.2133,-0.0226,0.8898,-6.79,7.91,-0.05,30.98
9219,0.2136,-0.0173,0.895,-6.84,8.0,-0.03,30.95
9229,0.2128,-0.0165,0.8901,-6.87,7.95,0.02,30.94
9239,0.2129,-0.0149,0.8854,-6.82,7.98,-0.06,30.95
9250,0.2103,-0.0161,0.8922,-6.82,8.02,-0.12,30.96
9260,0.2128,-0.0175,0.8878,-6.82,7.95,-0.09,30.97
9270,0.2113,-0.0149,0.8842,-6.84,7.92,-0.02,30.98
9280,0.2133,-0.0167,0.8872,-6.76,8.03,-0.09,30.96
9290,0.2117,-0.0189,0.8905,-6.79,7.98,-0.03,30.98
9300,0.2133,-0.0189,0.8883,-6.82,7.97,-0.09,30.95
9310,0.2104,-0.0188,0.8884,-6.81,8.06,-0.06,30.98
9320,0.2148,-0.0154,0.8907,-6.81,7.98,0.02,30.96
9330,0.2119,-0.0214,0.8899,-6.76,7.95,-0.05,30.96
9340,0.2148,-0.0183,0.8894,-6.85,7.92,-0.02,30.94
9350,0.2119,-0.0229,0.8918,-6.79,7.98,-0.09,30.96
9360,0.2126,-0.0179,0.8892,-6.75,7.91,0.02,30.97
9370,0.2123,-0.0182,0.8885,-6.85,7.92,-0.05,30.96
9380,0.2123,-0.0179,0.8873,-6.82,7.89,-0.11,30.96
9390,0.2118,-0.0178,0.8904,-6.73,7.98,-0.08,30.98
9400,0.2126,-0.0182,0.8888,-6.75,7.97,-0.03,30.99
9410,0.2112,-0.0176,0.8899,-6.81,8.03,-0.05,30.99
9420,0.2129,-0.0161,0.8849,-6.78,8.05,-0.05,30.97
9430,0.2104,-0.0201,0.8864,-6.84,7.91,0.0,30.97
9440,0.2117,-0.0171,0.8909,-6.79,7.98,-0.02,31.0
9450,0.2123,-0.0154,0.8889,-6.85,7.98,-0.02,30.98
9460,0.2124,-0.0161,0.8892,-6.89,7.97,0.03,30.99
9470,0.2126,-0.0167,0.8893,-6.78,7.98,-0.03,30.97
9480,0.2137,-0.0203,0.8926,-6.79,7.98,-0.03,31.0
9490,0.2119,-0.0192,0.8898,-6.82,7.97,-0.09,31.0
9501,0.2117,-0.0184,0.8885,-6.85,8.0,-0.12,30.97
9511,0.2137,-0.0197,0.8892,-6.85,7.94,-0.06,30.98
9521,0.2125,-0.0189,0.8843,-6.85,8.03,-0.08,30.96
9531,0.2119,-0.0219,0.8878,-6.78,7.94,-0.06,30.98
9541,0.214,-0.0181,0.8848,-6.79,8.0,-0.05,30.96
9551,0.2119,-0.0205,0.8927,-6.76,7.98,-0.09,30.93
9561,0.2123,-0.0203,0.8914,-6.82,7.95,-0.08,30.97
9571,0.2144,-0.0183,0.8907,-6.75,8.03,-0.02,30.98
9581,0.214,-0.0192,0.8868,-6.78,8.02,-0.06,30.97
9591,0.214,-0.0192,0.8922,-6.87,7.92,-0.05,30.98
9602,0.2156,-0.019,0.8932,-6.87,8.02,-0.05,30.95
9612,0.214,-0.0172,0.8878,-6.81,7.98,-0.08,30.98
9622,0.2094,-0.0144,0.8925,-6.82,8.0,-0.02,30.96
9632,0.2081,-0.0187,0.8881,-6.92,8.0,-0.09,30.98
9643,0.2092,-0.0182,0.8903,-6.87,8.0,-0.12,30.96
9653,0.2081,-0.0208,0.8854,-6.78,7.97,-0.02,30.97
9663,0.2108,-0.0239,0.8882,-6.79,8.0,-0.09,30.97
9673,0.2128,-0.0245,0.8906,-6.84,7.92,-0.05,30.99
9683,0.215,-0.0237,0.8953,-6.75,7.98,-0.08,30.99
9693,0.2196,-0.0188,0.8901,-6.79,7.92,0.02,30.99
9703,0.2211,-0.0156,0.8892,-6.79,7.98,-0.11,30.98
9713,0.2157,-0.0154,0.889,-6.85,8.02,0.03,30.99
9723,0.2106,-0.0123,0.8888,-6.84,8.09,-0.03,30.98
9733,0.2107,-0.0134,0.8851,-6.82,8.02,-0.09,30.97
9743,0.2101,-0.0131,0.8875,-6.84,8.0,-0.05,30.99
9753,0.21,-0.0129,0.8876,-6.9,7.97,-0.02,30.99
9763,0.2112,-0.0154,0.8934,-6.87,8.02,-0.05,30.99
9773,0.2124,-0.0171,0.8931,-6.87,7.98,0.02,30.98
9783,0.2075,-0.0203,0.8878,-6.85,8.03,-0.12,30.96
9793,0.21,-0.0204,0.8873,-6.89,8.02,-0.11,30.97
9803,0.2101,-0.0226,0.8898,-6.84,8.02,-0.05,30.97
9813,0.2075,-0.0232,0.8846,-6.78,8.05,-0.05,30.97
9823,0.2124,-0.0215,0.8882,-6.89,8.08,-0.11,30.98
9833,0.2091,-0.0239,0.8909,-6.81,8.09,-0.09,30.99
9843,0.2122,-0.025,0.8966,-6.78,8.06,-0.05,30.98
9853,0.2086,-0.0189,0.8987,-6.79,8.02,-0.03,30.99
9863,0.2119,-0.0183,0.8999,-6.81,7.94,-0.05,30.99
9873,0.2089,-0.0186,0.8916,-6.76,8.08,-0.11,31.0
9883,0.2094,-0.0157,0.892,-6.82,8.02,-0.08,30.98
9893,0.2104,-0.0167,0.8933,-6.78,8.0,-0.05,31.0
9903,0.2115,-0.0135,0.8875,-6.85,7.98,-0.06,30.99
9913,0.2119,-0.0189,0.8894,-6.87,8.08,-0.06,30.98
9923,0.2144,-0.0164,0.8866,-6.84,7.97,-0.03,30.98
9933,0.2102,-0.0161,0.8845,-6.85,8.02,-0.11,30.98
9943,0.2091,-0.0172,0.885,-6.85,8.0,-0.08,31.0
9953,0.2124,-0.022,0.8939,-6.82,7.94,-0.08,30.98
9963,0.2103,-0.0201,0.8955,-6.87,7.97,-0.11,31.0
9973,0.2086,-0.0201,0.8932,-6.85,8.0,-0.08,30.99
9983,0.212,-0.0219,0.8973,-6.81,8.03,0.0,31.0
9993,0.2109,-0.0233,0.8981,-6.84,8.05,-0.12,31.0
10003,0.2113,-0.0194,0.897,-6.82,7.98,-0.02,30.99
10013,0.2122,-0.0203,0.8956,-6.84,8.02,-0.09,30.98
10023,0.2109,-0.0162,0.8923,-6.79,7.94,-0.06,30.99
10033,0.2153,-0.0167,0.8839,-6.79,7.98,-0.08,31.0
10043,0.2145,-0.0188,0.8907,-6.84,7.97,0.0,30.97
10053,0.2137,-0.0166,0.8876,-6.81,8.08,-0.09,30.99
10063,0.2096,-0.014,0.8872,-6.78,7.98,-0.05,31.0
10073,0.2106,-0.0151,0.8861,-6.76,8.11,-0.08,30.99
10083,0.2218,-0.1069,0.8923,-6.52,7.05,-0.09,30.97
10093,0.1986,0.1307,0.9038,-7.45,5.85,0.18,30.99
10103,0.1067,-0.0012,0.9258,-5.83,10.2,-0.17,30.97
10113,0.2346,-0.0248,0.8954,-6.73,6.15,0.02,30.99
10123,0.2822,0.0332,0.8981,-6.34,8.43,0.03,30.98
10133,0.1713,0.0072,0.8584,-7.16,8.96,-0.26,31.0
10143,0.2109,-0.0902,0.8182,-6.67,6.11,-0.08,30.99
10153,0.223,-0.0194,1.0128,-6.6,7.79,0.03,30.99
10163,0.2137,0.0234,0.9423,-7.15,9.65,-0.08,30.99
10173,0.181,-0.0408,0.8331,-6.76,8.44,0.03,31.01
10183,0.2172,-0.02,0.8621,-6.58,6.78,0.03,31.01
10193,0.239,0.0044,0.9191,-6.92,8.26,-0.03,31.01
10203,0.198,-0.0371,0.8638,-6.98,8.66,-0.08,30.99
10213,0.1899,-0.0332,0.8468,-6.84,7.86,-0.09,30.98
10223,0.2032,-0.0072,0.8995,-6.72,7.62,-0.06,30.99
10233,0.2031,-0.0179,0.9031,-6.93,8.37,-0.09,31.01
10243,0.1958,-0.0182,0.8615,-6.85,8.26,-0.05,30.99
10253,0.2061,-0.014,0.8699,-6.76,7.53,-0.05,30.99
10263,0.2214,-0.0127,0.9021,-6.76,7.77,-0.11,30.99
10273,0.2186,-0.0161,0.8997,-6.87,8.21,-0.11,31.0
10283,0.2142,-0.0197,0.8882,-6.85,7.89,-0.05,30.99
10294,0.2183,-0.0156,0.8958,-6.76,7.66,-0.06,30.98
10304,0.2214,-0.0177,0.9049,-6.78,7.86,-0.02,30.99
10314,0.219,-0.017,0.8989,-6.9,8.23,-0.08,31.02
10324,0.2131,-0.0186,0.881,-6.92,8.08,-0.02,31.01
10334,0.2131,-0.0212,0.8829,-6.78,7.82,0.0,30.99
10344,0.2134,-0.02,0.8965,-6.87,8.0,-0.05,30.99
10354,0.2069,-0.0239,0.8837,-6.82,8.14,0.02,31.03
10364,0.2035,-0.0245,0.8785,-6.79,7.88,-0.06,31.02
10374,0.2112,-0.0171,0.8883,-6.78,7.83,-0.03,31.02
10384,0.2129,-0.0189,0.8958,-6.9,8.06,-0.02,31.02
10394,0.2101,-0.0204,0.8828,-6.82,7.95,0.0,31.01
10404,0.2107,-0.019,0.8898,-6.78,7.88,-0.02,30.98
10414,0.2145,-0.0181,0.8961,-6.79,7.92,-0.03,31.01
10424,0.2139,-0.0162,0.8926,-6.85,8.03,-0.03,31.0
10435,0.213,-0.0215,0.8877,-6.82,7.97,-0.05,30.99
10445,0.2118,-0.0161,0.8909,-6.84,7.91,-0.05,30.99
10455,0.2135,-0.02,0.8939,-6.76,8.0,-0.09,31.0
10466,0.2135,-0.0203,0.8885,-6.84,8.11,-0.09,31.01
10476,0.2106,-0.0178,0.8838,-6.82,7.92,-0.08,30.99
10486,0.2131,-0.019,0.8846,-6.79,7.98,-0.02,31.0
10496,0.2125,-0.0198,0.887,-6.76,7.95,-0.06,31.02
10506,0.2073,-0.0175,0.8866,-6.82,8.0,-0.05,31.02
10516,0.2085,-0.0179,0.884,-6.93,7.95,0.02,31.02
10528,0.2126,-0.0193,0.8879,-6.81,8.0,-0.02,31.0
10538,0.2158,-0.0198,0.8914,-6.79,7.94,-0.09,30.99
10548,0.2129,-0.0186,0.8922,-6.76,7.97,-0.05,31.01
10558,0.2113,-0.017,0.8899,-6.75,7.91,-0.08,31.02
10569,0.213,-0.0175,0.8899,-6.85,7.92,-0.08,31.02
10579,0.2098,-0.0153,0.8918,-6.72,8.02,-0.09,30.99
10589,0.212,-0.0155,0.8939,-6.81,8.05,-0.03,30.99
10599,0.212,-0.0195,0.886,-6.76,7.97,-0.06,31.0
10609,0.2142,-0.0184,0.8865,-6.87,8.02,-0.02,31.0
10619,0.2098,-0.0171,0.8888,-6.84,8.0,-0.06,31.01
10629,0.2129,-0.0189,0.8854,-6.84,8.03,-0.11,31.02
10639,0.2111,-0.0177,0.892,-6.79,7.92,-0.02,31.0
10649,0.2124,-0.0164,0.8907,-6.78,7.98,-0.03,31.01
10659,0.2124,-0.0184,0.8854,-6.89,8.02,0.03,30.98
10669,0.2133,-0.02,0.8877,-6.79,7.95,0.02,31.01
10679,0.2118,-0.0176,0.8873,-6.76,7.92,0.08,31.02
10690,0.2114,-0.0214,0.8901,-6.75,7.98,-0.02,31.02
10700,0.2118,-0.0187,0.8909,-6.82,8.03,0.0,30.99
10710,0.2107,-0.0187,0.892,-6.81,7.97,-0.05,31.02
10720,0.2092,-0.0164,0.8892,-6.76,7.94,-0.09,30.99
10730,0.2111,-0.0155,0.8879,-6.87,8.03,0.0,31.02
10740,0.2124,-0.021,0.8898,-6.81,7.92,-0.09,31.01
10750,0.2118,-0.0184,0.8868,-6.87,8.03,-0.06,31.01
10760,0.2131,-0.0184,0.8867,-6.87,8.0,-0.09,31.02
10770,0.2137,-0.0167,0.8839,-6.89,8.0,-0.12,31.02
10780,0.2134,-0.0188,0.8844,-6.82,7.95,0.02,31.02
10790,0.2094,-0.0184,0.8878,-6.87,7.97,-0.06,31.01
10800,0.2126,-0.0192,0.8887,-6.92,7.91,-0.05,31.02
10810,0.2115,-0.0216,0.8889,-6.82,8.0,-0.05,31.02
10820,0.2129,-0.02,0.8887,-6.89,7.88,-0.03,31.02
10831,0.2128,-0.0181,0.8909,-6.81,8.02,-0.05,31.0
10841,0.2129,-0.0182,0.8898,-6.82,8.02,-0.05,30.99
10851,0.213,-0.0148,0.8911,-6.79,8.02,-0.03,31.03
10861,0.2128,-0.0192,0.8929,-6.87,7.95,-0.08,31.03
10871,0.2135,-0.0188,0.8907,-6.85,7.95,0.0,31.0
10881,0.2104,-0.0206,0.8888,-6.81,7.94,-0.08,31.02
10891,0.209,-0.0184,0.8888,-6.85,7.97,-0.03,31.03
10901,0.2112,-0.0179,0.8883,-6.84,7.98,-0.06,31.01
10911,0.2123,-0.0172,0.8861,-6.84,7.94,-0.02,31.03
10921,0.2134,-0.0198,0.887,-6.81,7.97,-0.03,31.01
10933,0.2129,-0.0181,0.8879,-6.85,8.02,-0.12,31.02
10943,0.212,-0.0167,0.8848,-6.79,8.03,-0.09,31.04
10953,0.2145,-0.0214,0.8917,-6.85,8.02,-0.03,31.03
10963,0.2131,-0.0155,0.8923,-6.84,7.98,0.0,31.02
10973,0.2128,-0.017,0.8871,-6.79,7.92,-0.03,30.99
10983,0.2118,-0.0188,0.8909,-6.84,8.02,-0.14,30.99
10993,0.2123,-0.0186,0.8885,-6.82,8.02,-0.12,31.02
11003,0.2131,-0.019,0.8878,-6.89,7.95,-0.02,31.03
11013,0.2131,-0.0182,0.8892,-6.85,7.97,-0.06,31.01
11023,0.2122,-0.0166,0.8859,-6.76,7.88,-0.08,31.01
11033,0.2128,-0.0167,0.8867,-6.82,7.95,-0.06,31.0
11043,0.2128,-0.0181,0.8851,-6.79,8.0,-0.09,31.05
11053,0.2097,-0.0206,0.89,-6.87,8.03,-0.08,31.02
11063,0.2109,-0.0203,0.8871,-6.87,8.0,-0.08,31.03
11073,0.2108,-0.0167,0.8853,-6.78,7.91,-0.15,31.03
11083,0.2124,-0.0161,0.8887,-6.75,8.0,-0.09,31.0
11093,0.2117,-0.0195,0.89,-6.81,7.97,-0.02,31.01
11103,0.2152,-0.0175,0.8888,-6.87,7.89,-0.03,31.04
11113,0.2124,-0.0166,0.8931,-6.92,7.94,-0.11,31.03
11123,0.2114,-0.0192,0.8868,-6.79,7.97,-0.03,31.01
11134,0.2112,-0.0189,0.8892,-6.75,7.95,-0.02,31.02
11144,0.2142,-0.0221,0.891,-6.79,8.02,-0.05,31.02
11154,0.212,-0.019,0.8933,-6.84,7.97,-0.02,31.02
11164,0.2118,-0.0195,0.8904,-6.81,8.0,0.02,31.02
11174,0.2157,-0.017,0.8932,-6.76,7.95,0.02,31.02
11184,0.2115,-0.0148,0.8885,-6.89,8.0,-0.06,31.02
11194,0.2111,-0.0171,0.8911,-6.78,7.94,-0.11,31.0
11204,0.2107,-0.0182,0.8864,-6.84,7.97,-0.09,31.01
11214,0.2101,-0.0179,0.8867,-6.89,7.94,0.02,31.01
11224,0.2087,-0.0164,0.891,-6.89,7.94,-0.05,31.03
11234,0.2098,-0.0155,0.891,-6.84,7.98,-0.05,31.04
11244,0.2162,-0.0197,0.8859,-6.81,7.97,-0.05,31.03
11254,0.2136,-0.0184,0.8896,-6.84,7.95,-0.05,31.03
11264,0.2125,-0.0183,0.8898,-6.84,7.98,-0.05,31.02
11274,0.2145,-0.0211,0.8876,-6.79,7.91,-0.12,31.02
11284,0.2117,-0.0206,0.8907,-6.82,8.0,-0.12,31.03
11294,0.2112,-0.0198,0.8929,-6.81,7.98,0.06,31.04
11304,0.2158,-0.0184,0.8893,-6.87,8.02,-0.02,31.02
11314,0.2139,-0.0199,0.8911,-6.85,7.91,-0.08,31.03
11324,0.2141,-0.0162,0.8846,-6.79,7.97,-0.03,31.04
11334,0.2094,-0.0181,0.8851,-6.85,7.94,-0.05,31.05
11344,0.2109,-0.0176,0.8906,-6.84,8.03,-0.06,31.02
11354,0.212,-0.0149,0.89,-6.81,8.06,-0.12,31.02
11364,0.2136,-0.0159,0.8875,-6.84,8.03,-0.05,31.02
11374,0.2125,-0.0183,0.8866,-6.87,7.95,-0.08,31.03
11384,0.2112,-0.0171,0.8888,-6.82,7.95,-0.11,31.01
11394,0.2098,-0.0166,0.8916,-6.76,8.02,0.05,31.04
11404,0.2092,-0.0198,0.889,-6.89,8.02,-0.05,31.02
11414,0.2098,-0.0197,0.8911,-6.75,8.0,-0.03,31.01
11424,0.2106,-0.0173,0.8909,-6.85,7.94,-0.08,31.01
11434,0.2103,-0.0188,0.8888,-6.79,7.92,-0.05,31.02
11444,0.2145,-0.0181,0.8916,-6.81,7.98,-0.09,31.01
11455,0.2137,-0.0172,0.8878,-6.87,7.94,-0.06,31.02
11465,0.2136,-0.0195,0.8887,-6.85,8.03,-0.09,31.03
11475,0.2157,-0.0197,0.8904,-6.84,8.0,0.03,31.03
11486,0.2103,-0.0153,0.8903,-6.82,7.95,-0.05,31.03
11496,0.2098,-0.0168,0.8877,-6.78,8.05,-0.06,31.02
11506,0.2114,-0.0186,0.8899,-6.82,8.06,-0.05,31.03
11516,0.2104,-0.0193,0.8878,-6.85,8.03,-0.05,31.01
11526,0.2089,-0.0188,0.8882,-6.81,8.03,-0.14,31.05
11536,0.2102,-0.0175,0.8871,-6.9,8.0,-0.02,31.03
11547,0.2083,-0.0197,0.8922,-6.79,7.94,-0.03,31.02
11557,0.2094,-0.0177,0.8881,-6.78,7.97,-0.12,31.02
11568,0.2117,-0.0211,0.8901,-6.85,7.97,0.0,31.03
11578,0.2086,-0.0205,0.8829,-6.81,7.92,-0.05,31.03
11591,0.2081,-0.0183,0.8827,-6.73,7.94,-0.09,31.06
11601,0.2108,-0.0176,0.889,-6.78,7.92,0.0,31.02
11611,0.2142,-0.0187,0.8904,-6.82,7.94,-0.09,31.02
11621,0.213,-0.0153,0.8896,-6.85,8.0,-0.06,31.0
11631,0.2117,-0.016,0.889,-6.82,8.0,-0.02,31.04
11641,0.2128,-0.0151,0.8934,-6.84,7.98,-0.06,31.05
11651,0.2137,-0.017,0.8954,-6.85,8.05,-0.05,31.04
11661,0.2119,-0.0165,0.8894,-6.9,7.97,-0.08,31.04
11671,0.2146,-0.0145,0.8904,-6.81,7.95,-0.02,31.03
11681,0.2111,-0.0178,0.8916,-6.76,7.95,0.02,31.02
11691,0.2109,-0.0208,0.8885,-6.79,7.98,-0.09,31.06
11701,0.2147,-0.0201,0.8894,-6.9,8.02,-0.03,31.05
11711,0.2123,-0.022,0.8879,-6.79,8.03,0.02,31.05
11721,0.2123,-0.0183,0.886,-6.84,8.05,-0.05,31.04
11731,0.2107,-0.0192,0.8882,-6.82,8.0,-0.08,31.06
11741,0.2106,-0.0187,0.8849,-6.96,8.03,-0.05,31.05
11751,0.2115,-0.0198,0.8856,-6.85,8.03,-0.05,31.03
11761,0.2147,-0.0239,0.8915,-6.79,8.0,-0.08,31.05
11771,0.2173,-0.019,0.8934,-6.81,8.02,-0.06,31.03
11781,0.2147,-0.0165,0.8934,-6.9,7.92,-0.06,31.06
11791,0.2125,-0.0159,0.8915,-6.81,8.0,-0.03,31.04
11801,0.2134,-0.0143,0.8918,-6.78,7.95,-0.05,31.04
11811,0.2122,-0.0144,0.8936,-6.82,7.98,-0.05,31.06
11821,0.2119,-0.0151,0.8904,-6.84,8.0,-0.05,31.04
11831,0.2101,-0.0181,0.8883,-6.76,8.06,0.0,31.05
11841,0.2124,-0.0182,0.8864,-6.89,7.97,0.0,31.04
11851,0.209,-0.0172,0.8851,-6.79,8.0,-0.03,31.06
11861,0.2008,-0.0365,0.894,-6.89,8.11,-0.09,31.05
11871,0.207,-0.0089,0.8907,-6.87,8.2,0.05,31.04
11881,0.2091,0.0137,0.8744,-6.81,7.95,-0.05,31.04
11891,0.2611,-0.0756,0.8308,-6.17,7.69,-0.02,31.07
11901,0.234,-0.0013,0.8702,-7.86,6.18,0.18,31.05
11911,0.1968,-0.0067,0.8776,-6.15,7.88,-0.06,31.06
11921,0.2089,-0.0092,0.9252,-7.16,7.4,-0.03,31.04
11931,0.2314,-0.015,0.89,-6.7,8.56,-0.12,31.06
11941,0.2068,-0.0262,0.8879,-6.78,8.23,-0.05,31.06
11951,0.2175,-0.021,0.8811,-6.82,7.63,-0.12,31.04
11961,0.2296,-0.0188,0.9012,-6.84,7.89,-0.06,31.06
11971,0.2148,-0.0229,0.8962,-6.84,8.24,-0.09,31.05
11981,0.21,-0.0232,0.8853,-6.82,7.91,-0.09,31.04
11991,0.2131,-0.0193,0.8983,-6.7,7.94,-0.02,31.06
12001,0.2162,-0.0192,0.8954,-6.93,8.11,-0.08,31.05
12011,0.2081,-0.0193,0.8813,-6.78,8.2,-0.02,31.04
12021,0.2076,-0.0175,0.8795,-6.75,7.86,-0.06,31.06
12031,0.2115,-0.0165,0.8894,-6.72,7.97,-0.11,31.03
12041,0.2114,-0.015,0.8887,-6.78,8.09,-0.05,31.06
12051,0.2117,-0.0151,0.8798,-6.84,8.05,-0.02,31.06
12061,0.2118,-0.0165,0.891,-6.79,7.89,-0.03,31.04
12071,0.2153,-0.0155,0.89,-6.81,7.95,-0.05,31.04
12081,0.2117,-0.0165,0.889,-6.81,8.15,-0.08,31.03
12091,0.2063,-0.0214,0.8853,-6.9,7.98,-0.05,31.04
12101,0.2087,-0.0156,0.892,-6.79,7.86,0.02,31.07
12111,0.2114,-0.0171,0.8909,-6.84,7.98,-0.08,31.05
12121,0.2113,-0.0199,0.896,-6.78,8.06,-0.11,31.04
12131,0.2136,-0.0192,0.887,-6.92,7.91,-0.06,31.06
12141,0.2146,-0.0167,0.8932,-6.78,7.92,-0.03,31.05
12151,0.2162,-0.0206,0.8877,-6.85,7.94,0.05,31.05
12161,0.2161,-0.0149,0.8835,-6.84,7.89,-0.05,31.04
12171,0.2162,-0.0161,0.884,-6.84,7.97,-0.09,31.04
12181,0.2125,-0.0214,0.8928,-6.72,8.14,0.0,31.07
12191,0.2104,-0.0144,0.875,-6.9,7.97,-0.05,31.04
12201,0.2225,-0.0223,0.8845,-6.67,7.88,0.02,31.05
12211,0.2145,-0.0148,0.8889,-6.87,8.09,0.05,31.03
12221,0.1943,-0.017,0.8756,-6.72,7.88,-0.06,31.06
12231,0.2162,-0.0142,0.9084,-6.9,7.56,-0.05,31.04
12241,0.2134,-0.019,0.9036,-6.76,8.46,0.02,31.04
12251,0.2076,-0.0217,0.868,-7.02,8.29,-0.05,31.06
12261,0.2157,-0.0177,0.8783,-6.64,7.3,-0.06,31.07
12271,0.2229,-0.0166,0.9106,-6.78,7.88,-0.02,31.06
12281,0.2142,-0.0073,0.8976,-6.89,8.44,-0.11,31.04
12291,0.2039,-0.0162,0.8712,-6.72,7.95,-0.09,31.07
12301,0.2146,-0.0171,0.8862,-6.73,7.57,-0.05,31.06
12311,0.2256,-0.0117,0.9076,-6.79,7.98,-0.02,31.04
12321,0.2108,-0.0172,0.8888,-6.73,8.44,-0.11,31.02
12331,0.2107,-0.0237,0.8738,-6.89,7.79,-0.02,31.06
12341,0.218,-0.0186,0.899,-6.87,7.91,-0.05,31.04
12351,0.2113,-0.0175,0.8967,-6.9,8.17,-0.02,31.08
12361,0.2032,-0.0225,0.8793,-6.89,8.05,-0.05,31.04
12371,0.21,-0.0227,0.8931,-6.81,7.83,-0.02,31.07
12381,0.2137,-0.012,0.8929,-6.89,8.0,-0.08,31.06
12391,0.2056,-0.0189,0.8896,-6.82,8.23,-0.09,31.02
12401,0.2084,-0.0221,0.8821,-6.85,7.97,-0.05,31.07
12411,0.2128,-0.0181,0.8888,-6.79,7.86,-0.09,31.04
12421,0.2108,-0.0201,0.8899,-6.81,7.94,-0.06,31.04
12431,0.2155,-0.0204,0.8872,-6.84,8.06,-0.02,31.03
12441,0.2155,-0.019,0.8872,-6.84,7.94,0.0,31.05
12451,0.2092,-0.0244,0.8954,-6.81,7.91,0.0,31.07
12461,0.2249,-0.012,0.8823,-6.73,7.83,0.0,31.04
12471,0.2114,-0.02,0.8916,-6.78,8.06,0.03,31.04
12481,0.2202,-0.025,0.8766,-6.84,7.74,-0.06,31.07
12491,0.2194,-0.0149,0.8832,-6.79,7.82,-0.03,31.05
12501,0.213,-0.0142,0.8879,-6.93,7.95,0.03,31.06
12511,0.2111,-0.0198,0.8866,-6.84,7.95,-0.02,31.04
12521,0.2108,-0.0175,0.895,-6.9,8.05,0.02,31.06
12531,0.2136,-0.0135,0.8929,-6.81,8.09,-0.03,31.05
12541,0.2085,-0.0193,0.892,-6.79,8.0,-0.09,31.07
12551,0.2177,-0.0212,0.8934,-6.85,7.95,-0.05,31.06
12561,0.218,-0.0171,0.8928,-6.79,7.94,0.03,31.04
12571,0.213,-0.0188,0.8894,-6.79,7.95,-0.09,31.03
12581,0.2115,-0.0215,0.8856,-6.82,8.02,-0.05,31.07
12591,0.2119,-0.0155,0.8905,-6.84,8.09,0.0,31.06
12601,0.2103,-0.0225,0.8861,-6.73,8.06,-0.09,31.05
12611,0.208,-0.0187,0.8834,-6.81,7.94,-0.11,31.05
12621,0.2062,-0.0203,0.8864,-6.87,8.05,-0.06,31.06
12631,0.2031,-0.0156,0.8893,-6.84,8.11,0.0,31.05
12641,0.2023,-0.0177,0.8967,-6.82,8.09,0.0,31.06
12651,0.2048,-0.0164,0.8959,-6.85,8.14,-0.02,31.05
12661,0.2094,-0.0192,0.8928,-6.85,8.08,0.03,31.06
12671,0.2145,-0.0143,0.889,-6.89,7.91,-0.12,31.06
12681,0.218,-0.0212,0.8883,-6.7,7.85,-0.05,31.08
12691,0.2119,-0.0231,0.8926,-7.02,7.79,0.02,31.05
12701,0.2134,-0.0229,0.8832,-6.81,7.98,-0.08,31.05
12711,0.2128,-0.0199,0.8855,-6.78,7.88,-0.09,31.07
12721,0.2158,-0.0192,0.882,-6.9,8.0,-0.03,31.07
12731,0.2139,-0.0189,0.8898,-6.84,8.02,-0.03,31.06
12741,0.2111,-0.0171,0.8867,-6.9,8.03,-0.02,31.05
12751,0.2141,-0.0193,0.8905,-6.75,7.97,0.02,31.05
12761,0.2103,-0.019,0.896,-6.78,7.98,-0.02,31.07
12771,0.2147,-0.0166,0.8888,-6.84,7.97,-0.05,31.05
12781,0.2092,-0.0203,0.8917,-6.79,8.0,0.02,31.09
12791,0.2087,-0.0182,0.8867,-6.81,7.88,-0.09,31.09
12801,0.2097,-0.0197,0.8867,-6.76,7.95,-0.03,31.07
12811,0.2117,-0.0198,0.8834,-6.82,7.97,-0.06,31.07
12821,0.2107,-0.0221,0.8837,-6.87,7.94,-0.11,31.09
12831,0.2118,-0.0211,0.8816,-6.84,7.98,-0.11,31.06
12841,0.2139,-0.0182,0.8878,-6.84,7.94,-0.06,31.08
12851,0.2118,-0.0164,0.885,-6.85,7.98,-0.09,31.07
12861,0.2136,-0.014,0.8937,-6.72,8.08,-0.08,31.06
12871,0.2136,-0.0173,0.8939,-6.82,7.91,-0.05,31.05
12881,0.2146,-0.019,0.8982,-6.84,8.03,-0.03,31.09
12891,0.215,-0.021,0.8982,-6.81,7.97,-0.08,31.08
12901,0.2168,-0.02,0.8945,-6.85,7.97,0.02,31.06
12911,0.2155,-0.0178,0.8964,-6.82,7.97,-0.02,31.06
12921,0.2095,-0.0179,0.8947,-6.85,8.11,-0.06,31.07
12931,0.2144,-0.0225,0.8848,-6.87,8.0,-0.05,31.07
12941,0.2087,-0.0179,0.8865,-6.87,8.05,-0.06,31.06
12951,0.2081,-0.0198,0.8831,-6.72,8.12,-0.06,31.05
12961,0.2068,-0.0178,0.8844,-6.87,7.98,-0.05,31.09
12971,0.2058,-0.0182,0.8821,-6.82,7.95,0.05,31.05
12981,0.207,-0.016,0.8856,-6.87,7.95,-0.05,31.06
12991,0.2106,-0.0173,0.8833,-6.82,7.95,-0.03,31.08
13001,0.2124,-0.0157,0.8953,-6.81,7.92,0.03,31.06
13011,0.2164,-0.0156,0.8937,-6.81,8.03,-0.06,31.07
13021,0.2153,-0.0181,0.8976,-6.85,7.94,-0.05,31.07
13031,0.2145,-0.0181,0.8906,-6.78,7.95,-0.09,31.08
13041,0.2178,-0.0211,0.8906,-6.84,7.89,-0.08,31.09
13051,0.2157,-0.0217,0.8993,-6.9,8.03,-0.06,31.08
13061,0.2129,-0.0199,0.8868,-6.82,7.98,-0.05,31.1
13071,0.2151,-0.022,0.8951,-6.78,8.0,-0.09,31.07
13081,0.2161,-0.0159,0.8912,-6.92,7.95,-0.12,31.07
13091,0.212,-0.019,0.8845,-6.69,8.09,-0.02,31.08
13101,0.2104,-0.0186,0.8861,-6.85,7.92,-0.09,31.07
13111,0.2126,-0.0184,0.8894,-6.84,8.06,-0.09,31.07
13121,0.2072,-0.0173,0.8893,-6.82,7.94,-0.05,31.08
13131,0.2047,-0.0167,0.8933,-6.81,8.05,-0.09,31.1
13141,0.2089,-0.0258,0.8962,-6.82,8.05,0.0,31.07
13151,0.2087,-0.0225,0.8999,-7.04,7.85,-0.03,31.06
13161,0.2159,-0.0206,0.8864,-6.89,7.83,-0.03,31.07
13171,0.2214,-0.0133,0.8995,-6.82,7.94,-0.09,31.04
13181,0.2209,-0.0172,0.8895,-6.79,7.97,-0.02,31.08
13191,0.2133,-0.0198,0.8865,-6.9,8.06,-0.05,31.08
13201,0.2169,-0.0183,0.8822,-6.89,8.05,-0.06,31.08
13211,0.2137,-0.0225,0.8844,-6.87,8.14,-0.09,31.07
13221,0.2102,-0.0269,0.8842,-6.89,8.05,-0.06,31.07
13231,0.2067,-0.0215,0.881,-6.79,8.0,-0.12,31.1
13241,0.2064,-0.0216,0.8887,-6.78,7.97,-0.06,31.07
13251,0.2014,-0.0182,0.8971,-6.87,7.97,-0.06,31.09
13261,0.2068,-0.0116,0.8936,-6.85,8.05,0.0,31.1
13271,0.2101,-0.0175,0.8857,-6.79,8.0,-0.02,31.09
13281,0.2123,-0.0187,0.8942,-6.84,7.91,-0.08,31.08
13291,0.2162,-0.0209,0.89,-6.84,8.03,-0.05,31.06
13301,0.2151,-0.0222,0.8873,-6.85,8.0,-0.03,31.09
13311,0.2157,-0.0233,0.8856,-6.85,8.0,-0.06,31.07
13321,0.2162,-0.0197,0.8926,-6.78,8.0,0.02,31.07
13331,0.2168,-0.0176,0.8915,-7.01,8.0,-0.12,31.07
13341,0.2141,-0.0208,0.8828,-6.82,8.05,-0.11,31.1
13351,0.2108,-0.0199,0.8849,-6.81,7.95,-0.09,31.07
13361,0.2109,-0.021,0.8851,-6.87,8.0,0.0,31.09
13371,0.2084,-0.0226,0.8882,-6.85,8.05,0.03,31.07
13381,0.2136,-0.0161,0.8843,-6.79,8.03,-0.02,31.08
13391,0.2111,-0.0135,0.8865,-6.73,8.0,-0.05,31.1
13401,0.2094,-0.0116,0.8904,-6.85,7.94,-0.05,31.09
13411,0.2091,-0.0133,0.8895,-6.89,8.03,-0.03,31.1
13421,0.2094,-0.0157,0.8901,-6.82,7.97,0.0,31.1
13431,0.2129,-0.0193,0.8954,-6.84,8.0,-0.11,31.09
13441,0.2136,-0.0225,0.8922,-6.84,7.95,-0.05,31.07
13451,0.2158,-0.0197,0.8883,-6.82,8.0,-0.11,31.06
13461,0.2183,-0.0247,0.891,-6.78,8.0,-0.02,31.08
13471,0.2167,-0.0219,0.8928,-6.81,8.03,-0.02,31.09
13481,0.215,-0.0211,0.8929,-6.76,8.08,0.05,31.07
13491,0.2134,-0.02,0.8867,-6.9,7.97,0.0,31.09
13501,0.2125,-0.0182,0.8912,-6.82,8.03,0.02,31.12
13511,0.2125,-0.019,0.8865,-6.82,8.02,-0.09,31.1
13521,0.2129,-0.0206,0.8868,-6.76,7.98,-0.03,31.08
13531,0.2086,-0.0208,0.8866,-6.84,8.02,0.03,31.09
13541,0.2095,-0.0176,0.8839,-6.78,8.0,-0.08,31.09
13551,0.2074,-0.0189,0.8885,-6.78,8.03,-0.05,31.11
13561,0.2073,-0.0183,0.887,-6.85,7.98,-0.09,31.07
13571,0.2097,-0.0188,0.8876,-6.87,8.03,-0.02,31.08
13581,0.2114,-0.0181,0.8882,-6.87,7.97,-0.08,31.09
13591,0.2137,-0.0184,0.8905,-6.89,7.97,-0.02,31.08
13601,0.2115,-0.0175,0.8903,-6.84,7.98,-0.05,31.07
13611,0.2114,-0.021,0.8901,-6.78,7.97,-0.12,31.08
13621,0.2148,-0.0154,0.8942,-6.84,7.97,-0.05,31.1
13631,0.2177,-0.0189,0.8893,-6.73,7.95,-0.03,31.08
13641,0.2145,-0.0194,0.8892,-6.9,8.0,-0.05,31.08
13651,0.2131,-0.0209,0.8899,-6.87,8.14,-0.06,31.08
13661,0.2159,-0.0181,0.8887,-6.89,8.0,-0.05,31.08
13671,0.2123,-0.0188,0.8846,-6.84,8.02,-0.05,31.08
13681,0.2102,-0.0209,0.891,-6.85,8.03,-0.06,31.07
13691,0.2152,-0.019,0.8834,-6.9,7.98,-0.03,31.08
13701,0.2103,-0.0189,0.8888,-6.76,8.0,-0.05,31.09
13711,0.2102,-0.0197,0.8853,-6.82,7.95,-0.14,31.09
13721,0.2101,-0.0186,0.8917,-6.79,8.08,0.02,31.08
13731,0.2096,-0.0184,0.8898,-6.82,8.0,-0.08,31.07
13741,0.2111,-0.0183,0.8911,-6.89,7.97,-0.11,31.07
13751,0.2108,-0.0176,0.8914,-6.89,7.95,-0.06,31.09
13761,0.2135,-0.0154,0.891,-6.82,7.97,-0.05,31.08
13771,0.2159,-0.0182,0.8878,-6.76,7.94,-0.09,31.07
13781,0.2147,-0.0225,0.8887,-6.84,7.97,-0.12,31.1
13791,0.2159,-0.0188,0.89,-6.82,7.97,-0.06,31.08
13801,0.2117,-0.0183,0.8905,-6.87,8.0,-0.02,31.08
13811,0.2131,-0.0208,0.8904,-6.84,8.02,-0.03,31.08
13821,0.2119,-0.0184,0.8879,-6.76,8.05,-0.02,31.06
13831,0.2101,-0.0161,0.8876,-6.79,8.08,-0.08,31.07
13841,0.2102,-0.0193,0.8889,-6.81,8.03,-0.02,31.1
13851,0.2114,-0.0183,0.8898,-6.87,7.97,0.02,31.13
13861,0.2087,-0.0164,0.8907,-6.81,8.0,-0.09,31.09
13871,0.214,-0.0175,0.8889,-6.87,7.94,-0.06,31.11
13881,0.2113,-0.0182,0.8921,-6.81,7.92,-0.02,31.11
13891,0.2151,-0.0167,0.8901,-6.84,7.97,0.0,31.09
13901,0.2122,-0.0205,0.8872,-6.79,7.95,-0.05,31.09
13911,0.2139,-0.0171,0.8887,-6.87,7.97,-0.11,31.07
13921,0.2119,-0.0168,0.886,-6.87,8.02,-0.03,31.08
13931,0.2153,-0.0201,0.8904,-6.92,8.09,-0.05,31.1
13941,0.2172,-0.0214,0.8907,-6.85,7.95,-0.06,31.1
13951,0.2119,-0.0173,0.8909,-6.76,8.02,0.03,31.07
13961,0.2103,-0.0203,0.8914,-6.78,7.97,-0.15,31.1
13971,0.2097,-0.0168,0.8903,-6.81,7.98,-0.03,31.1
13982,0.2122,-0.0172,0.8923,-6.82,8.02,-0.09,31.08
13992,0.2118,-0.0189,0.89,-6.87,8.0,-0.05,31.05
14002,0.2134,-0.0159,0.8887,-6.84,7.85,-0.09,31.07
14012,0.2104,-0.0138,0.8815,-6.87,7.8,-0.06,31.09
14022,0.2029,-0.0157,0.8873,-7.05,8.05,-0.11,31.1
14032,0.2076,-0.0215,0.8837,-6.87,8.03,-0.02,31.07
14042,0.2153,-0.0233,0.886,-6.84,7.91,-0.03,31.09
14052,0.2183,-0.0233,0.885,-6.72,8.05,-0.09,31.1
14062,0.2145,-0.0203,0.8854,-6.81,7.79,-0.03,31.1
14072,0.2162,-0.0162,0.8916,-6.92,7.82,-0.02,31.1
14082,0.2159,-0.0178,0.8958,-6.85,8.03,0.02,31.1
14092,0.209,-0.0156,0.8921,-6.81,8.0,-0.03,31.09
14102,0.2106,-0.0104,0.8929,-6.78,8.06,-0.05,31.09
14112,0.2129,-0.0146,0.8937,-6.79,7.92,-0.02,31.08
14122,0.2072,-0.0179,0.8916,-6.82,8.0,0.0,31.12
14132,0.2097,-0.0197,0.8872,-6.82,8.02,-0.05,31.1
14142,0.2096,-0.0198,0.8885,-6.81,8.09,0.05,31.1
14152,0.2156,-0.0208,0.8861,-6.9,7.97,-0.11,31.09
14162,0.2131,-0.0195,0.8881,-6.76,7.97,-0.06,31.11
14172,0.2113,-0.0192,0.884,-6.9,8.05,-0.02,31.08
14182,0.2126,-0.0197,0.8857,-6.92,8.02,-0.06,31.08
14192,0.2136,-0.0192,0.894,-6.89,8.02,-0.08,31.11
14202,0.214,-0.0208,0.89,-6.79,8.02,-0.02,31.1
14212,0.2135,-0.022,0.8934,-6.85,7.92,-0.03,31.12
14222,0.2107,-0.0179,0.8921,-6.79,7.97,-0.12,31.08
14232,0.2106,-0.0155,0.8953,-6.78,7.94,0.08,31.09
14242,0.2122,-0.014,0.8916,-6.85,7.94,0.0,31.1
14252,0.2119,-0.0144,0.8911,-6.76,7.89,0.0,31.08
14262,0.2122,-0.0179,0.889,-6.84,7.98,-0.05,31.08
14272,0.215,-0.017,0.8883,-6.84,7.95,0.05,31.1
14282,0.2125,-0.0171,0.8848,-6.81,8.02,-0.05,31.08
14293,0.2161,-0.0161,0.8851,-6.82,8.02,-0.02,31.14
14303,0.208,-0.0209,0.8843,-6.85,8.02,0.0,31.1
14313,0.21,-0.0187,0.8881,-6.85,8.0,-0.05,31.1
14323,0.2094,-0.0215,0.8882,-6.79,8.0,-0.06,31.1
14333,0.2107,-0.0186,0.8888,-6.72,8.03,0.0,31.1
14343,0.2122,-0.0201,0.8932,-6.84,7.97,0.02,31.09
14353,0.2089,-0.0188,0.8915,-6.79,7.98,-0.05,31.09
14363,0.2118,-0.0212,0.8905,-6.84,8.02,-0.06,31.1
14373,0.213,-0.016,0.8904,-6.76,7.92,-0.08,31.06
14383,0.2125,-0.019,0.8904,-6.82,7.95,-0.11,31.1
14393,0.2125,-0.0172,0.8904,-6.82,7.97,-0.02,31.11
14403,0.2136,-0.0183,0.8915,-6.82,7.98,-0.09,31.1
14413,0.2109,-0.0164,0.8862,-6.87,8.03,0.03,31.09
14423,0.2125,-0.0178,0.8848,-6.79,8.03,-0.02,31.12
14433,0.2122,-0.0186,0.8854,-6.89,8.03,-0.05,31.11
14443,0.2122,-0.0181,0.8882,-6.76,8.02,-0.06,31.11
14453,0.2112,-0.0178,0.8894,-6.9,8.0,-0.08,31.11
14463,0.213,-0.02,0.89,-6.78,7.94,-0.02,31.09
14473,0.2103,-0.0186,0.891,-6.9,7.97,-0.02,31.09
14483,0.2131,-0.0198,0.8882,-6.78,7.97,-0.05,31.1
14493,0.2107,-0.0172,0.8903,-6.82,7.98,0.02,31.09
14503,0.2125,-0.0217,0.8871,-6.81,7.95,-0.06,31.12
14513,0.2131,-0.0186,0.8859,-6.73,8.0,-0.03,31.08
14523,0.2131,-0.017,0.8883,-6.79,7.97,-0.05,31.1
14533,0.2147,-0.0193,0.8889,-6.85,7.95,-0.11,31.12
14543,0.2166,-0.0177,0.8884,-6.89,8.0,-0.05,31.12
14553,0.2142,-0.0198,0.8887,-6.89,7.98,0.0,31.09
14563,0.2109,-0.02,0.8896,-6.78,8.06,-0.09,31.08
14573,0.2103,-0.0214,0.8927,-6.84,7.98,-0.11,31.09
14583,0.2085,-0.0171,0.8906,-6.75,7.95,0.0,31.07
14593,0.2103,-0.0188,0.8893,-6.85,8.0,-0.02,31.11
14603,0.2118,-0.0165,0.8889,-6.79,7.94,-0.03,31.09
14613,0.2108,-0.0178,0.8871,-6.78,7.97,-0.09,31.12
14623,0.2122,-0.0159,0.8899,-6.81,8.0,-0.02,31.12
14633,0.2128,-0.0154,0.8881,-6.84,7.98,-0.03,31.11
14643,0.2111,-0.0145,0.892,-6.78,8.03,-0.08,31.09
14653,0.2139,-0.017,0.8934,-6.82,7.97,0.03,31.12
14663,0.2147,-0.0172,0.8921,-6.84,8.0,-0.02,31.13
14673,0.2167,-0.0184,0.8856,-6.89,8.02,-0.06,31.11
14683,0.2107,-0.0212,0.8895,-6.85,8.0,-0.09,31.11
14693,0.2125,-0.021,0.8878,-6.87,8.03,-0.09,31.12
14703,0.2107,-0.0182,0.8892,-6.84,7.91,-0.03,31.11
14713,0.2128,-0.0193,0.8883,-6.73,7.98,-0.09,31.11
14723,0.2101,-0.0189,0.885,-6.82,7.94,-0.03,31.11
14733,0.2135,-0.0194,0.8895,-6.76,7.98,-0.06,31.12
14743,0.2119,-0.016,0.8937,-6.85,7.94,-0.02,31.09
14753,0.2122,-0.0168,0.8875,-6.69,7.95,0.02,31.11
14763,0.2133,-0.0181,0.887,-6.78,7.95,-0.02,31.11
14773,0.2157,-0.0166,0.8894,-6.82,7.94,-0.08,31.1
14783,0.2131,-0.0182,0.8856,-6.89,7.98,-0.09,31.12
14793,0.2119,-0.0179,0.8846,-6.81,8.08,-0.05,31.14
14803,0.2123,-0.0145,0.8895,-6.79,7.97,-0.02,31.1
14813,0.2123,-0.0189,0.8888,-6.84,8.05,-0.05,31.11
14823,0.2102,-0.0186,0.8906,-6.84,7.95,-0.08,31.12
14833,0.2109,-0.0226,0.8855,-6.79,8.03,-0.05,31.11
14843,0.2097,-0.022,0.8921,-6.85,7.98,0.02,31.1
14853,0.2111,-0.0188,0.8956,-6.89,8.02,0.0,31.09
14863,0.2129,-0.0155,0.8948,-6.87,8.02,-0.09,31.15
14873,0.2108,-0.0189,0.8914,-6.81,8.02,-0.02,31.11
14883,0.2144,-0.0198,0.8926,-6.82,7.97,-0.02,31.1
14893,0.2123,-0.0168,0.8894,-6.85,7.92,-0.02,31.09
14903,0.2135,-0.0144,0.892,-6.85,8.02,-0.09,31.11
14913,0.2122,-0.016,0.8877,-6.81,7.98,0.0,31.12
14923,0.2146,-0.0189,0.8856,-6.89,7.94,-0.05,31.12
14933,0.2128,-0.0184,0.8887,-6.89,7.95,-0.09,31.13
14943,0.2144,-0.0186,0.8882,-6.82,7.95,-0.06,31.12
14953,0.21,-0.0195,0.8906,-6.84,7.98,-0.06,31.16
14963,0.21,-0.0203,0.8893,-6.82,8.0,0.0,31.11
14973,0.21,-0.0156,0.8887,-6.82,7.89,-0.02,31.12
14983,0.2104,-0.0166,0.8884,-6.81,7.95,-0.05,31.11
14993,0.2125,-0.0187,0.8939,-6.85,7.97,-0.05,31.13
15003,0.2111,-0.0186,0.8888,-6.84,8.03,0.02,31.12
15013,0.2119,-0.0182,0.8972,-6.84,8.02,0.03,31.1
15023,0.2124,-0.0183,0.892,-6.89,8.05,0.02,31.11
15033,0.2134,-0.0211,0.8871,-6.85,8.02,-0.08,31.11
15043,0.2125,-0.0199,0.8878,-6.85,8.03,-0.03,31.11
15053,0.2129,-0.0188,0.8932,-6.84,7.97,-0.03,31.12
15063,0.212,-0.02,0.892,-6.84,7.91,0.02,31.09
15073,0.2114,-0.019,0.8866,-6.82,7.98,0.02,31.12
15083,0.2115,-0.019,0.8883,-6.87,8.02,-0.05,31.1
15093,0.2092,-0.0165,0.8871,-6.82,7.91,-0.11,31.12
15103,0.213,-0.0159,0.8871,-6.87,8.0,-0.09,31.12
15113,0.2112,-0.0192,0.8885,-6.87,7.98,-0.05,31.11
15123,0.2096,-0.0171,0.8854,-6.76,8.0,-0.11,31.14
15133,0.2144,-0.0181,0.8885,-6.78,7.95,-0.12,31.12
15143,0.2133,-0.019,0.8888,-6.79,8.0,-0.12,31.12
15153,0.2139,-0.0201,0.8893,-6.82,7.95,-0.06,31.14
15163,0.2111,-0.0192,0.8899,-6.82,7.98,-0.08,31.12
15173,0.2119,-0.0177,0.8901,-6.84,8.0,0.0,31.11
15183,0.2119,-0.0214,0.8883,-6.87,8.02,-0.02,31.12
15193,0.2115,-0.0189,0.8877,-6.78,7.97,-0.03,31.11
15203,0.2131,-0.0205,0.8895,-6.82,7.95,-0.08,31.13
15213,0.2109,-0.0201,0.8894,-6.82,7.98,-0.06,31.09
15223,0.2112,-0.0167,0.8921,-6.78,8.03,-0.09,31.09
15233,0.2142,-0.0186,0.8873,-6.89,7.95,-0.03,31.1
15243,0.2097,-0.0178,0.8911,-6.81,8.05,-0.08,31.12
15253,0.2147,-0.0164,0.8888,-6.9,8.02,0.08,31.12
15263,0.2102,-0.0146,0.8895,-6.81,7.89,-0.02,31.12
15273,0.2112,-0.0189,0.8882,-6.84,7.95,0.03,31.12
15283,0.2128,-0.0173,0.8903,-6.76,7.97,-0.02,31.12
15293,0.2114,-0.0172,0.8914,-6.78,8.0,-0.05,31.1
15303,0.2141,-0.0188,0.8917,-6.85,8.02,-0.03,31.1
15313,0.2106,-0.0208,0.8871,-6.82,7.95,-0.08,31.12
15323,0.2133,-0.0204,0.8883,-6.81,7.98,-0.12,31.11
15333,0.2114,-0.0165,0.8915,-6.87,8.03,-0.14,31.1
15343,0.2144,-0.017,0.8884,-6.89,8.02,-0.03,31.11
15353,0.212,-0.0181,0.8907,-6.85,8.05,0.05,31.12
15363,0.2135,-0.0198,0.8895,-6.79,8.02,-0.09,31.1
15373,0.2129,-0.0198,0.8914,-6.78,7.97,0.05,31.11
15383,0.2117,-0.0164,0.8877,-6.84,8.05,-0.05,31.1
15393,0.2144,-0.016,0.8887,-6.78,8.03,-0.06,31.11
15403,0.2106,-0.0176,0.8907,-6.84,8.0,0.0,31.11
15413,0.2095,-0.017,0.8856,-6.9,7.88,-0.14,31.12
15423,0.2137,-0.0157,0.8877,-6.82,7.95,-0.05,31.11
15433,0.213,-0.0186,0.8921,-6.89,8.03,-0.06,31.11
15443,0.2133,-0.0164,0.8896,-6.79,8.03,-0.03,31.12
15453,0.2137,-0.0178,0.8861,-6.79,7.95,-0.02,31.1
15463,0.2113,-0.0197,0.8912,-6.87,8.0,-0.05,31.11
15473,0.2111,-0.0205,0.8889,-6.9,8.02,-0.02,31.1
15483,0.213,-0.021,0.8931,-6.87,7.97,-0.08,31.12
15493,0.2118,-0.0219,0.8934,-6.82,8.02,-0.02,31.12
15503,0.2122,-0.0195,0.8844,-6.87,7.97,-0.11,31.09
15513,0.2133,-0.0192,0.8911,-6.78,8.03,-0.08,31.11
15523,0.2129,-0.0181,0.8934,-6.82,7.92,-0.02,31.11
15533,0.2128,-0.016,0.8873,-6.79,8.0,-0.08,31.13
15543,0.2131,-0.0184,0.8905,-6.76,8.06,-0.05,31.13
15553,0.212,-0.0203,0.8873,-6.78,8.05,-0.11,31.11
15563,0.2081,-0.0181,0.8927,-6.9,8.0,-0.06,31.11
15573,0.2173,-0.0222,0.8807,-6.82,7.95,-0.03,31.14
15583,0.2156,-0.017,0.8837,-6.82,7.76,-0.03,31.13
15593,0.217,-0.0173,0.8882,-6.72,7.95,-0.03,31.11
15603,0.2183,-0.0234,0.8928,-6.85,7.89,-0.02,31.12
15613,0.2189,-0.019,0.8866,-6.85,7.94,0.05,31.12
15623,0.2136,-0.0125,0.8889,-6.78,8.0,-0.03,31.14
15633,0.2167,-0.0179,0.8903,-6.82,7.94,-0.08,31.12
15643,0.2155,-0.0182,0.8934,-6.89,8.0,0.02,31.1
15653,0.2137,-0.0215,0.8867,-6.84,8.05,-0.03,31.13
15663,0.2135,-0.0171,0.889,-6.78,7.97,0.0,31.14
15673,0.2115,-0.0214,0.8876,-6.81,8.06,-0.08,31.12
15683,0.2101,-0.0187,0.8849,-6.81,8.02,-0.14,31.13
15693,0.2104,-0.0203,0.887,-6.85,7.95,-0.06,31.13
15703,0.2107,-0.0179,0.8882,-6.87,8.0,-0.05,31.14
15713,0.2135,-0.0187,0.8866,-6.84,7.98,0.0,31.13
15723,0.2125,-0.0162,0.8879,-6.69,7.92,-0.05,31.14
15733,0.2145,-0.0164,0.8938,-6.89,7.94,-0.05,31.14
15743,0.2131,-0.0167,0.886,-6.82,7.98,0.0,31.09
15753,0.2169,-0.021,0.8894,-6.76,7.94,0.0,31.14
15763,0.2141,-0.019,0.8872,-6.79,8.03,-0.12,31.13
15773,0.2112,-0.02,0.8896,-6.85,8.05,-0.03,31.12
15783,0.2096,-0.022,0.8877,-6.81,7.98,-0.09,31.14
15793,0.2114,-0.0205,0.8929,-6.82,7.97,-0.05,31.13
15803,0.2122,-0.0186,0.8904,-6.82,7.97,-0.03,31.12
15813,0.2101,-0.0205,0.8932,-6.84,8.02,-0.06,31.13
15823,0.2115,-0.0182,0.8903,-6.87,7.97,-0.03,31.16
15833,0.2134,-0.0138,0.8896,-6.79,8.05,-0.02,31.14
15843,0.209,-0.0273,0.8901,-6.96,7.89,-0.03,31.13
15853,0.1935,-0.0144,0.9022,-6.9,8.46,-0.17,31.13
15863,0.2255,0.0157,0.8604,-6.89,7.68,-0.06,31.14
15873,0.1989,-0.0029,0.8729,-6.58,8.2,-0.06,31.14
15883,0.2106,-0.0273,0.8925,-6.9,7.56,-0.05,31.13
15893,0.2197,-0.0133,0.8959,-6.9,7.98,-0.03,31.15
15903,0.2097,-0.0192,0.8979,-6.76,8.31,-0.06,31.15
15913,0.2106,-0.0258,0.8871,-6.9,7.88,0.05,31.14
15924,0.2151,-0.0201,0.8973,-6.7,7.91,0.05,31.14
15934,0.2186,-0.0181,0.8943,-6.78,7.97,-0.08,31.11
15944,0.2125,-0.0221,0.8889,-6.82,8.14,0.02,31.16
15954,0.2126,-0.0287,0.8813,-6.81,7.89,-0.09,31.14
15964,0.2108,-0.0226,0.8894,-6.7,7.83,-0.03,31.15
15974,0.2106,-0.0072,0.8983,-7.11,8.18,0.06,31.16
15984,0.192,-0.02,0.9014,-6.67,8.69,-0.03,31.15
15994,0.21,-0.0149,0.8733,-6.95,7.62,-0.03,31.14
16004,0.2123,-0.0018,0.9086,-6.81,8.03,-0.08,31.16
16014,0.2102,-0.0256,0.8877,-6.96,8.24,0.05,31.14
16024,0.2058,-0.0288,0.8636,-6.9,7.91,-0.09,31.13
16034,0.2117,-0.0195,0.8878,-6.79,7.59,0.0,31.13
16044,0.2158,-0.0145,0.9044,-6.78,8.09,-0.08,31.16
16054,0.2131,-0.0225,0.8885,-6.81,8.2,-0.06,31.14
16064,0.2134,-0.0157,0.8856,-6.87,7.79,-0.05,31.12
16074,0.2141,-0.0126,0.9017,-6.72,7.94,-0.15,31.14
16084,0.2163,-0.0164,0.8999,-6.84,8.17,-0.05,31.13
16094,0.2125,-0.0175,0.8882,-6.89,8.06,-0.05,31.13
16104,0.2098,-0.0221,0.8845,-6.79,7.88,-0.05,31.13
16114,0.2124,-0.0139,0.889,-6.84,8.02,-0.14,31.13
16124,0.2096,-0.0114,0.886,-6.95,8.05,-0.05,31.14
16134,0.2108,-0.014,0.8806,-6.89,8.02,-0.05,31.13
16144,0.2115,-0.0148,0.8839,-6.82,7.89,-0.08,31.15
16154,0.2131,-0.0177,0.8893,-6.87,7.95,-0.08,31.13
16164,0.2101,-0.0247,0.8904,-6.93,7.95,-0.05,31.13
16174,0.2098,-0.0283,0.8893,-6.87,7.95,-0.09,31.14
16184,0.2147,-0.0227,0.8896,-6.85,7.94,-0.03,31.12
16194,0.2141,-0.0203,0.896,-6.79,8.06,-0.05,31.13
16204,0.2135,-0.0189,0.8917,-6.89,8.09,-0.11,31.13
16214,0.2175,-0.0181,0.8918,-6.82,7.97,-0.05,31.14
16224,0.2136,-0.0151,0.8894,-6.82,7.95,-0.02,31.14
16234,0.2131,-0.0183,0.8901,-6.84,8.03,-0.03,31.14
16244,0.2094,-0.02,0.8868,-6.84,8.0,-0.17,31.13
16254,0.2109,-0.0162,0.8873,-6.79,7.95,-0.08,31.12
16264,0.2118,-0.0142,0.889,-6.82,7.97,-0.03,31.13
16274,0.2117,-0.0167,0.8898,-6.85,8.03,-0.05,31.14
16284,0.2111,-0.0181,0.8871,-6.93,7.95,-0.06,31.15
16294,0.2146,-0.0165,0.8912,-6.84,7.97,-0.08,31.12
16304,0.2128,-0.0181,0.8931,-6.85,8.0,-0.05,31.14
16314,0.212,-0.0197,0.8923,-6.85,7.94,-0.08,31.14
16324,0.2139,-0.0198,0.8926,-6.84,8.0,-0.06,31.13
16334,0.2137,-0.0172,0.8911,-6.89,7.98,-0.02,31.15
16344,0.2106,-0.0217,0.8922,-6.87,8.03,-0.05,31.14
16354,0.2147,-0.0192,0.8915,-6.79,8.03,-0.03,31.16
16364,0.2148,-0.0187,0.8895,-6.79,7.98,-0.06,31.12
16374,0.2109,-0.0193,0.8885,-6.82,8.0,-0.02,31.14
16384,0.212,-0.0216,0.8892,-6.76,8.02,-0.06,31.13
16394,0.2131,-0.017,0.8909,-6.81,8.02,-0.02,31.16
16404,0.2081,-0.0188,0.8879,-6.82,8.0,0.02,31.15
16414,0.2107,-0.0179,0.8872,-6.82,7.94,-0.03,31.14
16424,0.2101,-0.0198,0.8918,-6.81,7.86,-0.06,31.15
16434,0.2104,-0.0171,0.8887,-6.81,7.92,-0.09,31.17
16444,0.2122,-0.0166,0.8933,-6.9,8.0,-0.02,31.18
16454,0.2106,-0.016,0.8838,-6.9,8.0,-0.06,31.14
16464,0.2125,-0.0159,0.8835,-6.92,7.98,0.0,31.14
16474,0.2086,-0.0177,0.8892,-6.82,7.95,0.11,31.13
16484,0.2118,-0.0183,0.8898,-6.79,7.97,-0.05,31.14
16494,0.2131,-0.0177,0.8926,-6.85,8.0,-0.03,31.13
16504,0.2124,-0.0221,0.8922,-6.84,7.88,-0.05,31.15
16514,0.2142,-0.0199,0.8892,-6.78,8.02,-0.06,31.15
16524,0.2169,-0.0205,0.8882,-6.89,8.0,-0.06,31.15
16534,0.21,-0.0199,0.891,-6.89,7.98,-0.09,31.12
16544,0.2102,-0.0234,0.8951,-6.9,7.94,-0.14,31.15
16554,0.2108,-0.0182,0.89,-6.89,8.0,-0.02,31.13
16564,0.214,-0.0201,0.8922,-6.85,8.03,-0.03,31.15
16574,0.2124,-0.0167,0.8884,-6.9,7.97,0.0,31.17
16585,0.2128,-0.0155,0.8887,-6.82,7.98,0.06,31.15
16595,0.212,-0.0173,0.891,-6.81,8.0,-0.09,31.13
16607,0.2124,-0.0142,0.8905,-6.9,7.95,-0.03,31.16
16617,0.2144,-0.0172,0.8892,-6.84,8.0,-0.05,31.17
16627,0.2098,-0.0181,0.8892,-6.85,7.97,-0.08,31.14
16637,0.2095,-0.019,0.8885,-6.9,7.97,-0.02,31.16
16647,0.2152,-0.021,0.8885,-6.84,8.0,0.03,31.14
16657,0.2152,-0.0184,0.8904,-6.9,8.05,-0.03,31.14
16667,0.2119,-0.0214,0.8922,-6.79,7.95,-0.09,31.16
16677,0.2144,-0.0181,0.891,-6.9,8.02,-0.11,31.15
16687,0.214,-0.0204,0.8868,-6.79,8.0,-0.02,31.18
16697,0.2141,-0.0198,0.8929,-6.87,8.02,-0.09,31.14
16707,0.2125,-0.017,0.8872,-6.85,7.92,-0.11,31.17
16717,0.2115,-0.0165,0.8866,-6.85,7.98,-0.11,31.15
16727,0.212,-0.0181,0.8895,-6.9,7.97,-0.08,31.16
16737,0.2104,-0.0162,0.889,-6.9,7.94,-0.08,31.16
16747,0.2126,-0.016,0.8907,-6.85,7.97,-0.09,31.14
16757,0.2124,-0.0194,0.8873,-6.87,7.94,0.02,31.15
16767,0.213,-0.0197,0.8872,-6.89,7.92,-0.02,31.15
16777,0.213,-0.017,0.8901,-6.84,7.95,-0.03,31.16
16787,0.2123,-0.0177,0.8887,-6.85,7.98,0.0,31.14
16797,0.2134,-0.0188,0.8885,-6.92,8.03,0.02,31.15
16807,0.2124,-0.0201,0.8918,-6.92,8.02,0.03,31.17
16817,0.2112,-0.0188,0.8872,-6.81,7.94,-0.08,31.16
16827,0.2113,-0.02,0.8904,-6.82,8.0,-0.08,31.15
16837,0.2104,-0.0175,0.8915,-6.9,7.94,-0.11,31.16
16847,0.2106,-0.0173,0.8911,-6.79,8.0,-0.03,31.14
16857,0.214,-0.0186,0.8909,-6.79,8.0,-0.05,31.17
16867,0.2142,-0.0177,0.8885,-6.84,7.97,-0.06,31.14
16877,0.213,-0.0176,0.8879,-6.79,8.02,-0.09,31.19
16887,0.2112,-0.0184,0.8895,-6.84,7.98,-0.05,31.16
16897,0.213,-0.0205,0.8889,-6.81,8.03,0.0,31.16
16907,0.2147,-0.0178,0.8916,-6.79,7.98,0.02,31.16
16917,0.2146,-0.0172,0.8893,-6.79,7.92,0.0,31.17
16927,0.2092,-0.0181,0.8917,-6.75,8.0,-0.08,31.15
16937,0.2137,-0.0178,0.8881,-6.84,8.0,-0.05,31.18
16947,0.2111,-0.0179,0.8892,-6.85,8.0,-0.02,31.16
16957,0.2124,-0.0178,0.8893,-6.82,8.0,-0.02,31.16
16967,0.2142,-0.0187,0.8884,-6.84,8.03,-0.08,31.17
16977,0.2136,-0.0193,0.891,-6.82,8.0,-0.09,31.17
16988,0.2126,-0.0175,0.8872,-6.87,8.0,0.03,31.19
16998,0.2139,-0.0201,0.8857,-6.87,8.0,-0.02,31.14
17008,0.2124,-0.0179,0.8868,-6.76,8.02,0.06,31.17
17018,0.2131,-0.022,0.8878,-6.78,7.94,-0.09,31.16
17028,0.2117,-0.0168,0.8923,-6.79,7.97,-0.09,31.16
17038,0.2117,-0.0183,0.894,-6.84,8.0,-0.06,31.14
17048,0.2136,-0.0161,0.8894,-6.81,8.0,-0.06,31.14
17058,0.2112,-0.0176,0.8856,-6.81,7.97,-0.11,31.14
17068,0.2117,-0.0172,0.8922,-6.85,8.05,-0.06,31.15
17078,0.2129,-0.0156,0.8884,-6.84,8.03,-0.09,31.16
17088,0.2123,-0.0178,0.8864,-6.79,8.02,-0.08,31.18
17098,0.2122,-0.0166,0.8882,-6.84,7.89,-0.03,31.18
17108,0.2131,-0.0157,0.8903,-6.85,8.05,0.05,31.18
17118,0.2125,-0.0164,0.8888,-6.96,8.06,-0.03,31.18
17128,0.21,-0.0186,0.8865,-6.82,8.02,0.0,31.16
17138,0.2126,-0.0183,0.8885,-6.78,7.94,-0.09,31.15
17148,0.2102,-0.0201,0.8882,-6.98,8.0,-0.05,31.17
17158,0.2141,-0.0189,0.8877,-6.85,7.98,-0.03,31.17
17168,0.2139,-0.0205,0.8879,-6.82,8.0,-0.05,31.16
17178,0.2124,-0.0179,0.8879,-6.72,8.03,-0.08,31.16
17188,0.21,-0.0229,0.887,-6.84,7.95,0.0,31.17
17198,0.2106,-0.0183,0.8895,-6.81,8.0,-0.02,31.19
17208,0.2133,-0.0172,0.892,-6.84,8.0,-0.11,31.17
17218,0.2135,-0.0167,0.8894,-6.79,8.03,-0.05,31.18
17228,0.2119,-0.015,0.8896,-6.81,7.97,-0.08,31.17
17238,0.2148,-0.0155,0.8889,-6.82,7.97,-0.08,31.17
17248,0.2117,-0.0178,0.8875,-6.92,8.02,-0.03,31.17
17258,0.2136,-0.0189,0.8889,-6.87,7.98,-0.11,31.17
17268,0.2117,-0.0195,0.8927,-6.78,7.94,-0.06,31.16
17278,0.2128,-0.0205,0.8906,-6.82,8.03,-0.09,31.14
17291,0.212,-0.0178,0.8907,-6.9,8.03,-0.09,31.14
17301,0.2118,-0.0221,0.8893,-6.9,8.0,0.0,31.17
17311,0.2147,-0.0179,0.8879,-6.93,7.92,-0.03,31.17
17321,0.2128,-0.0179,0.8868,-6.82,7.95,-0.11,31.17
17331,0.2118,-0.0186,0.8933,-6.84,7.95,-0.12,31.18
17341,0.2129,-0.0165,0.8883,-6.81,7.95,-0.06,31.16
17351,0.2144,-0.0176,0.8916,-6.84,8.0,-0.11,31.17
17361,0.2098,-0.0197,0.8882,-6.78,8.03,-0.03,31.19
17371,0.2115,-0.019,0.8862,-6.79,7.94,-0.06,31.16
17381,0.2102,-0.0206,0.8889,-6.89,7.94,-0.06,31.19
17391,0.2115,-0.0181,0.8877,-6.82,7.97,-0.05,31.17
17401,0.2103,-0.0177,0.8872,-6.87,7.89,-0.08,31.17
17411,0.2104,-0.0189,0.8903,-6.82,7.97,0.0,31.2
17421,0.214,-0.0177,0.8888,-6.84,8.02,-0.09,31.16
17431,0.2129,-0.0219,0.8895,-6.85,8.03,-0.05,31.17
17441,0.2133,-0.0205,0.892,-6.85,8.0,-0.11,31.18
17452,0.2129,-0.0181,0.8846,-6.87,8.03,-0.06,31.19
17462,0.214,-0.0194,0.8884,-6.82,8.05,0.02,31.18
17472,0.2102,-0.0189,0.892,-6.78,8.03,-0.05,31.16
17482,0.2126,-0.0159,0.8893,-6.85,8.03,-0.02,31.17
17492,0.2107,-0.0187,0.8903,-6.89,8.0,-0.06,31.17
17502,0.2114,-0.02,0.8936,-6.79,7.97,-0.06,31.16
17512,0.2133,-0.0187,0.895,-6.85,8.02,-0.02,31.17
17522,0.2126,-0.0177,0.8889,-6.85,7.97,-0.03,31.2
17532,0.2106,-0.0172,0.8894,-6.84,8.0,-0.08,31.17
17542,0.2129,-0.0181,0.8848,-6.87,8.0,-0.06,31.17
17552,0.2145,-0.0177,0.8871,-6.81,7.95,-0.05,31.18
17562,0.2123,-0.0193,0.8883,-6.85,7.98,-0.05,31.17
17572,0.2152,-0.0151,0.8876,-6.87,8.0,0.0,31.17
17582,0.2133,-0.0165,0.8936,-6.76,8.02,-0.03,31.16
17592,0.2131,-0.0193,0.8958,-6.85,7.97,-0.06,31.17
17602,0.2134,-0.0198,0.8884,-6.84,8.05,-0.05,31.18
17612,0.2122,-0.0204,0.8909,-6.79,8.02,-0.05,31.16
17622,0.2139,-0.021,0.8872,-6.87,8.03,-0.02,31.17
17632,0.2108,-0.0188,0.889,-6.87,7.95,-0.03,31.15
17642,0.2095,-0.0178,0.8872,-6.78,7.97,-0.09,31.19
17652,0.2101,-0.0228,0.8868,-6.73,7.92,-0.08,31.2
17662,0.2115,-0.0212,0.8859,-6.87,7.92,-0.02,31.18
17672,0.2139,-0.0192,0.8909,-6.82,7.94,-0.02,31.18
17682,0.2131,-0.0194,0.8883,-6.76,7.97,-0.12,31.17
17692,0.2152,-0.0146,0.8934,-6.87,7.95,-0.08,31.17
17702,0.2137,-0.0159,0.8929,-6.81,7.98,-0.05,31.17
17712,0.2141,-0.0168,0.8923,-6.81,8.0,-0.11,31.17
17722,0.2163,-0.0195,0.8958,-6.81,7.94,-0.06,31.19
17732,0.2167,-0.017,0.8936,-6.82,7.97,-0.03,31.16
17742,0.2119,-0.0175,0.8901,-6.78,8.02,-0.05,31.15
17752,0.2106,-0.0183,0.8881,-6.84,8.0,-0.02,31.16
17762,0.2122,-0.0182,0.8875,-6.82,7.97,0.03,31.19
17773,0.2119,-0.0186,0.8917,-6.92,8.0,-0.09,31.17
17783,0.2136,-0.0201,0.8909,-6.82,8.0,0.0,31.18
17793,0.2115,-0.022,0.8878,-6.89,8.03,-0.08,31.19
17803,0.2124,-0.021,0.8914,-6.84,8.0,0.02,31.17
17813,0.2123,-0.0168,0.8925,-6.9,7.94,-0.09,31.17
17823,0.2135,-0.0199,0.8903,-6.81,8.03,-0.08,31.17
17833,0.2126,-0.0145,0.892,-6.89,8.0,-0.03,31.19
17843,0.2135,-0.0181,0.8884,-6.79,8.08,-0.12,31.19
17853,0.2125,-0.0172,0.8878,-6.85,8.0,-0.14,31.17
17863,0.2115,-0.0144,0.8943,-6.84,8.0,-0.14,31.17
17873,0.2124,-0.0176,0.8899,-6.87,8.03,-0.08,31.18
17883,0.2115,-0.0165,0.887,-6.84,7.97,-0.06,31.16
17893,0.2115,-0.0178,0.8853,-6.79,8.0,-0.02,31.17
17903,0.2124,-0.0167,0.8853,-6.89,8.0,-0.08,31.18
17913,0.2112,-0.0188,0.8816,-6.84,7.95,-0.03,31.19
17923,0.2113,-0.0198,0.8868,-6.75,7.98,-0.05,31.17
17933,0.2101,-0.0178,0.8862,-6.9,7.94,-0.09,31.19
17943,0.2119,-0.0181,0.8917,-6.92,7.98,-0.05,31.2
17953,0.2139,-0.0176,0.8904,-6.89,7.97,-0.03,31.18
17963,0.2152,-0.0164,0.8917,-6.89,8.02,-0.03,31.17
17973,0.215,-0.0187,0.8925,-6.87,7.92,-0.09,31.18
17983,0.2115,-0.0144,0.8933,-6.84,8.03,-0.06,31.2
17993,0.2137,-0.0199,0.8898,-6.76,8.0,-0.05,31.2
18003,0.212,-0.017,0.8879,-6.81,7.98,0.02,31.18
18013,0.2115,-0.0156,0.8884,-6.78,7.94,-0.09,31.18
18023,0.2115,-0.0172,0.8905,-6.81,8.03,0.03,31.17
18033,0.2124,-0.0225,0.8859,-6.85,8.03,-0.02,31.17
18043,0.2087,-0.0225,0.8851,-6.79,8.0,-0.05,31.18
18053,0.2126,-0.0212,0.885,-6.81,7.97,-0.02,31.18
18063,0.2083,-0.019,0.8859,-6.85,8.02,-0.02,31.16
18073,0.2115,-0.0162,0.8864,-6.82,8.02,-0.06,31.18
18083,0.2106,-0.0137,0.8878,-6.84,8.03,0.02,31.16
18093,0.2144,-0.0146,0.8846,-6.82,7.98,-0.03,31.17
18103,0.2134,-0.0171,0.8894,-6.92,7.95,-0.06,31.18
18113,0.2137,-0.0162,0.8912,-6.82,8.05,-0.11,31.18
18123,0.2144,-0.0181,0.8927,-6.89,7.97,-0.02,31.17
18133,0.2137,-0.0194,0.8893,-6.89,8.0,0.03,31.19
18143,0.2106,-0.0198,0.8857,-6.89,8.02,-0.03,31.19
18153,0.213,-0.0184,0.8884,-6.82,8.02,-0.06,31.19
18163,0.2115,-0.0198,0.8872,-6.81,8.06,-0.05,31.19
18173,0.2115,-0.0179,0.8879,-6.73,7.95,-0.11,31.19
18183,0.2101,-0.0199,0.8845,-6.89,8.02,-0.03,31.2
18193,0.2111,-0.0189,0.8912,-6.81,8.0,-0.02,31.17
18203,0.2118,-0.0187,0.8914,-6.87,8.0,-0.08,31.17
18213,0.2112,-0.0157,0.8906,-6.81,7.92,-0.02,31.19
18223,0.214,-0.0145,0.8875,-6.81,7.92,-0.08,31.18
18233,0.213,-0.0151,0.8898,-6.87,7.95,0.03,31.17
18243,0.2122,-0.0159,0.8873,-6.84,8.02,-0.08,31.19
18253,0.2147,-0.0156,0.8893,-6.84,7.98,-0.06,31.19
18263,0.2148,-0.0177,0.8894,-6.84,8.0,-0.03,31.18
18273,0.2126,-0.0192,0.8911,-6.89,8.09,-0.02,31.17
18283,0.2118,-0.0204,0.8907,-6.92,8.03,-0.11,31.17
18293,0.2119,-0.0183,0.8848,-6.79,7.95,-0.03,31.19
18303,0.2087,-0.0167,0.8904,-6.81,8.0,-0.06,31.21
18313,0.2083,-0.02,0.8867,-6.84,7.98,-0.12,31.19
18323,0.2097,-0.0208,0.8855,-6.82,7.88,-0.09,31.18
18333,0.2118,-0.019,0.8848,-6.84,7.94,-0.05,31.17
18343,0.2153,-0.0182,0.8875,-6.87,8.02,-0.03,31.18
18353,0.2107,-0.0159,0.8916,-6.82,8.02,0.0,31.19
18363,0.2145,-0.0165,0.8926,-6.96,7.98,-0.02,31.18
18373,0.212,-0.0155,0.894,-6.84,8.06,-0.06,31.19
18383,0.2113,-0.0193,0.8942,-6.9,7.98,0.02,31.19
18393,0.2118,-0.0182,0.8905,-6.81,7.98,0.0,31.22
18403,0.2151,-0.0199,0.8866,-6.79,8.06,-0.11,31.19
18413,0.2119,-0.0164,0.8879,-6.89,7.97,0.02,31.19
18423,0.2135,-0.0201,0.8861,-6.89,8.05,-0.08,31.21
18433,0.2115,-0.0203,0.8848,-6.84,8.08,0.0,31.19
18443,0.2115,-0.0193,0.8839,-6.85,7.98,0.0,31.19
18453,0.2109,-0.0193,0.8879,-6.92,8.02,-0.06,31.2
18463,0.2112,-0.0195,0.89,-6.85,7.98,0.0,31.21
18473,0.2102,-0.0162,0.8884,-6.81,7.98,-0.02,31.2
18483,0.212,-0.0177,0.8923,-6.79,7.97,-0.06,31.21
18493,0.214,-0.0167,0.8926,-6.84,7.91,0.02,31.18
18503,0.2117,-0.022,0.8894,-6.81,7.98,-0.05,31.18
18513,0.2136,-0.0221,0.8873,-6.79,7.97,-0.08,31.18
18523,0.2146,-0.0195,0.8916,-6.84,8.0,-0.05,31.17
18533,0.2152,-0.0181,0.8868,-6.81,7.95,-0.03,31.19
18543,0.2173,-0.0173,0.8893,-6.82,8.02,-0.05,31.19
18553,0.2153,-0.0178,0.8917,-6.89,8.05,-0.06,31.2
18563,0.2157,-0.0212,0.8892,-6.89,7.89,-0.08,31.2
18573,0.2153,-0.0193,0.892,-6.82,7.97,-0.03,31.18
18583,0.2126,-0.021,0.8916,-6.82,8.06,-0.03,31.18
18593,0.2122,-0.0186,0.887,-6.84,8.03,-0.11,31.18
18603,0.2134,-0.0204,0.8883,-6.84,7.98,-0.08,31.19
18613,0.2115,-0.0164,0.8911,-6.85,8.02,-0.08,31.21
18623,0.2115,-0.0157,0.8895,-6.89,8.06,-0.05,31.2
18633,0.2128,-0.0166,0.8898,-6.79,7.97,0.02,31.2
18643,0.2095,-0.0175,0.8899,-6.81,8.02,-0.02,31.2
18653,0.2144,-0.0165,0.8907,-6.84,8.05,-0.06,31.19
18663,0.2098,-0.0167,0.8865,-6.87,7.97,-0.03,31.19
18673,0.2142,-0.0188,0.8856,-6.81,8.05,-0.02,31.22
18683,0.2103,-0.0183,0.8845,-6.79,8.03,-0.02,31.2
18693,0.2104,-0.0195,0.8866,-6.82,7.97,-0.02,31.2
18703,0.21,-0.0214,0.8883,-6.87,8.0,-0.05,31.19
18713,0.2125,-0.0221,0.8866,-6.81,8.0,-0.08,31.21
18723,0.2096,-0.0198,0.8905,-6.84,8.02,-0.02,31.19
18733,0.2129,-0.0171,0.8853,-6.95,7.97,-0.05,31.19
18743,0.2122,-0.0182,0.8928,-6.87,8.06,-0.11,31.22
18753,0.2137,-0.0197,0.8894,-6.89,7.98,-0.05,31.19
18763,0.2085,-0.0162,0.8888,-6.85,8.02,-0.06,31.21
18773,0.2146,-0.0192,0.8859,-6.78,8.0,-0.12,31.19
18783,0.2096,-0.0148,0.8855,-6.85,7.86,-0.08,31.19
18793,0.2059,-0.0144,0.8866,-6.81,8.03,-0.02,31.19
18803,0.2094,-0.0129,0.8877,-6.9,8.09,-0.06,31.19
18813,0.2118,-0.0157,0.8888,-6.85,7.95,-0.03,31.17
18823,0.2111,-0.0155,0.8899,-6.92,8.09,-0.03,31.21
18833,0.2151,-0.0157,0.8997,-6.85,8.18,-0.02,31.22
18843,0.2164,-0.0244,0.8926,-6.85,8.02,-0.06,31.21
18853,0.2159,-0.0177,0.9019,-6.81,7.91,0.05,31.18
18863,0.2211,-0.0135,0.8943,-6.93,8.06,0.0,31.19
18873,0.214,-0.0342,0.885,-6.73,8.0,-0.12,31.19
18883,0.2064,-0.0232,0.8987,-6.9,8.08,-0.06,31.19
18893,0.2075,-0.0131,0.8823,-6.84,8.2,-0.08,31.19
18903,0.2013,-0.022,0.8828,-6.84,7.95,-0.12,31.2
18913,0.2098,-0.0225,0.8885,-6.84,7.89,-0.05,31.19
18923,0.2117,-0.0165,0.8939,-6.9,8.08,-0.06,31.19
18933,0.2104,-0.0155,0.8807,-6.99,7.98,0.0,31.2
18943,0.2112,-0.0153,0.8877,-6.7,7.83,-0.02,31.17
18953,0.2161,-0.0115,0.8959,-6.92,7.89,0.0,31.23
18963,0.2122,-0.021,0.8907,-6.82,8.0,0.02,31.19
18973,0.209,-0.0221,0.8937,-6.82,7.98,-0.06,31.19
18983,0.2094,-0.0162,0.8926,-6.85,7.97,0.05,31.21
18993,0.21,-0.017,0.8882,-6.84,8.09,0.0,31.19
19003,0.2125,-0.021,0.885,-6.85,7.98,-0.02,31.2
19013,0.21,-0.019,0.8894,-6.84,8.02,-0.09,31.19
19023,0.2083,-0.0175,0.8905,-6.85,7.97,-0.02,31.18
19033,0.2096,-0.0197,0.8857,-6.82,7.94,-0.06,31.19
19043,0.2112,-0.0183,0.8868,-6.79,7.88,0.03,31.19
19053,0.2135,-0.0182,0.8894,-6.79,7.97,0.02,31.19
19063,0.2152,-0.0188,0.8904,-6.79,7.98,-0.02,31.19
19073,0.2161,-0.0167,0.8918,-6.82,7.94,0.0,31.18
19083,0.2144,-0.0184,0.8911,-6.87,7.98,-0.06,31.21
19093,0.2181,-0.017,0.8889,-6.84,8.03,-0.09,31.2
19103,0.2163,-0.0203,0.8895,-6.85,8.03,0.0,31.17
19113,0.2151,-0.0183,0.8868,-6.84,7.95,-0.03,31.18
19123,0.2117,-0.0208,0.8899,-6.82,8.05,-0.05,31.19
19133,0.2087,-0.0176,0.8848,-6.78,7.97,-0.03,31.19
19143,0.2106,-0.0189,0.8904,-6.79,7.98,-0.11,31.22
19153,0.2078,-0.0167,0.8881,-6.82,8.02,-0.08,31.2
19163,0.2136,-0.0175,0.886,-6.87,7.94,-0.11,31.2
19173,0.2106,-0.0193,0.8905,-6.9,7.89,0.0,31.22
19183,0.2129,-0.0226,0.8926,-6.81,7.95,-0.11,31.18
19193,0.2133,-0.0217,0.8906,-6.76,7.95,-0.09,31.22
19203,0.2172,-0.0206,0.8898,-6.85,7.97,0.0,31.21
19213,0.2142,-0.0205,0.8916,-6.75,7.98,-0.03,31.22
19223,0.2136,-0.0171,0.8903,-6.79,7.97,-0.09,31.2
19233,0.2137,-0.0195,0.8904,-6.75,8.0,-0.11,31.22
19243,0.2103,-0.0175,0.8846,-6.84,8.02,-0.12,31.21
19253,0.2091,-0.0179,0.8833,-6.93,8.0,0.02,31.2
19263,0.207,-0.02,0.8843,-6.9,8.02,-0.02,31.22
19273,0.2078,-0.0167,0.8853,-6.89,8.05,-0.08,31.22
19283,0.2086,-0.0184,0.8876,-6.87,7.97,-0.14,31.2
19293,0.2118,-0.0153,0.8871,-6.93,7.97,-0.05,31.22
19303,0.2144,-0.0167,0.8898,-6.87,7.88,-0.02,31.2
19313,0.2151,-0.0161,0.8932,-6.87,8.02,-0.02,31.22
19323,0.214,-0.021,0.8972,-6.84,7.94,-0.02,31.21
19333,0.2137,-0.0178,0.8915,-6.79,7.97,-0.03,31.23
19343,0.2153,-0.0199,0.8904,-6.82,8.0,-0.02,31.21
19353,0.2145,-0.0211,0.8872,-6.81,8.02,-0.06,31.22
19363,0.2153,-0.0176,0.8909,-6.84,7.95,-0.11,31.21
19373,0.2124,-0.0178,0.8849,-6.85,8.02,-0.05,31.2
19383,0.209,-0.0159,0.8882,-6.89,7.98,-0.02,31.2
19393,0.2083,-0.019,0.8905,-6.85,7.95,-0.12,31.2
19403,0.2076,-0.0205,0.8944,-6.81,8.03,-0.03,31.21
19413,0.2057,-0.0201,0.8876,-6.82,7.98,-0.06,31.2
19423,0.2095,-0.0211,0.8873,-6.81,8.03,-0.08,31.2
19433,0.2111,-0.0171,0.8881,-6.89,8.05,-0.02,31.21
19443,0.2098,-0.0189,0.8885,-6.78,8.02,-0.03,31.23
19453,0.2115,-0.0181,0.8887,-6.82,8.0,-0.03,31.22
19463,0.2126,-0.0192,0.8901,-6.9,7.95,-0.08,31.21
19474,0.2161,-0.0173,0.8906,-6.92,7.92,-0.11,31.21
19484,0.2153,-0.0165,0.8895,-6.9,8.06,0.0,31.22
19494,0.2128,-0.0198,0.8904,-6.81,8.12,-0.09,31.21
19504,0.2145,-0.0195,0.8939,-6.82,8.08,-0.06,31.2
19514,0.2114,-0.0157,0.8898,-6.85,8.03,-0.06,31.2
19524,0.2098,-0.0215,0.8889,-6.76,7.95,-0.03,31.24
19534,0.2095,-0.0192,0.8884,-6.87,8.05,-0.06,31.2
19544,0.2095,-0.0161,0.8862,-6.81,7.94,-0.03,31.23
19554,0.2101,-0.0229,0.8855,-6.76,7.91,-0.12,31.21
19564,0.2087,-0.0139,0.8949,-6.84,8.06,-0.06,31.22
19574,0.2163,-0.0215,0.8833,-6.79,7.97,-0.06,31.23
19584,0.2124,-0.0183,0.8883,-6.85,7.92,-0.05,31.2
19594,0.2148,-0.0166,0.8921,-6.85,7.95,-0.02,31.22
19604,0.2144,-0.0187,0.8915,-6.82,8.0,-0.05,31.23
19614,0.2119,-0.0216,0.8915,-6.81,8.09,-0.08,31.22
19624,0.2111,-0.022,0.8979,-6.85,8.03,-0.08,31.23
19634,0.2145,-0.0192,0.8904,-6.85,8.02,-0.05,31.22
19644,0.212,-0.0226,0.892,-6.92,8.08,-0.03,31.21
19654,0.2065,-0.017,0.8843,-6.89,8.09,0.06,31.2
19664,0.2072,-0.0204,0.8849,-6.73,8.03,-0.06,31.19
19675,0.2083,-0.0193,0.8922,-6.79,8.06,-0.05,31.22
19685,0.2203,-0.049,0.8708,-6.84,7.82,-0.12,31.22
19695,0.1134,-0.0696,0.9014,-7.07,7.86,-0.43,31.21
19705,0.1444,0.0491,0.8671,-7.97,8.29,-0.11,31.2
19715,0.1769,-0.0137,0.9231,-6.11,9.24,-0.03,31.22
19727,0.2108,-0.0176,0.906,-6.75,8.23,-0.23,31.2
19737,0.2417,-0.0132,0.8972,-6.46,7.95,-0.05,31.21
19747,0.1981,-0.0383,0.915,-7.31,6.95,-0.02,31.21
19757,0.1967,-0.0094,0.8901,-6.85,7.6,-0.2,31.21
19768,0.2069,-0.0135,0.9006,-6.76,7.73,-0.11,31.24
19778,0.2368,-0.0277,0.8987,-6.99,8.02,-0.02,31.23
19788,0.208,-0.0336,0.8899,-6.75,8.4,-0.06,31.23
19798,0.2135,-0.0133,0.8846,-6.82,7.91,-0.05,31.24
19809,0.2172,-0.0081,0.8943,-6.84,7.8,0.06,31.22
19819,0.1975,-0.0134,0.9039,-6.92,8.47,-0.06,31.22
19829,0.1903,-0.0043,0.8837,-6.9,8.32,-0.06,31.23
19839,0.1982,-0.0146,0.8708,-6.81,7.73,-0.03,31.23
19849,0.1936,-0.0299,0.8804,-6.85,7.95,-0.06,31.22
19859,0.2002,-0.022,0.879,-6.87,8.0,-0.02,31.24
19869,0.2006,-0.0265,0.8784,-6.79,7.94,-0.02,31.21
19879,0.2096,-0.0281,0.8845,-6.89,7.79,0.0,31.21
19889,0.2167,-0.0095,0.8978,-6.84,7.88,0.02,31.24
19899,0.2175,-0.0096,0.9015,-6.78,7.97,-0.02,31.25
19909,0.2166,-0.0198,0.8956,-6.76,7.89,-0.09,31.22
19919,0.2206,-0.0157,0.9023,-6.78,7.89,-0.11,31.23
19929,0.2197,-0.0159,0.9038,-6.75,8.0,-0.09,31.21
19939,0.2173,-0.0205,0.8915,-6.84,8.06,-0.03,31.22
19949,0.2181,-0.0193,0.8906,-6.85,7.97,-0.02,31.22
19959,0.2209,-0.0177,0.894,-6.92,8.05,-0.05,31.22
19969,0.2126,-0.0177,0.8883,-6.81,8.12,-0.02,31.22
19979,0.2111,-0.0208,0.8784,-6.84,8.06,-0.08,31.22
19989,0.1971,-0.0186,0.9076,-6.78,8.11,-0.03,31.21
19999,0.2216,-0.0162,0.8956,-6.76,8.03,-0.02,31.22
20009,0.2042,-0.0228,0.8843,-7.08,8.41,-0.05,31.21
20019,0.202,-0.0206,0.8729,-6.73,7.95,-0.06,31.21
20029,0.208,-0.0137,0.8933,-6.78,7.53,0.02,31.21
20039,0.2156,-0.0112,0.8986,-6.81,8.05,-0.02,31.22
20049,0.2106,-0.0178,0.8823,-6.84,8.15,-0.08,31.23
20059,0.2101,-0.0193,0.8805,-6.79,7.79,-0.03,31.22
20069,0.2172,-0.0178,0.8972,-6.82,7.8,-0.08,31.21
20079,0.212,-0.0176,0.902,-6.9,8.18,-0.09,31.22
20089,0.2003,-0.0181,0.9021,-6.85,8.58,-0.06,31.23
20099,0.2269,-0.0167,0.8722,-6.76,6.79,-0.03,31.24
20109,0.2211,-0.0184,0.896,-6.89,7.71,-0.03,31.24
20119,0.2201,-0.0168,0.8912,-6.93,8.06,-0.11,31.23
20129,0.2126,-0.0168,0.876,-6.9,8.03,-0.05,31.2
20139,0.2185,-0.0209,0.8783,-6.81,7.71,-0.05,31.25
20149,0.2162,-0.0179,0.8929,-6.89,7.92,0.02,31.24
20159,0.2141,-0.0195,0.8865,-6.82,8.08,-0.08,31.23
20169,0.2114,-0.0203,0.8848,-6.79,7.91,0.03,31.23
20179,0.2067,-0.0176,0.896,-6.81,8.08,-0.03,31.22
20189,0.2112,-0.0194,0.8937,-6.89,8.05,-0.08,31.22
20199,0.2067,-0.0181,0.8926,-6.85,8.11,-0.05,31.22
20209,0.2101,-0.0206,0.8861,-6.79,7.97,-0.06,31.22
20219,0.2111,-0.0197,0.8895,-6.84,7.94,0.0,31.22
20230,0.2104,-0.0154,0.8933,-6.89,8.02,-0.09,31.24
20240,0.2114,-0.0187,0.8911,-6.85,8.06,-0.09,31.22
20250,0.2126,-0.0162,0.8854,-6.75,7.88,-0.02,31.23
20260,0.2119,-0.016,0.8916,-6.87,7.98,-0.17,31.24
20270,0.2172,-0.0173,0.8884,-6.99,8.02,-0.08,31.22
20280,0.2157,-0.0164,0.8901,-6.9,8.02,-0.14,31.25
20290,0.2131,-0.019,0.8887,-6.81,8.11,-0.08,31.24
20301,0.2109,-0.0184,0.8872,-6.85,8.08,-0.05,31.23
20311,0.2119,-0.0209,0.8868,-6.9,8.0,-0.06,31.21
20321,0.208,-0.0203,0.8883,-6.96,8.0,-0.02,31.23
20331,0.2111,-0.0201,0.8907,-6.9,7.97,0.0,31.22
20341,0.2092,-0.0211,0.8936,-6.85,7.98,-0.05,31.22
20351,0.2135,-0.0171,0.8929,-6.76,7.98,-0.09,31.25
20361,0.2145,-0.0198,0.8888,-6.79,7.97,-0.02,31.25
20371,0.2146,-0.0154,0.889,-6.73,8.0,-0.08,31.25
20381,0.2152,-0.0161,0.8885,-6.89,7.98,-0.05,31.24
20391,0.213,-0.0164,0.8866,-6.87,8.03,-0.02,31.22
20401,0.2118,-0.0178,0.8917,-6.82,8.05,-0.08,31.28
20411,0.2144,-0.0159,0.89,-6.84,7.97,-0.02,31.23
20421,0.2101,-0.0171,0.8907,-6.84,7.97,-0.05,31.24
20431,0.2144,-0.0179,0.8882,-6.81,7.98,0.03,31.25
20441,0.2141,-0.0198,0.8906,-6.82,8.02,-0.02,31.24
20451,0.2092,-0.0214,0.8938,-6.81,8.08,-0.12,31.26
20461,0.2136,-0.0212,0.8868,-6.84,8.05,-0.08,31.22
20471,0.2083,-0.019,0.8899,-6.82,8.03,-0.05,31.24
20481,0.2118,-0.0184,0.8893,-6.82,8.03,-0.08,31.25
20491,0.2125,-0.0181,0.8906,-6.87,7.98,-0.03,31.25
20501,0.2112,-0.0166,0.8899,-6.89,8.05,-0.05,31.25
20511,0.2156,-0.0173,0.8896,-6.82,7.94,-0.08,31.27
20521,0.2145,-0.017,0.8865,-6.81,7.98,-0.09,31.24
20531,0.213,-0.0201,0.8882,-6.82,7.98,-0.11,31.21
20541,0.2159,-0.0184,0.8888,-6.87,7.97,0.0,31.23
20551,0.213,-0.0154,0.8888,-6.84,8.03,-0.03,31.24
20561,0.2123,-0.0194,0.8888,-6.85,7.97,-0.03,31.23
20571,0.2129,-0.0182,0.8896,-6.92,7.94,-0.06,31.25
20581,0.2119,-0.019,0.8892,-6.92,7.98,0.0,31.24
20591,0.2118,-0.0177,0.8937,-6.87,7.94,-0.05,31.24
20601,0.2126,-0.0175,0.8917,-6.85,8.05,0.0,31.23
20611,0.2136,-0.0178,0.8905,-6.93,7.98,-0.06,31.26
20621,0.2123,-0.0216,0.887,-6.81,8.0,-0.02,31.24
20631,0.2139,-0.0217,0.8878,-6.85,8.0,-0.09,31.25
20641,0.2128,-0.0178,0.8907,-6.93,8.02,-0.03,31.26
20651,0.2139,-0.0178,0.8892,-6.81,7.92,0.0,31.24
20661,0.2104,-0.0155,0.8925,-6.82,7.94,0.0,31.25
20671,0.212,-0.0164,0.8851,-6.89,8.0,-0.03,31.24
20681,0.214,-0.0179,0.8909,-6.82,8.0,-0.05,31.24
20691,0.2118,-0.021,0.8907,-6.78,7.97,-0.02,31.22
20701,0.2114,-0.019,0.8939,-6.79,7.97,-0.03,31.23
20712,0.2109,-0.0186,0.8893,-6.78,8.03,-0.12,31.25
20722,0.2159,-0.0195,0.8888,-6.85,8.02,-0.03,31.24
20732,0.2137,-0.0183,0.8918,-6.85,8.02,-0.08,31.24
20742,0.2113,-0.0173,0.886,-6.85,7.98,0.0,31.22
20752,0.2174,-0.0212,0.8892,-6.84,7.98,-0.12,31.25
20762,0.212,-0.0171,0.8909,-6.81,7.98,-0.06,31.26
20772,0.2119,-0.0148,0.8901,-6.85,7.95,-0.06,31.25
20782,0.2097,-0.0172,0.8907,-6.84,8.05,-0.05,31.24
20792,0.2089,-0.017,0.887,-6.92,7.98,0.0,31.23
20802,0.2096,-0.0161,0.8875,-6.89,8.0,-0.12,31.22
20812,0.2109,-0.0188,0.8907,-6.82,8.0,-0.08,31.22
20822,0.2106,-0.0206,0.8853,-6.87,8.02,-0.08,31.23
20832,0.2136,-0.0166,0.8875,-6.81,7.97,-0.02,31.23
20842,0.212,-0.0203,0.89,-6.89,8.0,-0.09,31.24
20852,0.2095,-0.0199,0.8905,-6.85,8.03,-0.06,31.25
20862,0.2145,-0.0184,0.8917,-6.84,7.97,-0.03,31.23
20872,0.2133,-0.0164,0.8894,-6.84,7.97,-0.12,31.24
20882,0.2147,-0.0203,0.8915,-6.81,7.98,-0.05,31.22
20892,0.213,-0.0178,0.8887,-6.81,7.95,-0.08,31.25
20902,0.2136,-0.0155,0.8916,-6.95,7.98,0.0,31.23
20912,0.2113,-0.0146,0.8899,-6.92,8.02,-0.02,31.23
20922,0.2145,-0.0199,0.8895,-6.89,8.08,-0.06,31.24
20932,0.2089,-0.0183,0.8872,-6.9,8.02,0.0,31.24
20942,0.2091,-0.02,0.8896,-6.85,8.03,-0.05,31.24
20952,0.2095,-0.0184,0.8889,-6.87,7.97,-0.11,31.26
20962,0.2092,-0.0165,0.8903,-6.85,7.97,-0.06,31.24
20972,0.2097,-0.0195,0.8917,-6.81,7.97,-0.03,31.23
20982,0.2109,-0.0206,0.8857,-6.93,7.91,-0.02,31.25
20992,0.2124,-0.0204,0.8879,-6.89,7.95,-0.09,31.24
21002,0.2102,-0.0144,0.8892,-6.79,7.94,-0.05,31.23
21012,0.2196,-0.014,0.8888,-6.73,8.0,-0.06,31.24
21022,0.2188,-0.0166,0.8943,-6.93,7.97,0.0,31.27
21032,0.2158,-0.0159,0.8915,-6.92,8.0,-0.06,31.27
21042,0.2156,-0.0194,0.8883,-6.87,8.02,-0.08,31.24
21052,0.21,-0.0183,0.8895,-6.93,8.06,-0.09,31.23
21062,0.2096,-0.0188,0.8882,-6.81,8.02,-0.06,31.24
21072,0.2098,-0.0175,0.8848,-6.98,7.92,-0.02,31.24
21082,0.2108,-0.0214,0.8936,-6.78,8.02,-0.05,31.25
21092,0.2092,-0.0211,0.8954,-6.89,8.09,-0.06,31.24
21102,0.2123,-0.0208,0.8927,-6.84,8.03,0.02,31.22
21112,0.2145,-0.0177,0.8931,-6.82,7.88,-0.03,31.24
21122,0.2164,-0.0149,0.8907,-6.81,7.98,-0.06,31.23
21132,0.2135,-0.0234,0.8865,-6.84,8.0,0.0,31.25
21142,0.2137,-0.0201,0.8826,-6.78,7.94,-0.06,31.24
21152,0.2131,-0.0168,0.8892,-6.76,8.05,-0.06,31.24
21162,0.2097,-0.0159,0.8894,-6.81,7.98,-0.09,31.26
21172,0.2094,-0.0162,0.8861,-6.82,8.0,-0.12,31.25
21182,0.2097,-0.0137,0.8877,-6.82,8.06,-0.09,31.24
21192,0.2133,-0.0176,0.8875,-6.82,8.08,0.0,31.25
21202,0.2126,-0.016,0.8889,-6.87,7.98,-0.06,31.24
21212,0.2135,-0.0166,0.8911,-6.79,7.94,-0.05,31.22
21223,0.2123,-0.0188,0.8901,-6.9,7.98,-0.02,31.24
21233,0.215,-0.0201,0.8954,-6.9,8.02,-0.08,31.24
21243,0.2104,-0.0179,0.8922,-6.82,8.03,-0.06,31.23
21253,0.2101,-0.0182,0.8901,-6.79,7.98,-0.02,31.24
21263,0.2129,-0.0173,0.8859,-6.87,7.94,-0.08,31.28
21273,0.213,-0.016,0.8882,-6.85,8.0,0.02,31.25
21283,0.2123,-0.0184,0.8833,-6.9,8.0,-0.05,31.22
21295,0.2123,-0.0194,0.8882,-6.93,7.98,-0.09,31.26
21305,0.2122,-0.0164,0.8846,-6.93,7.98,-0.05,31.24
21315,0.2098,-0.0175,0.8896,-6.85,8.02,-0.03,31.24
21329,0.2142,-0.0217,0.8893,-6.89,7.98,-0.05,31.26
21339,0.2123,-0.0198,0.8894,-6.81,8.08,0.0,31.27
21349,0.2123,-0.0201,0.887,-6.85,7.94,-0.06,31.25
21359,0.2151,-0.0204,0.8889,-6.82,7.95,-0.03,31.24
21369,0.2107,-0.0187,0.8926,-6.79,7.94,-0.09,31.25
21379,0.2109,-0.0273,0.8945,-6.85,8.02,-0.02,31.25
21389,0.2133,-0.0209,0.8835,-6.75,8.09,0.0,31.24
21399,0.2172,0.0137,0.8929,-7.3,7.92,-0.11,31.26
21409,0.2133,-0.047,0.8602,-6.38,8.21,-0.02,31.26
21419,0.1901,-0.0674,0.9119,-6.76,7.54,0.09,31.27
21429,0.1866,-0.0206,0.928,-7.13,7.6,0.0,31.23
21439,0.2134,-0.0193,0.8949,-6.89,7.95,0.03,31.26
21449,0.2064,-0.0266,0.87,-6.87,7.63,-0.09,31.24
21459,0.2273,-0.0189,0.8915,-6.78,7.48,-0.06,31.24
21469,0.231,-0.0226,0.9098,-6.85,8.11,-0.03,31.26
21479,0.2169,-0.0271,0.8921,-6.82,8.21,0.03,31.27
21490,0.2097,-0.0183,0.8898,-6.76,8.0,-0.02,31.25
21500,0.2126,-0.0177,0.9,-6.76,7.98,-0.02,31.24
21510,0.2122,-0.0171,0.8999,-6.84,8.06,0.02,31.25
21520,0.2076,-0.0182,0.8745,-6.81,8.11,-0.03,31.25
21530,0.2029,-0.0154,0.8765,-6.79,7.86,0.05,31.25
21540,0.2084,-0.0155,0.8832,-6.75,7.89,-0.11,31.27
21550,0.2078,-0.0166,0.8817,-6.93,8.02,-0.03,31.26
21560,0.2017,-0.0195,0.8772,-6.84,8.03,0.02,31.24
21570,0.2067,-0.0171,0.8813,-6.81,7.88,-0.06,31.26
21580,0.2134,-0.0149,0.8888,-6.85,7.97,-0.09,31.25
21590,0.2125,-0.0182,0.8898,-6.9,7.98,-0.09,31.24
21600,0.2151,-0.0193,0.8883,-6.84,7.92,0.0,31.24
21610,0.2159,-0.0184,0.905,-6.85,7.92,-0.06,31.25
21620,0.2178,-0.021,0.9021,-6.85,8.06,-0.09,31.25
21630,0.2157,-0.0181,0.8984,-6.84,8.12,-0.05,31.29
21640,0.2157,-0.0187,0.8958,-6.82,8.0,-0.02,31.27
21650,0.2148,-0.0171,0.8938,-6.81,7.97,-0.11,31.24
21660,0.2135,-0.0175,0.8883,-6.82,8.17,-0.05,31.25
21670,0.2145,-0.021,0.8799,-6.73,8.03,-0.06,31.25
21680,0.2095,-0.0201,0.8834,-6.81,7.98,-0.06,31.25
21691,0.2087,-0.0189,0.8845,-6.81,7.95,0.0,31.24
21701,0.2064,-0.0178,0.8859,-6.87,8.05,-0.06,31.26
21711,0.2081,-0.0208,0.8835,-6.84,8.0,-0.03,31.25
21721,0.2097,-0.0182,0.8895,-6.75,7.92,-0.02,31.29
21731,0.212,-0.0175,0.8907,-6.84,7.98,-0.06,31.29
21741,0.2156,-0.0159,0.8932,-6.78,7.94,-0.02,31.28
21751,0.2135,-0.0194,0.8927,-6.92,7.92,-0.14,31.24
21761,0.2155,-0.0179,0.8903,-6.82,7.98,-0.05,31.23
21771,0.2119,-0.0177,0.8938,-6.82,7.88,-0.08,31.25
21781,0.2162,-0.0177,0.889,-6.79,8.05,-0.05,31.27
21791,0.2142,-0.0199,0.8934,-6.95,7.97,-0.08,31.27
21801,0.2146,-0.0201,0.897,-6.81,7.89,-0.05,31.26
21811,0.2129,-0.0194,0.8903,-6.76,7.98,-0.06,31.27
21821,0.2106,-0.02,0.8868,-6.78,8.02,-0.02,31.27
21831,0.2115,-0.0189,0.8898,-6.82,7.95,-0.08,31.26
21841,0.2089,-0.0215,0.8889,-6.87,8.0,-0.08,31.24
21851,0.2107,-0.0197,0.8918,-6.79,8.03,0.0,31.26
21861,0.21,-0.0223,0.8898,-6.78,8.02,-0.11,31.27
21871,0.21,-0.0161,0.8879,-6.76,7.97,-0.09,31.26
21881,0.212,-0.0176,0.8905,-6.85,8.0,-0.03,31.25
21891,0.213,-0.0177,0.8961,-6.98,8.0,-0.05,31.28
21901,0.213,-0.0167,0.8945,-6.84,7.92,-0.03,31.26
21911,0.2123,-0.0154,0.8903,-6.87,7.97,-0.02,31.29
21921,0.212,-0.0156,0.8905,-6.82,7.94,-0.09,31.28
21931,0.2137,-0.0182,0.8893,-6.78,7.98,-0.05,31.27
21941,0.2135,-0.0182,0.886,-6.85,7.98,-0.02,31.26
21951,0.213,-0.019,0.8866,-6.79,8.11,-0.02,31.28
21961,0.2113,-0.0226,0.8872,-6.84,8.03,-0.08,31.28
21971,0.2123,-0.0183,0.89,-6.85,8.03,-0.02,31.27
21981,0.2125,-0.0192,0.8909,-6.82,7.95,0.02,31.26
21991,0.209,-0.021,0.8873,-6.82,7.97,-0.05,31.25
22001,0.209,-0.0176,0.8926,-6.81,7.97,-0.02,31.29
22011,0.2098,-0.0188,0.8872,-6.9,7.95,-0.15,31.25
22021,0.2075,-0.0179,0.8877,-6.85,7.92,-0.05,31.25
22031,0.2117,-0.0181,0.8918,-6.89,8.02,-0.06,31.28
22041,0.214,-0.0179,0.889,-6.89,8.03,0.0,31.24
22051,0.2135,-0.0171,0.8889,-6.82,7.95,-0.02,31.24
22061,0.2129,-0.0182,0.8837,-6.84,8.02,0.0,31.26
22071,0.2131,-0.0168,0.8881,-6.84,7.95,0.05,31.26
22081,0.2141,-0.0178,0.8888,-6.84,8.02,-0.02,31.27
22091,0.2123,-0.0189,0.8895,-6.79,7.97,-0.09,31.26
22101,0.2139,-0.0203,0.8914,-6.9,7.97,-0.05,31.28
22111,0.2144,-0.019,0.8873,-6.89,7.98,-0.02,31.24
22121,0.2134,-0.0184,0.8879,-6.82,8.02,-0.08,31.25
22131,0.2106,-0.0171,0.8857,-6.9,8.02,-0.03,31.26
22141,0.2122,-0.0187,0.8877,-6.84,7.92,-0.05,31.28
22151,0.2102,-0.0183,0.8885,-6.89,7.95,-0.02,31.27
22161,0.2118,-0.0186,0.8915,-6.81,8.0,-0.03,31.28
22171,0.2108,-0.0195,0.8921,-6.87,8.02,0.03,31.25
22181,0.2126,-0.021,0.8878,-6.84,7.95,-0.11,31.28
22191,0.215,-0.0228,0.8898,-6.85,7.94,-0.03,31.28
22201,0.2161,-0.0188,0.8925,-6.87,8.03,-0.02,31.24
22211,0.2135,-0.0189,0.8889,-6.85,7.92,0.02,31.28
22221,0.2125,-0.0208,0.8894,-6.84,7.94,-0.03,31.29
22231,0.2114,-0.0206,0.8901,-6.79,8.0,-0.06,31.26
22241,0.2117,-0.0184,0.8906,-6.75,8.06,-0.11,31.27
22251,0.2106,-0.0184,0.8888,-6.9,7.97,-0.11,31.29
22261,0.2111,-0.0162,0.8883,-6.85,7.94,0.02,31.27
22271,0.2097,-0.0149,0.8895,-6.75,8.03,-0.11,31.28
22281,0.2123,-0.0151,0.8907,-6.89,7.95,-0.08,31.28
22292,0.2142,-0.017,0.8915,-6.82,7.95,-0.05,31.28
22303,0.2126,-0.0172,0.892,-6.82,8.03,-0.05,31.26
22313,0.2111,-0.0195,0.892,-6.84,7.97,-0.12,31.27
22323,0.2126,-0.0193,0.8911,-6.82,8.0,0.06,31.27
22333,0.2115,-0.0198,0.8892,-6.81,7.98,-0.05,31.27
22343,0.2137,-0.0205,0.8854,-6.78,7.95,-0.09,31.27
22353,0.2103,-0.0215,0.8901,-6.82,8.06,-0.09,31.27
22363,0.2119,-0.0155,0.8912,-6.82,8.11,-0.09,31.28
22373,0.2096,-0.0203,0.8879,-6.82,7.98,-0.02,31.29
22383,0.2095,-0.0188,0.8903,-6.73,8.03,-0.03,31.29
22393,0.2094,-0.0166,0.8888,-6.87,8.0,-0.08,31.28
22403,0.2131,-0.0186,0.887,-6.76,7.97,-0.12,31.27
22413,0.2128,-0.0175,0.886,-6.82,7.95,-0.14,31.29
22423,0.2134,-0.0168,0.8865,-6.81,8.05,-0.06,31.28
22433,0.2151,-0.0161,0.8883,-6.84,8.09,0.03,31.27
22443,0.2112,-0.0184,0.8915,-6.82,7.97,-0.03,31.27
22453,0.2113,-0.0166,0.8916,-6.87,7.95,-0.02,31.28
22463,0.213,-0.0179,0.8877,-6.85,7.95,0.05,31.28
22473,0.2117,-0.0193,0.8904,-6.87,7.97,-0.02,31.28
22483,0.2134,-0.0222,0.8899,-6.78,7.97,-0.12,31.29
22493,0.2109,-0.0201,0.8864,-6.85,8.03,-0.02,31.28
22503,0.2098,-0.0206,0.8895,-6.85,8.02,-0.05,31.32
22513,0.2126,-0.0215,0.8899,-6.82,7.94,-0.06,31.29
22523,0.2126,-0.0175,0.886,-6.87,7.97,0.02,31.27
22533,0.2151,-0.0182,0.885,-6.79,8.0,-0.09,31.28
22543,0.2142,-0.0209,0.8867,-6.87,7.97,-0.05,31.29
22553,0.2144,-0.0181,0.8901,-6.84,7.98,-0.14,31.28
22563,0.2129,-0.014,0.8896,-6.92,8.02,-0.03,31.28
22573,0.2108,-0.0155,0.8892,-6.78,7.95,-0.08,31.3
22583,0.2109,-0.0178,0.889,-6.95,8.03,-0.03,31.27
22593,0.2102,-0.0157,0.89,-6.85,8.02,-0.08,31.28
22603,0.2134,-0.0176,0.8877,-6.85,7.97,0.0,31.29
22613,0.2118,-0.0195,0.8955,-6.81,7.95,-0.03,31.29
22623,0.2122,-0.0193,0.8862,-6.79,7.92,-0.03,31.29
22633,0.213,-0.0211,0.8909,-6.87,8.03,-0.09,31.29
22643,0.2136,-0.0215,0.8883,-6.89,7.94,-0.06,31.28
22653,0.2126,-0.0179,0.8939,-6.89,8.02,-0.05,31.27
22663,0.212,-0.0199,0.8899,-6.84,7.98,0.02,31.27
22673,0.2151,-0.0184,0.89,-6.81,7.95,-0.02,31.31
22683,0.2124,-0.0182,0.8898,-6.81,8.05,-0.03,31.29
22693,0.2118,-0.0173,0.8875,-6.85,7.97,-0.05,31.27
22703,0.2125,-0.0182,0.8898,-6.85,7.98,-0.05,31.28
22713,0.2153,-0.0209,0.8921,-6.87,7.97,-0.06,31.27
22723,0.2134,-0.0216,0.8903,-6.79,7.94,-0.08,31.27
22733,0.2112,-0.0197,0.8884,-6.81,8.02,-0.06,31.29
22743,0.2118,-0.0175,0.8881,-6.82,7.95,-0.09,31.27
22753,0.2145,-0.016,0.8894,-6.92,7.98,-0.09,31.28
22763,0.2115,-0.0183,0.8855,-6.84,7.95,-0.08,31.28
22773,0.2128,-0.0157,0.8857,-6.85,7.97,-0.11,31.29
22783,0.2146,-0.0157,0.8872,-6.85,7.97,-0.02,31.27
22793,0.2141,-0.0186,0.8906,-6.9,7.97,-0.06,31.28
22803,0.2104,-0.0193,0.8904,-6.89,7.95,0.06,31.29
22813,0.2135,-0.0201,0.8871,-6.81,7.95,0.0,31.28
22823,0.2104,-0.0189,0.8889,-6.89,8.06,-0.06,31.28
22833,0.212,-0.0184,0.8871,-6.85,7.98,-0.11,31.28
22843,0.2101,-0.0188,0.8894,-6.84,7.94,-0.14,31.28
22854,0.2108,-0.0192,0.89,-6.93,7.97,-0.15,31.27
22864,0.2114,-0.0217,0.8933,-6.9,8.02,-0.02,31.29
22874,0.215,-0.0211,0.8905,-6.84,8.0,-0.09,31.29
22884,0.2124,-0.02,0.887,-6.81,7.91,-0.06,31.29
22894,0.2135,-0.0167,0.8904,-6.79,7.97,-0.05,31.3
22904,0.2131,-0.0132,0.8898,-6.85,8.03,-0.03,31.3
22914,0.2111,-0.0148,0.8866,-6.87,8.02,-0.03,31.3
22924,0.2112,-0.0177,0.8884,-6.84,8.0,-0.05,31.29
22934,0.2123,-0.0176,0.8903,-6.84,8.02,-0.06,31.27
22944,0.2142,-0.0189,0.8903,-6.81,8.03,-0.08,31.26
22954,0.2134,-0.0205,0.8881,-6.85,7.92,0.02,31.29
22964,0.2123,-0.0205,0.8866,-6.84,7.98,0.0,31.32
22974,0.2111,-0.0203,0.8901,-6.93,8.03,0.02,31.27
22984,0.2115,-0.0175,0.89,-6.87,7.98,-0.02,31.29
22994,0.2104,-0.0182,0.8912,-6.81,7.98,-0.08,31.28
23004,0.2131,-0.0178,0.8928,-6.79,8.03,-0.08,31.28
23014,0.2133,-0.0182,0.8912,-6.85,8.02,-0.15,31.27
23024,0.2114,-0.0189,0.8895,-6.85,7.95,-0.05,31.28
23035,0.2108,-0.0201,0.887,-6.9,8.02,-0.06,31.29
23045,0.2141,-0.0166,0.8851,-6.93,8.02,-0.05,31.27
23055,0.2097,-0.0159,0.892,-6.89,8.06,-0.15,31.27
23068,0.213,-0.0164,0.8876,-6.82,7.95,0.0,31.29
23078,0.2113,-0.0176,0.8896,-6.78,8.05,-0.06,31.27
23088,0.2118,-0.0199,0.889,-6.9,7.97,0.05,31.31
23098,0.2128,-0.0192,0.89,-6.82,8.02,-0.06,31.28
23110,0.2112,-0.0182,0.8866,-6.85,7.94,-0.08,31.28
23120,0.2126,-0.0189,0.8914,-6.93,7.94,-0.06,31.28
23130,0.212,-0.0168,0.8934,-6.85,7.92,-0.02,31.31
23140,0.2117,-0.0181,0.8889,-6.82,7.94,-0.05,31.3
23150,0.213,-0.0167,0.8883,-6.78,8.02,-0.03,31.28
23160,0.2128,-0.0193,0.8868,-6.9,7.94,-0.02,31.28
23170,0.213,-0.0165,0.8883,-6.79,7.98,-0.03,31.28
23180,0.2118,-0.0164,0.8842,-6.81,8.02,0.02,31.28
23190,0.2125,-0.0178,0.8904,-6.81,8.0,-0.05,31.27
23200,0.2123,-0.0177,0.8909,-6.84,7.98,-0.03,31.28
23210,0.2107,-0.0168,0.8894,-6.89,8.0,-0.02,31.27
23220,0.2131,-0.0193,0.8861,-6.89,8.02,-0.03,31.29
23230,0.2107,-0.0192,0.8844,-6.82,8.05,-0.03,31.28
23240,0.2122,-0.0193,0.8938,-6.87,8.06,-0.03,31.25
23250,0.2098,-0.0219,0.8904,-6.85,8.02,-0.08,31.29
23260,0.2131,-0.0178,0.8899,-6.82,8.02,-0.08,31.31
23270,0.2107,-0.0155,0.8911,-6.79,7.98,0.03,31.28
23280,0.209,-0.0164,0.8917,-6.82,8.03,0.0,31.31
23292,0.2115,-0.0148,0.8936,-6.81,7.97,-0.05,31.29
23302,0.2092,-0.019,0.8896,-6.87,7.98,0.0,31.27
23312,0.212,-0.0197,0.8901,-6.85,8.0,-0.05,31.29
23322,0.2133,-0.0189,0.8838,-6.85,7.94,0.0,31.26
23332,0.2095,-0.0183,0.8854,-6.85,8.0,-0.05,31.27
23342,0.2108,-0.0199,0.8887,-6.81,8.0,-0.08,31.28
23352,0.2111,-0.0199,0.8865,-6.82,7.97,0.06,31.29
23362,0.2122,-0.019,0.8907,-6.84,7.98,-0.12,31.29
23372,0.209,-0.021,0.8884,-6.9,8.03,-0.09,31.28
23383,0.2128,-0.0184,0.8921,-6.85,8.08,-0.08,31.28
23393,0.2128,-0.0219,0.8905,-6.82,8.05,-0.08,31.28
23403,0.2153,-0.0189,0.8906,-6.9,7.94,-0.02,31.29
23413,0.2162,-0.017,0.89,-6.78,8.02,-0.02,31.27
23423,0.2164,-0.0168,0.8934,-6.84,7.92,-0.05,31.28
23433,0.2155,-0.0186,0.8894,-6.84,7.98,-0.12,31.27
23443,0.2126,-0.0187,0.8901,-6.93,8.05,0.05,31.29
23453,0.2101,-0.0171,0.8865,-6.87,8.06,0.03,31.3
23463,0.2106,-0.015,0.8867,-6.79,7.98,-0.05,31.32
23473,0.2092,-0.0143,0.889,-6.82,8.03,0.0,31.29
23483,0.2085,-0.0176,0.8883,-6.87,8.0,-0.11,31.3
23493,0.2112,-0.0216,0.8882,-6.82,8.02,-0.05,31.28
23503,0.2134,-0.0167,0.89,-6.89,8.02,-0.09,31.3
23513,0.2153,-0.0167,0.8911,-6.92,7.89,-0.08,31.29
23523,0.2104,-0.0164,0.8859,-6.81,8.05,-0.11,31.29
23533,0.2129,-0.0167,0.8912,-6.87,8.03,-0.09,31.31
23543,0.214,-0.0203,0.8912,-6.9,7.98,0.05,31.32
23553,0.2111,-0.0184,0.8937,-6.87,8.09,-0.03,31.3
23563,0.2109,-0.0186,0.8866,-6.85,8.06,0.0,31.3
23573,0.2126,-0.0197,0.8918,-6.82,8.03,0.0,31.29
23583,0.2136,-0.0173,0.8876,-6.89,7.95,-0.06,31.31
23593,0.2122,-0.0165,0.8898,-6.87,7.98,-0.09,31.33
23603,0.2133,-0.0167,0.8878,-6.75,7.98,-0.05,31.33
23613,0.2118,-0.0192,0.8864,-6.85,8.06,-0.09,31.31
23623,0.2111,-0.0164,0.8915,-6.85,8.02,-0.05,31.34
23633,0.2131,-0.0167,0.8907,-6.76,8.0,-0.09,31.31
23643,0.2106,-0.0175,0.8899,-6.85,7.98,-0.06,31.29
23653,0.2103,-0.0194,0.8875,-6.81,7.92,-0.08,31.31
23663,0.2118,-0.0181,0.8887,-6.85,7.98,-0.05,31.32
23673,0.2131,-0.0176,0.8844,-6.82,8.0,-0.03,31.3
23683,0.2134,-0.0198,0.8879,-6.76,8.0,-0.05,31.29
23693,0.2136,-0.0201,0.8876,-6.75,8.0,0.05,31.3
23703,0.2144,-0.0179,0.8882,-6.9,7.98,-0.02,31.32
23713,0.2122,-0.0208,0.8853,-6.89,8.0,-0.06,31.31
23723,0.2144,-0.0151,0.8895,-6.72,8.0,-0.03,31.3
23733,0.2092,-0.0186,0.8884,-6.73,8.0,-0.02,31.29
23743,0.2107,-0.0173,0.8864,-6.84,8.05,-0.02,31.3
23753,0.212,-0.014,0.8892,-6.82,8.02,0.0,31.3
23763,0.2146,-0.0193,0.8882,-6.82,7.94,0.0,31.3
23773,0.2137,-0.0184,0.8883,-6.85,7.97,-0.03,31.29
23783,0.2117,-0.0182,0.886,-6.87,7.89,-0.09,31.32
23793,0.2152,-0.0182,0.8899,-6.87,8.0,-0.08,31.31
23803,0.2131,-0.0165,0.8872,-6.87,8.0,-0.03,31.29
23813,0.2112,-0.0198,0.8872,-6.93,7.94,-0.08,31.32
23823,0.2124,-0.0195,0.8887,-6.82,7.95,0.05,31.31
23833,0.2098,-0.0222,0.8877,-6.76,7.97,-0.02,31.29
23843,0.2141,-0.0214,0.8861,-6.81,7.97,0.0,31.3
23853,0.2098,-0.0217,0.8862,-6.81,7.95,-0.08,31.3
23863,0.2115,-0.0214,0.8916,-6.82,7.94,-0.03,31.3
23873,0.2109,-0.02,0.8916,-6.85,8.0,-0.11,31.32
23883,0.2145,-0.0165,0.8864,-6.87,7.98,-0.09,31.32
23893,0.2118,-0.0198,0.8926,-6.85,7.97,-0.09,31.32
23903,0.2095,-0.019,0.8915,-6.82,7.97,-0.06,31.34
23913,0.2135,-0.0188,0.8867,-6.84,7.98,-0.08,31.34
23923,0.2112,-0.0166,0.8911,-6.84,7.97,-0.05,31.31
23933,0.2113,-0.0173,0.8857,-6.93,8.06,-0.06,31.32
23943,0.2112,-0.0151,0.8899,-6.85,7.97,-0.02,31.29
23953,0.2123,-0.019,0.8884,-6.79,7.97,-0.12,31.3
23963,0.2109,-0.0179,0.8883,-6.81,7.98,-0.06,31.29
23973,0.2145,-0.0189,0.8915,-6.81,7.92,-0.06,31.32
23983,0.2125,-0.0183,0.8911,-6.76,8.03,-0.06,31.3
23993,0.2087,-0.0212,0.8878,-6.84,8.0,0.0,31.33
24003,0.2112,-0.0195,0.8888,-6.81,8.03,-0.02,31.34
24013,0.2103,-0.0208,0.8883,-6.87,8.0,0.0,31.31
24023,0.2123,-0.0178,0.8881,-6.85,8.0,-0.06,31.29
24033,0.214,-0.0188,0.8918,-6.87,7.94,-0.08,31.29
24043,0.2119,-0.0195,0.8899,-6.87,8.06,0.02,31.3
24053,0.2141,-0.0161,0.8861,-6.78,8.02,-0.05,31.31
24063,0.2097,-0.0179,0.8906,-6.9,8.06,-0.05,31.31
24073,0.2114,-0.019,0.8912,-6.81,8.02,-0.06,31.33
24083,0.2118,-0.0193,0.8915,-6.85,8.02,-0.05,31.29
24093,0.2102,-0.0153,0.8927,-6.82,7.94,-0.06,31.31
24103,0.2109,-0.0179,0.8837,-6.78,8.03,-0.08,31.33
24113,0.2123,-0.0166,0.8873,-6.82,8.03,0.0,31.31
24123,0.2142,-0.021,0.8898,-6.82,8.0,-0.03,31.3
24133,0.2111,-0.0175,0.8915,-6.85,7.94,-0.02,31.33
24143,0.2106,-0.0195,0.8876,-6.89,8.03,0.0,31.31
24153,0.209,-0.0172,0.8878,-6.81,8.06,-0.02,31.31
24163,0.2101,-0.0182,0.8911,-6.84,8.0,-0.09,31.3
24173,0.2118,-0.0173,0.8857,-6.85,7.92,-0.09,31.3
24183,0.2146,-0.0159,0.884,-6.75,7.95,-0.05,31.31
24193,0.2126,-0.0176,0.8921,-6.89,7.98,-0.03,31.31
24203,0.2133,-0.0197,0.8923,-6.84,7.97,-0.02,31.3
24213,0.214,-0.0189,0.8929,-6.79,7.98,-0.06,31.31
24223,0.2148,-0.0187,0.8899,-6.81,8.05,-0.05,31.31
24233,0.2114,-0.0165,0.885,-6.87,8.02,-0.02,31.32
24243,0.2107,-0.0201,0.8877,-6.81,7.98,-0.05,31.31
24253,0.2114,-0.0145,0.8883,-6.84,8.03,-0.08,31.31
24263,0.2111,-0.0178,0.8925,-6.84,8.06,-0.09,31.33
24273,0.2169,-0.0179,0.8921,-6.92,7.95,-0.03,31.31
24283,0.2123,-0.0173,0.891,-6.9,8.0,0.0,31.31
24293,0.2129,-0.0154,0.8923,-6.92,7.97,0.0,31.31
24303,0.2126,-0.0173,0.8922,-6.85,7.95,-0.06,31.32
24313,0.2115,-0.0172,0.8887,-6.84,8.02,-0.08,31.32
24323,0.2111,-0.0186,0.8915,-6.89,8.02,-0.03,31.32
24333,0.2118,-0.0203,0.8914,-6.9,8.02,-0.02,31.32
24343,0.2123,-0.0204,0.8906,-6.85,8.05,-0.06,31.32
24353,0.2136,-0.0182,0.8864,-6.78,7.97,-0.02,31.32
24363,0.2147,-0.0199,0.8914,-6.95,8.0,-0.03,31.3
24373,0.2095,-0.0184,0.8895,-6.82,8.02,-0.08,31.3
24383,0.2122,-0.0188,0.8877,-6.92,7.98,-0.06,31.31
24393,0.2102,-0.0173,0.8933,-6.79,8.0,0.0,31.34
24403,0.2135,-0.0156,0.8962,-6.87,7.89,-0.06,31.32
24413,0.2113,-0.0175,0.8903,-6.87,7.98,-0.08,31.32
24423,0.212,-0.0166,0.8895,-6.73,7.98,0.02,31.33
24433,0.2125,-0.0146,0.8892,-6.73,7.92,-0.06,31.33
24443,0.2151,-0.0187,0.8878,-6.79,7.95,-0.05,31.31
24453,0.2115,-0.0188,0.8851,-6.79,8.0,-0.02,31.34
24463,0.2092,-0.0203,0.8879,-6.87,8.03,-0.09,31.32
24473,0.2107,-0.0186,0.8877,-6.84,7.92,-0.09,31.34
24483,0.2107,-0.0192,0.8837,-6.87,8.0,-0.12,31.33
24493,0.2106,-0.0193,0.886,-6.82,7.91,-0.05,31.33
24503,0.213,-0.0194,0.8933,-6.82,8.0,-0.08,31.3
24513,0.2159,-0.0183,0.8896,-6.85,7.94,-0.08,31.33
24523,0.2136,-0.0193,0.8881,-6.89,7.94,-0.06,31.35
24533,0.2135,-0.0164,0.8918,-6.84,7.94,0.03,31.32
24543,0.214,-0.0173,0.8905,-6.73,8.0,-0.06,31.32
24553,0.2119,-0.0159,0.8929,-6.84,7.94,-0.12,31.34
24563,0.2107,-0.0162,0.8896,-6.78,8.08,-0.14,31.33
24573,0.2145,-0.0178,0.8904,-6.85,8.03,-0.05,31.31
24583,0.2122,-0.0177,0.8885,-6.89,7.94,-0.03,31.32
24593,0.2111,-0.0162,0.891,-6.9,8.02,-0.08,31.31
24603,0.21,-0.0176,0.8866,-6.79,7.95,0.03,31.34
24613,0.2125,-0.0181,0.8918,-6.89,7.94,-0.08,31.31
24623,0.2133,-0.0182,0.8864,-6.89,7.97,-0.11,31.31
24633,0.2107,-0.0203,0.8865,-6.79,8.02,-0.05,31.31
24643,0.2114,-0.0183,0.8918,-6.82,7.98,0.02,31.31
24653,0.2139,-0.0179,0.8894,-6.85,7.97,0.0,31.31
24663,0.2112,-0.0181,0.8909,-6.89,8.0,-0.03,31.33
24673,0.2125,-0.0192,0.8885,-6.93,8.0,-0.05,31.31
24683,0.2131,-0.02,0.8884,-6.82,7.92,0.03,31.34
24693,0.2091,-0.0172,0.8879,-6.87,8.0,0.02,31.34
24703,0.2107,-0.0172,0.8915,-6.85,8.02,-0.09,31.32
24713,0.2092,-0.0176,0.8906,-6.87,7.95,-0.03,31.32
24723,0.2129,-0.0179,0.8866,-6.89,8.0,-0.14,31.32
24733,0.2109,-0.0164,0.8915,-6.85,8.05,-0.11,31.34
24743,0.2119,-0.0211,0.8888,-6.84,8.02,-0.08,31.32
24753,0.2153,-0.0151,0.8876,-6.81,7.97,-0.03,31.34
24763,0.2147,-0.0168,0.8887,-6.81,7.91,-0.09,31.32
24773,0.2144,-0.0193,0.8903,-6.9,7.97,-0.14,31.3
24783,0.215,-0.0195,0.8875,-6.78,8.02,0.02,31.33
24793,0.213,-0.0162,0.8909,-6.89,7.98,0.08,31.34
24803,0.212,-0.0215,0.8922,-6.81,7.94,-0.05,31.32
24813,0.2104,-0.0225,0.8887,-6.9,8.02,0.0,31.31
24823,0.2115,-0.0204,0.8867,-6.9,7.98,0.0,31.31
24833,0.2119,-0.0198,0.8905,-6.84,7.97,-0.06,31.3
24843,0.2078,-0.0217,0.8893,-6.87,8.0,-0.06,31.34
24853,0.2114,-0.0177,0.887,-6.84,8.05,-0.11,31.34
24863,0.2118,-0.017,0.8877,-6.79,8.0,-0.08,31.32
24873,0.2115,-0.0168,0.8912,-6.81,8.03,0.03,31.33
24883,0.2146,-0.0161,0.8875,-6.84,7.95,-0.08,31.33
24893,0.2125,-0.0167,0.8907,-6.85,7.98,-0.08,31.35
24903,0.2115,-0.0179,0.8926,-6.9,7.97,-0.11,31.32
24913,0.2114,-0.0176,0.8912,-6.79,7.98,-0.08,31.32
24923,0.2111,-0.0176,0.8915,-6.85,8.03,-0.05,31.33
24933,0.2085,-0.0173,0.8901,-6.78,7.97,-0.11,31.33
24943,0.2097,-0.0189,0.8909,-6.85,7.95,-0.02,31.35
24953,0.2126,-0.0187,0.8826,-6.82,7.97,-0.02,31.32
24963,0.2102,-0.0205,0.889,-6.92,8.03,-0.15,31.33
24973,0.2124,-0.0197,0.8909,-6.89,7.95,-0.08,31.34
24983,0.2094,-0.0186,0.8856,-6.9,8.0,-0.08,31.34
24993,0.2101,-0.0199,0.8893,-6.82,7.91,-0.03,31.33
25003,0.2114,-0.016,0.8929,-6.85,7.97,-0.11,31.32
25013,0.2117,-0.019,0.8914,-6.81,8.0,-0.15,31.35
25023,0.2153,-0.0178,0.8882,-6.82,8.09,-0.06,31.31
25033,0.2153,-0.0187,0.8892,-6.85,8.05,-0.06,31.31
25043,0.2129,-0.0164,0.8916,-6.76,7.97,-0.11,31.34
25053,0.2137,-0.019,0.889,-6.82,7.97,-0.03,31.32
25063,0.2117,-0.0162,0.8928,-6.84,8.02,0.03,31.33
25073,0.213,-0.0177,0.8903,-6.82,8.0,-0.08,31.33
25083,0.2108,-0.0179,0.8875,-6.87,7.95,-0.05,31.33
25093,0.2119,-0.0177,0.8865,-6.89,7.92,-0.08,31.34
25103,0.2101,-0.0211,0.8857,-6.92,7.95,-0.03,31.32
25113,0.2134,-0.0173,0.8901,-6.95,7.98,-0.08,31.33
25123,0.2128,-0.0204,0.8949,-6.9,8.0,-0.05,31.35
25133,0.2103,-0.0145,0.8896,-6.9,7.95,-0.03,31.31
25143,0.2114,-0.0171,0.8904,-6.84,8.03,0.0,31.34
25153,0.2122,-0.0212,0.8904,-6.93,8.02,-0.05,31.34
25163,0.2135,-0.0201,0.8936,-6.89,7.95,0.03,31.34
25173,0.2135,-0.0176,0.8871,-6.89,8.0,-0.08,31.34
25183,0.2118,-0.0194,0.8904,-6.85,8.02,-0.03,31.35
25193,0.2112,-0.0197,0.8921,-6.85,7.97,-0.05,31.33
25203,0.2108,-0.016,0.8871,-6.84,8.0,-0.06,31.35
25213,0.209,-0.0176,0.8912,-6.81,7.94,-0.06,31.33
25223,0.2146,-0.0194,0.891,-6.93,8.0,0.02,31.35
25233,0.2118,-0.0173,0.886,-6.79,8.02,-0.02,31.32
25243,0.2126,-0.0184,0.8914,-6.82,7.95,-0.05,31.36
25253,0.2131,-0.0168,0.8912,-6.89,7.97,-0.06,31.33
25263,0.2108,-0.0176,0.8899,-6.89,8.09,0.02,31.33
25273,0.212,-0.0171,0.8882,-6.85,8.08,-0.03,31.33
25283,0.2147,-0.0162,0.892,-6.84,8.0,-0.09,31.33
25293,0.2111,-0.0199,0.8876,-6.81,7.97,0.0,31.34
25303,0.2107,-0.021,0.8864,-6.75,8.02,-0.06,31.33
25313,0.2122,-0.0177,0.89,-6.87,7.88,-0.08,31.31
25323,0.2111,-0.0188,0.8918,-6.82,8.0,-0.03,31.33
25333,0.2119,-0.021,0.8933,-6.76,7.95,-0.06,31.34
25343,0.2137,-0.0199,0.8923,-6.93,8.03,-0.05,31.33
25353,0.2151,-0.0182,0.8882,-6.82,8.0,-0.03,31.34
25363,0.2126,-0.0177,0.8927,-6.81,8.02,-0.11,31.34
25373,0.2146,-0.0176,0.8918,-6.82,8.05,-0.06,31.36
25383,0.2113,-0.0186,0.8882,-6.82,8.02,-0.03,31.34
25393,0.2087,-0.0187,0.8917,-6.87,8.02,-0.02,31.34
25403,0.213,-0.0172,0.894,-6.92,8.05,-0.08,31.32
25413,0.2094,-0.0208,0.8887,-6.85,8.03,-0.08,31.34
25423,0.2118,-0.0148,0.8898,-6.87,8.0,-0.06,31.34
25433,0.212,-0.0188,0.8859,-6.82,7.97,-0.06,31.35
25443,0.2115,-0.0165,0.8866,-6.87,7.97,-0.08,31.34
25453,0.21,-0.0181,0.8881,-6.85,7.98,-0.12,31.32
25463,0.215,-0.019,0.8853,-6.87,7.95,-0.03,31.33
25473,0.2118,-0.0227,0.8894,-6.89,7.97,-0.02,31.36
25483,0.2122,-0.0199,0.891,-6.82,7.89,-0.08,31.34
25493,0.2115,-0.0233,0.8898,-6.81,8.06,-0.03,31.32
25504,0.2095,-0.0179,0.8898,-6.79,8.02,-0.06,31.32
25514,0.2123,-0.0173,0.889,-6.84,7.98,-0.06,31.35
25524,0.2115,-0.0159,0.8887,-6.9,8.03,-0.12,31.36
25534,0.2109,-0.0183,0.8871,-6.85,7.98,-0.11,31.35
25544,0.2102,-0.0164,0.8875,-6.84,8.02,-0.06,31.34
25554,0.2122,-0.0153,0.8936,-6.84,7.98,0.0,31.35
25564,0.2112,-0.0164,0.8883,-6.89,8.0,0.05,31.35
25574,0.2098,-0.0162,0.8888,-6.89,7.97,-0.02,31.35
25584,0.2122,-0.017,0.8905,-6.9,7.94,-0.09,31.34
25594,0.2123,-0.0167,0.8904,-6.87,8.02,-0.08,31.35
25604,0.2128,-0.0159,0.8911,-6.85,8.0,-0.05,31.34
25614,0.2128,-0.0159,0.887,-6.78,8.0,-0.06,31.36
25624,0.2103,-0.0179,0.8901,-6.81,8.05,-0.09,31.34
25634,0.2089,-0.0173,0.8893,-6.85,8.03,-0.02,31.34
25644,0.2119,-0.0189,0.8947,-6.87,7.94,-0.05,31.34
25654,0.212,-0.0178,0.8884,-6.85,7.95,-0.02,31.35
25664,0.2109,-0.0187,0.8895,-6.81,7.97,-0.06,31.35
25674,0.2144,-0.0209,0.8882,-6.79,8.02,-0.09,31.37
25684,0.2155,-0.0212,0.8925,-6.82,8.0,-0.05,31.36
25694,0.2133,-0.0205,0.8905,-6.9,8.0,-0.05,31.34
25704,0.2139,-0.0208,0.8915,-6.82,8.0,-0.03,31.34
25714,0.213,-0.0204,0.8906,-6.87,8.05,-0.05,31.35
25724,0.2104,-0.0166,0.8873,-6.81,8.02,-0.02,31.34
25734,0.2109,-0.0183,0.892,-6.89,7.98,-0.03,31.32
25744,0.2107,-0.0155,0.8905,-6.82,7.98,-0.06,31.33
25754,0.2059,-0.0157,0.8881,-6.93,7.95,-0.08,31.33
25764,0.2114,-0.017,0.8873,-6.93,7.97,-0.06,31.34
25774,0.2135,-0.019,0.8855,-6.89,8.03,-0.03,31.37
25784,0.2124,-0.0195,0.8855,-6.84,8.03,-0.12,31.35
25794,0.2126,-0.0179,0.8866,-6.79,8.03,-0.05,31.35
25804,0.212,-0.0211,0.8879,-6.9,8.02,-0.06,31.37
25814,0.2133,-0.0192,0.8914,-6.89,7.98,-0.06,31.35
25824,0.2147,-0.0183,0.889,-6.9,8.06,-0.12,31.33
25834,0.2119,-0.0221,0.8907,-6.84,8.03,-0.09,31.32
25844,0.2135,-0.0206,0.8867,-6.85,7.91,0.02,31.34
25854,0.2148,-0.0193,0.8947,-6.84,7.98,-0.06,31.35
25864,0.2119,-0.0199,0.8895,-6.87,7.98,-0.08,31.35
25874,0.21,-0.0166,0.8864,-6.82,7.97,-0.03,31.33
25885,0.2128,-0.015,0.8893,-6.93,8.0,-0.05,31.36
25895,0.2102,-0.0164,0.887,-6.81,7.97,-0.08,31.37
25908,0.2108,-0.0173,0.8883,-6.84,7.98,-0.08,31.37
25918,0.2095,-0.0183,0.8894,-6.87,8.06,-0.08,31.33
25928,0.2125,-0.0166,0.8896,-6.89,7.97,-0.03,31.33
25938,0.2115,-0.0212,0.8921,-6.87,8.03,-0.11,31.35
25948,0.2111,-0.0176,0.8856,-6.82,7.98,-0.05,31.36
25958,0.2134,-0.0193,0.8876,-6.76,7.94,-0.05,31.36
25969,0.212,-0.0172,0.8871,-6.84,8.06,-0.12,31.37
25979,0.2107,-0.0189,0.8881,-6.84,8.06,-0.06,31.36
25989,0.2113,-0.0182,0.8892,-6.84,8.03,-0.05,31.35
25999,0.2112,-0.0205,0.8923,-6.85,8.05,0.0,31.34
26009,0.2114,-0.0186,0.8909,-6.82,7.94,0.0,31.38
26019,0.2125,-0.019,0.8903,-6.81,7.97,0.03,31.36
26029,0.2111,-0.0216,0.8914,-6.84,7.92,-0.05,31.36
26039,0.2126,-0.0173,0.8917,-6.82,8.02,0.02,31.34
26049,0.2123,-0.0159,0.8918,-6.76,7.97,-0.11,31.34
26059,0.2117,-0.0173,0.8934,-6.92,8.03,-0.03,31.34
26069,0.2137,-0.0171,0.8907,-6.9,7.98,-0.05,31.34
26079,0.2111,-0.0187,0.8932,-6.9,8.06,-0.02,31.35
26089,0.2123,-0.0155,0.8892,-6.89,7.94,-0.08,31.36
26099,0.2119,-0.0211,0.8921,-6.82,8.0,-0.03,31.34
26110,0.2133,-0.0186,0.8907,-6.82,7.97,0.0,31.33
26120,0.2111,-0.0178,0.8905,-6.85,7.98,-0.03,31.33
26130,0.2086,-0.0175,0.892,-6.81,7.95,-0.06,31.32
26140,0.2101,-0.0182,0.8894,-6.85,8.0,0.03,31.35
26150,0.2117,-0.0194,0.8894,-6.76,8.06,0.02,31.39
26161,0.2104,-0.0187,0.8921,-6.85,8.0,-0.05,31.36
26171,0.2118,-0.0176,0.8895,-6.81,8.02,-0.05,31.32
26181,0.2137,-0.0177,0.8927,-6.89,8.02,-0.06,31.35
26191,0.2117,-0.0186,0.8912,-6.82,7.97,-0.06,31.36
26201,0.2128,-0.0187,0.8898,-6.82,7.97,-0.06,31.35
26211,0.2145,-0.0183,0.8905,-6.87,8.02,-0.06,31.35
26221,0.2111,-0.0176,0.8813,-6.79,8.0,-0.03,31.34
26231,0.2091,-0.0189,0.8909,-6.87,8.02,-0.08,31.35
26241,0.2111,-0.0144,0.8911,-6.87,7.98,-0.08,31.34
26251,0.2095,-0.0151,0.8909,-6.85,7.97,-0.08,31.34
26261,0.2133,-0.017,0.8882,-6.89,7.97,-0.14,31.36
26271,0.21,-0.0173,0.8879,-6.87,7.94,0.02,31.34
26281,0.2152,-0.0178,0.889,-6.84,8.05,0.03,31.32
26291,0.2119,-0.0173,0.8909,-6.85,7.94,-0.11,31.37
26301,0.2163,-0.02,0.8879,-6.87,8.02,-0.09,31.35
26312,0.2159,-0.0186,0.8927,-6.87,8.0,-0.09,31.36
26322,0.2134,-0.021,0.8881,-6.87,7.94,-0.05,31.36
26332,0.212,-0.0223,0.8906,-6.84,7.94,-0.06,31.36
26342,0.214,-0.021,0.8881,-6.82,8.02,-0.02,31.35
26352,0.2115,-0.0201,0.8853,-6.81,8.0,-0.09,31.35
26362,0.2129,-0.0209,0.8857,-6.85,8.0,0.02,31.36
26372,0.2124,-0.0188,0.8849,-6.87,7.97,-0.06,31.37
26382,0.2115,-0.0177,0.8859,-6.84,8.03,-0.09,31.38
26392,0.2137,-0.0167,0.8879,-6.79,7.92,-0.08,31.33
26402,0.2131,-0.0143,0.8873,-6.84,8.03,0.0,31.34
26412,0.2114,-0.0173,0.8911,-6.89,8.02,-0.05,31.35
26422,0.2146,-0.0171,0.8898,-6.84,7.98,-0.09,31.37
26432,0.2153,-0.0186,0.8936,-6.9,8.03,-0.08,31.38
26442,0.2126,-0.0177,0.8942,-6.79,7.98,-0.05,31.35
26452,0.2125,-0.0208,0.8898,-6.84,7.94,-0.06,31.36
26462,0.2114,-0.0189,0.8895,-6.85,7.95,0.06,31.34
26473,0.2148,-0.0212,0.8843,-6.92,8.02,0.0,31.35
26483,0.2117,-0.0168,0.8898,-6.87,7.98,-0.05,31.34
26493,0.2095,-0.0189,0.8911,-6.84,8.03,-0.11,31.36
26503,0.215,-0.0187,0.8875,-6.85,8.03,-0.15,31.37
26513,0.2134,-0.0208,0.8868,-6.9,8.0,-0.03,31.37
26523,0.2108,-0.0183,0.8854,-6.76,7.95,-0.11,31.39
26533,0.2136,-0.0188,0.8879,-6.89,7.98,-0.05,31.36
26543,0.2122,-0.0172,0.8915,-6.84,7.91,-0.05,31.35
26553,0.2123,-0.0195,0.8909,-6.9,7.98,0.05,31.38
26563,0.2141,-0.019,0.8864,-6.78,7.94,-0.03,31.35
26573,0.2111,-0.0181,0.8921,-6.84,7.95,0.02,31.37
26583,0.2166,-0.0171,0.886,-6.92,8.0,-0.11,31.37
26593,0.2091,-0.0183,0.8914,-6.89,7.94,-0.03,31.36
26603,0.2114,-0.0148,0.8895,-6.87,7.95,-0.02,31.38
26613,0.213,-0.0181,0.8855,-6.85,7.92,-0.08,31.37
26623,0.2103,-0.0215,0.8899,-6.85,7.98,-0.05,31.38
26633,0.2098,-0.0209,0.8905,-6.89,8.02,0.0,31.35
26643,0.2134,-0.0179,0.8951,-6.81,7.98,-0.08,31.37
26653,0.2114,-0.0181,0.8884,-6.82,7.97,0.02,31.37
26663,0.2126,-0.0195,0.8894,-6.92,7.95,0.02,31.37
26673,0.2159,-0.0173,0.8932,-6.84,8.02,-0.03,31.37
26683,0.2124,-0.0223,0.8914,-6.81,7.89,-0.02,31.36
26693,0.2141,-0.0206,0.8911,-6.81,7.98,-0.06,31.36
26703,0.2136,-0.0193,0.8876,-6.84,7.98,-0.03,31.36
26713,0.2111,-0.0167,0.8923,-6.82,8.02,-0.06,31.38
26723,0.2147,-0.0168,0.8854,-6.87,8.03,-0.05,31.36
26733,0.2097,-0.0164,0.8927,-6.87,7.95,-0.06,31.35
26743,0.2122,-0.0159,0.8914,-6.84,8.05,-0.08,31.35
26753,0.2146,-0.0189,0.8918,-6.78,7.95,-0.09,31.37
26763,0.21,-0.0157,0.89,-6.78,7.91,-0.09,31.36
26773,0.2097,-0.0177,0.8904,-6.87,7.92,-0.08,31.37
26783,0.2114,-0.0182,0.8876,-6.89,8.05,0.05,31.38
26793,0.2141,-0.0181,0.889,-6.93,8.02,-0.09,31.35
26803,0.214,-0.0166,0.8883,-6.85,7.95,0.0,31.36
26813,0.2113,-0.0205,0.8885,-6.89,7.92,-0.05,31.37
26823,0.213,-0.0192,0.8905,-6.9,8.12,-0.02,31.37
26833,0.2131,-0.0192,0.892,-6.87,7.94,-0.08,31.39
26843,0.2101,-0.0178,0.8921,-6.87,7.94,-0.09,31.37
26853,0.2111,-0.0203,0.8912,-6.85,7.92,0.02,31.36
26863,0.2137,-0.0183,0.8888,-6.85,7.98,0.03,31.39
26873,0.2115,-0.0194,0.8895,-6.85,7.92,0.0,31.37
26883,0.2109,-0.0175,0.891,-6.79,8.02,-0.06,31.36
26893,0.2108,-0.0198,0.8872,-6.85,8.03,-0.08,31.37
26903,0.2114,-0.0199,0.8873,-6.76,7.98,-0.03,31.36
26913,0.2117,-0.0201,0.8868,-6.85,7.98,-0.03,31.37
26923,0.2117,-0.0194,0.8905,-6.87,7.98,-0.05,31.34
26933,0.2129,-0.0193,0.8878,-6.87,7.97,-0.03,31.37
26943,0.2114,-0.0193,0.8866,-6.89,7.98,0.0,31.37
26953,0.2151,-0.0189,0.8918,-6.89,7.95,-0.03,31.35
26963,0.215,-0.0188,0.8907,-6.9,7.95,-0.02,31.36
26973,0.2104,-0.0203,0.8885,-6.82,8.03,-0.03,31.36
26983,0.212,-0.0184,0.8879,-6.85,7.97,-0.02,31.36
26993,0.2114,-0.0181,0.8915,-6.85,8.05,-0.05,31.37
27003,0.2122,-0.0216,0.8918,-6.84,8.03,-0.08,31.37
27013,0.2081,-0.021,0.8895,-6.79,7.97,-0.05,31.35
27023,0.21,-0.0186,0.8885,-6.96,7.94,-0.09,31.37
27033,0.2135,-0.017,0.891,-6.84,7.97,-0.03,31.39
27043,0.215,-0.016,0.8868,-6.85,8.06,0.02,31.37
27053,0.2113,-0.0165,0.8867,-6.89,8.03,-0.06,31.36
27063,0.2124,-0.0164,0.8837,-6.79,7.98,-0.03,31.37
27073,0.215,-0.0212,0.8895,-6.78,8.08,-0.02,31.37
27083,0.2115,-0.0148,0.8871,-6.81,7.97,-0.03,31.36
27093,0.2114,-0.016,0.8872,-6.9,7.94,0.05,31.38
27103,0.2106,-0.0186,0.8916,-6.92,8.03,-0.02,31.34
27113,0.215,-0.0182,0.8878,-6.9,8.0,-0.11,31.39
27123,0.2095,-0.02,0.8851,-6.92,7.95,-0.02,31.36
27133,0.2122,-0.0179,0.8862,-6.87,7.97,-0.02,31.34
27143,0.2131,-0.0176,0.8915,-6.84,8.05,0.0,31.37
27153,0.2083,-0.0176,0.8904,-6.85,7.97,-0.14,31.39
27163,0.2129,-0.0184,0.8877,-6.92,8.02,-0.06,31.37
27173,0.213,-0.0187,0.887,-6.9,7.95,-0.02,31.35
27183,0.2117,-0.0195,0.8896,-6.82,8.05,-0.06,31.38
27193,0.2157,-0.0171,0.89,-6.82,8.02,-0.11,31.39
27203,0.213,-0.02,0.8884,-6.84,7.94,-0.03,31.38
27213,0.213,-0.0204,0.8885,-6.85,7.95,-0.03,31.38
27223,0.2101,-0.0205,0.8906,-6.82,8.0,-0.11,31.36
27233,0.2107,-0.0164,0.8877,-6.82,7.98,-0.09,31.37
27243,0.2087,-0.0166,0.8876,-6.84,8.02,0.03,31.36
27253,0.2091,-0.0166,0.889,-6.81,7.94,-0.05,31.39
27263,0.2122,-0.0155,0.8884,-6.89,7.97,-0.03,31.37
27273,0.2114,-0.0193,0.8878,-6.82,8.03,-0.08,31.34
27283,0.2095,-0.0197,0.8796,-6.9,7.88,-0.02,31.39
27296,0.2129,-0.0168,0.8977,-6.9,8.11,0.03,31.39
27308,0.2184,-0.0111,0.9025,-6.9,8.05,-0.02,31.36
27318,0.212,-0.0084,0.8956,-6.9,7.88,-0.02,31.35
27328,0.2063,-0.0187,0.8881,-6.84,8.0,0.0,31.38
27338,0.2067,-0.0259,0.8866,-6.95,7.95,-0.06,31.37
27348,0.2045,-0.0232,0.8904,-6.84,8.23,-0.09,31.39
27358,0.207,-0.0201,0.8857,-6.89,8.03,0.03,31.4
27368,0.2114,-0.009,0.8909,-6.79,7.92,-0.03,31.38
27378,0.2109,-0.0106,0.8905,-6.81,8.0,-0.05,31.37
27389,0.212,-0.0146,0.8932,-6.84,8.0,-0.06,31.36
27399,0.2085,-0.0206,0.8939,-6.84,8.05,-0.14,31.38
27409,0.2159,-0.0204,0.8942,-6.81,8.03,-0.12,31.39
27419,0.212,-0.0106,0.8959,-6.87,8.23,-0.08,31.38
27429,0.2139,-0.0178,0.8846,-6.85,8.4,0.05,31.37
