t_ms,accel_x_g,accel_y_g,accel_z_g,gyro_x_dps,gyro_y_dps,gyro_z_dps,imu_temp_c
3277,0.3268,-0.025,0.864,-6.63,7.91,-0.11,29.64
3287,0.3293,-0.0249,0.8655,-6.69,8.0,-0.02,29.62
3297,0.3278,-0.0251,0.8662,-6.72,8.02,0.02,29.64
3307,0.328,-0.0275,0.8646,-6.67,7.98,0.03,29.62
3317,0.3284,-0.0245,0.8647,-6.72,7.91,-0.02,29.63
3327,0.3259,-0.0275,0.8628,-6.72,8.02,0.0,29.64
3337,0.3312,-0.0219,0.8628,-6.75,7.98,-0.02,29.63
3347,0.3275,-0.0243,0.8682,-6.75,8.02,0.05,29.63
3357,0.329,-0.0256,0.8627,-6.64,8.08,0.03,29.65
3367,0.3248,-0.0264,0.8667,-6.73,7.98,-0.02,29.64
3377,0.3275,-0.0264,0.8643,-6.64,7.97,-0.09,29.66
3387,0.33,-0.0265,0.8619,-6.69,7.94,-0.03,29.64
3397,0.3269,-0.0277,0.8616,-6.79,7.94,-0.08,29.66
3407,0.3298,-0.0236,0.8661,-6.66,8.0,-0.02,29.64
3417,0.3251,-0.0248,0.8632,-6.7,7.88,-0.05,29.62
3427,0.3273,-0.0286,0.8621,-6.79,7.85,0.02,29.63
3437,0.3273,-0.0271,0.8634,-6.72,7.92,0.0,29.64
3447,0.3251,-0.025,0.865,-6.78,7.88,-0.08,29.64
3457,0.3285,-0.0247,0.8651,-6.69,7.94,-0.06,29.65
3467,0.3298,-0.0258,0.8608,-6.72,7.95,-0.06,29.62
3477,0.3281,-0.027,0.8604,-6.72,7.95,-0.08,29.64
3487,0.3284,-0.0248,0.8612,-6.72,7.97,-0.02,29.64
3497,0.3275,-0.0256,0.8652,-6.73,7.95,-0.02,29.66
3507,0.3291,-0.0259,0.8696,-6.72,7.91,-0.08,29.63
3517,0.3289,-0.0237,0.8613,-6.63,7.94,-0.08,29.64
3527,0.3262,-0.0259,0.8651,-6.67,7.98,-0.05,29.66
3537,0.3267,-0.0262,0.8618,-6.79,7.95,-0.08,29.64
3547,0.3235,-0.0243,0.8645,-6.66,7.94,-0.08,29.64
3557,0.3267,-0.0256,0.8634,-6.75,7.95,0.05,29.64
3567,0.3289,-0.0255,0.8669,-6.67,7.97,-0.03,29.61
3577,0.3267,-0.0236,0.8649,-6.66,8.0,-0.09,29.63
3587,0.3268,-0.0244,0.8651,-6.72,7.98,0.03,29.65
3597,0.3259,-0.0256,0.8633,-6.69,7.97,-0.05,29.65
3607,0.3275,-0.0269,0.8597,-6.76,7.92,-0.05,29.65
3617,0.3273,-0.025,0.8656,-6.73,7.89,-0.05,29.63
3627,0.3292,-0.0233,0.8629,-6.72,7.94,0.03,29.63
3637,0.3263,-0.024,0.8636,-6.7,7.97,-0.02,29.67
3647,0.3281,-0.0233,0.8652,-6.7,7.91,-0.05,29.67
3657,0.3303,-0.0249,0.864,-6.69,7.95,0.0,29.65
3667,0.3286,-0.0245,0.8634,-6.64,8.02,-0.05,29.66
3677,0.3275,-0.0248,0.8628,-6.64,7.98,0.0,29.66
3687,0.326,-0.0261,0.866,-6.69,7.95,0.0,29.67
3697,0.3263,-0.0255,0.8649,-6.67,8.02,-0.02,29.66
3707,0.329,-0.0247,0.8634,-6.76,7.98,-0.02,29.66
3717,0.3239,-0.0255,0.8652,-6.72,7.97,0.03,29.65
3727,0.3263,-0.0259,0.8621,-6.76,7.92,-0.09,29.66
3737,0.3264,-0.0267,0.8655,-6.67,8.02,-0.08,29.65
3747,0.326,-0.0254,0.8655,-6.73,7.97,-0.05,29.65
3757,0.3286,-0.0229,0.8629,-6.67,7.92,-0.06,29.67
3767,0.3285,-0.0254,0.8638,-6.72,7.85,-0.2,29.67
3777,0.3267,-0.0281,0.8682,-6.69,8.02,0.08,29.67
3787,0.3293,-0.0276,0.8645,-6.72,7.98,-0.05,29.66
3797,0.3302,-0.0264,0.8652,-6.64,8.0,-0.11,29.67
3807,0.3262,-0.0265,0.8665,-6.72,7.98,-0.08,29.66
3817,0.3253,-0.0289,0.8649,-6.67,7.98,-0.09,29.67
3827,0.3302,-0.0262,0.8643,-6.75,8.0,-0.09,29.68
3837,0.3274,-0.0262,0.8678,-6.66,7.98,-0.08,29.67
3847,0.3296,-0.0265,0.8624,-6.7,7.98,-0.05,29.65
3857,0.3274,-0.0264,0.8615,-6.72,7.98,-0.06,29.64
3867,0.3282,-0.0261,0.8622,-6.72,7.91,0.0,29.66
3877,0.329,-0.0256,0.8662,-6.67,7.94,-0.08,29.65
3887,0.3291,-0.0238,0.8617,-6.69,7.97,0.05,29.68
3897,0.3309,-0.0258,0.8636,-6.7,7.97,-0.03,29.65
3907,0.3273,-0.0259,0.8646,-6.64,7.94,0.03,29.69
3917,0.3253,-0.0245,0.8669,-6.73,7.92,-0.06,29.67
3927,0.328,-0.0245,0.8668,-6.7,8.0,-0.03,29.65
3937,0.3263,-0.0248,0.8607,-6.7,7.95,-0.11,29.66
3947,0.3286,-0.0245,0.8643,-6.64,7.97,-0.03,29.67
3957,0.328,-0.026,0.8644,-6.73,7.94,-0.03,29.67
3967,0.3317,-0.0278,0.8599,-6.78,8.02,-0.08,29.67
3977,0.3312,-0.0261,0.8625,-6.69,7.86,-0.03,29.69
3987,0.3286,-0.0243,0.8636,-6.76,7.92,-0.06,29.7
3997,0.3252,-0.0248,0.8628,-6.66,8.02,0.0,29.69
4008,0.3301,-0.0248,0.8633,-6.72,8.0,-0.03,29.68
4019,0.3292,-0.0277,0.8684,-6.72,7.92,-0.02,29.69
4029,0.3252,-0.0264,0.8646,-6.69,7.94,-0.03,29.67
4039,0.326,-0.0259,0.8646,-6.64,7.94,-0.08,29.68
4049,0.3284,-0.0287,0.8652,-6.75,7.98,-0.12,29.65
4059,0.3282,-0.0258,0.8628,-6.64,8.02,-0.06,29.68
4069,0.3304,-0.0272,0.866,-6.69,7.95,0.0,29.68
4079,0.3296,-0.0256,0.8639,-6.7,7.94,-0.06,29.68
4089,0.3275,-0.0243,0.865,-6.76,7.95,0.0,29.71
4099,0.3269,-0.0256,0.8649,-6.63,8.02,-0.06,29.68
4109,0.3263,-0.0231,0.8661,-6.7,7.95,-0.06,29.68
4119,0.326,-0.0251,0.8645,-6.61,7.97,-0.02,29.69
4129,0.3275,-0.0249,0.8595,-6.72,7.98,-0.05,29.68
4139,0.3279,-0.025,0.868,-6.75,7.97,-0.05,29.68
4149,0.3263,-0.0254,0.8639,-6.75,7.97,0.03,29.67
4159,0.3274,-0.0229,0.864,-6.72,8.05,-0.05,29.66
4169,0.3246,-0.0266,0.8651,-6.67,7.98,-0.11,29.69
4179,0.3284,-0.0225,0.8628,-6.72,7.91,0.03,29.69
4189,0.3271,-0.0245,0.8679,-6.69,7.97,-0.05,29.67
4200,0.329,-0.0247,0.8672,-6.72,7.98,-0.02,29.7
4210,0.3281,-0.0275,0.8655,-6.66,7.98,-0.05,29.67
4220,0.3276,-0.025,0.8661,-6.73,7.98,-0.08,29.67
4230,0.3281,-0.0266,0.8634,-6.67,7.95,-0.09,29.71
4240,0.324,-0.0245,0.865,-6.72,8.02,0.05,29.68
4250,0.3297,-0.0256,0.8654,-6.67,8.02,-0.05,29.68
4260,0.3281,-0.0261,0.8666,-6.7,7.97,-0.03,29.71
4270,0.3248,-0.0265,0.865,-6.72,7.97,-0.06,29.7
4280,0.3269,-0.027,0.8667,-6.72,7.91,0.05,29.69
4290,0.3278,-0.0251,0.8636,-6.78,7.98,-0.03,29.68
4301,0.3263,-0.0271,0.8645,-6.72,7.95,-0.02,29.71
4311,0.3287,-0.0282,0.8676,-6.73,7.94,-0.09,29.73
4321,0.3298,-0.0293,0.8685,-6.73,7.98,-0.02,29.68
4331,0.3269,-0.0276,0.864,-6.67,7.95,-0.09,29.69
4341,0.3278,-0.0248,0.8641,-6.69,7.94,-0.08,29.7
4351,0.3295,-0.0254,0.8654,-6.7,8.02,-0.02,29.7
4361,0.3284,-0.0266,0.8641,-6.7,7.98,-0.06,29.7
4371,0.3265,-0.026,0.8662,-6.73,7.95,-0.05,29.73
4381,0.328,-0.0258,0.866,-6.7,7.97,-0.09,29.69
4391,0.3295,-0.0244,0.8682,-6.67,7.94,-0.06,29.72
4401,0.3281,-0.027,0.8669,-6.7,8.06,0.0,29.7
4411,0.3289,-0.0267,0.8678,-6.75,7.94,-0.05,29.7
4421,0.3269,-0.0286,0.8634,-6.73,7.97,-0.05,29.65
4431,0.3297,-0.0275,0.8656,-6.69,7.98,-0.03,29.67
4441,0.3276,-0.0261,0.8669,-6.69,7.86,-0.11,29.71
4451,0.3279,-0.0228,0.8657,-6.69,7.98,0.03,29.71
4461,0.326,-0.0227,0.8673,-6.73,7.95,0.02,29.69
4471,0.3271,-0.0254,0.8643,-6.66,7.95,-0.06,29.68
4481,0.3289,-0.0287,0.8668,-6.6,8.05,-0.05,29.71
4491,0.3284,-0.0259,0.8658,-6.73,7.97,-0.03,29.72
4501,0.3252,-0.025,0.8689,-6.76,8.0,-0.05,29.72
4511,0.3307,-0.0247,0.8635,-6.84,7.95,-0.05,29.71
4521,0.3289,-0.026,0.8639,-6.75,7.95,-0.03,29.7
4531,0.3295,-0.0273,0.8635,-6.67,7.98,0.02,29.73
4541,0.3264,-0.0262,0.8628,-6.72,8.03,-0.09,29.72
4551,0.3278,-0.0227,0.8628,-6.72,7.94,-0.11,29.69
4561,0.3279,-0.0283,0.864,-6.76,7.95,-0.05,29.72
4571,0.3306,-0.0254,0.8666,-6.67,7.97,-0.09,29.72
4581,0.3268,-0.0266,0.8655,-6.63,7.97,0.02,29.7
4591,0.3258,-0.0251,0.8663,-6.75,7.97,0.0,29.72
4601,0.3298,-0.0255,0.8641,-6.84,7.94,-0.08,29.69
4611,0.329,-0.0259,0.8676,-6.67,8.02,-0.06,29.71
4621,0.3289,-0.0259,0.863,-6.7,8.02,-0.05,29.7
4631,0.3285,-0.0267,0.8643,-6.66,7.98,-0.08,29.72
4641,0.328,-0.0238,0.868,-6.63,8.0,-0.05,29.7
4651,0.3259,-0.0247,0.8657,-6.75,7.92,-0.03,29.71
4661,0.3269,-0.0247,0.8649,-6.72,8.02,-0.06,29.7
4671,0.3292,-0.025,0.8638,-6.75,8.02,-0.08,29.71
4681,0.3298,-0.0249,0.8671,-6.67,8.0,-0.05,29.67
4691,0.3268,-0.0271,0.863,-6.64,7.98,-0.05,29.72
4701,0.3265,-0.026,0.8638,-6.67,8.0,-0.05,29.7
4711,0.3273,-0.0261,0.8646,-6.79,7.95,-0.03,29.72
4721,0.3279,-0.0234,0.863,-6.73,7.92,-0.05,29.71
4731,0.3274,-0.0266,0.8636,-6.73,7.97,-0.08,29.71
4741,0.329,-0.0276,0.8658,-6.7,7.97,-0.05,29.73
4751,0.328,-0.0254,0.861,-6.63,7.97,0.03,29.7
4761,0.327,-0.0244,0.8633,-6.67,7.92,-0.05,29.71
4771,0.3267,-0.0264,0.8628,-6.75,7.92,-0.02,29.72
4781,0.3281,-0.0264,0.8667,-6.72,7.92,0.03,29.71
4791,0.3313,-0.024,0.8658,-6.73,7.98,-0.03,29.73
4801,0.3302,-0.0278,0.864,-6.69,7.97,-0.05,29.71
4812,0.3269,-0.0245,0.8661,-6.75,7.91,0.03,29.72
4822,0.326,-0.025,0.8679,-6.73,7.92,0.0,29.72
4832,0.3256,-0.0251,0.863,-6.67,8.02,-0.05,29.73
4842,0.325,-0.0249,0.8673,-6.78,7.98,-0.06,29.73
4852,0.3275,-0.0267,0.8629,-6.79,7.92,-0.08,29.72
4862,0.3275,-0.0284,0.866,-6.7,7.95,-0.02,29.72
4872,0.3303,-0.0234,0.8651,-6.7,7.98,-0.05,29.71
4882,0.3258,-0.0253,0.8612,-6.72,7.92,-0.08,29.74
4892,0.3275,-0.0247,0.8638,-6.69,7.92,-0.06,29.72
4902,0.326,-0.0239,0.865,-6.69,7.95,-0.02,29.72
4912,0.3279,-0.026,0.8644,-6.78,7.91,-0.09,29.73
4922,0.3263,-0.0253,0.8612,-6.7,7.98,-0.06,29.73
4932,0.3264,-0.0255,0.8646,-6.72,7.97,-0.05,29.73
4942,0.3276,-0.0232,0.8652,-6.69,7.94,-0.06,29.76
4952,0.3287,-0.0292,0.8634,-6.67,8.02,-0.03,29.74
4962,0.3287,-0.0255,0.8669,-6.73,7.98,-0.05,29.74
4972,0.3292,-0.0239,0.8662,-6.73,8.0,-0.08,29.72
4982,0.3275,-0.0247,0.8633,-6.67,7.97,-0.08,29.7
4992,0.3278,-0.0255,0.8643,-6.69,7.97,-0.05,29.72
5002,0.3296,-0.0258,0.8663,-6.66,7.92,-0.06,29.73
5012,0.3285,-0.0266,0.8619,-6.76,7.95,-0.05,29.72
5022,0.33,-0.0267,0.8644,-6.75,8.0,-0.05,29.71
5032,0.3314,-0.025,0.8645,-6.75,7.89,-0.08,29.73
5042,0.3309,-0.0244,0.8619,-6.6,7.95,-0.05,29.72
5052,0.3287,-0.0256,0.864,-6.67,7.92,-0.02,29.73
5062,0.3289,-0.0276,0.8646,-6.72,7.91,-0.08,29.71
5072,0.3286,-0.0261,0.8601,-6.69,7.98,0.0,29.72
5082,0.327,-0.0254,0.8627,-6.67,8.06,-0.08,29.72
5092,0.3264,-0.0253,0.8652,-6.67,7.94,0.0,29.72
5102,0.3318,-0.0269,0.8635,-6.75,7.92,-0.08,29.73
5112,0.327,-0.0282,0.8656,-6.75,8.02,-0.11,29.72
5122,0.3293,-0.0249,0.8635,-6.72,8.0,-0.12,29.72
5132,0.3279,-0.0282,0.8635,-6.66,8.0,-0.06,29.7
5142,0.3258,-0.0269,0.8628,-6.61,8.03,-0.05,29.74
5152,0.3278,-0.0253,0.8621,-6.78,7.98,-0.06,29.74
5162,0.326,-0.0266,0.8676,-6.67,7.97,-0.06,29.75
5172,0.3292,-0.024,0.8635,-6.69,7.95,-0.02,29.74
5183,0.3267,-0.0273,0.8634,-6.79,8.0,-0.06,29.71
5193,0.3274,-0.0267,0.8684,-6.75,7.88,-0.03,29.73
5203,0.3267,-0.0249,0.863,-6.61,7.98,-0.08,29.73
5213,0.3289,-0.0259,0.8656,-6.73,7.95,0.02,29.73
5223,0.3284,-0.0265,0.8601,-6.67,7.98,-0.05,29.75
5233,0.3292,-0.028,0.8639,-6.73,7.92,0.0,29.75
5243,0.329,-0.0253,0.8658,-6.72,8.02,-0.05,29.74
5253,0.3276,-0.0267,0.8647,-6.69,8.02,-0.05,29.7
5263,0.3285,-0.0261,0.8628,-6.72,8.0,-0.08,29.72
5273,0.3269,-0.0231,0.8652,-6.72,7.97,0.0,29.74
5283,0.3286,-0.0243,0.8611,-6.72,7.92,-0.08,29.73
5293,0.3298,-0.0242,0.8652,-6.69,7.95,-0.06,29.74
5303,0.3257,-0.0248,0.8601,-6.76,8.02,-0.06,29.73
5313,0.3292,-0.0234,0.8635,-6.61,7.94,-0.05,29.74
5323,0.3306,-0.026,0.8649,-6.75,7.91,-0.08,29.72
5333,0.3284,-0.0258,0.8656,-6.75,7.98,0.02,29.72
5343,0.3273,-0.0264,0.8623,-6.63,7.88,-0.11,29.74
5353,0.3245,-0.0251,0.8651,-6.73,7.91,-0.11,29.73
5363,0.3262,-0.027,0.8617,-6.75,7.88,0.0,29.73
5373,0.3258,-0.0248,0.8667,-6.75,8.03,-0.02,29.72
5383,0.3271,-0.0251,0.8608,-6.76,7.91,-0.05,29.71
5393,0.3291,-0.026,0.8674,-6.73,7.94,-0.03,29.74
5403,0.3275,-0.0242,0.863,-6.72,7.97,-0.08,29.74
5413,0.3269,-0.0259,0.8612,-6.66,7.97,-0.03,29.73
5423,0.3285,-0.0249,0.8624,-6.72,7.94,-0.08,29.74
5433,0.3256,-0.0275,0.8657,-6.72,7.98,-0.08,29.72
5443,0.3295,-0.0256,0.8655,-6.7,7.91,-0.03,29.77
5453,0.3295,-0.0247,0.8672,-6.66,7.95,-0.06,29.74
5463,0.3253,-0.0255,0.8636,-6.78,7.95,-0.05,29.75
5473,0.3296,-0.0265,0.8628,-6.69,7.95,-0.02,29.73
5483,0.3293,-0.027,0.8658,-6.67,7.92,0.02,29.75
5493,0.3302,-0.0255,0.8634,-6.7,7.94,-0.03,29.72
5503,0.3289,-0.0269,0.8668,-6.73,7.92,0.0,29.74
5513,0.3292,-0.0258,0.8655,-6.79,7.91,-0.05,29.72
5523,0.3273,-0.0254,0.8668,-6.75,8.03,-0.05,29.73
5533,0.327,-0.0305,0.863,-6.66,7.97,-0.03,29.75
5543,0.3275,-0.0266,0.8669,-6.73,7.97,-0.03,29.74
5553,0.3278,-0.024,0.8661,-6.72,7.97,-0.12,29.74
5563,0.3264,-0.0232,0.8624,-6.75,8.05,-0.06,29.75
5573,0.3267,-0.0265,0.8601,-6.63,7.94,-0.09,29.72
5583,0.328,-0.0262,0.8678,-6.75,7.91,-0.02,29.74
5593,0.3289,-0.0238,0.8663,-6.73,8.0,-0.03,29.73
5603,0.3267,-0.0236,0.8651,-6.75,7.97,-0.05,29.73
5613,0.3281,-0.0275,0.8593,-6.81,7.95,-0.06,29.74
5623,0.3245,-0.0234,0.8639,-6.76,7.97,-0.05,29.77
5633,0.3257,-0.0239,0.8639,-6.69,7.91,-0.03,29.74
5643,0.3246,-0.0242,0.8636,-6.72,7.95,-0.05,29.75
5653,0.3284,-0.0251,0.8621,-6.72,7.94,-0.17,29.74
5663,0.3281,-0.0254,0.8668,-6.76,7.94,-0.06,29.73
5673,0.3274,-0.0254,0.8617,-6.69,7.97,-0.11,29.73
5683,0.329,-0.026,0.8661,-6.78,7.97,-0.09,29.73
5693,0.3289,-0.0243,0.8644,-6.69,7.98,-0.06,29.74
5703,0.3271,-0.024,0.8662,-6.76,7.92,-0.06,29.74
5713,0.3292,-0.0227,0.8618,-6.73,7.91,0.02,29.75
5723,0.3298,-0.0251,0.8651,-6.72,8.0,-0.08,29.75
5733,0.328,-0.0249,0.8634,-6.67,8.0,0.02,29.75
5743,0.3269,-0.0247,0.8635,-6.78,8.0,-0.03,29.73
5753,0.3292,-0.0243,0.8628,-6.73,7.92,0.0,29.74
5763,0.3247,-0.0258,0.8635,-6.7,7.89,0.02,29.74
5773,0.3259,-0.0278,0.8657,-6.73,7.94,-0.05,29.76
5783,0.3268,-0.0271,0.865,-6.69,7.91,0.02,29.74
5793,0.3318,-0.0269,0.8597,-6.73,7.92,-0.03,29.77
5803,0.3301,-0.0262,0.8604,-6.69,8.0,-0.09,29.74
5813,0.3253,-0.0223,0.8644,-6.69,8.02,-0.14,29.75
5823,0.3318,-0.0258,0.8679,-6.69,7.91,-0.03,29.75
5834,0.3278,-0.0254,0.8607,-6.7,7.92,-0.09,29.75
5844,0.328,-0.0264,0.8662,-6.73,7.95,-0.03,29.74
5854,0.3268,-0.0243,0.8679,-6.7,7.95,-0.08,29.75
5864,0.3297,-0.024,0.8674,-6.72,8.0,-0.12,29.74
5874,0.328,-0.0277,0.8612,-6.67,7.98,-0.03,29.76
5884,0.3285,-0.0253,0.8666,-6.69,8.02,-0.09,29.76
5894,0.3285,-0.0255,0.8636,-6.69,8.0,-0.03,29.74
5904,0.3275,-0.0244,0.8683,-6.79,7.95,-0.03,29.74
5915,0.3281,-0.026,0.8622,-6.78,7.88,-0.03,29.74
5925,0.328,-0.0226,0.8619,-6.67,7.97,0.0,29.74
5935,0.3303,-0.027,0.8647,-6.63,7.89,0.05,29.75
5945,0.3284,-0.0253,0.8632,-6.78,7.98,-0.06,29.75
5955,0.33,-0.027,0.8638,-6.76,7.94,-0.03,29.75
5965,0.328,-0.0238,0.8665,-6.75,7.98,-0.08,29.76
5975,0.3262,-0.0262,0.8658,-6.79,7.97,-0.02,29.74
5985,0.3298,-0.0262,0.866,-6.78,7.94,-0.08,29.74
5995,0.3308,-0.0253,0.8625,-6.75,7.85,-0.03,29.76
6005,0.3295,-0.0258,0.8685,-6.63,7.91,-0.05,29.75
6015,0.3284,-0.0254,0.8628,-6.75,7.97,-0.05,29.77
6025,0.3276,-0.0264,0.8657,-6.75,7.98,-0.06,29.76
6036,0.3279,-0.0247,0.8636,-6.66,7.97,0.05,29.73
6046,0.3263,-0.0266,0.8606,-6.69,7.94,0.02,29.79
6056,0.325,-0.0236,0.8654,-6.7,8.03,-0.05,29.76
6066,0.3289,-0.0237,0.8666,-6.76,7.98,-0.08,29.76
6076,0.3284,-0.0251,0.8634,-6.69,7.95,-0.02,29.76
6086,0.3282,-0.0238,0.865,-6.78,7.91,-0.05,29.78
6096,0.3271,-0.0265,0.864,-6.69,7.92,-0.06,29.73
6106,0.3278,-0.0284,0.8636,-6.66,7.98,0.0,29.77
6116,0.3287,-0.0249,0.8649,-6.75,7.97,-0.03,29.76
6126,0.3275,-0.0244,0.8607,-6.69,7.95,-0.05,29.76
6136,0.3289,-0.027,0.8683,-6.64,7.98,-0.05,29.73
6146,0.3279,-0.0255,0.864,-6.7,7.94,-0.05,29.74
6156,0.3257,-0.0258,0.8661,-6.7,7.95,-0.05,29.75
6166,0.3271,-0.0267,0.8651,-6.75,7.98,-0.09,29.77
6176,0.3271,-0.0276,0.8654,-6.78,7.94,-0.12,29.76
6186,0.3279,-0.0258,0.8667,-6.7,7.94,-0.02,29.77
6196,0.3271,-0.0244,0.8641,-6.75,7.98,-0.08,29.76
6206,0.329,-0.0261,0.864,-6.7,7.94,-0.05,29.76
6216,0.3276,-0.0261,0.8644,-6.79,7.91,-0.05,29.76
6226,0.328,-0.0276,0.8622,-6.66,7.97,-0.03,29.74
6236,0.3281,-0.0269,0.8671,-6.72,7.95,-0.03,29.73
6246,0.3278,-0.0245,0.8621,-6.69,7.95,-0.03,29.75
6256,0.3276,-0.022,0.8695,-6.69,7.95,-0.05,29.72
6266,0.3274,-0.026,0.8652,-6.72,7.92,-0.05,29.76
6276,0.3282,-0.0278,0.8635,-6.79,7.85,-0.05,29.75
6286,0.3291,-0.0276,0.8632,-6.81,7.97,-0.06,29.76
6296,0.3295,-0.0265,0.8649,-6.75,7.98,0.03,29.78
6306,0.3281,-0.0267,0.8649,-6.76,7.97,-0.03,29.74
6316,0.3298,-0.026,0.8638,-6.76,8.0,0.0,29.75
6326,0.327,-0.0211,0.8629,-6.67,8.06,0.06,29.76
6336,0.3296,-0.0255,0.8669,-6.7,8.02,0.0,29.78
6346,0.327,-0.0245,0.8667,-6.72,8.0,-0.08,29.77
6356,0.3281,-0.0256,0.8621,-6.7,7.94,-0.02,29.77
6366,0.3248,-0.0249,0.864,-6.69,7.92,0.0,29.78
6376,0.3298,-0.0251,0.8657,-6.76,7.98,0.0,29.75
6386,0.33,-0.0275,0.8624,-6.75,7.97,0.0,29.76
6396,0.3287,-0.0231,0.8622,-6.75,8.0,0.03,29.77
6406,0.3292,-0.025,0.8608,-6.75,7.97,-0.02,29.77
6416,0.3298,-0.026,0.8605,-6.76,8.0,-0.05,29.73
6426,0.3282,-0.0223,0.8654,-6.64,8.0,-0.08,29.77
6436,0.3268,-0.0233,0.8636,-6.75,8.05,-0.11,29.77
6446,0.3296,-0.0234,0.86,-6.75,7.97,-0.95,29.77
6456,0.3285,-0.0233,0.8613,-6.75,7.86,-0.11,29.77
6467,0.3282,-0.0264,0.8669,-6.75,7.97,-0.11,29.77
6477,0.3246,-0.0248,0.8641,-6.7,8.03,-0.02,29.79
6487,0.3256,-0.0282,0.8676,-6.79,8.06,-0.02,29.77
6497,0.3286,-0.0275,0.8674,-6.67,7.98,-0.02,29.78
6507,0.3298,-0.0271,0.8682,-6.76,7.91,0.02,29.77
6517,0.3258,-0.0247,0.8597,-6.78,7.95,0.0,29.74
6527,0.327,-0.0258,0.8613,-6.78,8.0,-0.12,29.77
6537,0.326,-0.026,0.8628,-6.84,8.02,-0.09,29.75
6547,0.3281,-0.024,0.8647,-6.73,7.91,-0.02,29.76
6557,0.3268,-0.0261,0.8617,-6.78,8.03,-0.03,29.78
6567,0.3271,-0.0259,0.8651,-6.76,7.95,-0.03,29.79
6577,0.3267,-0.0258,0.8661,-6.72,7.94,-0.06,29.79
6587,0.3287,-0.0266,0.8693,-6.73,7.94,-0.03,29.76
6597,0.328,-0.0265,0.8615,-6.79,7.92,-0.11,29.75
6607,0.3269,-0.0232,0.8618,-6.78,7.98,-0.06,29.76
6617,0.3262,-0.0249,0.8633,-6.73,7.95,-0.14,29.76
6627,0.3259,-0.0272,0.8691,-6.72,8.0,-0.03,29.77
6637,0.3285,-0.0272,0.8667,-6.75,8.03,-0.02,29.8
6647,0.3245,-0.026,0.8678,-6.76,7.95,-0.03,29.77
6657,0.3264,-0.027,0.8688,-6.75,7.92,-0.03,29.77
6667,0.3274,-0.0258,0.8665,-6.72,7.98,0.0,29.78
6677,0.3265,-0.0236,0.8616,-6.72,7.89,0.0,29.78
6687,0.3282,-0.0249,0.8624,-6.67,7.94,-0.02,29.79
6697,0.3311,-0.0283,0.865,-6.7,7.97,-0.06,29.78
6707,0.3291,-0.0243,0.8605,-6.75,7.95,-0.02,29.78
6717,0.3275,-0.0266,0.8666,-6.7,7.92,-0.06,29.77
6727,0.33,-0.0265,0.8622,-6.72,7.98,0.03,29.77
6737,0.3313,-0.028,0.8639,-6.7,7.91,0.06,29.77
6747,0.3287,-0.0264,0.8656,-6.73,7.92,0.0,29.76
6757,0.3308,-0.0233,0.866,-6.75,7.98,0.05,29.77
6767,0.3252,-0.0266,0.8639,-6.72,7.98,-0.08,29.77
6777,0.3278,-0.0225,0.8624,-6.66,7.95,-0.06,29.8
6787,0.3289,-0.0254,0.8655,-6.76,7.95,-0.03,29.77
6797,0.3254,-0.0299,0.8582,-6.72,7.94,-0.09,29.78
6807,0.3268,-0.0245,0.8615,-6.73,8.02,-0.12,29.77
6817,0.3284,-0.024,0.8639,-6.7,7.94,-0.05,29.78
6827,0.3274,-0.0234,0.863,-6.66,7.97,0.03,29.78
6837,0.3273,-0.0229,0.8671,-6.7,8.02,0.02,29.77
6847,0.327,-0.0275,0.8645,-6.69,7.97,-0.06,29.79
6857,0.3282,-0.0276,0.8639,-6.73,8.0,-0.02,29.78
6867,0.3286,-0.024,0.8632,-6.76,7.98,-0.06,29.78
6877,0.3279,-0.0262,0.864,-6.79,7.88,0.0,29.78
6887,0.3282,-0.0223,0.8635,-6.81,7.89,-0.02,29.79
6897,0.327,-0.0249,0.8621,-6.66,7.97,0.0,29.8
6907,0.3306,-0.0229,0.863,-6.73,8.02,0.0,29.79
6917,0.3304,-0.0273,0.8671,-6.76,7.92,0.0,29.79
6927,0.3274,-0.0247,0.8657,-6.78,7.97,-0.03,29.78
6937,0.3269,-0.0243,0.8651,-6.66,7.97,-0.11,29.77
6947,0.3287,-0.024,0.8649,-6.72,7.98,0.0,29.78
6957,0.3295,-0.0238,0.8641,-6.72,8.02,-0.08,29.77
6967,0.3256,-0.0253,0.8646,-6.73,7.88,-0.03,29.78
6977,0.3293,-0.0272,0.8641,-6.79,7.95,-0.05,29.81
6987,0.3276,-0.028,0.8616,-6.73,7.95,-0.09,29.8
6997,0.326,-0.0266,0.8696,-6.78,7.98,-0.08,29.77
7007,0.3267,-0.0251,0.8657,-6.76,7.97,-0.08,29.79
7017,0.3291,-0.0295,0.8693,-6.81,7.92,-0.08,29.8
7028,0.3264,-0.0233,0.8687,-6.79,7.89,-0.03,29.78
7038,0.3256,-0.0256,0.8662,-6.72,8.02,-0.02,29.79
7048,0.3247,-0.0236,0.8676,-6.66,7.91,-0.03,29.78
7058,0.3278,-0.0254,0.8622,-6.73,7.88,-0.09,29.8
7068,0.3279,-0.0256,0.8633,-6.75,7.91,-0.11,29.76
7078,0.3286,-0.0254,0.8636,-6.76,7.92,-0.08,29.77
7088,0.3275,-0.0228,0.8629,-6.75,7.95,-0.05,29.8
7098,0.3273,-0.0251,0.8636,-6.75,7.95,0.03,29.75
7108,0.3286,-0.0243,0.8645,-6.76,7.95,-0.03,29.79
7118,0.3304,-0.0251,0.8624,-6.64,7.89,-0.03,29.8
7128,0.3317,-0.0248,0.866,-6.78,7.91,0.0,29.77
7138,0.327,-0.0233,0.8667,-6.75,7.95,-0.08,29.8
7148,0.3267,-0.0256,0.8665,-6.72,8.0,-0.06,29.78
7158,0.3292,-0.0262,0.8613,-6.69,7.92,-0.08,29.76
7169,0.3267,-0.0248,0.8665,-6.67,7.95,-0.09,29.77
7179,0.3279,-0.0261,0.8666,-6.75,7.89,-0.05,29.8
7189,0.3279,-0.0255,0.8645,-6.69,7.98,-0.09,29.8
7199,0.3284,-0.0275,0.8699,-6.63,8.0,-0.09,29.79
7209,0.3274,-0.0266,0.8649,-6.76,7.98,0.05,29.8
7219,0.3291,-0.0262,0.859,-6.66,7.94,-0.03,29.79
7229,0.3295,-0.026,0.8611,-6.7,7.92,-0.11,29.79
7239,0.3295,-0.0273,0.863,-6.72,7.89,-0.03,29.79
7249,0.3275,-0.027,0.8667,-6.75,8.0,-0.08,29.81
7259,0.3263,-0.026,0.8665,-6.73,7.97,-0.05,29.81
7269,0.3259,-0.0258,0.8652,-6.81,7.92,-0.06,29.8
7281,0.3287,-0.0277,0.8641,-6.72,7.98,-0.05,29.81
7291,0.3281,-0.0266,0.8655,-6.72,7.88,-0.05,29.79
7301,0.3269,-0.0271,0.8669,-6.79,7.97,0.0,29.8
7311,0.3302,-0.0282,0.8684,-6.73,7.94,-0.05,29.82
7321,0.3278,-0.0267,0.8618,-6.69,7.94,-0.08,29.81
7331,0.3276,-0.0253,0.8629,-6.7,8.0,0.0,29.8
7341,0.3264,-0.0247,0.8662,-6.81,7.95,-0.05,29.77
7351,0.3278,-0.0259,0.8655,-6.78,7.95,-0.11,29.81
7361,0.328,-0.0275,0.8625,-6.76,7.95,-0.03,29.79
7371,0.3273,-0.0271,0.8634,-6.67,8.0,0.0,29.78
7381,0.3275,-0.0259,0.8628,-6.7,7.98,-0.03,29.79
7391,0.3265,-0.0266,0.8638,-6.75,7.97,0.0,29.78
7401,0.3278,-0.0249,0.866,-6.7,7.91,-0.05,29.82
7411,0.3258,-0.0259,0.8627,-6.72,7.91,-0.09,29.79
7421,0.3293,-0.0256,0.8619,-6.69,8.02,-0.09,29.82
7431,0.3248,-0.0267,0.8654,-6.66,7.92,-0.08,29.79
7441,0.3281,-0.0238,0.866,-6.75,8.0,0.02,29.81
7451,0.3312,-0.0255,0.8641,-6.78,7.94,-0.02,29.81
7461,0.3279,-0.0255,0.8628,-6.75,8.05,0.0,29.79
7471,0.326,-0.025,0.8673,-6.69,8.03,-0.05,29.81
7481,0.3286,-0.025,0.8628,-6.64,8.02,-0.03,29.8
7491,0.3285,-0.0289,0.8645,-6.73,8.02,0.0,29.78
7501,0.327,-0.0267,0.8671,-6.78,7.98,0.02,29.8
7511,0.3268,-0.0261,0.8651,-6.73,7.98,-0.05,29.8
7521,0.3263,-0.0245,0.8671,-6.73,7.97,-0.03,29.8
7531,0.3281,-0.0249,0.8636,-6.72,7.98,-0.05,29.79
7541,0.3268,-0.0267,0.8661,-6.72,7.94,-0.02,29.8
7551,0.3276,-0.0253,0.8634,-6.73,7.95,-0.05,29.8
7561,0.3298,-0.0232,0.864,-6.76,8.02,-0.09,29.8
7571,0.3275,-0.0254,0.8647,-6.73,7.95,0.0,29.79
7581,0.3274,-0.0282,0.8635,-6.73,7.94,-0.09,29.79
7591,0.3259,-0.0275,0.865,-6.72,7.92,-0.08,29.82
7601,0.3269,-0.0256,0.8661,-6.75,8.0,-0.12,29.81
7611,0.3273,-0.0267,0.8644,-6.73,7.97,0.03,29.81
7621,0.3286,-0.0273,0.8583,-6.76,7.94,-0.06,29.8
7631,0.3265,-0.027,0.866,-6.67,7.97,0.05,29.78
7641,0.3293,-0.0254,0.8641,-6.75,7.95,-0.09,29.79
7651,0.3275,-0.0253,0.863,-6.72,8.0,-0.06,29.81
7661,0.329,-0.0265,0.8654,-6.7,7.94,-0.05,29.77
7671,0.3267,-0.0233,0.8652,-6.69,7.94,-0.05,29.78
7681,0.3287,-0.0269,0.8612,-6.7,7.94,-0.02,29.81
7691,0.3274,-0.0254,0.863,-6.67,7.92,-0.11,29.79
7701,0.3264,-0.0259,0.8669,-6.73,7.94,-0.06,29.79
7711,0.3293,-0.028,0.866,-6.76,8.0,-0.03,29.79
7721,0.3287,-0.0261,0.866,-6.7,7.94,-0.06,29.8
7731,0.3251,-0.0253,0.8654,-6.76,7.98,-0.03,29.81
7741,0.3267,-0.028,0.8666,-6.63,7.94,0.02,29.82
7751,0.3253,-0.0253,0.8662,-6.64,7.95,-0.08,29.79
7762,0.3295,-0.0254,0.8645,-6.69,7.92,-0.02,29.82
7772,0.3291,-0.0256,0.8621,-6.81,7.95,-0.03,29.79
7782,0.327,-0.0273,0.865,-6.72,7.98,-0.03,29.79
7792,0.3292,-0.0282,0.8684,-6.7,7.91,-0.03,29.81
7802,0.3278,-0.0266,0.864,-6.66,7.94,-0.08,29.8
7812,0.3282,-0.0259,0.8636,-6.73,8.0,-0.03,29.81
7822,0.327,-0.026,0.8641,-6.73,7.94,0.0,29.79
7832,0.3253,-0.0247,0.86,-6.76,7.98,0.03,29.81
7842,0.3286,-0.025,0.8654,-6.75,8.03,0.02,29.79
7853,0.329,-0.0242,0.8691,-6.78,7.95,-0.05,29.8
7863,0.329,-0.0253,0.8616,-6.79,8.03,-0.03,29.8
7873,0.3297,-0.0271,0.8629,-6.76,7.92,-0.05,29.8
7883,0.3298,-0.025,0.8676,-6.76,7.92,-0.12,29.77
7893,0.3293,-0.0233,0.8644,-6.75,7.92,-0.05,29.8
7903,0.3292,-0.0229,0.863,-6.72,7.92,-0.02,29.78
7913,0.3253,-0.0234,0.8622,-6.75,7.94,0.05,29.79
7923,0.3271,-0.0266,0.8605,-6.75,7.89,-0.02,29.81
7933,0.3273,-0.024,0.8627,-6.78,7.97,0.02,29.79
7945,0.3268,-0.027,0.8647,-6.72,8.02,0.05,29.8
7955,0.3269,-0.0229,0.866,-6.7,7.97,0.0,29.79
7965,0.3292,-0.026,0.8645,-6.75,7.98,-0.02,29.79
7975,0.3302,-0.0251,0.8645,-6.73,8.0,-0.02,29.78
7985,0.3253,-0.0259,0.864,-6.76,7.95,-0.06,29.8
7995,0.328,-0.0265,0.8633,-6.76,7.97,0.02,29.79
8005,0.3286,-0.0261,0.8643,-6.75,7.95,-0.02,29.79
8015,0.3262,-0.0251,0.8644,-6.79,7.97,-0.08,29.81
8025,0.3265,-0.0242,0.8657,-6.7,8.03,0.02,29.8
8035,0.3291,-0.0234,0.8646,-6.7,7.95,-0.03,29.81
8045,0.3269,-0.0245,0.8635,-6.79,7.97,-0.05,29.77
8055,0.3269,-0.0277,0.8672,-6.67,8.02,-0.03,29.79
8065,0.3292,-0.0251,0.8645,-6.79,8.02,0.02,29.78
8075,0.3286,-0.0261,0.8633,-6.76,7.94,0.03,29.77
8085,0.3298,-0.0255,0.8638,-6.7,7.95,-0.06,29.8
8095,0.3291,-0.0239,0.8634,-6.72,7.94,-0.09,29.79
8105,0.3253,-0.0234,0.865,-6.69,7.94,0.0,29.79
8115,0.3262,-0.027,0.8618,-6.75,7.97,-0.03,29.8
8125,0.3303,-0.0284,0.8629,-6.76,7.98,0.0,29.81
8135,0.3296,-0.0264,0.8687,-6.66,7.98,0.0,29.81
8145,0.3291,-0.0244,0.8647,-6.81,7.97,-0.02,29.79
8155,0.3273,-0.0245,0.8678,-6.75,7.98,-0.08,29.82
8165,0.3265,-0.0273,0.8627,-6.7,7.94,-0.06,29.8
8175,0.3293,-0.025,0.8666,-6.75,7.92,-0.05,29.8
8185,0.3264,-0.0258,0.864,-6.67,7.97,-0.09,29.8
8195,0.3254,-0.0264,0.866,-6.75,7.98,-0.06,29.8
8205,0.3282,-0.0248,0.8674,-6.76,7.98,-0.06,29.82
8215,0.328,-0.0267,0.8649,-6.7,7.95,-0.05,29.79
8226,0.3274,-0.0242,0.8673,-6.73,7.98,-0.02,29.82
8236,0.328,-0.0255,0.8662,-6.78,7.97,-0.09,29.82
8246,0.3275,-0.027,0.8662,-6.67,8.02,-0.09,29.83
8256,0.3271,-0.0239,0.8638,-6.73,7.97,-0.05,29.82
8266,0.3281,-0.0259,0.866,-6.69,7.94,-0.14,29.81
8276,0.3282,-0.0251,0.864,-6.76,7.91,-0.05,29.81
8286,0.3291,-0.0286,0.8669,-6.72,8.0,-0.09,29.8
8296,0.3303,-0.0293,0.8694,-6.75,8.0,-0.15,29.82
8306,0.328,-0.0244,0.8666,-6.64,7.92,0.02,29.82
8316,0.3282,-0.0267,0.8644,-6.66,7.94,-0.06,29.79
8326,0.3291,-0.0232,0.8652,-6.72,7.94,-0.05,29.81
8336,0.3308,-0.0227,0.8658,-6.7,8.0,-0.06,29.82
8346,0.3286,-0.025,0.8651,-6.82,7.94,0.03,29.81
8357,0.3259,-0.027,0.866,-6.69,7.97,-0.05,29.79
8367,0.3278,-0.0247,0.8633,-6.69,7.94,-0.06,29.8
8377,0.33,-0.0247,0.8654,-6.76,7.94,-0.03,29.82
8387,0.3278,-0.0253,0.8671,-6.72,7.91,-0.05,29.78
8397,0.3306,-0.0247,0.8661,-6.76,7.94,-0.08,29.8
8407,0.3275,-0.0232,0.8657,-6.69,7.95,-0.11,29.79
8417,0.33,-0.0259,0.8689,-6.67,8.03,-0.08,29.79
8427,0.3297,-0.026,0.8676,-6.61,7.97,-0.05,29.81
8437,0.3293,-0.0276,0.8674,-6.73,7.94,-0.09,29.82
8447,0.3263,-0.0265,0.8663,-6.84,8.0,-0.09,29.8
8457,0.3275,-0.0273,0.8644,-6.7,7.97,-0.09,29.81
8467,0.3268,-0.0258,0.8669,-6.75,7.97,0.02,29.83
8477,0.3284,-0.0237,0.8672,-6.69,7.94,-0.03,29.82
8487,0.3263,-0.0247,0.8645,-6.78,7.91,-0.08,29.82
8497,0.3276,-0.0261,0.8646,-6.78,8.0,-0.02,29.8
8507,0.3259,-0.0238,0.8683,-6.81,7.89,-0.03,29.81
8517,0.3273,-0.0242,0.8633,-6.73,7.94,-0.09,29.81
8527,0.3262,-0.0223,0.8652,-6.72,7.95,-0.02,29.81
8537,0.3282,-0.0233,0.8619,-6.72,7.97,-0.08,29.81
8547,0.3278,-0.0271,0.8643,-6.78,7.98,-0.03,29.83
8557,0.3293,-0.0276,0.8591,-6.75,8.0,-0.02,29.8
8567,0.3285,-0.0266,0.8652,-6.73,7.97,-0.03,29.79
8577,0.3265,-0.0276,0.8622,-6.73,8.0,-0.08,29.79
8587,0.3268,-0.0249,0.8638,-6.73,7.92,-0.09,29.79
8597,0.3297,-0.0277,0.8654,-6.64,7.95,-0.03,29.81
8607,0.3292,-0.0272,0.8625,-6.73,7.95,0.03,29.8
8617,0.3303,-0.026,0.8646,-6.78,7.97,-0.06,29.79
8627,0.3296,-0.025,0.8641,-6.75,7.92,-0.03,29.81
8637,0.3279,-0.0262,0.8651,-6.78,7.97,-0.05,29.8
8647,0.3263,-0.0273,0.8604,-6.69,7.92,0.0,29.82
8657,0.3282,-0.0275,0.8621,-6.78,7.95,-0.02,29.79
8667,0.3311,-0.025,0.8619,-6.76,7.95,-0.05,29.79
8677,0.33,-0.0269,0.8645,-6.7,7.94,-0.06,29.79
8687,0.3278,-0.0242,0.8656,-6.67,7.95,0.0,29.82
8697,0.3264,-0.0265,0.864,-6.73,7.95,-0.03,29.83
8707,0.3298,-0.0256,0.8607,-6.78,7.97,-0.2,29.81
8717,0.3293,-0.0244,0.865,-6.69,8.0,-0.12,29.79
8727,0.3274,-0.0262,0.8649,-6.76,7.95,0.0,29.83
8737,0.3292,-0.0254,0.865,-6.78,7.98,0.0,29.81
8747,0.3301,-0.0245,0.8683,-6.75,7.97,-0.06,29.83
8757,0.3287,-0.025,0.8682,-6.76,7.98,-0.12,29.82
8767,0.3284,-0.0243,0.8654,-6.72,7.92,-0.06,29.81
8777,0.3287,-0.0267,0.8643,-6.76,7.94,-0.06,29.83
8787,0.3284,-0.0266,0.8666,-6.76,7.97,-0.03,29.82
8797,0.3282,-0.0266,0.8657,-6.69,7.94,0.02,29.82
8807,0.3276,-0.0302,0.8668,-6.73,7.92,-0.03,29.83
8817,0.3264,-0.0243,0.8656,-6.76,7.95,-0.09,29.83
8827,0.3253,-0.0281,0.8654,-6.73,7.97,-0.08,29.83
8837,0.3303,-0.0242,0.8665,-6.73,7.94,-0.05,29.83
8847,0.3302,-0.0273,0.8629,-6.75,7.92,-0.03,29.83
8857,0.3285,-0.0265,0.8643,-6.78,7.94,0.02,29.82
8867,0.329,-0.0247,0.8711,-6.75,8.03,-0.11,29.81
8877,0.3303,-0.0247,0.8617,-6.69,8.0,-0.06,29.83
8887,0.3296,-0.0264,0.8632,-6.69,7.95,-0.03,29.83
8897,0.3285,-0.0258,0.8645,-6.84,7.94,-0.09,29.84
8907,0.3263,-0.0229,0.8635,-6.78,8.03,0.03,29.82
8917,0.3273,-0.0276,0.8696,-6.78,8.03,-0.05,29.83
8927,0.3268,-0.0271,0.8608,-6.75,8.03,-0.03,29.83
8937,0.3237,-0.0245,0.8646,-6.7,8.05,-0.02,29.83
8948,0.3278,-0.0223,0.866,-6.76,7.92,-0.06,29.82
8958,0.3282,-0.0229,0.864,-6.61,7.89,-0.03,29.82
8968,0.3284,-0.0265,0.8622,-6.78,7.92,-0.11,29.81
8978,0.3271,-0.0283,0.8671,-6.73,7.92,-0.03,29.83
8988,0.3292,-0.0256,0.8673,-6.72,7.97,0.02,29.83
8998,0.3274,-0.0278,0.8701,-6.75,7.95,-0.02,29.82
9008,0.3282,-0.0269,0.8652,-6.75,8.03,-0.09,29.85
9018,0.3258,-0.0273,0.864,-6.7,7.98,-0.06,29.82
9028,0.3268,-0.0264,0.8677,-6.75,8.0,-0.03,29.84
9038,0.3286,-0.0232,0.8643,-6.79,7.95,-0.02,29.83
9048,0.3245,-0.0243,0.8602,-6.72,7.94,-0.02,29.82
9058,0.3284,-0.0258,0.8612,-6.7,7.95,-0.03,29.84
9068,0.3259,-0.0262,0.8676,-6.76,7.92,-0.02,29.81
9078,0.3287,-0.0232,0.8694,-6.7,7.92,0.0,29.82
9088,0.3265,-0.0248,0.8636,-6.76,7.98,-0.06,29.82
9098,0.329,-0.0244,0.8662,-6.75,7.97,-0.05,29.81
9108,0.3243,-0.0249,0.8647,-6.72,7.98,0.0,29.82
9118,0.3251,-0.0278,0.865,-6.72,7.97,-0.11,29.84
9128,0.3293,-0.0264,0.8643,-6.67,7.91,-0.06,29.83
9138,0.3309,-0.0284,0.8665,-6.69,7.92,-0.02,29.84
9148,0.3264,-0.0253,0.8645,-6.73,8.02,0.02,29.83
9158,0.3256,-0.024,0.8685,-6.79,8.0,-0.06,29.83
9168,0.3275,-0.0222,0.8667,-6.73,7.94,0.11,29.85
9178,0.3253,-0.021,0.8665,-6.73,8.05,0.0,29.85
9188,0.3292,-0.0217,0.8651,-6.79,7.92,-0.06,29.84
9198,0.3275,-0.025,0.8613,-6.67,7.95,-0.06,29.82
9208,0.3258,-0.0287,0.8645,-6.75,7.91,0.02,29.85
9218,0.3282,-0.0309,0.8662,-6.72,7.88,-0.06,29.83
9228,0.3285,-0.027,0.8667,-6.76,7.94,-0.11,29.82
9238,0.3325,-0.028,0.863,-6.72,7.97,-0.06,29.82
9248,0.3303,-0.0236,0.8627,-6.69,7.94,-0.09,29.83
9258,0.3302,-0.0236,0.8658,-6.72,7.94,-0.06,29.83
9269,0.3287,-0.0266,0.8687,-6.75,7.89,-0.09,29.84
9279,0.3279,-0.0236,0.866,-6.72,7.88,-0.09,29.81
9289,0.3278,-0.024,0.8639,-6.75,7.98,-0.02,29.83
9299,0.3276,-0.0288,0.8682,-6.72,7.92,-0.08,29.83
9309,0.3273,-0.0282,0.8656,-6.73,7.95,-0.14,29.84
9319,0.3307,-0.0287,0.8608,-6.73,7.94,-0.11,29.84
9329,0.3269,-0.026,0.8666,-6.81,7.91,-0.02,29.83
9339,0.3292,-0.028,0.8665,-6.7,7.97,-0.05,29.83
9349,0.3271,-0.0251,0.868,-6.66,7.97,-0.02,29.84
9359,0.3246,-0.0245,0.863,-6.75,7.92,-0.08,29.83
9369,0.327,-0.0258,0.8685,-6.67,7.85,-0.06,29.83
9379,0.3237,-0.0234,0.8644,-6.75,7.94,-0.03,29.82
9389,0.3286,-0.0232,0.8658,-6.73,7.94,-0.02,29.84
9399,0.3243,-0.0269,0.8639,-6.69,7.95,-0.08,29.82
9409,0.3287,-0.024,0.8644,-6.7,7.95,-0.02,29.82
9419,0.3281,-0.0266,0.8661,-6.7,7.92,-0.02,29.82
9429,0.3262,-0.0261,0.8646,-6.69,7.97,-0.08,29.83
9439,0.3298,-0.027,0.8605,-6.79,7.94,-0.03,29.82
9449,0.3268,-0.024,0.8634,-6.7,7.95,-0.08,29.83
9459,0.3252,-0.0258,0.8679,-6.75,7.98,0.02,29.84
9469,0.3282,-0.0244,0.8604,-6.63,7.97,-0.03,29.82
9479,0.3291,-0.025,0.8622,-6.76,7.98,-0.03,29.83
9489,0.327,-0.0269,0.8668,-6.75,8.05,-0.08,29.83
9499,0.3298,-0.0261,0.8641,-6.69,7.89,-0.09,29.84
9509,0.327,-0.0286,0.8635,-6.73,7.97,-0.05,29.85
9519,0.3307,-0.0222,0.8623,-6.64,7.95,0.02,29.86
9529,0.327,-0.0254,0.8676,-6.84,7.91,0.0,29.87
9539,0.3291,-0.0276,0.8676,-6.78,7.91,-0.03,29.85
9549,0.3281,-0.0239,0.8657,-6.76,7.97,0.0,29.87
9559,0.3285,-0.0255,0.865,-6.75,7.88,-0.06,29.84
9569,0.329,-0.0256,0.8602,-6.7,7.97,-0.11,29.85
9579,0.3263,-0.0229,0.8652,-6.72,7.91,-0.05,29.84
9589,0.3271,-0.0234,0.8654,-6.76,7.98,-0.03,29.84
9599,0.3263,-0.0267,0.8662,-6.75,7.95,0.0,29.83
9609,0.3291,-0.0282,0.8661,-6.82,7.89,-0.06,29.85
9619,0.3282,-0.0253,0.8636,-6.72,8.02,-0.06,29.85
9629,0.3284,-0.0227,0.8616,-6.7,8.0,0.0,29.82
9639,0.3292,-0.0243,0.8621,-6.7,7.94,-0.06,29.85
9649,0.3279,-0.028,0.8636,-6.72,8.0,-0.08,29.83
9659,0.3284,-0.0261,0.8687,-6.72,7.95,-0.06,29.82
9669,0.3286,-0.027,0.8641,-6.72,8.0,-0.03,29.82
9679,0.3253,-0.0264,0.8656,-6.73,8.0,-0.08,29.83
9689,0.3284,-0.027,0.8608,-6.73,7.89,-0.02,29.83
9699,0.3236,-0.0266,0.866,-6.7,8.02,-0.06,29.82
9709,0.3287,-0.0267,0.868,-6.73,7.98,-0.09,29.85
9719,0.3291,-0.0256,0.8644,-6.73,7.92,-0.02,29.86
9729,0.3257,-0.026,0.8627,-6.7,7.95,0.0,29.83
9739,0.327,-0.0258,0.8673,-6.81,7.95,-0.03,29.82
9749,0.3281,-0.0276,0.8667,-6.75,7.97,-0.03,29.87
9759,0.3285,-0.025,0.8673,-6.75,8.08,0.08,29.83
9769,0.3304,-0.0254,0.8635,-6.81,8.0,-0.03,29.85
9779,0.3298,-0.024,0.8652,-6.78,7.97,-0.03,29.84
9789,0.3263,-0.0255,0.863,-6.67,7.98,-0.08,29.82
9799,0.3259,-0.0266,0.865,-6.76,8.03,-0.09,29.84
9809,0.327,-0.0281,0.8696,-6.7,7.89,-0.09,29.82
9819,0.3284,-0.027,0.8663,-6.73,7.89,-0.08,29.84
9829,0.3275,-0.0248,0.8635,-6.78,7.94,-0.05,29.83
9839,0.3292,-0.0258,0.8695,-6.7,7.95,-0.03,29.84
9849,0.3289,-0.028,0.8615,-6.7,7.98,-0.03,29.82
9859,0.3237,-0.0297,0.8632,-6.73,7.98,-0.06,29.83
9869,0.3273,-0.0266,0.8634,-6.72,7.92,-0.06,29.84
9879,0.3282,-0.0271,0.8647,-6.76,7.95,-0.03,29.84
9889,0.3273,-0.0289,0.865,-6.73,7.95,-0.03,29.84
9899,0.3282,-0.0248,0.8682,-6.75,7.98,-0.02,29.86
9909,0.3264,-0.0245,0.8652,-6.66,7.94,-0.02,29.87
9919,0.3312,-0.0247,0.8651,-6.7,7.94,0.03,29.84
9929,0.329,-0.0271,0.865,-6.75,7.92,-0.06,29.82
9939,0.3276,-0.0243,0.8643,-6.79,8.03,-0.11,29.85
9949,0.3275,-0.0221,0.8649,-6.75,7.95,-0.08,29.84
9959,0.3284,-0.0229,0.8652,-6.75,7.92,-0.09,29.83
9969,0.3297,-0.0253,0.8625,-6.67,7.97,-0.06,29.84
9979,0.3285,-0.0228,0.8674,-6.73,7.94,-0.02,29.85
9989,0.3275,-0.025,0.8639,-6.78,7.95,-0.12,29.84
9999,0.3285,-0.0249,0.8667,-6.79,7.97,-0.09,29.84
10009,0.3258,-0.0267,0.8667,-6.73,7.95,-0.03,29.86
10019,0.3274,-0.0247,0.8635,-6.7,7.95,-0.02,29.83
10029,0.3278,-0.0284,0.8658,-6.72,7.92,-0.02,29.84
10039,0.3279,-0.0276,0.8628,-6.73,7.91,-0.06,29.85
10049,0.329,-0.0251,0.8656,-6.75,8.0,-0.03,29.83
10059,0.3275,-0.0262,0.8708,-6.75,7.92,-0.09,29.87
10069,0.3256,-0.0281,0.8623,-6.85,7.94,-0.03,29.86
10079,0.3259,-0.0247,0.8629,-6.73,7.97,-0.05,29.86
10089,0.3282,-0.0253,0.8651,-6.69,8.0,0.0,29.86
10099,0.3289,-0.0272,0.8601,-6.81,7.94,0.0,29.82
10109,0.3295,-0.024,0.8669,-6.76,7.98,-0.02,29.82
10119,0.3252,-0.0253,0.8666,-6.78,8.0,-0.03,29.86
10129,0.329,-0.0272,0.8634,-6.66,8.03,-0.09,29.83
10139,0.3297,-0.0272,0.8657,-6.7,7.94,-0.03,29.83
10149,0.3265,-0.0269,0.8652,-6.76,7.98,0.0,29.85
10159,0.33,-0.0259,0.8672,-6.75,7.98,-0.06,29.84
10169,0.3257,-0.0264,0.8644,-6.73,7.94,0.02,29.84
10179,0.3308,-0.0259,0.8621,-6.78,7.88,-0.06,29.83
10189,0.3275,-0.0247,0.8658,-6.69,8.05,0.0,29.84
10199,0.3257,-0.0238,0.8652,-6.69,7.95,-0.05,29.85
10209,0.3298,-0.0247,0.8649,-6.7,7.92,-0.08,29.87
10219,0.3284,-0.025,0.8672,-6.75,7.86,-0.14,29.85
10229,0.3313,-0.0255,0.8658,-6.76,7.92,-0.08,29.86
10239,0.3281,-0.0256,0.8633,-6.73,7.89,-0.08,29.83
10249,0.3287,-0.026,0.8678,-6.76,7.88,0.03,29.84
10259,0.3301,-0.0258,0.8618,-6.7,7.94,-0.02,29.87
10269,0.3303,-0.0242,0.868,-6.7,8.06,0.0,29.83
10280,0.3301,-0.0237,0.8606,-6.79,7.95,-0.06,29.85
10290,0.3287,-0.0253,0.8649,-6.73,7.89,-0.06,29.85
10301,0.3287,-0.0255,0.8597,-6.7,7.95,-0.08,29.86
10311,0.3273,-0.0273,0.8639,-6.76,7.94,0.0,29.86
10321,0.3247,-0.028,0.8668,-6.76,7.92,0.0,29.87
10331,0.3282,-0.0291,0.8632,-6.73,7.98,0.03,29.85
10341,0.3293,-0.0253,0.8643,-6.66,8.0,-0.03,29.85
10351,0.3267,-0.0258,0.8629,-6.81,7.97,-0.06,29.87
10361,0.326,-0.0261,0.8643,-6.73,7.94,-0.06,29.84
10371,0.3291,-0.0267,0.8649,-6.63,7.97,-0.05,29.87
10381,0.3291,-0.0251,0.8621,-6.79,7.98,-0.05,29.85
10391,0.3257,-0.024,0.8662,-6.7,7.89,-0.06,29.84
10401,0.324,-0.0226,0.8669,-6.76,8.0,-0.02,29.84
10411,0.33,-0.0259,0.8673,-6.73,7.94,-0.02,29.85
10421,0.3289,-0.0302,0.8649,-6.75,7.94,-0.09,29.86
10431,0.3253,-0.027,0.864,-6.7,7.98,-0.09,29.83
10441,0.3276,-0.0267,0.8644,-6.7,8.03,-0.03,29.87
10451,0.3246,-0.0233,0.8643,-6.78,8.0,-0.14,29.85
10461,0.3256,-0.026,0.8611,-6.7,7.98,-0.05,29.85
10471,0.3274,-0.0272,0.863,-6.72,7.94,-0.05,29.86
10481,0.3285,-0.0278,0.8634,-6.76,7.98,-0.02,29.84
10491,0.329,-0.0242,0.8636,-6.69,7.95,-0.05,29.84
10501,0.3263,-0.0256,0.865,-6.72,7.92,-0.05,29.85
10511,0.3282,-0.0251,0.8629,-6.75,7.94,0.02,29.88
10521,0.3269,-0.0244,0.8666,-6.76,7.92,-0.03,29.88
10531,0.33,-0.0236,0.8665,-6.75,8.0,-0.03,29.85
10541,0.3319,-0.0244,0.8661,-6.81,7.98,-0.02,29.85
10551,0.3308,-0.0253,0.8636,-6.76,8.03,-0.09,29.86
10561,0.3259,-0.0294,0.8608,-6.67,7.98,-0.06,29.85
10571,0.3281,-0.0289,0.8651,-6.73,7.98,0.0,29.84
10581,0.33,-0.027,0.8643,-6.75,7.89,-0.05,29.85
10591,0.3269,-0.0255,0.8621,-6.81,7.89,-0.03,29.86
10601,0.3279,-0.0229,0.866,-6.72,7.95,-0.05,29.86
10611,0.3293,-0.0259,0.8615,-6.76,7.95,-0.06,29.85
10621,0.3264,-0.0271,0.8643,-6.61,7.92,-0.06,29.85
10631,0.3262,-0.0288,0.8649,-6.75,7.98,-0.09,29.85
10641,0.3304,-0.0269,0.8672,-6.76,7.98,-0.08,29.85
10651,0.3296,-0.0249,0.8663,-6.78,8.03,-0.17,29.84
10661,0.3281,-0.0249,0.864,-6.69,7.92,-0.03,29.85
10671,0.3279,-0.0251,0.8608,-6.73,7.91,0.02,29.86
10681,0.3292,-0.0259,0.8652,-6.72,7.94,0.06,29.86
10691,0.3286,-0.0256,0.8604,-6.7,7.95,-0.03,29.86
10701,0.3253,-0.0287,0.8665,-6.81,7.97,-0.05,29.85
10711,0.3253,-0.0291,0.8589,-6.73,7.95,-0.02,29.86
10721,0.3221,-0.0273,0.8713,-6.67,7.98,-0.03,29.87
10731,0.3257,-0.0255,0.8634,-6.76,7.82,-0.08,29.87
10741,0.3269,-0.0238,0.8652,-6.72,7.89,0.02,29.87
10751,0.3265,-0.0228,0.8693,-6.79,7.89,0.0,29.84
10761,0.3263,-0.0198,0.8656,-6.79,7.98,-0.06,29.84
10771,0.3301,-0.0232,0.8682,-6.72,7.97,-0.09,29.84
10781,0.3278,-0.0269,0.8651,-6.76,8.0,-0.09,29.86
10791,0.3276,-0.0259,0.8654,-6.72,8.0,0.0,29.86
10801,0.3295,-0.0304,0.865,-6.82,7.91,-0.06,29.86
10811,0.3308,-0.0311,0.8591,-6.72,7.98,-0.08,29.86
10822,0.3276,-0.0299,0.8611,-6.73,7.92,-0.06,29.85
10832,0.3302,-0.0271,0.8641,-6.79,7.98,-0.11,29.87
10842,0.326,-0.0229,0.8658,-6.78,7.97,-0.08,29.86
10852,0.3298,-0.0205,0.8685,-6.79,7.94,0.02,29.85
10862,0.3245,-0.0266,0.8715,-6.81,8.06,-0.05,29.86
10872,0.3209,-0.021,0.8672,-6.81,8.55,-0.09,29.86
10882,0.3291,-0.026,0.8589,-6.78,7.51,0.06,29.89
10892,0.3306,-0.0289,0.8484,-6.73,7.56,0.0,29.88
10902,0.3102,-0.0341,0.879,-6.76,8.34,-0.05,29.87
10913,0.3281,-0.0319,0.8605,-6.72,7.73,0.0,29.86
10923,0.3358,-0.0254,0.8726,-6.78,7.76,0.03,29.87
10933,0.3381,-0.0225,0.8655,-6.78,7.86,0.03,29.86
10943,0.3364,-0.0201,0.8694,-6.72,7.89,-0.03,29.87
10953,0.3325,-0.0205,0.8671,-6.73,7.98,-0.05,29.89
10963,0.3279,-0.0203,0.8605,-6.73,7.98,-0.12,29.86
10973,0.3278,-0.0205,0.8633,-6.82,8.02,-0.05,29.84
10983,0.3269,-0.0287,0.8553,-6.72,8.06,-0.08,29.84
10993,0.3287,-0.0319,0.8557,-6.78,7.95,-0.02,29.83
11003,0.3308,-0.0295,0.8611,-6.76,7.95,-0.06,29.84
11013,0.329,-0.0319,0.866,-6.75,7.92,0.02,29.87
11023,0.3313,-0.0283,0.8684,-6.75,7.88,-0.03,29.88
11033,0.3347,-0.0262,0.871,-6.75,8.0,0.02,29.84
11043,0.3291,-0.0216,0.8735,-6.63,8.05,0.05,29.85
11053,0.3263,-0.0197,0.8706,-6.75,7.97,0.02,29.87
11063,0.3257,-0.0199,0.8657,-6.84,7.95,0.05,29.85
11073,0.3242,-0.0227,0.8586,-6.76,7.97,-0.02,29.87
11083,0.3264,-0.0264,0.8591,-6.76,7.89,-0.11,29.84
11093,0.3234,-0.0293,0.86,-6.67,7.91,-0.05,29.88
11103,0.3253,-0.0271,0.8669,-6.79,7.92,-0.08,29.87
11113,0.325,-0.0315,0.864,-6.76,7.89,-0.03,29.86
11123,0.3284,-0.03,0.8669,-6.73,7.97,-0.11,29.87
11133,0.3263,-0.0289,0.8733,-6.79,7.97,-0.05,29.87
11143,0.3271,-0.0236,0.8755,-6.79,8.02,-0.12,29.86
11153,0.3306,-0.0217,0.8665,-6.79,7.92,-0.08,29.86
11163,0.3291,-0.0233,0.8667,-6.76,7.97,-0.08,29.86
11173,0.3264,-0.0244,0.864,-6.7,7.94,-0.12,29.88
11183,0.3252,-0.0259,0.8604,-6.79,7.91,-0.09,29.88
11193,0.3264,-0.0247,0.8624,-6.78,7.97,-0.02,29.87
11203,0.3264,-0.0289,0.8645,-6.81,7.94,-0.06,29.86
11213,0.3322,-0.0308,0.8662,-6.64,8.0,-0.08,29.87
11223,0.33,-0.0276,0.8647,-6.73,7.91,-0.02,29.86
11233,0.33,-0.0262,0.8701,-6.78,7.97,-0.11,29.87
11243,0.3279,-0.0272,0.8667,-6.7,8.0,-0.02,29.87
11253,0.3258,-0.0249,0.8651,-6.67,7.95,-0.05,29.87
11263,0.3276,-0.0259,0.8617,-6.75,7.95,-0.05,29.85
11273,0.3275,-0.0278,0.8618,-6.81,7.98,-0.03,29.86
11283,0.3247,-0.0276,0.8563,-6.75,7.95,-0.08,29.87
11293,0.3289,-0.0239,0.8572,-6.76,7.98,-0.06,29.85
11303,0.3289,-0.025,0.8599,-6.78,7.94,-0.05,29.86
11313,0.3282,-0.0264,0.8676,-6.78,7.97,-0.05,29.85
11323,0.3292,-0.027,0.868,-6.78,7.94,-0.05,29.85
11333,0.3281,-0.0267,0.8656,-6.75,7.94,-0.06,29.87
11343,0.3291,-0.0261,0.8672,-6.76,7.98,-0.03,29.85
11353,0.3315,-0.0234,0.8658,-6.73,7.89,-0.05,29.86
11363,0.3292,-0.0264,0.8668,-6.75,7.97,-0.02,29.87
11373,0.3236,-0.0259,0.8625,-6.78,8.08,-0.09,29.87
11383,0.3275,-0.0229,0.86,-6.73,7.94,-0.06,29.86
11393,0.3256,-0.0244,0.8599,-6.75,7.95,0.0,29.87
11403,0.3263,-0.0253,0.8639,-6.72,7.94,-0.11,29.87
11413,0.3286,-0.024,0.8658,-6.76,7.91,-0.02,29.87
11423,0.3304,-0.028,0.8693,-6.75,7.91,0.0,29.86
11433,0.3301,-0.0276,0.8656,-6.76,7.95,-0.05,29.86
11443,0.3333,-0.0267,0.8656,-6.72,8.03,0.05,29.86
11453,0.3278,-0.0269,0.8641,-6.76,8.0,-0.05,29.87
11463,0.3275,-0.0269,0.8646,-6.67,7.94,-0.02,29.86
11473,0.3262,-0.0228,0.8615,-6.73,7.92,-0.09,29.87
11483,0.3284,-0.0247,0.8599,-6.73,7.91,-0.06,29.87
11493,0.3281,-0.0247,0.8615,-6.73,7.92,-0.08,29.87
11503,0.3302,-0.0225,0.8634,-6.75,7.94,-0.02,29.87
11513,0.329,-0.0269,0.8668,-6.7,7.88,-0.09,29.84
11523,0.3298,-0.0248,0.8734,-6.76,7.91,-0.11,29.86
11533,0.3308,-0.0242,0.8658,-6.73,7.98,0.02,29.88
11543,0.3287,-0.0259,0.8646,-6.79,7.91,-0.05,29.87
11553,0.3269,-0.0269,0.8645,-6.76,7.97,-0.05,29.88
11563,0.326,-0.0253,0.8639,-6.69,7.88,-0.03,29.88
11573,0.326,-0.0251,0.8646,-6.78,7.97,-0.05,29.9
11583,0.3267,-0.0234,0.865,-6.79,7.94,-0.05,29.86
11593,0.3278,-0.025,0.8634,-6.7,7.92,-0.09,29.86
11603,0.3281,-0.0269,0.8674,-6.73,7.91,-0.08,29.88
11613,0.3263,-0.0272,0.8667,-6.81,7.92,-0.02,29.9
11623,0.3279,-0.0251,0.8652,-6.75,8.0,-0.11,29.89
11633,0.328,-0.0291,0.8665,-6.76,7.92,-0.08,29.87
11643,0.3312,-0.025,0.8687,-6.72,7.97,-0.02,29.88
11653,0.3289,-0.0272,0.8628,-6.69,8.0,-0.05,29.88
11663,0.3289,-0.0266,0.8636,-6.7,7.88,-0.06,29.87
11673,0.3286,-0.024,0.8645,-6.78,7.95,-0.02,29.86
11683,0.3278,-0.0273,0.8646,-6.73,7.92,-0.05,29.87
11693,0.3306,-0.0251,0.8647,-6.73,7.97,-0.03,29.87
11703,0.3279,-0.0264,0.8621,-6.72,7.94,-0.05,29.86
11713,0.3284,-0.0228,0.8656,-6.69,8.0,-0.06,29.88
11723,0.3282,-0.0264,0.8639,-6.76,7.94,-0.09,29.89
11733,0.3304,-0.0248,0.8656,-6.75,7.97,-0.03,29.88
11743,0.3269,-0.0284,0.864,-6.76,7.95,-0.02,29.87
11753,0.3293,-0.0275,0.8655,-6.75,7.97,-0.02,29.86
11763,0.3301,-0.0245,0.8591,-6.76,7.98,0.05,29.88
11773,0.3258,-0.0251,0.8638,-6.73,8.02,-0.05,29.88
11783,0.326,-0.0243,0.8628,-6.73,8.0,-0.06,29.88
11793,0.3295,-0.0249,0.8663,-6.73,7.97,-0.06,29.88
11803,0.3282,-0.024,0.8656,-6.67,7.97,-0.06,29.87
11813,0.3273,-0.0269,0.8672,-6.76,7.91,-0.06,29.87
11823,0.3298,-0.0259,0.8618,-6.78,7.98,-0.05,29.89
11833,0.3297,-0.0276,0.8671,-6.67,7.98,-0.02,29.87
11843,0.3271,-0.0283,0.8639,-6.76,8.03,-0.05,29.88
11853,0.3279,-0.0256,0.8667,-6.72,7.97,-0.02,29.88
11863,0.328,-0.0273,0.8645,-6.79,7.98,-0.08,29.89
11873,0.3279,-0.0238,0.869,-6.73,7.92,0.0,29.87
11883,0.3308,-0.0254,0.8613,-6.72,7.91,-0.03,29.89
11893,0.3274,-0.027,0.8661,-6.79,7.98,-0.05,29.89
11903,0.3289,-0.0269,0.8641,-6.79,7.95,0.02,29.88
11913,0.3281,-0.0258,0.8605,-6.78,7.91,-0.05,29.85
11923,0.3285,-0.025,0.865,-6.76,7.98,-0.05,29.87
11933,0.3281,-0.0277,0.8661,-6.72,7.98,-0.05,29.85
11943,0.3264,-0.0256,0.8625,-6.7,8.0,-0.03,29.87
11953,0.3293,-0.0251,0.8649,-6.76,7.94,-0.08,29.87
11963,0.3275,-0.0255,0.8597,-6.81,7.98,-0.03,29.87
11973,0.3296,-0.0238,0.8649,-6.78,7.98,-0.02,29.87
11983,0.3279,-0.025,0.8647,-6.63,7.94,-0.05,29.89
11993,0.3286,-0.0232,0.8623,-6.79,7.98,0.0,29.86
12003,0.3282,-0.0282,0.8633,-6.66,7.97,-0.08,29.87
12013,0.3273,-0.0238,0.8586,-6.76,7.92,-0.02,29.9
12023,0.3311,-0.027,0.8662,-6.73,7.97,-0.08,29.87
12033,0.3285,-0.028,0.8647,-6.69,7.92,-0.06,29.89
12043,0.3289,-0.0266,0.8649,-6.79,7.97,-0.05,29.87
12053,0.3291,-0.0258,0.8655,-6.67,7.98,-0.09,29.87
12063,0.3278,-0.0261,0.8656,-6.72,7.94,-0.08,29.87
12073,0.3282,-0.0256,0.8594,-6.78,7.94,0.0,29.89
12083,0.3275,-0.0277,0.8599,-6.81,7.97,-0.03,29.87
12093,0.3282,-0.0272,0.8677,-6.81,7.97,-0.03,29.85
12103,0.3311,-0.0267,0.8643,-6.7,7.98,-0.03,29.86
12113,0.3241,-0.0233,0.8657,-6.73,8.0,-0.08,29.89
12123,0.3264,-0.024,0.8677,-6.73,7.94,-0.05,29.88
12133,0.3292,-0.0291,0.8624,-6.66,7.92,-0.02,29.88
12143,0.3309,-0.0262,0.8591,-6.79,8.0,-0.06,29.87
12153,0.3301,-0.0249,0.8644,-6.79,7.92,-0.03,29.89
12163,0.33,-0.0249,0.8667,-6.78,7.91,-0.03,29.89
12173,0.329,-0.0254,0.8661,-6.69,7.98,-0.03,29.88
12183,0.3265,-0.0261,0.8672,-6.76,7.92,-0.08,29.86
12193,0.3302,-0.0245,0.8685,-6.84,7.95,-0.11,29.87
12203,0.3284,-0.0238,0.8677,-6.81,7.98,-0.05,29.87
12213,0.3256,-0.0254,0.8613,-6.73,8.02,-0.03,29.88
12223,0.3278,-0.0267,0.8654,-6.72,7.95,-0.05,29.88
12233,0.3278,-0.0261,0.8627,-6.72,7.94,-0.06,29.9
12243,0.3259,-0.0254,0.8657,-6.89,7.95,-0.14,29.87
12253,0.3279,-0.0236,0.864,-6.75,7.97,-0.06,29.88
12263,0.3262,-0.0245,0.8654,-6.7,7.97,-0.08,29.89
12273,0.3296,-0.0271,0.8668,-6.7,7.98,-0.05,29.9
12283,0.3274,-0.0255,0.8647,-6.69,7.97,-0.08,29.89
12293,0.3275,-0.0248,0.8662,-6.75,7.98,0.0,29.88
12303,0.3257,-0.0226,0.8638,-6.76,7.95,-0.02,29.87
12313,0.3287,-0.0242,0.8612,-6.75,7.91,-0.08,29.87
12323,0.3282,-0.0247,0.8636,-6.72,7.92,-0.06,29.9
12333,0.3291,-0.0264,0.8622,-6.76,7.94,-0.08,29.89
12343,0.3268,-0.0267,0.8622,-6.75,7.94,0.0,29.89
12353,0.3279,-0.0281,0.864,-6.76,7.91,-0.05,29.88
12363,0.3285,-0.026,0.8643,-6.7,7.92,0.05,29.88
12373,0.3285,-0.0231,0.8645,-6.79,7.98,-0.03,29.87
12383,0.3285,-0.0229,0.8628,-6.76,7.92,-0.05,29.88
12393,0.3284,-0.0264,0.8622,-6.78,7.94,-0.05,29.87
12403,0.3311,-0.025,0.8636,-6.75,8.0,-0.09,29.88
12413,0.3282,-0.0258,0.8639,-6.75,7.97,-0.05,29.87
12423,0.3259,-0.0251,0.8656,-6.72,7.95,-0.06,29.89
12433,0.3301,-0.0267,0.8639,-6.7,7.94,-0.02,29.87
12443,0.33,-0.0266,0.8667,-6.73,7.95,-0.11,29.86
12453,0.3274,-0.0248,0.8645,-6.72,7.98,-0.06,29.88
12463,0.3269,-0.026,0.8645,-6.69,8.02,-0.09,29.9
12473,0.3295,-0.0227,0.8639,-6.73,7.94,0.06,29.91
12483,0.3263,-0.0255,0.8621,-6.78,7.97,-0.05,29.89
12493,0.326,-0.0256,0.8632,-6.76,7.97,-0.08,29.91
12503,0.3256,-0.0266,0.8652,-6.75,7.91,0.02,29.88
12513,0.3286,-0.0277,0.8634,-6.72,7.97,-0.11,29.89
12523,0.3246,-0.0297,0.8632,-6.79,7.94,-0.02,29.88
12533,0.3289,-0.026,0.8654,-6.7,7.97,-0.05,29.9
12543,0.329,-0.0281,0.8654,-6.78,8.06,-0.08,29.89
12553,0.3273,-0.0248,0.8625,-6.78,8.02,-0.02,29.87
12563,0.3279,-0.0244,0.8634,-6.78,7.98,-0.05,29.89
12573,0.3239,-0.0269,0.8617,-6.72,7.97,0.05,29.92
12583,0.3289,-0.025,0.8645,-6.79,7.95,-0.02,29.9
12593,0.3307,-0.025,0.8638,-6.79,7.97,-0.06,29.87
12603,0.3281,-0.0229,0.8685,-6.76,7.98,-0.05,29.85
12613,0.3286,-0.0266,0.8628,-6.73,7.98,-0.14,29.88
12623,0.3282,-0.0277,0.8627,-6.75,8.02,-0.05,29.85
12633,0.3279,-0.0249,0.8643,-6.76,7.94,0.02,29.88
12643,0.3307,-0.0232,0.8621,-6.79,7.95,-0.03,29.88
12653,0.3262,-0.0259,0.8621,-6.72,7.98,-0.02,29.89
12663,0.3248,-0.0265,0.8601,-6.72,7.91,-0.08,29.9
12673,0.3282,-0.0288,0.8651,-6.7,7.94,-0.03,29.89
12683,0.3312,-0.0276,0.8645,-6.75,7.95,-0.12,29.89
12693,0.3281,-0.0275,0.8652,-6.75,8.02,-0.06,29.87
12703,0.329,-0.0243,0.8647,-6.76,8.02,0.02,29.88
12713,0.3285,-0.0258,0.8633,-6.72,7.92,-0.02,29.92
12723,0.3289,-0.0237,0.8665,-6.82,7.95,0.05,29.89
12733,0.3284,-0.0243,0.8654,-6.76,7.92,-0.05,29.89
12743,0.3263,-0.0253,0.8676,-6.75,7.98,-0.03,29.9
12753,0.3259,-0.0267,0.868,-6.78,8.03,-0.03,29.87
12763,0.3271,-0.0266,0.8649,-6.76,7.95,-0.12,29.86
12773,0.3278,-0.0251,0.87,-6.67,7.94,-0.06,29.87
12783,0.327,-0.026,0.8658,-6.7,7.97,-0.09,29.89
12793,0.3279,-0.0269,0.8661,-6.72,7.94,-0.03,29.88
12803,0.3258,-0.0247,0.8661,-6.7,7.89,-0.02,29.91
12813,0.3259,-0.0243,0.8633,-6.76,7.98,-0.03,29.9
12823,0.3262,-0.0243,0.8632,-6.72,8.02,-0.03,29.88
12833,0.3286,-0.0254,0.8625,-6.81,7.97,-0.05,29.88
12843,0.3264,-0.0272,0.8646,-6.69,8.0,-0.09,29.88
12853,0.3289,-0.0266,0.8644,-6.75,7.97,-0.11,29.87
12863,0.3287,-0.0265,0.8651,-6.7,8.0,-0.11,29.88
12873,0.3271,-0.0244,0.8665,-6.72,7.94,-0.06,29.88
12883,0.3287,-0.0254,0.8645,-6.78,8.0,0.0,29.87
12893,0.3282,-0.025,0.8632,-6.76,7.94,-0.06,29.87
12903,0.3282,-0.0265,0.8604,-6.69,8.0,-0.09,29.87
12913,0.3292,-0.0244,0.8639,-6.69,7.95,-0.06,29.89
12923,0.3271,-0.0269,0.8623,-6.78,7.98,-0.05,29.88
12933,0.3254,-0.0255,0.8679,-6.67,7.98,-0.09,29.89
12943,0.3278,-0.0259,0.8661,-6.76,7.88,-0.02,29.92
12953,0.3259,-0.0251,0.8639,-6.75,8.0,-0.03,29.89
12963,0.3291,-0.0249,0.8645,-6.75,7.95,-0.11,29.89
12973,0.3273,-0.0282,0.8644,-6.78,7.88,-0.02,29.89
12983,0.3282,-0.0256,0.8633,-6.81,7.89,0.02,29.88
12993,0.326,-0.0237,0.8655,-6.73,7.95,-0.02,29.88
13003,0.3281,-0.0269,0.8698,-6.66,7.95,-0.08,29.89
13013,0.3264,-0.0258,0.8721,-6.69,7.98,-0.03,29.89
13023,0.3282,-0.0273,0.8629,-6.7,8.02,-0.08,29.91
13033,0.3284,-0.0239,0.8655,-6.7,7.98,-0.11,29.89
13043,0.326,-0.0271,0.8643,-6.81,8.0,0.05,29.92
13053,0.3282,-0.0249,0.866,-6.73,7.97,0.03,29.9
13063,0.3264,-0.0286,0.8677,-6.73,7.94,0.0,29.91
13073,0.3309,-0.0244,0.8654,-6.76,7.94,0.02,29.89
13083,0.3286,-0.0277,0.8624,-6.79,7.98,-0.02,29.89
13093,0.3265,-0.0275,0.8658,-6.72,8.0,-0.06,29.92
13103,0.3275,-0.0238,0.8632,-6.75,7.94,-0.09,29.9
13113,0.3269,-0.0262,0.8623,-6.75,7.95,-0.05,29.88
13123,0.3303,-0.024,0.8646,-6.84,7.88,0.0,29.89
13133,0.3292,-0.0265,0.8657,-6.82,7.95,-0.02,29.9
13143,0.3322,-0.0258,0.8627,-6.73,7.89,0.0,29.88
13153,0.3287,-0.0262,0.8647,-6.67,7.92,-0.08,29.88
13163,0.3269,-0.0262,0.8656,-6.76,7.97,-0.05,29.92
13173,0.3239,-0.0253,0.8651,-6.75,8.02,-0.03,29.87
13183,0.3284,-0.0229,0.8627,-6.75,8.0,-0.06,29.89
13193,0.3279,-0.024,0.8673,-6.76,7.98,-0.06,29.9
13203,0.3303,-0.0243,0.8694,-6.76,7.97,-0.08,29.9
13213,0.3259,-0.0233,0.8656,-6.64,8.02,0.03,29.91
13223,0.3262,-0.0233,0.8684,-6.73,7.97,-0.03,29.89
13233,0.3282,-0.0238,0.8629,-6.73,7.94,0.02,29.88
13243,0.3268,-0.0254,0.8673,-6.75,7.98,-0.02,29.89
13253,0.3239,-0.0259,0.866,-6.75,7.94,-0.06,29.91
13263,0.3239,-0.0267,0.8651,-6.7,7.98,-0.02,29.9
13273,0.3279,-0.0262,0.8644,-6.75,7.91,0.0,29.91
13283,0.3248,-0.0254,0.8706,-6.76,7.98,-0.08,29.89
13293,0.3282,-0.0262,0.8672,-6.72,7.89,-0.08,29.9
13303,0.3303,-0.0238,0.8636,-6.72,7.97,0.0,29.89
13313,0.3298,-0.0278,0.8666,-6.72,7.94,0.03,29.92
13323,0.3282,-0.0256,0.8645,-6.79,7.97,-0.06,29.91
13333,0.3269,-0.0237,0.8625,-6.82,7.95,-0.03,29.9
13343,0.327,-0.0251,0.8632,-6.73,7.92,-0.11,29.91
13353,0.3275,-0.0267,0.8656,-6.72,8.0,-0.12,29.91
13363,0.3285,-0.0273,0.8632,-6.72,7.97,0.03,29.91
13373,0.3302,-0.0251,0.8615,-6.69,7.98,-0.02,29.92
13383,0.3293,-0.0277,0.8661,-6.78,7.94,-0.09,29.92
13393,0.327,-0.0239,0.8639,-6.69,7.95,-0.03,29.91
13403,0.3256,-0.0265,0.8624,-6.73,8.02,-0.11,29.87
13413,0.3282,-0.0243,0.8654,-6.76,8.02,-0.02,29.9
13423,0.3286,-0.0294,0.866,-6.73,7.95,0.03,29.88
13433,0.3269,-0.0277,0.8679,-6.67,7.97,-0.05,29.89
13443,0.3292,-0.0255,0.864,-6.76,8.0,-0.03,29.89
13453,0.328,-0.0288,0.8629,-6.76,7.91,-0.12,29.88
13463,0.3276,-0.0272,0.8641,-6.72,7.92,-0.05,29.88
13473,0.3278,-0.0264,0.8636,-6.69,7.91,-0.09,29.91
13483,0.3284,-0.0247,0.8623,-6.63,7.94,-0.03,29.9
13493,0.3269,-0.0266,0.8649,-6.64,8.02,-0.08,29.89
13503,0.3284,-0.0261,0.8666,-6.76,7.92,-0.05,29.89
13513,0.327,-0.0245,0.8634,-6.82,7.98,-0.05,29.91
13523,0.3304,-0.0258,0.8644,-6.79,7.97,0.02,29.89
13533,0.3274,-0.0267,0.8625,-6.7,7.92,-0.08,29.92
13543,0.3243,-0.0238,0.866,-6.73,7.98,-0.03,29.88
13553,0.3271,-0.0273,0.8665,-6.7,8.0,-0.12,29.9
13563,0.3287,-0.026,0.8667,-6.69,7.94,-0.03,29.9
13574,0.328,-0.0278,0.8652,-6.73,7.94,-0.02,29.9
13584,0.3287,-0.0249,0.8624,-6.75,7.97,-0.08,29.92
13594,0.3281,-0.0273,0.8645,-6.72,7.97,-0.14,29.89
13604,0.3295,-0.0267,0.8649,-6.87,7.98,-0.06,29.91
13614,0.3258,-0.028,0.8698,-6.73,8.0,-0.02,29.91
13624,0.3274,-0.0259,0.8644,-6.75,7.91,0.02,29.91
13634,0.3298,-0.0229,0.865,-6.69,7.85,0.02,29.9
13644,0.33,-0.0275,0.8652,-6.76,7.95,-0.06,29.89
13654,0.3275,-0.0254,0.8629,-6.75,7.97,-0.03,29.9
13664,0.3271,-0.0264,0.8652,-6.72,7.95,-0.09,29.92
13674,0.328,-0.028,0.8625,-6.78,7.97,-0.09,29.89
13684,0.3268,-0.0277,0.861,-6.75,8.02,0.02,29.92
13694,0.3302,-0.0249,0.8654,-6.7,7.95,-0.02,29.89
13704,0.3287,-0.0256,0.864,-6.7,7.98,-0.03,29.89
13714,0.3286,-0.0269,0.8678,-6.7,7.97,-0.03,29.9
13724,0.326,-0.0261,0.8645,-6.66,7.97,-0.02,29.92
13734,0.3258,-0.0255,0.8673,-6.73,8.0,-0.12,29.91
13744,0.3245,-0.0262,0.8656,-6.72,7.97,-0.03,29.92
13754,0.3254,-0.026,0.8656,-6.72,7.98,-0.09,29.91
13764,0.3274,-0.022,0.8645,-6.73,7.98,-0.03,29.9
13774,0.3263,-0.0261,0.8684,-6.73,7.97,0.03,29.9
13784,0.329,-0.0271,0.8647,-6.75,7.98,-0.03,29.92
13794,0.3293,-0.024,0.8665,-6.78,7.92,-0.09,29.91
13804,0.329,-0.0278,0.8662,-6.78,7.92,-0.11,29.91
13814,0.327,-0.0256,0.865,-6.78,7.98,-0.06,29.92
13824,0.3292,-0.027,0.8641,-6.73,7.91,0.03,29.91
13834,0.327,-0.0238,0.8688,-6.73,7.95,-0.05,29.92
13844,0.3254,-0.0287,0.8643,-6.72,7.97,-0.03,29.9
13854,0.3267,-0.0272,0.8651,-6.69,7.97,-0.06,29.89
13864,0.3309,-0.027,0.8652,-6.69,7.98,0.03,29.9
13874,0.3279,-0.0277,0.8667,-6.73,7.98,-0.09,29.91
13884,0.3251,-0.0238,0.8636,-6.78,8.05,-0.02,29.89
13894,0.3253,-0.0266,0.8674,-6.72,7.98,0.0,29.87
13904,0.3276,-0.0248,0.8688,-6.78,8.0,-0.11,29.91
13914,0.3281,-0.0238,0.8611,-6.69,8.02,-0.02,29.91
13924,0.3278,-0.0255,0.8643,-6.7,7.95,-0.03,29.89
13934,0.3309,-0.0253,0.8622,-6.73,7.92,-0.06,29.89
13944,0.3286,-0.024,0.8656,-6.7,8.0,-0.03,29.91
13954,0.3282,-0.0254,0.8639,-6.76,7.98,-0.06,29.91
13964,0.3284,-0.0269,0.8677,-6.73,7.94,-0.06,29.93
13974,0.3292,-0.0248,0.8647,-6.73,7.95,-0.08,29.9
13984,0.327,-0.0256,0.8597,-6.84,7.95,-0.09,29.88
13994,0.3287,-0.0266,0.8651,-6.79,8.02,-0.03,29.89
14004,0.3286,-0.0267,0.8608,-6.7,8.02,-0.02,29.9
14014,0.3269,-0.0251,0.8622,-6.78,7.91,-0.05,29.9
14024,0.3301,-0.0261,0.8596,-6.7,7.94,-0.06,29.9
14034,0.3289,-0.024,0.864,-6.72,7.94,-0.02,29.93
14044,0.3303,-0.0245,0.8663,-6.64,7.97,-0.06,29.92
14054,0.3286,-0.0264,0.8656,-6.7,7.97,-0.03,29.9
14064,0.3276,-0.0237,0.8624,-6.76,7.98,-0.06,29.92
14074,0.33,-0.0265,0.8595,-6.73,7.97,0.0,29.89
14084,0.3302,-0.0256,0.8655,-6.72,7.94,-0.03,29.89
14094,0.3286,-0.0258,0.8639,-6.73,7.91,0.02,29.9
14104,0.3259,-0.0253,0.8635,-6.75,8.0,-0.03,29.89
14114,0.33,-0.0253,0.864,-6.75,7.97,-0.02,29.88
14124,0.3291,-0.0253,0.8618,-6.89,7.88,-0.05,29.89
14134,0.3303,-0.0234,0.8617,-6.73,7.97,-0.09,29.88
14144,0.3276,-0.024,0.8649,-6.76,7.95,-0.03,29.94
14154,0.3293,-0.0253,0.865,-6.7,7.91,-0.05,29.92
14164,0.3269,-0.0281,0.8665,-6.76,7.97,-0.02,29.9
14174,0.3298,-0.025,0.865,-6.72,7.97,0.0,29.87
14184,0.3285,-0.0271,0.8623,-6.81,7.97,-0.02,29.91
14194,0.3285,-0.0249,0.8639,-6.7,7.98,-0.06,29.89
14204,0.3284,-0.0251,0.8618,-6.64,8.0,-0.08,29.9
14214,0.3292,-0.0242,0.8627,-6.76,7.94,-0.03,29.91
14224,0.3318,-0.0232,0.866,-6.72,7.98,-0.03,29.91
14234,0.328,-0.0266,0.8693,-6.79,7.98,0.02,29.93
14244,0.3273,-0.0231,0.8663,-6.73,8.0,-0.14,29.92
14254,0.3303,-0.0251,0.8651,-6.81,7.94,-0.06,29.92
14264,0.3269,-0.0256,0.8656,-6.75,7.95,-0.05,29.92
14274,0.3258,-0.0278,0.8641,-6.75,7.92,-0.02,29.91
14284,0.3293,-0.024,0.8635,-6.79,8.02,-0.11,29.94
14294,0.3275,-0.022,0.866,-6.81,7.95,-0.08,29.92
14304,0.3269,-0.0284,0.8694,-6.78,7.98,0.02,29.91
14314,0.3265,-0.0243,0.8682,-6.73,7.88,-0.02,29.9
14324,0.3292,-0.0251,0.8656,-6.76,8.02,-0.05,29.93
14334,0.3257,-0.0247,0.8641,-6.82,7.95,0.03,29.92
14344,0.3285,-0.025,0.8634,-6.82,7.94,-0.03,29.91
14354,0.3282,-0.026,0.8666,-6.78,7.95,-0.05,29.94
14364,0.3296,-0.027,0.8661,-6.81,7.94,-0.02,29.89
14374,0.3276,-0.0254,0.8663,-6.66,7.95,-0.11,29.92
14384,0.3279,-0.0232,0.8685,-6.76,7.97,-0.06,29.91
14394,0.3303,-0.0259,0.8667,-6.75,7.97,-0.08,29.91
14404,0.3267,-0.0259,0.8623,-6.78,7.94,0.03,29.89
14414,0.3241,-0.0262,0.8658,-6.7,7.98,-0.03,29.93
14424,0.3276,-0.0282,0.8701,-6.78,8.0,-0.05,29.92
14435,0.3278,-0.025,0.8644,-6.72,7.94,-0.06,29.91
14445,0.329,-0.0237,0.8627,-6.75,8.0,0.05,29.92
14455,0.3282,-0.0211,0.8657,-6.76,7.94,-0.03,29.91
14465,0.3279,-0.0277,0.8638,-6.73,8.02,-0.03,29.92
14475,0.3286,-0.0253,0.8652,-6.72,8.0,-0.08,29.9
14485,0.3281,-0.0239,0.8671,-6.72,7.94,-0.06,29.93
14495,0.3279,-0.0269,0.8671,-6.76,7.94,-0.05,29.91
14505,0.3258,-0.0256,0.866,-6.72,7.94,0.02,29.93
14515,0.3281,-0.0272,0.8629,-6.73,7.98,-0.06,29.91
14525,0.3268,-0.026,0.8617,-6.67,7.97,-0.06,29.92
14535,0.328,-0.0245,0.8661,-6.82,7.98,-0.02,29.9
14545,0.3313,-0.0282,0.864,-6.76,7.94,-0.03,29.91
14555,0.3287,-0.0269,0.8644,-6.7,7.95,-0.03,29.92
14565,0.3254,-0.0267,0.8663,-6.79,8.0,0.02,29.9
14575,0.3273,-0.026,0.8644,-6.69,7.89,-0.06,29.91
14585,0.3287,-0.0259,0.8621,-6.72,8.0,-0.05,29.92
14595,0.3256,-0.0217,0.8643,-6.79,7.94,-0.03,29.92
14605,0.3291,-0.0251,0.8658,-6.72,7.95,-0.03,29.91
14615,0.3301,-0.0231,0.8639,-6.79,7.91,-0.11,29.9
14625,0.3287,-0.0256,0.8647,-6.67,8.05,-0.02,29.9
14635,0.3286,-0.0273,0.865,-6.69,8.0,-0.02,29.95
14645,0.3314,-0.0249,0.8685,-6.75,8.03,-0.06,29.92
14655,0.328,-0.0276,0.8649,-6.78,7.98,-0.06,29.91
14665,0.3275,-0.024,0.8663,-6.73,8.0,0.0,29.9
14675,0.327,-0.0244,0.8651,-6.75,7.94,-0.03,29.89
14685,0.3279,-0.0251,0.8658,-6.81,7.94,-0.02,29.91
14695,0.3279,-0.0237,0.8627,-6.73,7.95,0.0,29.9
14705,0.329,-0.0248,0.8634,-6.73,8.0,-0.08,29.91
14715,0.3254,-0.0258,0.8646,-6.73,7.95,-0.06,29.9
14725,0.3278,-0.0264,0.8594,-6.72,7.98,-0.02,29.93
14735,0.329,-0.0258,0.8684,-6.7,7.94,-0.05,29.91
14745,0.3262,-0.0244,0.8672,-6.76,7.98,-0.09,29.92
14755,0.3271,-0.0225,0.8635,-6.76,7.95,-0.05,29.9
14765,0.3267,-0.0254,0.8632,-6.76,7.98,-0.03,29.89
14775,0.3257,-0.0244,0.864,-6.76,7.94,-0.06,29.91
14785,0.3269,-0.0228,0.8632,-6.79,7.95,-0.06,29.91
14795,0.3307,-0.0253,0.8665,-6.79,8.0,-0.09,29.91
14805,0.3298,-0.025,0.8665,-6.76,8.03,-0.12,29.92
14815,0.3315,-0.0238,0.8621,-6.75,7.95,-0.08,29.92
14825,0.327,-0.0267,0.8656,-6.76,7.98,-0.09,29.92
14835,0.3284,-0.0278,0.8682,-6.7,7.89,-0.06,29.92
14845,0.3282,-0.0272,0.8591,-6.72,7.95,-0.02,29.92
14855,0.3313,-0.0236,0.863,-6.63,7.97,0.0,29.92
14865,0.3286,-0.0253,0.8638,-6.76,8.0,-0.06,29.93
14875,0.3256,-0.025,0.8658,-6.75,8.03,-0.03,29.94
14885,0.329,-0.0258,0.8623,-6.73,7.98,-0.05,29.92
14896,0.3298,-0.0261,0.8662,-6.75,7.97,-0.06,29.92
14906,0.3284,-0.0261,0.8674,-6.73,7.98,0.02,29.91
14916,0.3274,-0.0247,0.8654,-6.69,7.97,-0.03,29.94
14926,0.3278,-0.0271,0.8627,-6.78,7.97,-0.02,29.9
14936,0.3275,-0.0249,0.8684,-6.72,7.92,-0.03,29.91
14946,0.3292,-0.025,0.8634,-6.72,7.95,-0.02,29.92
14956,0.3292,-0.0248,0.8658,-6.81,7.97,-0.02,29.9
14966,0.3289,-0.0219,0.865,-6.67,7.95,0.02,29.89
14976,0.3289,-0.0247,0.8641,-6.7,8.03,-0.02,29.92
14986,0.3267,-0.0267,0.8657,-6.84,8.0,-0.06,29.92
14996,0.3289,-0.0265,0.8629,-6.73,7.97,-0.08,29.93
15006,0.326,-0.0255,0.8622,-6.72,7.95,-0.06,29.91
15016,0.3247,-0.0248,0.8665,-6.7,7.98,0.03,29.91
15026,0.3278,-0.0264,0.8643,-6.73,7.91,-0.03,29.93
15036,0.3282,-0.0266,0.8657,-6.72,7.95,-0.09,29.93
15046,0.3284,-0.0282,0.8619,-6.78,7.97,-0.06,29.92
15056,0.3257,-0.0253,0.8641,-6.79,8.0,-0.02,29.91
15066,0.328,-0.0278,0.8698,-6.76,7.97,-0.06,29.89
15076,0.3279,-0.0272,0.864,-6.78,7.97,-0.11,29.93
15086,0.3296,-0.0269,0.8624,-6.67,7.97,-0.03,29.9
15096,0.3273,-0.0273,0.8647,-6.75,7.91,-0.06,29.91
15107,0.3303,-0.0231,0.8616,-6.72,7.98,-0.05,29.93
15117,0.3276,-0.0222,0.865,-6.72,7.94,-0.02,29.93
15127,0.3279,-0.0255,0.8652,-6.73,7.95,-0.02,29.94
15137,0.3274,-0.0251,0.8666,-6.75,7.88,-0.05,29.92
15147,0.328,-0.0249,0.8623,-6.66,7.94,-0.09,29.89
15157,0.3278,-0.0233,0.8635,-6.69,8.0,-0.06,29.9
15167,0.3268,-0.0267,0.8667,-6.78,7.95,-0.06,29.91
15177,0.3284,-0.027,0.8635,-6.76,8.05,-0.08,29.92
15187,0.3259,-0.0227,0.8645,-6.69,8.03,-0.08,29.91
15197,0.3248,-0.0262,0.8674,-6.75,8.05,-0.02,29.92
15207,0.3291,-0.0238,0.8619,-6.81,7.97,-0.03,29.9
15217,0.3281,-0.0244,0.8677,-6.76,8.0,-0.05,29.94
15227,0.3276,-0.0297,0.8668,-6.82,7.88,-0.02,29.91
15237,0.3315,-0.0265,0.863,-6.75,8.03,-0.03,29.9
15247,0.3295,-0.027,0.8638,-6.72,7.95,-0.06,29.91
15257,0.3285,-0.0239,0.866,-6.76,7.94,-0.06,29.9
15267,0.3298,-0.0254,0.866,-6.7,8.0,-0.12,29.94
15277,0.3251,-0.0261,0.8656,-6.82,8.02,0.0,29.9
15287,0.3274,-0.0286,0.8612,-6.72,7.95,-0.09,29.93
15297,0.3295,-0.0264,0.8655,-6.69,8.0,-0.02,29.92
15307,0.3276,-0.0231,0.8652,-6.75,8.0,-0.05,29.94
15317,0.3269,-0.0231,0.8655,-6.67,7.98,-0.06,29.95
15327,0.3245,-0.0239,0.8636,-6.79,8.0,-0.06,29.93
15337,0.3274,-0.025,0.8639,-6.75,7.94,-0.08,29.94
15347,0.3297,-0.0267,0.8646,-6.76,7.97,-0.09,29.92
15357,0.3286,-0.0278,0.8616,-6.69,7.92,-0.02,29.94
15367,0.3279,-0.0239,0.8629,-6.67,7.91,-0.03,29.93
15377,0.3265,-0.0262,0.8656,-6.79,7.97,-0.05,29.93
15387,0.3291,-0.0273,0.8665,-6.76,8.02,-0.08,29.92
15397,0.3274,-0.0232,0.8699,-6.73,7.98,-0.02,29.93
15407,0.3279,-0.0247,0.8628,-6.73,7.91,-0.05,29.92
15417,0.3269,-0.0259,0.8655,-6.73,7.92,-0.03,29.92
15427,0.3289,-0.0228,0.8665,-6.78,7.98,0.0,29.92
15437,0.3273,-0.0238,0.8651,-6.7,7.95,0.02,29.89
15447,0.3275,-0.0273,0.8628,-6.81,7.95,-0.08,29.92
15457,0.3312,-0.0258,0.8628,-6.85,8.0,-0.08,29.93
15467,0.3293,-0.0253,0.8619,-6.72,7.92,-0.03,29.91
15477,0.327,-0.0259,0.8647,-6.73,7.92,-0.06,29.93
15487,0.3286,-0.0236,0.8638,-6.66,7.94,-0.11,29.95
15497,0.3258,-0.0269,0.8671,-6.75,8.05,-0.06,29.91
15507,0.3285,-0.0243,0.8634,-6.75,7.97,-0.02,29.94
15517,0.3269,-0.0271,0.8651,-6.7,7.94,-0.08,29.93
15527,0.3293,-0.0244,0.8658,-6.73,7.91,-0.03,29.95
15537,0.3296,-0.0262,0.8625,-6.76,7.97,0.0,29.95
15547,0.3313,-0.0253,0.8627,-6.7,7.88,-0.05,29.91
15557,0.329,-0.0248,0.8627,-6.73,7.95,-0.09,29.93
15567,0.329,-0.0255,0.8612,-6.73,8.06,-0.06,29.92
15577,0.3231,-0.0253,0.8702,-6.79,7.97,-0.08,29.94
15587,0.3275,-0.0291,0.868,-6.75,7.92,-0.11,29.96
15597,0.3279,-0.0265,0.8656,-6.79,7.98,-0.05,29.91
15607,0.3267,-0.0258,0.8627,-6.81,7.95,-0.05,29.91
15617,0.3296,-0.0256,0.8655,-6.67,7.97,0.0,29.93
15627,0.3267,-0.0239,0.8638,-6.73,7.91,0.0,29.94
15637,0.3269,-0.0245,0.8646,-6.82,7.94,-0.09,29.91
15647,0.3271,-0.0262,0.8619,-6.75,7.94,-0.06,29.92
15657,0.328,-0.0251,0.8649,-6.75,7.92,-0.06,29.93
15667,0.3257,-0.0253,0.8611,-6.73,7.91,-0.08,29.92
15677,0.3278,-0.027,0.8623,-6.75,7.91,-0.03,29.9
15687,0.3282,-0.0255,0.8645,-6.75,8.0,-0.02,29.96
15697,0.3284,-0.0256,0.8641,-6.7,7.95,-0.02,29.94
15707,0.3296,-0.024,0.8652,-6.72,7.94,-0.05,29.93
15717,0.3268,-0.0269,0.8671,-6.78,7.98,-0.11,29.93
15727,0.3258,-0.0264,0.866,-6.75,8.02,-0.03,29.93
15737,0.3279,-0.0233,0.8658,-6.76,7.98,-0.08,29.91
15747,0.3254,-0.0256,0.8693,-6.72,7.91,-0.09,29.9
15757,0.3263,-0.0231,0.8632,-6.72,7.95,-0.05,29.91
15767,0.3276,-0.0236,0.8627,-6.72,7.92,0.0,29.93
15777,0.327,-0.0256,0.8656,-6.69,7.98,-0.06,29.93
15787,0.3276,-0.0256,0.8638,-6.67,7.95,-0.09,29.91
15797,0.3252,-0.0281,0.8616,-6.79,7.91,-0.09,29.92
15807,0.3296,-0.0276,0.8632,-6.81,7.95,0.0,29.92
15817,0.3265,-0.0255,0.865,-6.73,7.86,-0.08,29.93
15827,0.3286,-0.0278,0.864,-6.76,7.97,-0.02,29.92
15837,0.3286,-0.0251,0.8635,-6.72,7.95,-0.02,29.9
15847,0.3282,-0.0245,0.864,-6.75,7.98,0.05,29.91
15857,0.3264,-0.0256,0.864,-6.72,7.92,-0.05,29.91
15867,0.3289,-0.0249,0.8633,-6.73,7.98,-0.06,29.91
15877,0.3275,-0.0265,0.8658,-6.76,8.03,-0.06,29.92
15887,0.3284,-0.0245,0.8634,-6.73,7.94,-0.02,29.94
15897,0.329,-0.0264,0.865,-6.78,7.92,-0.02,29.92
15907,0.3275,-0.0272,0.8674,-6.78,7.98,-0.03,29.92
15917,0.3284,-0.0234,0.8654,-6.75,8.0,-0.05,29.91
15927,0.3258,-0.0256,0.8641,-6.81,7.97,-0.06,29.92
15937,0.329,-0.0251,0.8639,-6.78,8.05,-0.08,29.92
15947,0.3282,-0.0251,0.8674,-6.72,7.92,0.05,29.93
15957,0.3258,-0.0254,0.8657,-6.81,7.89,-0.02,29.92
15967,0.3297,-0.0217,0.8615,-6.81,7.92,0.03,29.92
15977,0.3292,-0.0262,0.8627,-6.7,7.98,-0.09,29.93
15987,0.3286,-0.0234,0.8693,-6.81,8.06,-0.03,29.93
15997,0.3256,-0.0255,0.8635,-6.76,7.95,-0.09,29.92
16007,0.3263,-0.0249,0.8656,-6.75,8.0,-0.03,29.92
16017,0.327,-0.0283,0.8679,-6.76,8.03,-0.05,29.91
16027,0.3284,-0.0262,0.8638,-6.79,7.92,-0.09,29.94
16037,0.3258,-0.0261,0.8638,-6.84,7.92,-0.09,29.94
16047,0.33,-0.0249,0.8678,-6.69,7.94,-0.03,29.92
16057,0.3276,-0.0249,0.8679,-6.7,7.95,-0.12,29.92
16067,0.3292,-0.0261,0.8628,-6.78,7.97,-0.02,29.92
16077,0.3279,-0.0251,0.8627,-6.78,7.94,-0.08,29.91
16087,0.3276,-0.0303,0.8644,-6.69,7.91,-0.06,29.9
16097,0.328,-0.0255,0.8636,-6.76,7.89,0.0,29.91
16107,0.327,-0.0261,0.8636,-6.72,8.0,-0.06,29.93
16117,0.3264,-0.0256,0.8671,-6.75,7.95,0.0,29.92
16127,0.3253,-0.0233,0.8643,-6.79,8.02,-0.08,29.93
16137,0.3265,-0.0232,0.8619,-6.73,8.02,-0.11,29.93
16147,0.3275,-0.025,0.8628,-6.75,7.95,-0.03,29.92
16157,0.3284,-0.0253,0.8645,-6.78,8.06,-0.08,29.92
16167,0.3302,-0.0262,0.8643,-6.69,7.94,-0.02,29.93
16177,0.3298,-0.027,0.8657,-6.72,7.97,-0.02,29.93
16187,0.3295,-0.025,0.8634,-6.76,7.94,-0.02,29.94
16197,0.3287,-0.0259,0.8657,-6.67,7.97,0.03,29.92
16207,0.3243,-0.0259,0.8678,-6.81,7.94,-0.02,29.93
16217,0.327,-0.0245,0.8663,-6.76,7.94,0.03,29.93
16227,0.3278,-0.0272,0.8649,-6.79,8.0,0.0,29.91
16237,0.3293,-0.025,0.8678,-6.75,7.94,-0.11,29.92
16247,0.3273,-0.0243,0.8652,-6.72,7.92,-0.08,29.97
16257,0.326,-0.0245,0.8615,-6.69,8.02,-0.02,29.94
16267,0.3271,-0.0248,0.8596,-6.76,8.08,-0.09,29.91
16277,0.3276,-0.0255,0.8663,-6.79,8.02,-0.03,29.92
16287,0.3329,-0.0254,0.8644,-6.79,7.94,-0.11,29.91
16297,0.3271,-0.028,0.8657,-6.78,7.94,0.03,29.94
16307,0.3271,-0.0234,0.8682,-6.81,7.98,-0.06,29.95
16317,0.3278,-0.025,0.8604,-6.73,7.98,-0.06,29.96
16327,0.3284,-0.0232,0.8669,-6.73,7.95,-0.02,29.91
16337,0.3285,-0.0255,0.8685,-6.73,8.02,-0.06,29.89
16347,0.327,-0.0266,0.865,-6.67,7.98,-0.08,29.94
16357,0.3289,-0.0236,0.8621,-6.72,7.94,0.0,29.94
16367,0.3278,-0.025,0.86,-6.85,7.95,0.03,29.94
16377,0.3293,-0.0242,0.866,-6.78,8.02,-0.06,29.94
16387,0.3296,-0.0248,0.8638,-6.72,7.92,-0.02,29.95
16397,0.3291,-0.0238,0.8656,-6.76,8.0,0.03,29.95
16407,0.3273,-0.0265,0.8641,-6.7,7.92,-0.08,29.98
16417,0.3274,-0.0262,0.8635,-6.76,8.02,-0.03,29.95
16427,0.3275,-0.026,0.864,-6.76,7.98,-0.05,29.94
16437,0.3267,-0.0256,0.8638,-6.69,7.98,-0.03,29.94
16447,0.327,-0.0251,0.8661,-6.76,7.94,-0.06,29.91
16457,0.3256,-0.0255,0.8625,-6.84,7.85,-0.02,29.92
16467,0.3298,-0.0262,0.8633,-6.69,8.0,0.02,29.93
16477,0.3297,-0.0254,0.8634,-6.84,7.92,-0.08,29.92
16487,0.329,-0.0238,0.8656,-6.72,7.98,-0.03,29.93
16497,0.3292,-0.026,0.8673,-6.73,7.94,-0.03,29.9
16507,0.3301,-0.0236,0.8662,-6.76,7.94,-0.06,29.92
16517,0.3274,-0.0267,0.87,-6.66,7.95,0.0,29.94
16528,0.3293,-0.0244,0.8658,-6.72,7.86,-0.05,29.93
16538,0.3268,-0.0244,0.8646,-6.76,7.94,-0.08,29.93
16548,0.3281,-0.0271,0.864,-6.72,7.92,0.0,29.91
16558,0.3254,-0.0259,0.8632,-6.69,7.86,-0.03,29.92
16568,0.3271,-0.0228,0.8644,-6.78,7.98,-0.02,29.92
16578,0.3257,-0.024,0.8695,-6.73,7.98,-0.08,29.92
16588,0.3292,-0.0253,0.8645,-6.79,8.05,-0.09,29.92
16598,0.3275,-0.0253,0.8629,-6.69,7.98,-0.02,29.92
16608,0.3264,-0.0291,0.864,-6.75,7.97,-0.02,29.91
16618,0.3295,-0.0288,0.8658,-6.79,7.97,-0.12,29.91
16628,0.328,-0.0267,0.8663,-6.78,7.97,-0.06,29.91
16638,0.3291,-0.0248,0.8656,-6.79,7.98,0.02,29.93
16648,0.3289,-0.0267,0.8665,-6.75,8.05,-0.09,29.94
16658,0.3271,-0.0291,0.8667,-6.69,7.97,-0.09,29.95
16668,0.3289,-0.0229,0.8644,-6.78,7.95,0.02,29.94
16678,0.3275,-0.0223,0.864,-6.79,7.94,-0.09,29.92
16688,0.3302,-0.0236,0.8638,-6.75,7.94,0.05,29.93
16698,0.3269,-0.0258,0.8667,-6.7,7.88,-0.06,29.92
16708,0.327,-0.0272,0.8679,-6.79,7.97,-0.05,29.93
16718,0.3267,-0.0281,0.8655,-6.79,8.0,-0.08,29.92
16728,0.3298,-0.0261,0.864,-6.75,8.0,-0.06,29.9
16738,0.3301,-0.0255,0.8638,-6.84,7.97,0.06,29.93
16748,0.3282,-0.0262,0.8665,-6.73,7.95,0.0,29.94
16758,0.3276,-0.0249,0.864,-6.72,8.02,0.0,29.94
16768,0.3271,-0.0231,0.8656,-6.7,7.92,-0.03,29.92
16778,0.3285,-0.0282,0.8682,-6.78,7.97,-0.03,29.92
16788,0.3257,-0.0262,0.8673,-6.66,7.95,-0.05,29.93
16798,0.329,-0.0278,0.865,-6.75,7.95,-0.12,29.92
16808,0.327,-0.0244,0.8616,-6.69,7.95,-0.08,29.93
16818,0.3267,-0.0264,0.8622,-6.76,8.06,-0.06,29.91
16828,0.3279,-0.0266,0.8665,-6.73,8.02,-0.02,29.92
16838,0.3324,-0.0256,0.8621,-6.67,7.88,-0.05,29.9
16848,0.3296,-0.0273,0.8612,-6.82,7.89,0.02,29.91
16858,0.3309,-0.0233,0.8623,-6.7,7.92,-0.03,29.92
16868,0.3284,-0.0253,0.8646,-6.72,7.95,-0.03,29.92
16878,0.3278,-0.0229,0.8611,-6.72,7.91,0.02,29.89
16888,0.3287,-0.0236,0.8643,-6.79,7.92,-0.06,29.91
16898,0.328,-0.022,0.868,-6.79,7.88,-0.09,29.91
16908,0.3279,-0.0234,0.8606,-6.72,8.02,0.05,29.92
16918,0.3297,-0.0232,0.8643,-6.64,7.98,-0.06,29.92
16928,0.3287,-0.0275,0.8638,-6.84,7.89,-0.06,29.92
16938,0.3242,-0.026,0.8657,-6.79,7.97,-0.08,29.93
16948,0.3246,-0.0229,0.8669,-6.76,8.03,-0.03,29.93
16958,0.3267,-0.026,0.8613,-6.75,7.91,-0.06,29.93
16968,0.3262,-0.0248,0.8621,-6.73,7.89,-0.02,29.94
16978,0.3295,-0.0245,0.8619,-6.7,8.0,-0.05,29.92
16988,0.3304,-0.0264,0.8635,-6.75,7.94,-0.05,29.93
16998,0.3264,-0.028,0.8617,-6.78,7.94,-0.08,29.94
17008,0.329,-0.0255,0.8646,-6.76,7.95,0.03,29.92
17018,0.328,-0.0278,0.8662,-6.75,7.94,0.05,29.94
17028,0.3284,-0.0245,0.8613,-6.78,7.95,-0.11,29.91
17038,0.3301,-0.0289,0.8634,-6.67,7.94,0.0,29.94
17048,0.3286,-0.027,0.8623,-6.69,7.98,-0.05,29.92
17058,0.3267,-0.0278,0.8651,-6.76,7.94,-0.03,29.89
17068,0.3284,-0.0249,0.8638,-6.72,7.95,-0.02,29.92
17078,0.3259,-0.0255,0.8661,-6.73,7.95,-0.06,29.92
17088,0.3279,-0.0259,0.8665,-6.82,7.91,0.0,29.94
17098,0.327,-0.0249,0.865,-6.78,7.91,-0.02,29.93
17108,0.3282,-0.0249,0.865,-6.79,7.97,-0.03,29.92
17118,0.3297,-0.0266,0.8656,-6.7,7.97,-0.05,29.92
17128,0.3274,-0.026,0.8635,-6.72,7.98,-0.05,29.92
17138,0.3257,-0.0266,0.8645,-6.79,8.05,0.02,29.91
17148,0.3278,-0.0281,0.8634,-6.67,8.03,0.08,29.91
17158,0.3268,-0.027,0.8644,-6.76,8.02,0.02,29.91
17168,0.3286,-0.0249,0.8655,-6.75,7.91,0.0,29.94
17178,0.3268,-0.0272,0.8618,-6.76,7.89,-0.12,29.91
17188,0.3248,-0.0248,0.8638,-6.72,8.02,-0.06,29.93
17198,0.33,-0.0243,0.8634,-6.75,7.98,-0.02,29.93
17208,0.3286,-0.0237,0.8624,-6.75,7.97,0.02,29.93
17218,0.3285,-0.0233,0.8658,-6.7,7.98,-0.03,29.93
17228,0.3264,-0.0229,0.8655,-6.73,8.05,-0.02,29.92
17238,0.3254,-0.0223,0.865,-6.73,7.97,-0.08,29.9
17248,0.3276,-0.0275,0.8638,-6.78,7.95,-0.08,29.93
17258,0.3254,-0.0247,0.8629,-6.69,8.0,-0.05,29.94
17268,0.3282,-0.0278,0.8633,-6.75,7.91,-0.02,29.96
17292,0.3297,-0.025,0.8644,-6.82,7.97,-0.06,29.95
17302,0.3268,-0.024,0.8662,-6.66,7.92,-0.03,29.93
17312,0.3256,-0.027,0.8643,-6.7,7.95,0.03,29.94
17322,0.3274,-0.0264,0.8638,-6.7,7.94,0.0,29.94
17332,0.3279,-0.0276,0.8668,-6.75,7.95,0.0,29.91
17342,0.3273,-0.0266,0.8652,-6.7,7.97,0.03,29.91
17352,0.3258,-0.0266,0.8639,-6.79,7.97,-0.05,29.93
17362,0.3304,-0.0255,0.8641,-6.69,7.94,0.02,29.92
17372,0.3301,-0.0269,0.8639,-6.69,7.91,-0.08,29.92
17382,0.3282,-0.0249,0.8658,-6.75,7.97,0.02,29.93
17392,0.327,-0.0255,0.865,-6.73,7.94,-0.12,29.93
17402,0.3273,-0.025,0.8638,-6.79,7.97,-0.09,29.95
17412,0.3265,-0.0251,0.864,-6.76,7.97,-0.02,29.93
17422,0.3289,-0.0254,0.8645,-6.73,7.98,-0.05,29.94
17432,0.3282,-0.0244,0.8643,-6.75,8.03,-0.03,29.93
17442,0.3311,-0.0262,0.8624,-6.76,7.97,-0.06,29.95
17452,0.3263,-0.0244,0.8634,-6.73,7.94,-0.09,29.94
17462,0.3293,-0.0265,0.8673,-6.75,8.0,0.02,29.94
17472,0.3292,-0.024,0.8583,-6.7,7.95,-0.08,29.94
17482,0.3297,-0.0272,0.8667,-6.76,7.98,-0.06,29.95
17492,0.3298,-0.0244,0.8663,-6.73,7.97,0.02,29.93
17502,0.3274,-0.0231,0.8633,-6.72,7.97,0.06,29.96
17512,0.3242,-0.0266,0.8669,-6.69,7.97,-0.06,29.92
17522,0.3253,-0.0225,0.8658,-6.81,8.03,-0.02,29.94
17532,0.3301,-0.0244,0.8666,-6.7,7.92,-0.05,29.93
17542,0.3279,-0.0264,0.8654,-6.76,7.95,-0.09,29.93
17552,0.3278,-0.0244,0.864,-6.7,7.97,0.03,29.92
17562,0.3285,-0.0227,0.8661,-6.69,7.95,-0.05,29.93
17572,0.3295,-0.0242,0.8621,-6.78,7.98,-0.06,29.95
17582,0.329,-0.0271,0.8615,-6.7,7.94,-0.08,29.93
17592,0.3271,-0.0244,0.8638,-6.73,7.95,-0.06,29.92
17602,0.33,-0.025,0.866,-6.75,8.0,-0.05,29.93
17612,0.3257,-0.0256,0.8667,-6.73,7.92,-0.03,29.92
17622,0.3276,-0.025,0.8604,-6.72,7.94,-0.12,29.93
17632,0.3289,-0.0264,0.864,-6.73,7.98,-0.02,29.94
17642,0.3284,-0.025,0.8613,-6.66,8.0,-0.11,29.92
17652,0.3287,-0.0266,0.8654,-6.82,7.98,-0.06,29.95
17662,0.3267,-0.0239,0.8684,-6.78,7.97,-0.03,29.94
17672,0.3301,-0.0245,0.8622,-6.79,7.92,-0.05,29.95
17682,0.326,-0.0255,0.8684,-6.72,7.98,0.02,29.95
17692,0.325,-0.0243,0.865,-6.72,8.0,-0.03,29.93
17702,0.3281,-0.026,0.8602,-6.72,7.92,-0.05,29.93
17712,0.327,-0.0277,0.8647,-6.73,7.98,0.0,29.95
17722,0.3258,-0.0264,0.8655,-6.72,7.98,-0.08,29.95
17732,0.3248,-0.0254,0.8647,-6.82,7.92,-0.09,29.93
17742,0.3248,-0.0256,0.8689,-6.72,8.02,-0.03,29.93
17752,0.3257,-0.024,0.8652,-6.67,7.95,-0.06,29.92
17762,0.3291,-0.0228,0.8679,-6.78,7.94,-0.02,29.93
17772,0.3289,-0.024,0.869,-6.78,8.03,-0.06,29.94
17782,0.3274,-0.0278,0.8599,-6.73,7.98,-0.03,29.95
17792,0.3271,-0.026,0.8618,-6.75,8.02,-0.03,29.94
17802,0.3262,-0.0243,0.8641,-6.75,7.95,0.03,29.97
17812,0.3281,-0.0265,0.8643,-6.75,7.95,-0.12,29.92
17822,0.3269,-0.0265,0.8639,-6.66,7.97,-0.09,29.95
17832,0.3307,-0.025,0.8652,-6.69,7.97,0.0,29.92
17843,0.3279,-0.0243,0.8632,-6.73,8.05,-0.03,29.94
17853,0.3265,-0.0259,0.8646,-6.78,7.98,-0.05,29.94
17863,0.3298,-0.0232,0.8649,-6.72,7.97,-0.03,29.96
17873,0.3293,-0.026,0.8606,-6.79,7.98,-0.09,29.93
17883,0.3298,-0.0261,0.8649,-6.78,7.97,0.0,29.93
17893,0.3259,-0.0266,0.8655,-6.69,7.95,0.02,29.94
17903,0.3265,-0.0278,0.8583,-6.75,8.0,0.0,29.94
17913,0.3262,-0.025,0.8639,-6.76,7.95,-0.08,29.93
17923,0.3253,-0.0249,0.8649,-6.7,7.98,-0.05,29.95
17933,0.3284,-0.0267,0.8629,-6.76,7.94,-0.03,29.95
17943,0.3275,-0.0236,0.8633,-6.7,8.0,-0.05,29.96
17953,0.3297,-0.0251,0.8667,-6.69,7.97,-0.05,29.96
17963,0.328,-0.027,0.869,-6.78,7.98,-0.08,29.94
17973,0.327,-0.0259,0.8687,-6.69,7.98,0.02,29.95
17983,0.329,-0.027,0.8656,-6.81,7.98,-0.03,29.96
17993,0.3278,-0.0297,0.8633,-6.72,7.94,-0.17,29.95
18003,0.3281,-0.0265,0.8619,-6.72,7.98,-0.06,29.94
18013,0.3262,-0.0261,0.8655,-6.75,7.98,-0.05,29.95
18023,0.3311,-0.0231,0.8672,-6.75,7.94,0.06,29.93
18033,0.3287,-0.0258,0.8663,-6.69,7.95,0.0,29.93
18043,0.3281,-0.0262,0.8667,-6.69,7.89,-0.06,29.93
18053,0.3285,-0.0286,0.8665,-6.78,7.97,-0.06,29.92
18063,0.3278,-0.0259,0.8638,-6.75,7.94,-0.08,29.94
18073,0.3279,-0.0265,0.8633,-6.7,8.02,-0.06,29.94
18083,0.3262,-0.0259,0.865,-6.81,7.95,-0.05,29.94
18093,0.3303,-0.027,0.8633,-6.72,8.05,0.0,29.93
18103,0.3273,-0.0242,0.8647,-6.76,7.95,-0.08,29.94
18113,0.3296,-0.0247,0.8655,-6.73,7.92,-0.03,29.93
18123,0.3287,-0.024,0.8633,-6.75,7.95,0.02,29.96
18133,0.3273,-0.0249,0.864,-6.78,7.95,-0.06,29.97
18143,0.3257,-0.0249,0.8677,-6.78,7.95,-0.02,29.95
18153,0.3264,-0.0254,0.8654,-6.72,7.98,-0.06,29.97
18163,0.3292,-0.0251,0.8617,-6.76,7.94,0.05,29.97
18173,0.3293,-0.0243,0.8662,-6.69,7.98,-0.03,29.93
18183,0.3275,-0.0276,0.8654,-6.81,7.94,-0.09,29.94
18193,0.3256,-0.0275,0.8641,-6.73,7.94,-0.05,29.93
18203,0.3291,-0.0287,0.8693,-6.69,7.97,-0.12,29.95
18213,0.3301,-0.0244,0.8629,-6.76,7.94,-0.06,29.95
18223,0.3269,-0.0265,0.8615,-6.79,7.94,-0.02,29.94
18233,0.3265,-0.0271,0.8671,-6.75,7.95,0.02,29.94
18243,0.3289,-0.0256,0.8645,-6.75,7.95,0.02,29.97
18253,0.3317,-0.0269,0.8652,-6.76,8.02,-0.06,29.96
18263,0.3303,-0.0258,0.8627,-6.79,8.02,-0.02,29.97
18273,0.3308,-0.0262,0.8616,-6.75,7.98,-0.02,29.97
18283,0.3273,-0.0267,0.8612,-6.78,7.95,0.0,29.97
18293,0.3262,-0.0248,0.8696,-6.76,8.05,-0.05,29.98
18303,0.3279,-0.0265,0.8641,-6.73,8.02,-0.11,29.94
18313,0.3269,-0.0265,0.8622,-6.7,7.97,0.03,29.97
18323,0.3293,-0.0256,0.8665,-6.75,7.92,-0.08,29.98
18333,0.3268,-0.0273,0.8685,-6.7,8.0,0.0,29.95
18343,0.3285,-0.0293,0.871,-6.73,7.95,-0.12,29.97
18353,0.3297,-0.0261,0.8658,-6.73,8.0,-0.08,29.98
18364,0.3256,-0.0229,0.8691,-6.76,8.03,0.02,29.95
18374,0.3269,-0.0265,0.8641,-6.69,7.97,-0.02,29.96
18384,0.3296,-0.0245,0.8635,-6.75,8.05,-0.08,29.97
18394,0.3267,-0.025,0.863,-6.75,7.89,0.02,29.97
18404,0.3289,-0.0245,0.8613,-6.78,7.97,-0.05,29.96
18414,0.328,-0.0269,0.864,-6.72,7.97,-0.11,29.94
18424,0.3259,-0.0253,0.8623,-6.7,7.95,-0.06,29.99
18434,0.3262,-0.0266,0.8656,-6.69,8.03,-0.03,29.96
18445,0.3282,-0.0253,0.8616,-6.67,7.94,-0.05,29.96
18455,0.3328,-0.0229,0.8601,-6.73,7.92,-0.02,29.96
18465,0.3289,-0.0249,0.8649,-6.79,7.94,-0.15,29.99
18475,0.3315,-0.0281,0.8627,-6.76,7.92,-0.11,29.95
18485,0.3285,-0.0258,0.8647,-6.75,7.89,0.02,29.96
18495,0.3273,-0.0248,0.8649,-6.78,7.94,-0.03,29.96
18505,0.3285,-0.0273,0.8667,-6.76,8.02,0.03,29.95
18515,0.3304,-0.0253,0.8617,-6.76,7.98,-0.11,29.97
18525,0.3258,-0.0258,0.863,-6.73,7.92,-0.06,29.96
18535,0.3228,-0.0243,0.8667,-6.82,7.95,-0.03,29.97
18545,0.3278,-0.0247,0.8672,-6.73,7.97,-0.03,29.95
18555,0.3297,-0.0258,0.8628,-6.76,7.88,-0.09,29.95
18565,0.3289,-0.027,0.8662,-6.79,7.94,-0.08,29.95
18575,0.3286,-0.024,0.8644,-6.76,8.0,-0.05,29.95
18585,0.3271,-0.0275,0.8691,-6.79,7.92,0.0,29.95
18595,0.324,-0.0262,0.8654,-6.7,8.03,0.0,29.93
18605,0.3285,-0.0255,0.8656,-6.73,7.92,-0.03,29.95
18615,0.3274,-0.0238,0.8639,-6.7,7.97,-0.05,29.95
18625,0.3306,-0.026,0.8612,-6.79,7.95,-0.05,29.93
18635,0.3284,-0.0256,0.8657,-6.76,7.92,0.02,29.94
18645,0.3276,-0.0237,0.8643,-6.75,7.92,-0.09,29.94
18655,0.3298,-0.026,0.8619,-6.73,7.98,0.0,29.95
18665,0.3269,-0.025,0.8634,-6.84,7.95,0.02,29.99
18675,0.3256,-0.0272,0.8635,-6.76,7.95,0.0,29.97
18685,0.327,-0.026,0.8652,-6.72,7.91,-0.09,29.96
18695,0.3281,-0.0249,0.8666,-6.82,7.92,-0.05,29.94
18705,0.3274,-0.0247,0.8632,-6.76,7.97,-0.05,29.96
18715,0.3284,-0.026,0.8652,-6.75,7.98,-0.02,29.96
18725,0.329,-0.027,0.8641,-6.69,7.94,-0.03,29.95
18735,0.3284,-0.0304,0.8649,-6.72,7.92,-0.02,29.95
18745,0.3265,-0.0275,0.8689,-6.66,7.95,-0.05,29.97
18755,0.3274,-0.0251,0.8632,-6.76,7.97,-0.03,29.95
18765,0.328,-0.0251,0.8632,-6.73,7.98,-0.03,29.97
18775,0.3278,-0.0232,0.8625,-6.69,7.97,-0.06,29.97
18785,0.326,-0.0275,0.8615,-6.78,7.94,-0.05,29.97
18795,0.3286,-0.0243,0.8688,-6.76,8.02,-0.03,29.95
18805,0.3279,-0.0226,0.8673,-6.73,7.97,-0.02,29.95
18815,0.3274,-0.0249,0.863,-6.7,8.0,-0.02,29.97
18825,0.3274,-0.0242,0.8667,-6.7,7.95,-0.09,29.94
18835,0.3279,-0.0271,0.8649,-6.79,7.97,-0.03,29.93
18845,0.3253,-0.0277,0.8654,-6.73,7.95,-0.05,29.96
18855,0.3296,-0.0247,0.8633,-6.76,7.95,-0.05,29.95
18865,0.3276,-0.0254,0.8623,-6.75,7.95,-0.03,29.96
18875,0.3286,-0.0292,0.8691,-6.78,8.0,-0.06,29.94
18885,0.3278,-0.0244,0.8649,-6.78,8.02,-0.09,29.91
18895,0.3282,-0.0261,0.8663,-6.76,8.03,-0.05,29.96
18905,0.3289,-0.0234,0.8646,-6.84,8.03,-0.08,29.96
18915,0.3264,-0.0265,0.8627,-6.79,8.0,-0.03,29.95
18925,0.3282,-0.0253,0.868,-6.78,7.95,-0.08,29.97
18935,0.3281,-0.0264,0.8641,-6.72,7.94,-0.06,29.95
18945,0.329,-0.0281,0.8643,-6.75,7.92,-0.03,29.97
18955,0.3291,-0.0258,0.8683,-6.73,7.98,0.03,29.98
18965,0.3276,-0.0254,0.8649,-6.75,8.02,-0.06,29.97
18975,0.3289,-0.0226,0.8634,-6.78,7.97,-0.11,29.96
18985,0.326,-0.0265,0.8669,-6.76,7.94,-0.09,29.96
18995,0.329,-0.0244,0.8645,-6.69,7.89,-0.05,29.95
19005,0.3257,-0.0255,0.8641,-6.73,7.88,0.0,29.96
19015,0.3284,-0.0269,0.8628,-6.81,7.89,-0.03,29.96
19025,0.3263,-0.0271,0.8633,-6.75,7.92,-0.08,29.96
19035,0.3271,-0.0243,0.8667,-6.81,8.02,-0.08,29.95
19045,0.3262,-0.0259,0.8679,-6.72,8.0,-0.06,29.97
19055,0.3273,-0.0258,0.8691,-6.76,7.97,0.02,29.94
19065,0.3297,-0.025,0.8604,-6.72,7.97,-0.03,29.96
19075,0.3278,-0.027,0.863,-6.64,7.88,-0.08,29.97
19085,0.3279,-0.025,0.8651,-6.81,7.91,-0.08,29.97
19095,0.3287,-0.0248,0.8644,-6.67,7.98,-0.05,29.94
19105,0.3267,-0.0262,0.8649,-6.72,8.02,-0.06,29.96
19115,0.3276,-0.0255,0.8633,-6.67,7.97,0.02,29.94
19125,0.3274,-0.0249,0.8669,-6.7,7.95,0.0,29.94
19135,0.3265,-0.0248,0.8669,-6.73,8.0,-0.02,29.95
19145,0.3279,-0.0251,0.8629,-6.73,7.88,-0.06,29.98
19155,0.3271,-0.0273,0.8623,-6.78,7.89,-0.05,29.92
19165,0.3287,-0.0264,0.8667,-6.76,7.85,-0.08,29.96
19175,0.3282,-0.0247,0.8665,-6.81,7.98,0.03,29.95
19185,0.3318,-0.0261,0.8667,-6.72,7.95,-0.08,29.96
19195,0.3263,-0.026,0.8673,-6.79,8.03,-0.08,29.97
19205,0.3284,-0.0251,0.8646,-6.78,8.09,-0.05,29.97
19215,0.3271,-0.0272,0.8647,-6.7,8.05,-0.08,30.0
19225,0.3264,-0.0273,0.8685,-6.75,7.97,-0.09,29.92
19235,0.3291,-0.0248,0.865,-6.73,7.97,-0.03,29.96
19245,0.3303,-0.0222,0.8641,-6.69,7.94,-0.03,29.96
19255,0.3262,-0.03,0.8657,-6.72,7.97,-0.05,29.96
19265,0.3285,-0.0259,0.8672,-6.85,7.98,-0.06,29.97
19275,0.3273,-0.0245,0.8618,-6.81,7.97,0.0,29.98
19285,0.3282,-0.0266,0.8657,-6.75,7.95,-0.08,29.98
19295,0.3268,-0.0245,0.8627,-6.81,8.0,-0.14,29.99
19305,0.326,-0.0256,0.8652,-6.69,8.0,-0.02,29.95
19315,0.3274,-0.0251,0.869,-6.73,7.92,-0.08,29.95
19325,0.3252,-0.0254,0.8671,-6.78,7.98,-0.08,29.94
19335,0.3271,-0.0267,0.8644,-6.76,7.89,-0.06,29.97
19345,0.3245,-0.0276,0.8649,-6.78,7.91,-0.05,29.96
19355,0.3276,-0.0262,0.8652,-6.85,7.92,-0.09,29.93
19365,0.3264,-0.0242,0.8647,-6.69,7.95,0.02,29.95
19375,0.3296,-0.0229,0.8632,-6.75,7.94,-0.05,29.96
19385,0.3275,-0.0266,0.8633,-6.75,7.92,-0.02,29.98
19395,0.327,-0.027,0.8632,-6.84,7.95,-0.03,29.97
19405,0.3269,-0.0243,0.8656,-6.73,8.05,-0.03,29.96
19415,0.327,-0.0254,0.8668,-6.73,7.95,-0.05,29.95
19425,0.3275,-0.0249,0.864,-6.81,7.95,-0.02,29.95
19435,0.328,-0.0251,0.8657,-6.73,7.97,-0.11,29.95
19445,0.3287,-0.0245,0.8638,-6.69,7.97,0.0,29.97
19455,0.3295,-0.027,0.8657,-6.75,8.0,0.0,29.94
19465,0.3252,-0.0282,0.8632,-6.76,7.97,-0.03,29.95
19475,0.3281,-0.0247,0.8666,-6.76,7.92,-0.03,29.95
19485,0.326,-0.0264,0.8633,-6.75,7.98,-0.05,29.97
19496,0.3307,-0.0245,0.8707,-6.75,8.02,0.0,29.98
19506,0.3282,-0.026,0.8627,-6.73,7.92,-0.02,29.96
19517,0.3308,-0.026,0.8645,-6.81,7.95,-0.03,29.94
19527,0.3269,-0.027,0.8705,-6.61,7.95,0.03,29.94
19537,0.3295,-0.0275,0.8687,-6.69,7.95,-0.03,29.96
19547,0.328,-0.024,0.8652,-6.76,8.0,0.02,29.97
19557,0.3252,-0.0288,0.8632,-6.7,8.02,-0.08,29.95
19567,0.3269,-0.028,0.8635,-6.76,8.0,-0.08,29.94
19577,0.3271,-0.0256,0.8628,-6.72,7.94,-0.03,29.94
19587,0.3293,-0.0267,0.8666,-6.78,7.91,-0.06,29.96
19597,0.3287,-0.0255,0.8655,-6.84,8.0,-0.12,29.96
19607,0.3271,-0.0276,0.8644,-6.76,7.95,-0.06,29.99
19617,0.3282,-0.0249,0.8636,-6.73,8.0,-0.02,29.94
19627,0.3279,-0.0255,0.8643,-6.73,8.03,-0.03,29.95
19637,0.3279,-0.0261,0.8649,-6.73,8.0,-0.06,29.97
19647,0.328,-0.0244,0.8651,-6.73,7.95,-0.09,29.96
19657,0.328,-0.0226,0.8655,-6.67,7.98,-0.03,29.95
19667,0.3287,-0.0276,0.864,-6.79,7.98,-0.05,29.95
19677,0.3304,-0.0254,0.8622,-6.75,7.94,-0.11,29.96
19687,0.3285,-0.027,0.8634,-6.69,7.97,-0.05,29.96
19697,0.3267,-0.0237,0.8616,-6.78,7.95,-0.06,29.97
19707,0.3281,-0.0265,0.8612,-6.78,7.95,0.05,29.96
19717,0.329,-0.0266,0.8645,-6.75,7.94,-0.09,29.93
19727,0.3251,-0.0238,0.8611,-6.76,7.98,-0.03,29.96
19737,0.328,-0.025,0.8654,-6.67,8.03,-0.02,29.97
19747,0.3311,-0.025,0.8606,-6.73,8.0,-0.08,29.95
19757,0.3279,-0.0226,0.8647,-6.75,7.95,0.02,29.97
19767,0.3295,-0.0261,0.8658,-6.76,8.02,0.0,29.95
19777,0.326,-0.0249,0.8707,-6.76,7.98,-0.06,29.97
19787,0.3258,-0.0247,0.863,-6.73,7.98,-0.06,29.95
19797,0.3269,-0.0264,0.8622,-6.78,7.98,-0.05,29.98
19807,0.3253,-0.027,0.869,-6.72,8.03,-0.12,29.95
19817,0.328,-0.0264,0.8678,-6.76,7.95,-0.06,29.94
19827,0.3284,-0.0239,0.8652,-6.69,7.89,-0.08,29.97
19837,0.327,-0.0256,0.8668,-6.69,7.94,-0.03,29.95
19847,0.3302,-0.0273,0.8656,-6.79,7.95,0.02,29.95
19857,0.3267,-0.0269,0.8667,-6.73,7.94,-0.05,29.94
19867,0.3262,-0.024,0.8641,-6.75,7.98,-0.02,29.96
19877,0.3273,-0.025,0.8693,-6.76,7.98,0.02,29.95
19887,0.3259,-0.0256,0.8651,-6.76,7.97,0.02,29.99
19897,0.3278,-0.0261,0.8643,-6.67,7.97,-0.03,29.98
19907,0.3289,-0.0253,0.861,-6.79,7.91,-0.06,29.96
19917,0.3252,-0.024,0.8679,-6.76,7.97,-0.02,29.97
19927,0.3269,-0.0248,0.8624,-6.73,7.91,-0.12,29.95
19937,0.3276,-0.0255,0.8638,-6.79,8.0,-0.06,29.95
19947,0.3243,-0.0264,0.8636,-6.73,7.94,0.02,29.99
19957,0.3256,-0.0254,0.8656,-6.7,7.88,-0.02,29.99
19967,0.3296,-0.0288,0.8662,-6.76,7.98,-0.08,29.98
19977,0.3268,-0.0266,0.865,-6.75,7.88,-0.08,29.97
19987,0.329,-0.0258,0.8652,-6.7,7.92,-0.09,29.97
19997,0.3267,-0.026,0.865,-6.72,7.94,-0.02,29.95
20007,0.3289,-0.0273,0.8649,-6.73,7.94,0.0,30.0
20017,0.3279,-0.0264,0.8636,-6.75,7.98,-0.06,29.95
20027,0.3301,-0.0248,0.8628,-6.78,7.98,-0.05,29.97
20037,0.3273,-0.0262,0.8618,-6.69,7.98,-0.06,29.99
20047,0.3298,-0.028,0.8628,-6.75,7.94,0.0,29.98
20057,0.327,-0.0245,0.8667,-6.76,8.03,-0.08,29.98
20067,0.3285,-0.0256,0.866,-6.75,8.0,-0.09,29.98
20077,0.3281,-0.0254,0.8639,-6.79,8.0,-0.12,29.96
20087,0.3279,-0.0262,0.8677,-6.76,7.95,-0.08,29.96
20098,0.3242,-0.0266,0.8662,-6.72,8.02,-0.06,29.98
20108,0.3263,-0.0225,0.8611,-6.7,7.89,-0.14,29.96
20118,0.3269,-0.0242,0.8638,-6.76,7.92,-0.06,29.97
20128,0.326,-0.0262,0.8654,-6.67,8.02,-0.03,29.97
20138,0.3324,-0.0269,0.8644,-6.66,7.95,0.02,29.98
20148,0.3271,-0.024,0.8636,-6.72,8.0,0.08,29.97
20158,0.327,-0.0259,0.8644,-6.78,7.95,-0.05,29.97
20168,0.3276,-0.0229,0.8688,-6.85,8.0,-0.03,29.99
20178,0.3274,-0.027,0.8668,-6.72,7.95,-0.02,29.98
20188,0.3235,-0.0256,0.866,-6.69,7.97,-0.11,29.99
20198,0.3274,-0.028,0.8613,-6.75,7.94,-0.08,29.98
20208,0.327,-0.0271,0.8597,-6.75,7.98,0.0,29.96
20218,0.33,-0.0282,0.8671,-6.73,7.95,0.0,29.97
20228,0.3265,-0.028,0.8656,-6.73,7.98,0.0,29.99
20238,0.3286,-0.0201,0.8627,-6.66,7.97,-0.06,29.98
20248,0.3275,-0.0233,0.8668,-6.72,7.97,-0.03,29.98
20258,0.3269,-0.0253,0.8636,-6.78,7.92,-0.05,29.96
20268,0.3289,-0.0256,0.8657,-6.72,7.92,-0.03,29.98
20278,0.3275,-0.0254,0.8672,-6.81,8.0,-0.08,29.97
20288,0.3267,-0.0236,0.864,-6.82,7.97,-0.02,29.99
20299,0.3286,-0.025,0.8693,-6.76,7.98,0.02,30.0
20309,0.3282,-0.0289,0.8616,-6.78,8.0,0.0,29.98
20319,0.3265,-0.0232,0.8662,-6.7,7.95,0.0,29.98
20329,0.3263,-0.0253,0.8635,-6.73,7.91,0.02,29.97
20339,0.3286,-0.0261,0.8628,-6.76,7.95,-0.03,29.97
20349,0.3289,-0.0247,0.8651,-6.75,7.95,-0.06,29.96
20359,0.3286,-0.0238,0.868,-6.69,7.97,0.02,29.99
20369,0.3257,-0.0258,0.8662,-6.72,8.0,0.0,29.98
20379,0.3292,-0.0272,0.8662,-6.73,8.03,0.02,29.98
20389,0.3278,-0.0262,0.8643,-6.7,7.98,-0.05,29.95
20401,0.3298,-0.024,0.8679,-6.73,7.94,-0.02,29.97
20411,0.3274,-0.0262,0.8628,-6.76,8.0,-0.03,29.97
20421,0.3275,-0.0275,0.8641,-6.81,7.95,0.02,29.99
20431,0.3302,-0.0275,0.8594,-6.82,7.88,-0.02,29.98
20441,0.3287,-0.0273,0.8643,-6.78,8.02,-0.03,29.98
20451,0.3276,-0.028,0.8645,-6.81,7.89,0.03,29.98
20461,0.325,-0.0251,0.8656,-6.73,8.05,-0.08,29.97
20471,0.3264,-0.026,0.8668,-6.75,8.0,-0.15,29.98
20481,0.327,-0.0238,0.864,-6.76,8.05,-0.17,29.99
20491,0.3293,-0.0258,0.8652,-6.72,7.98,0.0,29.98
20501,0.3279,-0.0282,0.8611,-6.72,8.02,-0.02,29.97
20511,0.3275,-0.026,0.8665,-6.73,7.98,-0.08,29.98
20521,0.3281,-0.0273,0.8677,-6.79,7.95,0.03,29.97
20531,0.3279,-0.0281,0.8676,-6.78,7.98,-0.03,29.98
20541,0.3287,-0.0264,0.8622,-6.69,7.97,-0.06,29.98
20551,0.3276,-0.0277,0.8632,-6.67,7.92,-0.08,29.99
20561,0.3293,-0.0244,0.8676,-6.81,7.97,-0.09,29.98
20571,0.3281,-0.0239,0.8608,-6.82,7.95,-0.05,30.01
20581,0.3292,-0.0259,0.8644,-6.78,7.92,-0.03,29.99
20591,0.3262,-0.0269,0.8615,-6.78,8.02,-0.05,29.97
20601,0.3291,-0.0286,0.8633,-6.73,7.95,-0.11,29.97
20611,0.3312,-0.0248,0.8669,-6.82,8.0,-0.06,29.97
20621,0.326,-0.0273,0.8644,-6.7,7.88,-0.09,29.96
20631,0.3302,-0.0249,0.8655,-6.69,7.95,0.0,29.97
20641,0.328,-0.0255,0.863,-6.73,7.98,0.03,30.0
20651,0.3243,-0.0262,0.8624,-6.75,7.95,-0.03,29.98
20661,0.3296,-0.0262,0.8622,-6.69,8.02,-0.08,29.97
20671,0.3273,-0.0269,0.8654,-6.73,8.02,-0.05,29.96
20682,0.3243,-0.025,0.8623,-6.76,7.95,-0.03,29.97
20693,0.3289,-0.025,0.8672,-6.84,7.94,-0.03,29.98
20703,0.3292,-0.0254,0.8673,-6.81,8.0,-0.05,29.94
20713,0.3281,-0.0219,0.8678,-6.75,7.91,-0.05,29.98
20723,0.3271,-0.0251,0.8646,-6.81,8.03,-0.14,29.96
20733,0.3289,-0.0208,0.8671,-6.84,7.88,-0.09,30.0
20743,0.3289,-0.0283,0.8688,-6.78,7.92,-0.06,29.98
20753,0.3286,-0.0226,0.8654,-6.79,7.94,-0.05,29.97
20763,0.3267,-0.026,0.8691,-6.79,7.95,0.02,29.97
20773,0.327,-0.0278,0.8658,-6.79,8.02,-0.06,29.97
20783,0.3278,-0.0239,0.8693,-6.78,7.94,0.0,29.97
20793,0.3274,-0.0259,0.8633,-6.78,7.97,-0.02,29.98
20803,0.3285,-0.0247,0.8633,-6.72,7.92,-0.02,30.0
20813,0.3289,-0.0226,0.8632,-6.78,7.91,0.03,29.98
20823,0.3263,-0.0248,0.8649,-6.6,7.98,-0.03,29.99
20833,0.3296,-0.0228,0.8671,-6.81,8.02,-0.06,29.97
20843,0.3276,-0.0251,0.8652,-6.72,7.98,-0.14,30.0
20853,0.3274,-0.0275,0.8639,-6.72,7.97,-0.06,29.99
20863,0.3262,-0.0245,0.8656,-6.75,7.95,0.06,29.99
20873,0.3267,-0.024,0.8646,-6.79,8.06,-0.05,29.98
20883,0.3296,-0.0236,0.8662,-6.78,8.02,-0.12,29.97
20893,0.328,-0.0276,0.8632,-6.73,7.97,-0.12,29.98
20903,0.3268,-0.0242,0.8657,-6.78,8.03,0.0,29.99
20913,0.3245,-0.0231,0.861,-6.82,8.02,-0.06,29.99
20923,0.3284,-0.0242,0.8646,-6.72,7.91,-0.11,30.01
20933,0.3271,-0.0273,0.8663,-6.7,8.0,-0.05,29.97
20943,0.3278,-0.0245,0.8638,-6.69,7.95,-0.08,29.99
20953,0.3302,-0.0245,0.8596,-6.73,7.97,-0.03,29.97
20963,0.3324,-0.0245,0.8601,-6.75,7.95,-0.05,29.96
20973,0.3293,-0.0255,0.8644,-6.69,7.98,0.03,29.99
20983,0.3284,-0.0253,0.8636,-6.78,8.0,-0.03,29.98
20993,0.3301,-0.0261,0.8668,-6.75,8.02,-0.03,29.99
21003,0.3292,-0.0266,0.8667,-6.7,8.02,-0.02,29.96
21013,0.3275,-0.0253,0.8636,-6.78,7.98,-0.03,29.98
21023,0.3276,-0.0297,0.8627,-6.76,7.95,0.0,29.98
21033,0.3232,-0.028,0.8671,-6.82,7.89,0.02,29.97
21043,0.3286,-0.0255,0.8723,-6.72,7.92,-0.08,29.98
21053,0.3282,-0.025,0.8693,-6.72,8.03,-0.06,29.98
21063,0.33,-0.0233,0.8655,-6.75,8.03,-0.06,29.99
21073,0.3275,-0.0266,0.8663,-6.75,7.95,-0.12,29.99
21083,0.3265,-0.0265,0.8656,-6.7,7.98,0.05,29.98
21093,0.3268,-0.0254,0.8672,-6.67,8.02,-0.06,29.96
21103,0.3289,-0.0243,0.864,-6.7,7.92,0.02,29.97
21113,0.329,-0.0267,0.8645,-6.72,7.91,-0.03,29.97
21123,0.3304,-0.0259,0.8639,-6.76,7.97,-0.08,29.98
21133,0.3276,-0.0278,0.8649,-6.75,7.95,-0.06,29.97
21143,0.3287,-0.0237,0.8651,-6.72,7.91,0.0,29.97
21153,0.3293,-0.0236,0.866,-6.67,7.98,-0.02,29.98
21163,0.33,-0.0264,0.8682,-6.69,8.03,-0.03,29.97
21173,0.3267,-0.0267,0.8672,-6.78,8.02,-0.05,29.97
21183,0.3247,-0.0256,0.8663,-6.73,7.95,-0.09,29.98
21193,0.3259,-0.0262,0.8651,-6.66,7.98,-0.06,29.97
21203,0.326,-0.0259,0.8671,-6.66,7.97,-0.06,29.99
21214,0.3284,-0.0242,0.8688,-6.73,8.0,-0.15,29.99
21224,0.3295,-0.0209,0.8658,-6.7,7.98,-0.05,29.98
21234,0.3286,-0.027,0.8616,-6.72,7.94,0.02,29.99
21244,0.3295,-0.0261,0.8635,-6.73,7.92,-0.08,29.98
21254,0.3278,-0.0248,0.8674,-6.76,7.97,-0.02,29.99
21264,0.3278,-0.0247,0.8646,-6.76,7.98,0.03,29.96
21274,0.3271,-0.0259,0.8617,-6.81,7.94,-0.08,29.97
21284,0.3262,-0.0266,0.8649,-6.78,8.02,-0.06,30.0
21294,0.3273,-0.027,0.8656,-6.76,8.02,0.02,30.01
21304,0.3276,-0.0282,0.8655,-6.69,7.91,-0.09,29.98
21314,0.3291,-0.0261,0.8666,-6.67,7.97,-0.05,29.98
21324,0.3291,-0.0259,0.8665,-6.78,7.97,-0.03,29.99
21334,0.3271,-0.0259,0.8625,-6.7,7.91,-0.08,29.99
21344,0.3265,-0.0239,0.8644,-6.73,7.97,-0.06,29.99
21354,0.3307,-0.025,0.8712,-6.7,7.98,-0.06,30.0
21364,0.3287,-0.0219,0.8654,-6.79,7.95,-0.11,29.99
21374,0.3301,-0.0232,0.8698,-6.75,7.94,-0.03,29.99
21384,0.328,-0.0291,0.8612,-6.82,7.94,-0.03,29.99
21394,0.3278,-0.0233,0.8657,-6.72,7.95,-0.02,30.01
21404,0.3276,-0.0242,0.8634,-6.78,8.02,0.03,29.99
21414,0.3268,-0.026,0.8673,-6.79,7.92,-0.09,30.0
21425,0.328,-0.0266,0.8645,-6.76,7.97,-0.03,30.0
21435,0.3257,-0.0266,0.8628,-6.82,7.98,0.0,30.01
21445,0.3269,-0.0271,0.8644,-6.72,7.94,-0.05,30.01
21455,0.3263,-0.0242,0.8662,-6.75,7.89,-0.06,29.99
21465,0.3257,-0.0273,0.8651,-6.75,7.91,-0.05,29.99
21475,0.327,-0.0277,0.864,-6.75,7.92,-0.09,29.99
21485,0.3286,-0.0262,0.866,-6.66,7.95,-0.06,30.0
21495,0.3237,-0.0275,0.8645,-6.7,8.0,-0.05,29.99
21505,0.3309,-0.0243,0.8671,-6.76,7.94,-0.08,29.98
21515,0.3302,-0.0226,0.8656,-6.79,7.94,-0.05,29.97
21525,0.3318,-0.0244,0.8646,-6.73,7.92,-0.05,30.0
21535,0.3293,-0.0266,0.8655,-6.69,8.0,-0.08,30.01
21545,0.3293,-0.0283,0.8616,-6.76,7.95,-0.11,29.99
21555,0.3302,-0.0273,0.8638,-6.79,7.92,0.0,29.99
21565,0.3284,-0.0238,0.866,-6.81,7.95,-0.03,29.98
21575,0.3251,-0.0234,0.8644,-6.72,8.0,-0.05,29.98
21585,0.3279,-0.0254,0.8672,-6.73,7.98,-0.09,30.0
21595,0.3282,-0.0264,0.8665,-6.67,7.92,-0.03,29.98
21605,0.3275,-0.0255,0.866,-6.76,7.95,-0.09,29.99
21615,0.3267,-0.0234,0.8657,-6.73,7.98,-0.03,29.97
21625,0.3259,-0.0248,0.8625,-6.7,7.98,0.03,29.98
21635,0.3273,-0.0271,0.8673,-6.69,7.98,-0.05,29.96
21645,0.328,-0.0272,0.8638,-6.72,7.97,0.02,29.96
21655,0.3269,-0.0269,0.8658,-6.72,7.97,0.03,29.98
21665,0.3297,-0.0251,0.8646,-6.76,8.03,-0.05,29.95
21675,0.3278,-0.0265,0.8634,-6.73,7.95,-0.05,29.99
21685,0.3284,-0.0247,0.8678,-6.67,8.08,0.03,29.99
21695,0.329,-0.0275,0.8621,-6.78,8.0,-0.06,30.01
21705,0.3268,-0.0237,0.8655,-6.76,7.94,-0.08,29.99
21715,0.3275,-0.0281,0.8649,-6.72,7.92,-0.06,29.98
21725,0.3286,-0.0265,0.8662,-6.73,7.98,-0.05,30.0
21735,0.3265,-0.0278,0.8611,-6.73,7.98,-0.05,29.98
21745,0.3273,-0.0267,0.8646,-6.69,7.95,-0.05,29.98
21755,0.3291,-0.0254,0.8678,-6.7,8.03,0.0,29.99
21765,0.3271,-0.0255,0.8625,-6.73,7.92,-0.06,29.99
21775,0.3276,-0.0281,0.8597,-6.79,8.0,-0.02,29.98
21785,0.329,-0.028,0.8658,-6.78,8.02,-0.02,29.99
21795,0.3287,-0.0262,0.8634,-6.75,8.03,-0.12,30.0
21805,0.327,-0.0276,0.865,-6.75,7.95,0.05,29.99
21815,0.3279,-0.0239,0.8634,-6.73,7.95,-0.08,29.97
21825,0.328,-0.0264,0.8639,-6.75,7.94,-0.02,29.97
21835,0.3267,-0.0243,0.865,-6.81,7.95,-0.03,29.95
21845,0.3257,-0.0269,0.8647,-6.84,7.95,0.0,30.01
21855,0.3278,-0.0287,0.864,-6.75,7.97,-0.08,30.0
21865,0.3269,-0.025,0.8628,-6.75,7.97,-0.06,29.99
21875,0.3308,-0.0287,0.8639,-6.78,7.97,-0.05,29.99
21885,0.3269,-0.0236,0.8688,-6.76,8.0,0.06,29.99
21895,0.3304,-0.0254,0.8633,-6.69,7.92,0.03,30.0
21905,0.329,-0.0245,0.8644,-6.72,7.97,-0.02,29.98
21915,0.3267,-0.025,0.8647,-6.76,7.92,-0.06,29.98
21925,0.3289,-0.0251,0.8656,-6.79,7.97,-0.08,29.99
21935,0.3289,-0.0264,0.8672,-6.73,7.92,-0.06,30.02
21945,0.3302,-0.0281,0.8656,-6.72,7.98,0.03,30.0
21955,0.328,-0.0258,0.8646,-6.72,8.0,-0.03,29.99
21965,0.3286,-0.0273,0.8605,-6.73,7.94,-0.11,29.99
21975,0.3292,-0.025,0.8663,-6.72,8.02,-0.05,29.99
21985,0.3319,-0.0231,0.8646,-6.76,7.94,-0.09,30.0
21995,0.3295,-0.0239,0.8616,-6.61,7.94,-0.03,30.0
22005,0.3257,-0.0245,0.8645,-6.78,8.02,-0.06,30.0
22015,0.3253,-0.0258,0.8627,-6.75,7.95,-0.08,29.98
22025,0.3286,-0.0277,0.8661,-6.81,8.0,-0.06,29.96
22035,0.3278,-0.024,0.8669,-6.75,8.0,0.03,29.99
22045,0.3291,-0.0242,0.8658,-6.75,8.08,-0.12,29.98
22055,0.3252,-0.0277,0.8645,-6.69,7.98,-0.05,29.97
22065,0.3298,-0.0264,0.8634,-6.75,7.94,0.0,30.01
22075,0.3298,-0.024,0.8655,-6.84,7.94,-0.05,29.97
22085,0.3273,-0.0227,0.8672,-6.75,7.95,-0.03,29.98
22095,0.3264,-0.0247,0.865,-6.72,8.02,-0.02,29.98
22105,0.328,-0.0272,0.8678,-6.75,7.98,0.02,30.0
22115,0.3281,-0.0266,0.8647,-6.75,7.91,-0.03,29.97
22125,0.3297,-0.0278,0.8698,-6.7,7.97,-0.03,29.99
22136,0.3259,-0.0229,0.8684,-6.75,7.94,0.0,29.99
22146,0.3278,-0.0247,0.8641,-6.75,7.95,0.0,29.97
22156,0.3257,-0.0234,0.8678,-6.75,7.97,-0.03,30.0
22166,0.3245,-0.0284,0.8652,-6.7,7.97,0.0,29.99
22176,0.3251,-0.0242,0.8643,-6.67,7.94,-0.05,29.99
22186,0.3267,-0.0284,0.8645,-6.69,7.94,-0.02,29.97
22196,0.3297,-0.0248,0.8658,-6.78,7.95,-0.03,29.95
22206,0.3276,-0.0278,0.8666,-6.82,8.0,0.0,29.98
22216,0.3289,-0.0255,0.8638,-6.7,7.98,0.06,29.99
22226,0.3276,-0.0245,0.8652,-6.73,7.98,0.0,29.99
22236,0.3267,-0.024,0.8608,-6.78,7.95,-0.09,29.98
22246,0.3307,-0.0239,0.8634,-6.75,7.98,-0.09,30.0
22256,0.3281,-0.0269,0.8652,-6.75,8.03,0.03,29.99
22266,0.3289,-0.0228,0.863,-6.7,7.97,-0.08,29.98
22276,0.3287,-0.025,0.866,-6.7,7.95,-0.08,29.97
22286,0.3271,-0.028,0.8663,-6.7,7.97,-0.06,29.99
22296,0.3309,-0.0242,0.8621,-6.79,7.89,0.02,29.98
22306,0.3282,-0.0271,0.8665,-6.76,7.97,-0.05,29.99
22316,0.3282,-0.0256,0.8588,-6.7,7.95,-0.05,30.0
22326,0.3289,-0.0259,0.8645,-6.69,7.92,-0.09,29.99
22337,0.3296,-0.0255,0.864,-6.76,8.03,-0.02,30.0
22347,0.3284,-0.0287,0.8658,-6.75,7.97,-0.08,29.98
22357,0.3262,-0.0249,0.8628,-6.64,7.95,-0.12,30.01
22367,0.3276,-0.0267,0.8656,-6.75,7.98,-0.08,29.99
22377,0.3269,-0.028,0.8643,-6.73,8.03,-0.05,30.02
22387,0.3278,-0.0244,0.8683,-6.69,8.0,-0.03,30.02
22397,0.3274,-0.0245,0.8644,-6.79,7.97,-0.08,30.0
22407,0.3301,-0.0273,0.8605,-6.79,7.91,-0.09,29.99
22417,0.3274,-0.0266,0.8651,-6.69,7.95,-0.05,30.01
22427,0.3276,-0.0243,0.8634,-6.78,7.98,0.02,30.01
22437,0.33,-0.025,0.8627,-6.78,8.0,-0.08,30.0
22447,0.3282,-0.0267,0.8636,-6.82,8.0,-0.06,30.02
22457,0.3276,-0.0259,0.8672,-6.75,7.97,-0.06,30.02
22467,0.3279,-0.027,0.8668,-6.75,7.92,-0.11,29.97
22477,0.3265,-0.026,0.8651,-6.79,8.0,-0.06,29.98
22487,0.3291,-0.0261,0.8638,-6.7,7.98,-0.09,29.99
22497,0.3298,-0.0262,0.8633,-6.73,7.97,0.02,30.01
22507,0.3286,-0.0277,0.8646,-6.72,8.02,-0.05,29.99
22517,0.3301,-0.0251,0.8623,-6.7,7.91,-0.05,29.98
22527,0.3296,-0.0253,0.8625,-6.67,8.0,0.03,29.98
22537,0.3296,-0.0249,0.8651,-6.76,7.97,-0.08,29.98
22547,0.3274,-0.0262,0.8673,-6.78,8.0,0.02,30.02
22557,0.3285,-0.0233,0.8624,-6.69,8.03,-0.05,30.0
22567,0.3271,-0.0258,0.8623,-6.69,7.88,0.02,29.99
22577,0.3251,-0.026,0.8673,-6.76,7.98,-0.12,29.99
22587,0.3268,-0.0244,0.8677,-6.76,7.91,-0.05,30.03
22597,0.3282,-0.0259,0.8624,-6.72,7.95,-0.08,30.0
22607,0.3263,-0.0245,0.8625,-6.69,7.91,-0.05,29.98
22617,0.327,-0.0221,0.8635,-6.76,7.98,-0.02,29.99
22627,0.3293,-0.0242,0.8669,-6.76,8.14,-0.02,29.99
22637,0.3278,-0.0232,0.8646,-6.78,7.98,-0.02,30.01
22647,0.3303,-0.0247,0.8601,-6.79,7.98,-0.02,29.99
22657,0.3293,-0.0221,0.8655,-6.85,8.0,0.0,29.99
22667,0.3262,-0.0258,0.8657,-6.67,8.0,0.0,29.98
22677,0.328,-0.0271,0.8639,-6.69,7.95,-0.03,29.99
22687,0.3268,-0.0258,0.8674,-6.76,7.92,-0.05,29.98
22697,0.3258,-0.0245,0.8667,-6.7,7.97,-0.02,30.0
22707,0.3296,-0.0273,0.8615,-6.78,7.98,-0.06,30.0
22717,0.3295,-0.027,0.8636,-6.69,7.97,0.03,29.99
22727,0.3287,-0.0249,0.864,-6.75,7.97,-0.06,30.01
22737,0.3268,-0.0278,0.866,-6.7,8.0,-0.05,30.01
22747,0.3296,-0.027,0.8657,-6.75,7.95,0.0,30.0
22757,0.3306,-0.0237,0.8632,-6.76,7.98,0.0,29.99
22767,0.3286,-0.024,0.8612,-6.78,7.95,-0.06,30.01
22777,0.329,-0.0247,0.8627,-6.73,8.06,-0.09,30.02
22787,0.3279,-0.0267,0.8677,-6.75,8.03,-0.08,30.0
22797,0.3287,-0.0249,0.8635,-6.78,8.03,-0.11,30.01
22807,0.3275,-0.0237,0.8668,-6.78,7.97,-0.03,30.01
22818,0.3264,-0.0247,0.8641,-6.78,7.97,0.02,29.99
22828,0.3268,-0.0277,0.8649,-6.81,8.03,-0.11,30.01
22838,0.3282,-0.0266,0.8613,-6.78,7.97,-0.06,30.0
22848,0.3284,-0.0258,0.8629,-6.76,8.05,0.0,29.99
22858,0.3303,-0.0221,0.8676,-6.75,8.03,0.0,30.01
22868,0.3262,-0.0278,0.8679,-6.73,7.97,0.0,30.0
22878,0.3275,-0.027,0.8658,-6.82,7.95,-0.05,30.01
22888,0.33,-0.0267,0.8672,-6.82,7.91,-0.03,30.01
22898,0.327,-0.0278,0.8682,-6.64,7.94,-0.09,30.02
22908,0.3271,-0.0266,0.8665,-6.75,7.97,-0.08,29.97
22918,0.3284,-0.0266,0.8668,-6.73,7.98,-0.08,30.0
22928,0.3282,-0.0237,0.8628,-6.81,7.94,-0.06,30.0
22938,0.3271,-0.0259,0.8665,-6.82,7.95,-0.06,30.0
22948,0.3284,-0.0282,0.8667,-6.76,7.95,-0.06,29.98
22958,0.3317,-0.0242,0.8624,-6.81,7.98,-0.06,29.96
22968,0.3258,-0.0267,0.8678,-6.73,7.97,-0.06,30.01
22978,0.3301,-0.0259,0.866,-6.76,7.97,-0.02,29.99
22988,0.3274,-0.0256,0.8655,-6.85,7.95,-0.08,29.98
22998,0.3254,-0.0258,0.8623,-6.66,7.92,-0.11,29.97
23008,0.3284,-0.0238,0.8608,-6.75,7.91,-0.08,30.0
23018,0.33,-0.0256,0.8652,-6.73,7.95,0.05,30.01
23028,0.3292,-0.0245,0.8625,-6.82,8.05,-0.05,30.02
23038,0.3265,-0.0245,0.8679,-6.7,8.03,-0.12,30.01
23048,0.3275,-0.0273,0.8629,-6.76,7.95,-0.05,29.99
23058,0.3259,-0.0258,0.8638,-6.75,7.98,-0.11,30.0
23068,0.3264,-0.027,0.861,-6.79,7.92,-0.02,29.99
23078,0.327,-0.025,0.8616,-6.76,7.95,-0.03,30.0
23088,0.3284,-0.0259,0.8652,-6.72,7.94,-0.02,30.03
23098,0.3292,-0.0269,0.8684,-6.73,7.97,-0.11,29.99
23108,0.3295,-0.025,0.8638,-6.76,8.05,-0.06,30.01
23118,0.3285,-0.0259,0.8639,-6.73,7.98,-0.08,30.0
23128,0.3273,-0.0286,0.8643,-6.81,7.92,0.0,29.99
23138,0.3269,-0.0286,0.8616,-6.72,7.91,-0.05,29.99
23148,0.3309,-0.0269,0.8682,-6.7,7.97,-0.02,29.99
23158,0.328,-0.0258,0.8632,-6.82,7.98,-0.14,29.99
23168,0.3276,-0.0253,0.8636,-6.75,7.95,-0.14,29.99
23178,0.3265,-0.0275,0.8635,-6.75,7.98,-0.08,30.01
23188,0.3291,-0.0255,0.86,-6.76,8.0,-0.02,29.99
23198,0.3282,-0.0267,0.8645,-6.79,7.94,-0.09,30.0
23208,0.3279,-0.0259,0.8656,-6.75,7.92,-0.02,30.02
23218,0.3276,-0.026,0.8652,-6.73,8.05,-0.02,29.99
23228,0.3285,-0.024,0.8611,-6.73,8.0,-0.02,30.03
23238,0.3267,-0.0283,0.8666,-6.79,7.98,-0.09,30.0
23248,0.3268,-0.026,0.8657,-6.76,7.95,-0.09,29.96
23258,0.3292,-0.026,0.8627,-6.76,7.95,-0.08,30.0
23268,0.3295,-0.0247,0.8627,-6.76,7.89,-0.08,29.99
23278,0.3257,-0.0262,0.8633,-6.82,7.89,-0.12,30.01
23288,0.327,-0.0266,0.8633,-6.76,7.97,-0.06,29.98
23298,0.3257,-0.0245,0.8661,-6.7,7.95,-0.06,30.02
23308,0.3279,-0.0258,0.8643,-6.67,7.95,0.0,30.01
23318,0.3284,-0.028,0.8657,-6.72,7.94,0.02,30.02
23328,0.3313,-0.0254,0.8678,-6.76,8.0,-0.03,30.05
23338,0.3298,-0.0211,0.8649,-6.73,7.98,-0.03,30.04
23348,0.3317,-0.0256,0.8629,-6.76,7.94,-0.06,30.02
23358,0.3289,-0.0264,0.8649,-6.75,7.91,-0.05,30.02
23368,0.3285,-0.0262,0.8673,-6.67,7.95,-0.06,30.0
23378,0.3284,-0.0245,0.8688,-6.75,7.97,-0.08,30.02
23388,0.326,-0.0249,0.8634,-6.7,7.97,-0.03,30.01
23398,0.3298,-0.0251,0.8625,-6.76,7.97,-0.06,30.02
23408,0.3274,-0.0265,0.8629,-6.75,7.98,-0.11,30.02
23418,0.3297,-0.0231,0.8627,-6.79,7.92,0.0,30.0
23428,0.3269,-0.0255,0.8656,-6.79,7.95,-0.06,30.04
23438,0.3281,-0.026,0.8633,-6.76,7.97,-0.06,30.02
23448,0.3264,-0.0265,0.8662,-6.72,7.89,-0.06,30.03
23458,0.3307,-0.0248,0.866,-6.75,7.94,-0.02,30.0
23468,0.3289,-0.0247,0.8646,-6.69,7.98,-0.08,30.01
23478,0.3274,-0.0245,0.8666,-6.75,8.02,0.02,30.01
23489,0.326,-0.0258,0.8649,-6.78,8.0,-0.03,30.03
23499,0.3267,-0.0265,0.8639,-6.73,7.92,0.0,30.02
23509,0.3289,-0.0273,0.8658,-6.81,7.92,-0.09,30.02
23519,0.3279,-0.0262,0.8678,-6.67,8.0,-0.06,30.0
23529,0.3289,-0.027,0.8662,-6.72,7.95,-0.02,30.04
23539,0.3285,-0.0248,0.8655,-6.76,7.95,-0.05,30.01
23549,0.3281,-0.0258,0.8679,-6.81,7.97,-0.05,29.99
23559,0.3302,-0.027,0.8645,-6.75,7.97,-0.11,30.0
23569,0.3319,-0.0251,0.8672,-6.79,7.97,-0.09,30.01
23579,0.3265,-0.0244,0.8665,-6.75,8.0,-0.03,30.02
23589,0.3297,-0.0253,0.8651,-6.64,7.94,-0.06,30.0
23599,0.3252,-0.0226,0.8634,-6.82,7.91,-0.08,30.01
23609,0.3295,-0.0247,0.8665,-6.75,8.02,0.0,30.02
23619,0.3263,-0.0265,0.8652,-6.66,8.05,0.03,30.02
23629,0.3254,-0.0283,0.8658,-6.73,8.06,0.05,30.0
23639,0.3292,-0.0238,0.8649,-6.73,8.0,-0.02,30.01
23649,0.3259,-0.0264,0.8636,-6.75,7.92,-0.05,30.03
23659,0.3286,-0.0251,0.865,-6.78,8.0,0.0,29.99
23669,0.3268,-0.0256,0.87,-6.81,8.03,0.02,30.02
23679,0.328,-0.0277,0.8651,-6.82,7.97,0.02,30.02
23689,0.3281,-0.0239,0.864,-6.75,8.0,-0.09,30.02
23699,0.3252,-0.0245,0.8622,-6.7,7.94,-0.02,29.99
23709,0.3246,-0.0254,0.8616,-6.89,7.97,-0.03,29.99
23719,0.328,-0.0269,0.8629,-6.81,7.95,0.03,30.03
23729,0.3265,-0.0253,0.8638,-6.76,7.91,-0.06,30.0
23739,0.3276,-0.0267,0.8651,-6.81,7.98,-0.11,30.0
23749,0.3239,-0.0271,0.866,-6.76,8.05,-0.05,30.02
23759,0.3258,-0.0249,0.864,-6.72,7.98,-0.03,30.01
23769,0.3268,-0.0267,0.8672,-6.67,7.98,-0.03,30.0
23779,0.3315,-0.0248,0.8682,-6.76,8.05,-0.03,30.01
23789,0.3271,-0.0264,0.8632,-6.78,7.95,-0.14,30.0
23799,0.3265,-0.0265,0.8654,-6.73,7.95,-0.02,30.02
23809,0.3292,-0.0249,0.8639,-6.78,7.94,-0.02,30.01
23819,0.3307,-0.0255,0.8625,-6.81,7.89,0.02,30.01
23829,0.3307,-0.0275,0.8656,-6.73,7.97,-0.06,30.01
23839,0.326,-0.0259,0.8657,-6.76,7.98,-0.06,30.01
23849,0.3279,-0.0251,0.8629,-6.76,7.94,-0.06,30.01
23859,0.3279,-0.0294,0.8636,-6.78,7.95,-0.08,30.02
23869,0.3286,-0.0249,0.8652,-6.75,7.95,-0.05,29.98
23879,0.3279,-0.0234,0.863,-6.79,8.02,-0.06,30.03
23889,0.3284,-0.0267,0.8652,-6.79,7.95,-0.09,30.02
23899,0.3303,-0.0276,0.8655,-6.81,7.95,-0.08,30.0
23909,0.3281,-0.0255,0.8655,-6.7,7.94,-0.03,30.0
23919,0.3259,-0.024,0.8673,-6.76,7.97,0.05,30.01
23929,0.3297,-0.0269,0.8634,-6.76,8.02,-0.08,30.01
23939,0.3278,-0.0277,0.8629,-6.75,7.94,-0.02,30.02
23949,0.3278,-0.028,0.8667,-6.75,7.97,-0.06,30.02
23959,0.3286,-0.0275,0.8652,-6.7,7.97,-0.05,30.02
23970,0.3271,-0.025,0.8657,-6.81,7.97,-0.08,30.03
23980,0.3268,-0.0222,0.8633,-6.73,8.03,-0.03,30.02
23990,0.3287,-0.0275,0.861,-6.79,8.06,-0.08,30.04
24000,0.3267,-0.0248,0.8673,-6.72,7.98,-0.05,30.03
24010,0.3286,-0.0253,0.863,-6.82,7.98,-0.08,30.01
24020,0.3289,-0.0254,0.8676,-6.73,7.97,-0.06,30.01
24030,0.3278,-0.0262,0.8658,-6.75,7.98,-0.05,30.01
24040,0.3267,-0.0276,0.8628,-6.76,7.95,-0.06,30.03
24050,0.3287,-0.0276,0.8645,-6.78,7.98,-0.09,30.0
24060,0.3286,-0.0249,0.866,-6.76,7.97,-0.05,30.02
24070,0.3274,-0.025,0.8623,-6.76,8.0,0.03,30.02
24080,0.3263,-0.0245,0.864,-6.81,7.97,0.02,30.03
24090,0.3262,-0.0258,0.8615,-6.73,7.94,-0.02,30.0
24100,0.3268,-0.0238,0.8651,-6.79,7.95,0.02,30.03
24110,0.3276,-0.0272,0.8669,-6.78,7.94,-0.03,29.99
24120,0.33,-0.0253,0.8628,-6.73,7.97,-0.05,30.02
24130,0.3276,-0.0244,0.8639,-6.69,7.89,-0.06,30.01
24140,0.3271,-0.0277,0.8691,-6.75,8.02,-0.02,30.02
24150,0.3295,-0.024,0.8652,-6.75,7.92,-0.09,29.99
24161,0.3282,-0.0266,0.8621,-6.81,7.98,0.0,30.02
24171,0.3265,-0.0256,0.864,-6.73,7.92,-0.06,30.02
24181,0.3259,-0.0255,0.8667,-6.79,7.92,-0.02,30.03
24191,0.3309,-0.0234,0.8623,-6.79,7.92,-0.06,30.02
24201,0.3273,-0.0255,0.8634,-6.79,7.98,-0.02,30.01
24211,0.3271,-0.0264,0.8634,-6.73,7.97,-0.02,30.02
24221,0.3278,-0.0259,0.8661,-6.7,8.02,-0.05,30.03
24231,0.3295,-0.0275,0.8652,-6.72,7.98,-0.03,30.02
24241,0.3302,-0.0248,0.8665,-6.81,7.92,0.02,30.03
24251,0.3285,-0.0264,0.8622,-6.76,7.95,-0.03,30.01
24261,0.3275,-0.0259,0.8616,-6.84,7.97,0.02,30.02
24271,0.3285,-0.0286,0.8652,-6.78,7.94,0.03,30.02
24281,0.3303,-0.0259,0.865,-6.81,8.03,0.03,30.03
24291,0.3295,-0.0271,0.8657,-6.69,7.92,-0.02,30.01
24301,0.3259,-0.0267,0.8616,-6.72,7.98,0.06,30.0
24311,0.3251,-0.028,0.8629,-6.72,7.97,0.03,30.0
24321,0.3287,-0.027,0.8629,-6.81,8.02,-0.08,30.01
24331,0.3296,-0.0238,0.8654,-6.76,7.92,-0.05,30.03
24341,0.3271,-0.0254,0.8646,-6.73,7.95,0.0,30.04
24351,0.3278,-0.0258,0.8623,-6.64,7.95,0.02,30.01
24361,0.3307,-0.0258,0.868,-6.73,7.97,0.02,30.02
24371,0.3276,-0.028,0.8632,-6.73,7.95,-0.09,30.02
24381,0.3306,-0.0269,0.8655,-6.76,7.97,-0.11,30.02
24391,0.329,-0.0277,0.8639,-6.75,8.02,0.0,30.01
24401,0.329,-0.0266,0.8625,-6.76,7.95,-0.02,29.99
24411,0.3312,-0.0272,0.8639,-6.76,7.98,-0.05,30.04
24421,0.3281,-0.0276,0.8662,-6.75,8.02,0.0,30.04
24431,0.3302,-0.0251,0.8665,-6.76,7.98,-0.09,30.03
24441,0.3284,-0.0255,0.8671,-6.69,7.94,-0.03,30.03
24451,0.3298,-0.0239,0.8639,-6.79,7.95,-0.02,30.01
24461,0.3262,-0.0259,0.8641,-6.7,7.97,-0.08,29.99
24471,0.3298,-0.0275,0.8646,-6.72,7.97,-0.05,30.02
24481,0.3286,-0.0267,0.8606,-6.78,7.97,-0.03,30.01
24491,0.3275,-0.0249,0.8674,-6.84,7.94,-0.03,30.01
24501,0.3273,-0.024,0.8623,-6.78,8.0,-0.11,30.01
24511,0.328,-0.025,0.866,-6.79,7.97,-0.08,30.03
24521,0.3265,-0.0251,0.8634,-6.78,7.97,-0.06,30.02
24531,0.3259,-0.0278,0.8639,-6.75,8.03,-0.03,30.02
24541,0.3271,-0.0261,0.8628,-6.75,7.97,-0.02,30.02
24551,0.3263,-0.0253,0.8643,-6.72,8.03,-0.03,30.01
24561,0.3281,-0.0254,0.8645,-6.72,7.94,-0.08,30.02
24571,0.3292,-0.0258,0.8666,-6.75,7.97,-0.06,30.02
24581,0.3287,-0.0265,0.8673,-6.78,7.95,-0.02,30.02
24591,0.3303,-0.0265,0.8647,-6.76,7.94,-0.14,30.02
24601,0.3312,-0.025,0.8621,-6.69,8.0,-0.03,30.01
24611,0.3289,-0.0264,0.8646,-6.73,7.94,-0.03,30.03
24621,0.3287,-0.0264,0.8621,-6.76,7.95,-0.05,30.01
24631,0.3292,-0.0262,0.8618,-6.7,7.94,-0.08,30.04
24641,0.3295,-0.0261,0.8639,-6.67,7.97,-0.06,30.02
24651,0.3315,-0.0211,0.8619,-6.72,7.97,-0.06,30.04
24661,0.3273,-0.0244,0.8638,-6.67,7.97,0.06,30.02
24671,0.3274,-0.0265,0.8663,-6.81,7.97,-0.06,30.03
24681,0.3286,-0.0255,0.8607,-6.78,7.97,-0.05,30.01
24691,0.3282,-0.026,0.8645,-6.73,7.92,-0.06,30.01
24701,0.3275,-0.0267,0.868,-6.78,7.94,-0.05,30.06
24711,0.3253,-0.0255,0.8654,-6.73,8.06,-0.11,30.03
24721,0.3276,-0.025,0.8668,-6.73,8.02,-0.08,30.04
24731,0.3269,-0.025,0.8691,-6.81,7.97,0.03,30.03
24741,0.3284,-0.0244,0.866,-6.72,7.94,-0.08,30.02
24751,0.3285,-0.0271,0.8619,-6.79,7.97,-0.08,30.03
24761,0.3267,-0.0243,0.8635,-6.72,8.0,-0.11,30.03
24771,0.3282,-0.0255,0.8691,-6.75,7.98,0.03,30.02
24781,0.3265,-0.0248,0.869,-6.85,7.97,-0.03,29.99
24791,0.3278,-0.0258,0.8691,-6.75,7.98,-0.05,30.03
24801,0.3275,-0.0256,0.8678,-6.79,7.97,-0.03,30.04
24811,0.326,-0.0254,0.8632,-6.73,7.95,0.0,30.02
24821,0.3263,-0.0244,0.8682,-6.76,8.05,-0.03,30.01
24831,0.3281,-0.0229,0.8635,-6.75,7.92,-0.08,30.01
24841,0.3278,-0.0249,0.8623,-6.78,7.91,-0.03,30.02
24851,0.3297,-0.0253,0.8635,-6.72,7.94,0.0,30.03
24861,0.3281,-0.0251,0.8623,-6.73,7.95,-0.06,30.04
24871,0.3273,-0.0254,0.8672,-6.78,8.0,0.02,30.02
24881,0.3276,-0.0282,0.8657,-6.76,7.95,0.02,30.04
24891,0.3269,-0.0243,0.8656,-6.78,7.95,-0.06,30.01
24901,0.3296,-0.0237,0.8651,-6.75,8.0,-0.06,30.01
24911,0.3301,-0.0269,0.8627,-6.73,8.0,-0.09,30.03
24921,0.3267,-0.0262,0.8635,-6.75,7.94,-0.11,30.04
24931,0.3269,-0.0248,0.8656,-6.78,7.94,-0.05,30.02
24941,0.3278,-0.0253,0.865,-6.78,8.0,0.02,30.03
24951,0.3273,-0.0242,0.8658,-6.75,7.97,-0.11,30.03
24961,0.3274,-0.0255,0.8611,-6.75,7.95,-0.06,30.03
24971,0.3308,-0.0281,0.8667,-6.75,7.98,-0.05,30.02
24981,0.3275,-0.0273,0.8641,-6.75,7.98,-0.11,30.03
24991,0.3312,-0.0265,0.8663,-6.76,8.0,-0.08,30.03
25001,0.3302,-0.0284,0.8616,-6.78,7.94,-0.08,30.02
25011,0.3285,-0.0248,0.8672,-6.79,7.89,-0.06,30.0
25021,0.3282,-0.0265,0.8604,-6.78,7.95,-0.06,30.02
25031,0.3262,-0.0251,0.8643,-6.79,7.94,-0.06,30.03
25041,0.3271,-0.0249,0.8647,-6.84,7.95,-0.06,30.02
25051,0.3273,-0.0278,0.8687,-6.76,7.92,-0.08,30.03
25061,0.3291,-0.0258,0.8628,-6.84,7.92,0.12,30.02
25071,0.3298,-0.0265,0.8676,-6.7,7.95,-0.05,30.02
25081,0.3267,-0.0251,0.8627,-6.78,8.03,-0.06,30.02
25091,0.3302,-0.0273,0.8638,-6.79,7.97,-0.08,30.04
25101,0.3282,-0.025,0.8657,-6.75,7.98,0.02,30.03
25111,0.3284,-0.0256,0.8629,-6.7,7.95,-0.11,29.99
25121,0.3271,-0.0273,0.8628,-6.79,7.95,-0.03,30.0
25131,0.3273,-0.0255,0.8672,-6.69,7.88,-0.08,30.04
25141,0.328,-0.0277,0.8632,-6.78,7.92,0.03,30.04
25151,0.3281,-0.0251,0.8628,-6.84,7.94,-0.05,30.01
25161,0.3258,-0.0273,0.8674,-6.76,7.91,0.0,30.03
25171,0.3279,-0.0275,0.8667,-6.78,7.95,-0.05,30.02
25181,0.3322,-0.0262,0.8629,-6.81,8.0,-0.05,30.02
25191,0.3285,-0.0259,0.866,-6.7,7.97,-0.03,30.01
25201,0.3264,-0.0283,0.8674,-6.73,7.98,0.0,30.01
25211,0.328,-0.0245,0.8638,-6.75,8.03,-0.06,30.03
25221,0.3286,-0.0283,0.8676,-6.67,7.97,0.02,30.01
25231,0.3265,-0.0249,0.8628,-6.76,7.97,0.05,30.04
25241,0.3264,-0.025,0.8666,-6.69,7.95,0.05,30.01
25251,0.3284,-0.0243,0.8656,-6.76,7.94,0.02,30.04
25261,0.328,-0.0254,0.8645,-6.79,7.98,-0.06,30.03
25271,0.327,-0.0275,0.8652,-6.75,8.02,-0.05,30.01
25281,0.33,-0.0253,0.8632,-6.78,7.95,-0.14,30.03
25291,0.3302,-0.0264,0.8635,-6.73,7.92,-0.03,30.03
25301,0.327,-0.0221,0.8665,-6.69,7.95,-0.05,30.0
25311,0.3269,-0.0253,0.8665,-6.72,8.0,-0.08,30.03
25321,0.328,-0.0288,0.8601,-6.73,8.05,-0.06,30.03
25331,0.3257,-0.0247,0.8649,-6.75,8.03,0.03,30.03
25341,0.3262,-0.0277,0.8649,-6.76,8.02,-0.09,30.02
25351,0.3273,-0.0259,0.8668,-6.76,7.95,0.0,30.01
25361,0.3282,-0.0293,0.8622,-6.84,7.89,-0.11,30.02
25371,0.3282,-0.0253,0.8649,-6.78,7.92,-0.02,30.01
25381,0.3275,-0.0273,0.8643,-6.73,7.85,0.02,30.03
25391,0.3264,-0.0249,0.863,-6.79,7.98,-0.08,30.03
25401,0.3237,-0.0253,0.8624,-6.85,8.03,-0.06,30.03
25411,0.3257,-0.026,0.8679,-6.73,8.08,-0.11,30.03
25421,0.3252,-0.0253,0.8652,-6.69,8.03,0.02,30.03
25431,0.3291,-0.0266,0.8665,-6.73,8.02,-0.05,30.05
25441,0.3258,-0.0247,0.8647,-6.78,7.94,-0.05,30.06
25451,0.3263,-0.0284,0.8651,-6.73,7.86,-0.08,30.04
25461,0.3295,-0.0244,0.8618,-6.75,8.0,0.0,30.04
25471,0.327,-0.0234,0.8645,-6.75,7.95,-0.08,30.04
25481,0.3274,-0.0256,0.8651,-6.69,8.03,-0.05,30.01
25491,0.3276,-0.0244,0.8629,-6.69,7.97,-0.06,30.04
25501,0.3269,-0.0277,0.8621,-6.75,8.05,-0.05,30.04
25511,0.3291,-0.0265,0.8682,-6.78,7.98,-0.08,30.03
25521,0.3264,-0.0288,0.8636,-6.72,7.91,-0.06,30.02
25531,0.329,-0.0262,0.8704,-6.75,7.95,0.0,30.03
25541,0.3279,-0.0265,0.8657,-6.78,8.03,-0.06,30.05
25551,0.3292,-0.0254,0.8654,-6.66,8.06,-0.05,30.05
25561,0.3241,-0.0233,0.8632,-6.66,7.92,-0.05,30.02
25571,0.3274,-0.0248,0.8672,-6.76,7.97,-0.02,30.02
25581,0.3269,-0.0259,0.8666,-6.72,8.05,-0.06,30.03
25591,0.3268,-0.0251,0.8688,-6.79,7.98,-0.02,30.04
25602,0.3289,-0.0236,0.864,-6.78,7.92,0.0,30.02
25612,0.3276,-0.0278,0.8606,-6.73,7.98,0.0,30.04
25622,0.3269,-0.0293,0.8684,-6.73,7.97,-0.08,30.02
25632,0.3263,-0.0299,0.8669,-6.76,7.94,-0.06,30.02
25642,0.3281,-0.026,0.8613,-6.75,8.0,0.0,30.05
25652,0.3269,-0.0261,0.8651,-6.67,8.03,-0.11,30.04
25662,0.3281,-0.0247,0.8606,-6.72,7.98,-0.09,30.04
25672,0.3287,-0.0248,0.8673,-6.7,8.03,-0.09,30.05
25682,0.3267,-0.0259,0.8652,-6.73,7.95,-0.02,30.04
25692,0.3281,-0.0256,0.8668,-6.69,7.89,-0.09,30.02
25702,0.3284,-0.0251,0.8676,-6.75,7.92,-0.06,30.03
25712,0.3282,-0.0271,0.8634,-6.7,7.94,-0.02,30.05
25722,0.3297,-0.0242,0.8672,-6.7,8.0,-0.08,30.03
25732,0.3292,-0.0233,0.8625,-6.69,7.97,-0.03,30.05
25742,0.3285,-0.0256,0.8674,-6.76,7.98,-0.05,30.01
25752,0.3276,-0.0243,0.8661,-6.72,7.91,0.03,30.02
25762,0.3286,-0.0259,0.8625,-6.72,7.94,-0.02,30.04
25772,0.3253,-0.027,0.8638,-6.75,7.97,-0.09,30.04
25782,0.3252,-0.026,0.8636,-6.67,7.95,-0.03,30.04
25792,0.328,-0.0275,0.8646,-6.75,7.92,-0.08,30.02
25802,0.3281,-0.028,0.8694,-6.7,7.95,-0.03,30.01
25812,0.329,-0.0258,0.8645,-6.85,7.91,-0.05,30.03
25823,0.3274,-0.0258,0.8632,-6.72,7.95,-0.12,30.03
25833,0.3268,-0.0251,0.8646,-6.7,7.89,-0.06,30.04
25843,0.328,-0.0255,0.8624,-6.79,7.97,0.0,30.02
25853,0.3254,-0.0266,0.8607,-6.75,8.0,-0.05,30.02
25863,0.3276,-0.0238,0.8652,-6.76,8.02,-0.02,30.02
25873,0.3268,-0.0264,0.8639,-6.67,8.05,-0.05,30.03
25883,0.3262,-0.0261,0.8635,-6.66,8.03,-0.06,30.04
25893,0.3257,-0.0255,0.8679,-6.79,8.03,-0.02,30.04
25903,0.3285,-0.0267,0.8671,-6.75,8.0,0.06,30.04
25913,0.3242,-0.0251,0.8663,-6.79,7.94,-0.05,30.03
25923,0.3279,-0.0243,0.8655,-6.76,7.97,0.03,30.04
25933,0.3268,-0.0273,0.8661,-6.73,8.0,-0.03,30.03
25943,0.3271,-0.0248,0.8647,-6.79,7.98,-0.11,30.03
25953,0.3265,-0.0261,0.8661,-6.76,7.97,-0.02,30.03
25963,0.3275,-0.0261,0.8619,-6.81,7.98,-0.02,30.04
25973,0.33,-0.026,0.8632,-6.78,7.94,-0.02,30.04
25983,0.3297,-0.0243,0.8635,-6.69,7.97,-0.05,30.06
25993,0.3275,-0.0243,0.8627,-6.78,7.94,-0.06,30.05
26004,0.33,-0.0287,0.8652,-6.81,8.02,-0.05,30.04
26014,0.3282,-0.0276,0.8629,-6.78,7.92,-0.14,30.05
26024,0.3262,-0.0303,0.8656,-6.78,8.0,0.02,30.03
26034,0.3282,-0.024,0.8669,-6.75,8.0,-0.08,30.03
26044,0.3275,-0.025,0.8639,-6.72,8.03,-0.05,30.02
26054,0.3278,-0.0225,0.8624,-6.7,8.0,-0.06,30.05
26064,0.3287,-0.0256,0.8621,-6.73,7.89,-0.03,30.05
26074,0.3295,-0.0269,0.868,-6.81,8.03,0.02,30.03
26084,0.328,-0.0245,0.8633,-6.82,7.98,-0.06,30.04
26094,0.3271,-0.0226,0.8655,-6.75,8.02,-0.02,30.05
26104,0.3269,-0.0255,0.8639,-6.72,8.05,-0.05,30.04
26114,0.3281,-0.0276,0.8623,-6.72,7.95,-0.02,30.04
26124,0.3297,-0.0255,0.8661,-6.69,8.0,-0.11,30.04
26134,0.3304,-0.0261,0.8636,-6.75,7.92,-0.08,30.02
26144,0.3302,-0.0264,0.8604,-6.7,7.92,0.0,30.07
26154,0.3293,-0.0266,0.8647,-6.72,7.95,-0.11,30.03
26164,0.3296,-0.0265,0.8673,-6.85,7.95,-0.03,30.04
26174,0.3254,-0.0261,0.8657,-6.79,8.02,-0.03,30.04
26184,0.3275,-0.0258,0.8645,-6.85,7.97,-0.05,30.03
26195,0.3263,-0.0237,0.8634,-6.73,8.0,0.0,30.05
26205,0.3308,-0.0244,0.8625,-6.78,7.97,0.0,30.02
26215,0.3297,-0.026,0.8676,-6.78,7.97,-0.06,30.04
26225,0.3276,-0.0264,0.865,-6.72,7.89,-0.08,30.04
26235,0.3271,-0.0267,0.8616,-6.69,7.94,-0.03,30.02
26245,0.3285,-0.0276,0.8611,-6.81,7.98,-0.02,30.05
26255,0.3248,-0.0261,0.8678,-6.73,7.92,-0.11,30.02
26265,0.3265,-0.027,0.8649,-6.75,7.97,-0.08,30.04
26275,0.327,-0.0245,0.8682,-6.81,8.0,-0.14,30.07
26285,0.3273,-0.0221,0.865,-6.79,7.97,-0.05,30.01
26295,0.3318,-0.0258,0.8674,-6.75,8.02,-0.08,30.03
26305,0.3269,-0.024,0.8647,-6.81,7.97,-0.03,30.04
26315,0.3265,-0.0269,0.8684,-6.67,7.91,0.02,30.06
26325,0.3278,-0.0294,0.864,-6.69,7.94,-0.03,30.04
26335,0.3275,-0.0249,0.8644,-6.73,8.08,-0.05,30.06
26345,0.3281,-0.0267,0.8655,-6.81,7.94,-0.06,30.03
26355,0.3281,-0.026,0.8677,-6.75,8.03,-0.06,30.03
26365,0.328,-0.024,0.8635,-6.7,7.95,-0.08,30.02
26375,0.3256,-0.0255,0.8635,-6.76,7.91,-0.09,30.01
26385,0.3274,-0.0266,0.8677,-6.75,7.98,-0.06,30.02
26395,0.3275,-0.0251,0.865,-6.72,7.95,-0.08,30.01
26405,0.329,-0.0227,0.8649,-6.7,8.03,-0.06,30.04
26415,0.3289,-0.0244,0.8625,-6.78,7.91,-0.09,30.04
26425,0.3263,-0.025,0.8684,-6.76,7.98,-0.06,30.04
26435,0.3273,-0.0236,0.8647,-6.79,7.94,0.0,30.04
26445,0.3254,-0.026,0.8638,-6.81,7.95,-0.02,30.03
26455,0.3257,-0.0265,0.8679,-6.76,8.02,-0.02,30.05
26465,0.3284,-0.0243,0.8663,-6.66,7.95,-0.02,30.01
26475,0.3296,-0.0242,0.8651,-6.81,7.97,-0.05,30.02
26485,0.3265,-0.0259,0.8662,-6.76,8.0,-0.09,30.04
26495,0.329,-0.0244,0.866,-6.76,7.97,-0.12,30.03
26505,0.3287,-0.0288,0.864,-6.75,8.0,0.0,30.03
26515,0.3298,-0.0254,0.8645,-6.81,7.95,0.0,30.04
26525,0.3295,-0.0295,0.8672,-6.75,7.98,-0.08,30.04
26535,0.3301,-0.0231,0.8689,-6.79,7.94,-0.03,30.03
26545,0.3307,-0.0302,0.866,-6.78,7.95,0.05,30.07
26555,0.328,-0.026,0.8624,-6.82,8.05,-0.02,30.04
26565,0.3303,-0.0258,0.8643,-6.84,7.95,-0.03,30.05
26575,0.328,-0.0245,0.8625,-6.7,7.95,-0.08,30.05
26585,0.3271,-0.0255,0.8641,-6.75,8.03,-0.12,30.06
26595,0.3242,-0.0243,0.8651,-6.78,7.98,-0.08,30.07
26605,0.324,-0.025,0.8663,-6.75,7.98,0.02,30.05
26616,0.3276,-0.0284,0.8638,-6.7,7.95,-0.03,30.04
26626,0.3282,-0.025,0.8619,-6.76,7.89,-0.02,30.02
26636,0.3296,-0.0299,0.8622,-6.76,7.95,-0.08,30.03
26646,0.3274,-0.0258,0.8652,-6.87,7.94,-0.03,30.06
26656,0.3271,-0.0264,0.8665,-6.72,7.92,-0.02,30.04
26666,0.3284,-0.0249,0.8622,-6.72,7.98,-0.08,30.04
26676,0.329,-0.0265,0.8652,-6.81,7.89,-0.11,30.05
26686,0.3259,-0.0273,0.8651,-6.73,7.91,-0.03,30.04
26696,0.3274,-0.0281,0.8654,-6.75,7.95,-0.14,30.03
26706,0.3303,-0.0259,0.8605,-6.73,8.03,-0.02,30.01
26716,0.3254,-0.0221,0.8618,-6.69,7.92,-0.06,30.05
26726,0.3264,-0.0223,0.8615,-6.72,8.02,-0.08,30.06
26736,0.3254,-0.024,0.8657,-6.72,7.97,-0.08,30.06
26746,0.3285,-0.0226,0.8615,-6.72,7.95,-0.06,30.05
26756,0.326,-0.0243,0.8667,-6.81,8.03,-0.03,30.02
26766,0.3252,-0.0255,0.8644,-6.75,8.03,-0.02,30.05
26776,0.329,-0.0267,0.8666,-6.73,7.97,-0.03,30.02
26786,0.3264,-0.0248,0.8634,-6.75,7.94,-0.08,30.03
26796,0.3241,-0.0255,0.8674,-6.81,8.02,-0.02,30.05
26806,0.3274,-0.0295,0.8623,-6.69,8.02,-0.02,30.05
26816,0.3307,-0.0277,0.8643,-6.81,8.0,0.0,30.03
26826,0.328,-0.0266,0.8628,-6.81,7.92,0.03,30.04
26836,0.329,-0.0272,0.8656,-6.73,7.91,-0.05,30.04
26846,0.3258,-0.0255,0.8635,-6.79,7.94,-0.05,30.03
26856,0.3274,-0.0253,0.8679,-6.73,7.94,-0.03,30.03
26867,0.3275,-0.0273,0.8644,-6.81,7.94,-0.08,30.03
26877,0.3259,-0.0266,0.8688,-6.76,7.95,-0.05,30.03
26887,0.3242,-0.0244,0.8652,-6.79,8.08,-0.02,30.03
26897,0.3297,-0.0259,0.8625,-6.69,8.06,-0.09,30.05
26907,0.3287,-0.0267,0.8636,-6.75,7.98,-0.02,30.04
26917,0.3274,-0.0281,0.8651,-6.75,7.95,-0.11,30.02
26928,0.3248,-0.0255,0.865,-6.78,7.95,-0.12,30.03
26938,0.3267,-0.0266,0.8658,-6.75,7.98,-0.06,30.04
26948,0.3302,-0.0243,0.8656,-6.81,7.94,-0.06,30.02
26958,0.3285,-0.0238,0.8667,-6.78,7.88,-0.02,30.04
26968,0.3308,-0.026,0.8646,-6.75,7.98,-0.11,30.04
26978,0.3285,-0.0244,0.8652,-6.76,7.97,-0.05,30.07
26988,0.3265,-0.0233,0.8649,-6.72,7.97,-0.14,30.02
26998,0.3274,-0.0264,0.8672,-6.69,7.92,-0.06,30.05
27008,0.327,-0.0256,0.8655,-6.72,7.94,-0.09,30.03
27018,0.3264,-0.0245,0.8627,-6.73,8.0,-0.02,30.04
27028,0.3275,-0.0283,0.8677,-6.78,8.0,-0.08,30.01
27038,0.3268,-0.0244,0.8646,-6.82,8.02,-0.08,30.04
27048,0.3275,-0.0251,0.8618,-6.75,7.94,-0.08,30.04
27058,0.328,-0.0242,0.8649,-6.67,7.95,-0.02,30.08
27068,0.3263,-0.0256,0.866,-6.72,7.98,-0.02,30.04
27078,0.3293,-0.0289,0.8623,-6.73,8.03,-0.05,30.04
27088,0.3274,-0.0237,0.8624,-6.76,7.97,-0.11,30.04
27098,0.3262,-0.0251,0.8667,-6.75,8.03,-0.05,30.05
27108,0.3268,-0.0234,0.8704,-6.72,7.95,-0.05,30.03
27118,0.3271,-0.0265,0.8683,-6.78,7.92,0.02,30.04
27128,0.3267,-0.0265,0.8645,-6.72,7.94,-0.02,30.04
27138,0.3264,-0.0255,0.8636,-6.72,7.97,-0.08,30.05
27148,0.3273,-0.0236,0.8652,-6.76,7.97,-0.06,30.05
27158,0.3303,-0.0247,0.8624,-6.78,7.89,-0.02,30.03
27168,0.3286,-0.0254,0.8687,-6.72,7.92,0.0,30.04
27178,0.3318,-0.0275,0.8638,-6.76,7.98,-0.08,30.05
27188,0.3297,-0.0236,0.8665,-6.76,8.02,-0.09,30.05
27198,0.3265,-0.0249,0.8655,-6.72,7.98,-0.05,30.05
27208,0.3271,-0.0271,0.8688,-6.7,7.95,-0.09,30.03
27218,0.3289,-0.0277,0.8652,-6.78,7.92,0.0,30.05
27228,0.3268,-0.0266,0.8702,-6.85,8.02,0.0,30.06
27239,0.3281,-0.0261,0.8662,-6.72,7.95,-0.06,30.07
27249,0.3293,-0.0248,0.8651,-6.81,7.92,-0.05,30.07
27259,0.3291,-0.0247,0.8673,-6.81,7.98,0.02,30.02
27269,0.3289,-0.0253,0.8654,-6.76,7.98,0.0,30.03
27279,0.3273,-0.0266,0.8646,-6.79,7.94,-0.02,30.03
27289,0.3282,-0.0244,0.8629,-6.72,7.98,-0.06,30.05
27299,0.3264,-0.0251,0.8656,-6.73,8.05,-0.09,30.04
27309,0.3292,-0.0262,0.8662,-6.7,8.0,-0.06,30.05
27319,0.3251,-0.0234,0.8636,-6.75,7.95,-0.09,30.04
27329,0.3276,-0.025,0.8673,-6.76,8.0,-0.09,30.04
27339,0.3284,-0.0269,0.8623,-6.78,7.95,0.03,30.04
27349,0.329,-0.024,0.8667,-6.75,7.94,-0.08,30.03
27359,0.3276,-0.0247,0.8668,-6.66,7.95,-0.06,30.07
27369,0.3297,-0.0266,0.8623,-6.75,7.97,-0.03,30.05
27379,0.328,-0.0262,0.8663,-6.79,7.98,-0.11,30.04
27389,0.3265,-0.027,0.8673,-6.72,7.92,-0.06,30.05
27399,0.3295,-0.0261,0.8676,-6.76,7.97,-0.06,30.06
