t_ms,accel_x_g,accel_y_g,accel_z_g,gyro_x_dps,gyro_y_dps,gyro_z_dps,imu_temp_c
3281,0.3315,-0.0223,0.8652,-7.04,7.86,-0.09,32.4
3291,0.3311,-0.025,0.8665,-6.99,8.0,-0.06,32.39
3301,0.3304,-0.0225,0.865,-6.93,8.05,0.02,32.4
3311,0.3341,-0.0275,0.8682,-6.95,8.02,0.03,32.39
3321,0.3312,-0.0272,0.8695,-6.93,8.03,-0.09,32.38
3331,0.3317,-0.0282,0.8657,-6.9,7.95,0.02,32.38
3341,0.3304,-0.0255,0.8657,-6.9,8.0,0.0,32.39
3351,0.3303,-0.026,0.8658,-6.87,8.0,-0.08,32.41
3361,0.3317,-0.0233,0.8649,-6.73,8.0,-0.12,32.4
3371,0.334,-0.0236,0.8636,-6.93,7.95,0.02,32.39
3381,0.3303,-0.0237,0.8656,-7.02,7.94,-0.05,32.41
3391,0.3312,-0.0221,0.8643,-6.87,8.06,0.0,32.4
3401,0.327,-0.0256,0.864,-6.89,8.11,0.0,32.41
3411,0.3286,-0.0259,0.8646,-6.85,8.02,0.02,32.4
3421,0.3295,-0.0256,0.8674,-7.01,8.03,-0.03,32.4
3431,0.328,-0.0232,0.8665,-6.95,8.08,-0.06,32.42
3441,0.3301,-0.025,0.8687,-6.93,7.98,-0.05,32.39
3451,0.3307,-0.0247,0.8667,-6.87,8.02,0.05,32.41
3461,0.3286,-0.0259,0.8643,-6.87,7.98,-0.12,32.42
3471,0.3326,-0.0267,0.8665,-6.93,8.0,-0.11,32.4
3481,0.3278,-0.0269,0.8635,-6.96,8.02,-0.08,32.43
3491,0.3301,-0.024,0.865,-6.98,8.06,0.0,32.4
3501,0.3312,-0.0249,0.8673,-6.93,8.09,0.06,32.41
3511,0.3311,-0.0261,0.8662,-6.87,8.03,-0.08,32.42
3521,0.3311,-0.0266,0.8658,-6.93,8.08,-0.03,32.42
3531,0.3279,-0.0243,0.864,-6.98,8.12,-0.02,32.41
3541,0.329,-0.0262,0.86,-6.87,8.08,-0.03,32.4
3551,0.3314,-0.0238,0.8622,-6.93,8.06,-0.12,32.43
3561,0.3308,-0.0253,0.8634,-6.96,8.03,-0.08,32.4
3571,0.3339,-0.0251,0.864,-6.85,7.94,-0.02,32.42
3581,0.3297,-0.0233,0.868,-6.98,8.05,0.0,32.42
3591,0.3309,-0.0243,0.8644,-6.85,8.06,0.0,32.42
3601,0.3301,-0.0244,0.863,-7.04,7.95,-0.06,32.42
3611,0.3309,-0.0251,0.8651,-6.96,7.97,-0.05,32.43
3621,0.3318,-0.0222,0.8662,-6.95,8.0,-0.11,32.4
3631,0.3318,-0.026,0.8654,-6.98,7.98,-0.09,32.39
3641,0.3298,-0.0256,0.8657,-6.9,7.97,-0.06,32.41
3651,0.3326,-0.0242,0.8611,-6.9,8.05,0.06,32.43
3661,0.3312,-0.0243,0.869,-6.92,8.02,-0.06,32.42
3671,0.3298,-0.0264,0.8671,-6.9,8.03,-0.02,32.42
3681,0.3298,-0.0245,0.8579,-6.96,7.97,0.02,32.43
3691,0.3314,-0.0228,0.8628,-6.87,7.95,0.02,32.42
3701,0.3304,-0.0248,0.8643,-7.05,7.95,-0.05,32.42
3711,0.3295,-0.0292,0.8629,-6.95,7.98,0.06,32.41
3721,0.3325,-0.0266,0.8658,-6.92,8.02,-0.11,32.41
3731,0.3295,-0.0282,0.8706,-7.02,8.06,-0.02,32.42
3741,0.3322,-0.0237,0.8649,-6.96,7.97,-0.05,32.42
3751,0.3291,-0.0267,0.869,-6.87,8.03,-0.02,32.43
3761,0.334,-0.0251,0.8622,-6.92,8.08,-0.08,32.44
3771,0.3311,-0.0245,0.8666,-6.89,8.08,-0.05,32.42
3781,0.3292,-0.0253,0.8668,-6.92,8.0,0.03,32.42
3791,0.3318,-0.0254,0.8636,-6.98,8.0,-0.03,32.43
3801,0.3297,-0.0248,0.8657,-6.93,8.0,-0.03,32.43
3811,0.3319,-0.0225,0.8624,-6.92,8.03,-0.03,32.44
3821,0.3312,-0.025,0.866,-6.85,8.05,-0.09,32.43
3831,0.3303,-0.027,0.8654,-6.89,8.05,0.03,32.42
3841,0.3298,-0.0272,0.8658,-6.93,8.05,-0.03,32.44
3851,0.3315,-0.0269,0.868,-6.87,8.02,-0.09,32.42
3861,0.3322,-0.026,0.8713,-6.96,7.97,-0.03,32.42
3871,0.3328,-0.0249,0.8672,-6.89,7.98,-0.03,32.42
3881,0.3313,-0.024,0.8663,-6.89,7.97,-0.06,32.4
3891,0.3317,-0.0256,0.8652,-6.95,8.02,-0.05,32.44
3901,0.3306,-0.0227,0.8667,-6.98,8.03,-0.11,32.44
3911,0.3325,-0.0228,0.8639,-6.95,8.05,-0.02,32.43
3921,0.3308,-0.0249,0.8671,-6.92,8.05,-0.05,32.42
3931,0.3312,-0.0265,0.8661,-6.93,8.09,-0.11,32.4
3941,0.3293,-0.0253,0.864,-6.95,8.02,-0.14,32.44
3951,0.3301,-0.0239,0.8688,-6.96,7.92,-0.05,32.44
3961,0.3308,-0.0266,0.8708,-6.95,8.08,-0.05,32.45
3971,0.3323,-0.0256,0.8647,-6.93,8.03,-0.03,32.43
3981,0.3293,-0.0264,0.8649,-6.93,8.11,0.02,32.42
3991,0.3292,-0.0234,0.8649,-6.96,8.09,0.0,32.44
4001,0.3297,-0.0247,0.8673,-6.96,8.08,0.06,32.45
4011,0.3253,-0.0221,0.8628,-6.85,8.03,-0.05,32.44
4021,0.3289,-0.0234,0.8661,-6.99,8.05,-0.02,32.45
4031,0.3275,-0.0244,0.8646,-6.96,8.02,-0.06,32.43
4041,0.3295,-0.0239,0.8657,-6.95,8.02,-0.09,32.42
4051,0.3293,-0.0272,0.8679,-7.01,8.05,-0.08,32.46
4061,0.3313,-0.0267,0.8673,-6.87,7.98,0.03,32.46
4071,0.3286,-0.0266,0.8662,-6.96,7.94,-0.05,32.45
4081,0.3306,-0.0255,0.8678,-6.96,7.86,-0.03,32.48
4091,0.3311,-0.0248,0.8678,-6.93,7.98,-0.05,32.45
4101,0.3287,-0.025,0.8666,-6.98,8.03,0.02,32.48
4111,0.3303,-0.0243,0.8641,-7.01,8.05,0.0,32.41
4121,0.3297,-0.0219,0.8607,-6.96,8.02,0.02,32.42
4131,0.3311,-0.0244,0.8645,-6.96,7.94,-0.02,32.43
4141,0.3337,-0.0251,0.8654,-6.93,8.05,-0.08,32.45
4151,0.3319,-0.0231,0.8661,-6.85,8.12,-0.05,32.44
4161,0.3312,-0.0264,0.868,-6.93,8.02,-0.02,32.44
4171,0.3303,-0.025,0.8641,-6.98,7.97,0.03,32.46
4181,0.3304,-0.0238,0.8621,-6.92,7.98,0.0,32.46
4191,0.3282,-0.0248,0.8667,-6.96,8.0,-0.03,32.44
4202,0.3306,-0.0251,0.8666,-6.93,8.05,-0.03,32.44
4212,0.3315,-0.0266,0.8678,-6.98,8.06,-0.06,32.45
4222,0.3318,-0.0251,0.8651,-6.99,8.06,-0.06,32.45
4232,0.3328,-0.0262,0.8661,-6.85,8.09,0.02,32.48
4242,0.3312,-0.0269,0.8656,-6.89,8.0,-0.06,32.48
4252,0.3309,-0.0266,0.8673,-7.01,8.02,-0.05,32.46
4262,0.3312,-0.0253,0.865,-7.04,8.02,-0.02,32.46
4272,0.3308,-0.0269,0.865,-7.01,7.94,-0.09,32.45
4283,0.3284,-0.0276,0.8701,-6.99,7.98,-0.03,32.43
4293,0.3304,-0.0251,0.865,-6.99,7.97,-0.06,32.47
4303,0.3302,-0.0248,0.8668,-6.92,8.08,-0.08,32.46
4313,0.3313,-0.0245,0.866,-6.85,8.0,-0.11,32.46
4323,0.3318,-0.0248,0.8651,-6.85,7.98,-0.11,32.44
4333,0.3304,-0.0255,0.865,-6.87,7.94,-0.08,32.43
4343,0.3307,-0.0243,0.868,-6.89,8.0,-0.03,32.44
4354,0.3307,-0.0248,0.8646,-6.98,8.05,0.67,32.44
4364,0.328,-0.0264,0.8656,-7.01,8.05,-0.11,32.47
4374,0.3337,-0.0259,0.8638,-6.93,7.94,-0.15,32.45
4384,0.3326,-0.0259,0.8584,-6.95,7.98,-0.12,32.42
4394,0.3326,-0.0233,0.8622,-6.95,8.02,0.02,32.45
4404,0.3319,-0.0238,0.8635,-6.99,8.06,0.0,32.43
4414,0.327,-0.0283,0.8676,-6.92,8.08,-0.05,32.47
4424,0.329,-0.0271,0.865,-6.99,7.94,-0.06,32.47
4434,0.3306,-0.0238,0.8663,-7.01,7.98,-0.03,32.45
4444,0.3298,-0.0281,0.8671,-6.9,7.98,-0.02,32.46
4454,0.3304,-0.024,0.8693,-6.95,8.05,0.0,32.46
4464,0.332,-0.0261,0.8645,-7.05,7.97,0.0,32.45
4474,0.332,-0.0242,0.8652,-6.9,8.05,0.0,32.47
4484,0.3304,-0.0248,0.8643,-6.96,8.02,-0.03,32.46
4494,0.333,-0.0256,0.8654,-6.92,7.97,-0.09,32.48
4504,0.3309,-0.0231,0.8646,-6.85,7.98,-0.06,32.47
4514,0.3329,-0.0236,0.8684,-6.92,8.03,-0.02,32.44
4524,0.3315,-0.0271,0.8678,-6.95,8.0,0.02,32.47
4534,0.3291,-0.0221,0.8696,-6.9,8.05,0.02,32.44
4544,0.3293,-0.0275,0.8663,-6.93,8.03,-0.12,32.44
4554,0.3308,-0.0256,0.869,-6.96,8.03,-0.09,32.45
4564,0.3311,-0.0244,0.87,-7.02,8.03,-0.05,32.47
4574,0.3313,-0.0232,0.866,-6.92,8.05,-0.02,32.47
4584,0.3274,-0.0238,0.8613,-6.89,8.09,0.05,32.48
4594,0.3281,-0.025,0.8633,-7.07,8.08,0.0,32.46
4604,0.328,-0.0248,0.8629,-6.95,7.98,-0.11,32.46
4614,0.3282,-0.0277,0.8622,-6.95,8.03,-0.06,32.49
4624,0.3306,-0.0245,0.868,-7.04,8.11,-0.11,32.48
4634,0.3312,-0.0258,0.8641,-6.93,7.91,-0.02,32.43
4644,0.3319,-0.024,0.8654,-6.92,8.02,0.02,32.45
4654,0.3296,-0.0276,0.8698,-6.9,8.12,0.0,32.47
4664,0.3317,-0.0264,0.87,-6.96,8.05,-0.11,32.48
4674,0.3315,-0.026,0.8627,-6.93,8.03,-0.02,32.45
4684,0.3297,-0.0239,0.8699,-7.02,7.92,-0.05,32.46
4694,0.3296,-0.0253,0.8679,-6.89,8.0,-0.03,32.45
4704,0.3302,-0.0251,0.8645,-6.89,8.02,-0.05,32.47
4714,0.3304,-0.0271,0.8663,-6.95,8.03,0.05,32.46
4724,0.3311,-0.0234,0.8627,-6.89,8.05,-0.02,32.45
4734,0.3296,-0.026,0.8627,-6.9,7.98,-0.02,32.46
4744,0.3289,-0.0233,0.8624,-6.95,7.98,0.0,32.47
4754,0.3291,-0.0264,0.8644,-6.87,7.98,-0.09,32.48
4764,0.3312,-0.0249,0.8693,-6.95,8.0,0.0,32.46
4774,0.3329,-0.0248,0.8687,-6.9,8.0,0.0,32.45
4784,0.329,-0.0232,0.8658,-6.95,7.97,-0.03,32.49
4794,0.3308,-0.0239,0.8635,-6.84,8.06,-0.06,32.47
4804,0.3318,-0.026,0.8668,-6.95,8.09,-0.03,32.45
4814,0.3297,-0.0229,0.8679,-6.96,8.11,-0.05,32.47
4824,0.332,-0.0254,0.8641,-6.93,7.97,0.08,32.45
4834,0.3286,-0.025,0.8657,-6.9,8.03,-0.03,32.47
4844,0.3292,-0.0236,0.868,-6.9,7.95,0.02,32.48
4854,0.3334,-0.0264,0.8667,-6.98,8.02,-0.02,32.47
4864,0.3284,-0.0273,0.8671,-6.98,7.91,-0.09,32.47
4874,0.3315,-0.0251,0.864,-6.96,8.03,-0.08,32.46
4884,0.3317,-0.0259,0.8652,-6.89,8.02,-0.03,32.47
4894,0.3295,-0.0238,0.8674,-6.9,8.03,-0.08,32.45
4904,0.3301,-0.025,0.8629,-6.99,8.05,-0.06,32.48
4914,0.3311,-0.0254,0.8638,-6.76,7.97,-0.05,32.5
4924,0.3306,-0.0234,0.8647,-6.96,8.02,0.02,32.48
4934,0.3298,-0.0238,0.8673,-6.81,8.03,-0.03,32.47
4944,0.3286,-0.024,0.864,-6.93,8.05,-0.03,32.47
4954,0.3333,-0.0231,0.8644,-6.79,7.91,0.0,32.47
4964,0.3284,-0.0236,0.8635,-6.84,7.98,-0.03,32.46
4974,0.3312,-0.0259,0.8672,-6.95,7.97,0.03,32.47
4984,0.3297,-0.0255,0.8683,-6.89,8.02,-0.05,32.46
4994,0.3319,-0.0258,0.8624,-6.9,8.05,-0.02,32.47
5004,0.3309,-0.025,0.8652,-6.98,8.05,-0.02,32.49
5014,0.3311,-0.0245,0.8698,-6.98,8.02,-0.05,32.48
5024,0.3291,-0.0261,0.8685,-6.99,7.91,-0.06,32.47
5034,0.3314,-0.0247,0.8687,-6.93,7.97,0.02,32.49
5044,0.3304,-0.0234,0.8652,-6.99,8.05,0.05,32.48
5054,0.328,-0.0245,0.8654,-6.98,7.95,0.0,32.49
5064,0.3304,-0.0278,0.8652,-6.95,7.97,0.08,32.48
5074,0.3301,-0.0254,0.8656,-7.02,7.92,-0.03,32.49
5084,0.3287,-0.0253,0.8641,-6.96,8.03,-0.03,32.47
5094,0.3264,-0.0276,0.868,-6.95,7.92,0.0,32.5
5104,0.3309,-0.0265,0.8694,-6.96,7.98,-0.05,32.49
5114,0.3292,-0.0256,0.8644,-6.87,8.12,-0.02,32.47
5124,0.3289,-0.0254,0.8668,-6.99,8.03,0.0,32.49
5134,0.3292,-0.0256,0.8654,-6.92,7.98,-0.08,32.49
5144,0.3301,-0.024,0.8673,-6.93,8.0,0.0,32.5
5154,0.3308,-0.0251,0.863,-7.01,7.97,-0.11,32.51
5164,0.3322,-0.0244,0.8691,-6.92,8.0,0.05,32.49
5174,0.3328,-0.0254,0.8677,-6.85,8.0,-0.06,32.49
5184,0.3302,-0.0269,0.8655,-6.85,8.06,-0.03,32.46
5194,0.3287,-0.0249,0.866,-6.89,8.05,0.05,32.49
5204,0.3312,-0.0249,0.8622,-6.92,8.09,-0.06,32.46
5214,0.3312,-0.0206,0.8647,-6.87,7.92,-0.08,32.48
5224,0.3302,-0.0243,0.8636,-6.85,7.97,-0.08,32.49
5234,0.3324,-0.0269,0.8621,-6.85,7.92,-0.05,32.5
5244,0.3296,-0.0275,0.8665,-6.98,8.03,-0.05,32.5
5254,0.3274,-0.0256,0.8678,-6.89,8.02,-0.03,32.51
5264,0.3292,-0.0272,0.8649,-6.92,7.97,-0.02,32.49
5274,0.3307,-0.0251,0.8636,-6.89,7.94,-0.05,32.5
5284,0.3291,-0.0276,0.8695,-6.95,8.05,0.03,32.49
5294,0.3303,-0.028,0.8661,-6.99,8.03,-0.08,32.49
5304,0.3293,-0.0253,0.8661,-6.96,8.03,-0.05,32.49
5314,0.3296,-0.0253,0.8678,-6.99,8.02,-0.06,32.51
5324,0.3302,-0.0236,0.865,-6.98,8.02,-0.08,32.5
5334,0.3293,-0.0271,0.8641,-6.95,8.03,0.0,32.51
5344,0.3326,-0.0249,0.8662,-6.89,8.0,-0.02,32.5
5354,0.3281,-0.0245,0.868,-6.87,7.98,-0.05,32.49
5364,0.3304,-0.0253,0.8672,-6.87,8.05,-0.02,32.49
5374,0.3311,-0.0262,0.8632,-6.93,7.95,-0.02,32.49
5384,0.3295,-0.0242,0.8674,-6.92,8.03,0.02,32.49
5394,0.3307,-0.0259,0.8663,-6.92,8.03,-0.08,32.52
5404,0.3298,-0.0255,0.8632,-6.9,7.95,-0.11,32.49
5414,0.3286,-0.0249,0.863,-6.98,7.98,-0.09,32.47
5424,0.3295,-0.0243,0.8639,-6.92,7.97,0.02,32.5
5434,0.3313,-0.0278,0.8662,-6.95,7.97,-0.03,32.52
5444,0.3303,-0.0254,0.8658,-6.9,7.97,-0.06,32.52
5454,0.3285,-0.0264,0.866,-6.89,8.14,-0.03,32.5
5464,0.3291,-0.0258,0.8668,-6.99,8.03,-0.09,32.5
5474,0.3308,-0.026,0.8632,-6.92,8.0,0.0,32.49
5484,0.3291,-0.0237,0.8668,-6.9,7.98,0.0,32.48
5494,0.3311,-0.0238,0.8634,-6.92,7.97,0.0,32.49
5504,0.3312,-0.0248,0.8687,-6.87,7.94,-0.02,32.5
5514,0.3304,-0.025,0.8685,-6.92,7.89,-0.03,32.49
5526,0.3315,-0.0256,0.8691,-6.96,8.0,-0.03,32.49
5536,0.3279,-0.0238,0.8658,-6.9,8.03,-0.06,32.49
5546,0.3289,-0.0276,0.8671,-6.92,8.02,-0.08,32.52
5556,0.3298,-0.0258,0.8683,-6.89,7.98,-0.03,32.49
5566,0.3308,-0.026,0.8632,-6.92,7.94,-0.05,32.5
5576,0.3285,-0.0264,0.8652,-6.92,7.98,-0.02,32.51
5586,0.3311,-0.0286,0.868,-6.98,8.0,0.02,32.48
5596,0.332,-0.0245,0.8687,-6.96,7.95,0.03,32.5
5606,0.3285,-0.0276,0.8717,-6.99,7.94,0.05,32.49
5616,0.3298,-0.027,0.8669,-7.02,7.98,-0.06,32.49
5626,0.3265,-0.0267,0.8641,-6.85,7.98,-0.02,32.49
5636,0.3284,-0.0269,0.8678,-6.93,7.94,-0.02,32.48
5646,0.3324,-0.0254,0.8677,-6.93,8.06,-0.03,32.5
5656,0.3304,-0.025,0.8661,-6.9,8.03,-0.05,32.49
5666,0.3315,-0.0266,0.8671,-6.96,8.0,-0.05,32.5
5676,0.3325,-0.0245,0.8661,-6.98,8.0,-0.06,32.54
5686,0.3309,-0.0217,0.8666,-6.93,8.0,0.02,32.5
5696,0.3296,-0.0232,0.8667,-6.9,8.02,0.0,32.52
5706,0.3317,-0.0254,0.8704,-6.84,8.03,-0.03,32.49
5716,0.3296,-0.0276,0.8604,-7.01,7.94,0.0,32.5
5726,0.3279,-0.0258,0.8616,-6.9,8.02,0.0,32.49
5736,0.3296,-0.0229,0.8611,-6.99,7.94,-0.09,32.52
5746,0.3315,-0.0264,0.8652,-6.9,7.98,0.02,32.51
5756,0.3264,-0.0267,0.8672,-6.95,8.0,0.05,32.51
5766,0.3307,-0.0273,0.8694,-6.85,7.97,0.05,32.51
5776,0.3289,-0.0269,0.8671,-6.96,7.97,0.0,32.52
5786,0.3328,-0.0258,0.865,-6.84,7.95,0.03,32.5
5796,0.3319,-0.0277,0.8666,-6.93,8.05,-0.03,32.48
5806,0.3304,-0.0269,0.8656,-6.95,8.06,-0.05,32.48
5816,0.332,-0.0266,0.8676,-6.9,8.06,-0.08,32.5
5826,0.3309,-0.0259,0.865,-6.82,8.06,0.0,32.49
5836,0.3324,-0.0231,0.8661,-6.89,7.92,0.0,32.49
5846,0.3307,-0.0244,0.8657,-7.01,7.95,-0.02,32.51
5856,0.3282,-0.026,0.8652,-6.85,8.02,0.0,32.52
5866,0.3292,-0.0264,0.864,-6.95,7.98,-0.08,32.52
5876,0.3287,-0.025,0.8644,-6.92,8.0,-0.08,32.52
5886,0.3324,-0.0245,0.8652,-6.95,7.97,-0.03,32.48
5896,0.3303,-0.0276,0.8654,-6.9,8.02,-0.03,32.5
5906,0.3323,-0.0282,0.8679,-7.02,8.08,-0.08,32.5
5916,0.3282,-0.0261,0.864,-7.01,8.05,0.0,32.5
5926,0.3309,-0.0284,0.8667,-6.93,8.02,-0.09,32.52
5936,0.3298,-0.0247,0.8638,-6.95,8.03,-0.06,32.48
5946,0.3315,-0.0264,0.8623,-6.92,8.03,0.02,32.51
5956,0.3309,-0.0261,0.8668,-6.9,8.0,-0.06,32.54
5966,0.3309,-0.0254,0.8655,-6.96,7.97,0.05,32.52
5976,0.3335,-0.0251,0.8655,-6.9,8.0,-0.08,32.5
5986,0.33,-0.0251,0.8621,-6.87,7.98,-0.05,32.49
5996,0.3278,-0.0251,0.8678,-6.98,8.02,-0.03,32.46
6006,0.3318,-0.0251,0.8629,-6.92,7.97,0.0,32.49
6016,0.3311,-0.0256,0.8671,-7.01,7.92,-0.06,32.5
6026,0.328,-0.0273,0.8665,-6.92,7.95,-0.02,32.5
6036,0.3292,-0.0247,0.866,-7.04,7.97,-0.05,32.5
6046,0.3282,-0.0261,0.8663,-7.02,7.91,-0.14,32.49
6056,0.3304,-0.0236,0.8672,-7.05,7.89,-0.02,32.48
6066,0.3324,-0.0262,0.8647,-6.96,8.0,-0.02,32.49
6076,0.3324,-0.0264,0.8656,-6.81,7.98,0.02,32.49
6086,0.3317,-0.0232,0.8649,-6.93,7.94,0.02,32.5
6096,0.3303,-0.0258,0.8658,-6.92,8.03,-0.05,32.49
6106,0.332,-0.0249,0.8662,-6.9,8.0,-0.03,32.51
6116,0.3315,-0.028,0.8662,-6.9,8.0,-0.06,32.48
6126,0.3273,-0.0288,0.8639,-6.9,7.97,-0.02,32.49
6136,0.3302,-0.0262,0.8691,-6.93,8.03,-0.06,32.49
6146,0.3297,-0.0256,0.8655,-6.95,8.06,0.0,32.51
6156,0.3278,-0.0254,0.8668,-6.89,8.06,-0.02,32.49
6166,0.3291,-0.0253,0.8646,-6.9,8.02,0.0,32.47
6176,0.3286,-0.0248,0.8643,-6.92,8.03,-0.02,32.52
6186,0.3296,-0.0276,0.8679,-6.95,8.0,-0.09,32.51
6196,0.334,-0.0237,0.8654,-6.9,8.15,-0.02,32.51
6206,0.3324,-0.0265,0.8691,-6.85,8.06,-0.08,32.51
6216,0.3301,-0.0271,0.8668,-7.01,8.03,-0.02,32.5
6226,0.3313,-0.0247,0.8687,-6.99,8.0,0.0,32.52
6236,0.3295,-0.0247,0.8652,-6.92,8.0,-0.11,32.49
6246,0.3337,-0.0245,0.8689,-6.95,8.05,-0.09,32.49
6256,0.3331,-0.0242,0.8645,-6.82,8.06,-0.11,32.5
6266,0.3306,-0.0219,0.8676,-6.95,8.09,0.03,32.5
6276,0.328,-0.0249,0.8633,-6.9,8.08,-0.02,32.52
6286,0.3295,-0.025,0.8677,-6.92,7.97,-0.06,32.52
6296,0.3313,-0.0244,0.8666,-6.96,8.09,-0.06,32.49
6306,0.3322,-0.0255,0.8652,-6.96,8.02,0.0,32.54
6316,0.3291,-0.0255,0.8627,-6.87,8.0,-0.06,32.51
6326,0.3312,-0.0232,0.8668,-7.04,8.03,-0.08,32.5
6336,0.3285,-0.0237,0.8649,-7.02,8.02,0.0,32.5
6346,0.328,-0.0267,0.8628,-6.93,8.02,-0.03,32.52
6356,0.3298,-0.0245,0.8647,-6.9,7.97,0.02,32.51
6366,0.3308,-0.025,0.8655,-6.99,8.03,-0.05,32.51
6379,0.3295,-0.024,0.8673,-6.95,7.89,-0.08,32.49
6389,0.3309,-0.0225,0.8667,-6.87,7.98,0.02,32.51
6399,0.3314,-0.0234,0.8658,-7.04,8.09,-0.03,32.52
6409,0.3298,-0.026,0.8673,-6.96,8.0,-0.02,32.52
6419,0.3279,-0.0256,0.8624,-6.9,8.09,0.0,32.52
6429,0.3319,-0.0256,0.8625,-7.04,8.06,-0.06,32.52
6446,0.3291,-0.025,0.864,-6.96,7.89,1.53,32.51
6456,0.3254,-0.0262,0.873,-6.98,8.14,0.12,32.52
6466,0.3311,-0.0258,0.8669,-6.89,8.08,0.02,32.52
6476,0.3271,-0.0251,0.8672,-6.92,8.08,-0.09,32.49
6486,0.3292,-0.0243,0.869,-6.98,8.0,-0.05,32.51
6496,0.33,-0.0272,0.865,-6.96,7.95,-0.05,32.52
6506,0.3307,-0.0266,0.8688,-6.96,7.98,0.0,32.52
6518,0.3308,-0.0273,0.8693,-6.93,7.98,-0.05,32.5
6528,0.3317,-0.0262,0.8669,-7.01,8.08,-0.02,32.53
6538,0.3302,-0.0233,0.8635,-6.92,8.08,-0.02,32.5
6548,0.3295,-0.0216,0.8622,-6.89,8.0,-0.06,32.49
6558,0.3323,-0.0255,0.8687,-6.82,7.98,-0.08,32.51
6568,0.3331,-0.0226,0.8663,-6.96,7.98,0.0,32.54
6578,0.3297,-0.0232,0.8696,-6.99,7.95,-0.09,32.5
6588,0.3298,-0.0248,0.8636,-7.01,8.03,0.0,32.51
6598,0.3319,-0.0286,0.865,-6.96,8.06,0.02,32.5
6608,0.3301,-0.0272,0.8601,-6.92,7.94,0.0,32.5
6618,0.3315,-0.0255,0.8635,-6.95,8.11,-0.06,32.51
6628,0.3268,-0.0253,0.8679,-6.89,8.0,-0.02,32.5
6638,0.3268,-0.0271,0.8684,-6.89,7.98,-0.03,32.51
6648,0.3306,-0.0232,0.8665,-6.92,7.98,0.05,32.52
6658,0.3317,-0.025,0.8668,-7.02,8.02,-0.08,32.49
6668,0.3292,-0.0248,0.8655,-6.99,8.17,0.05,32.5
6678,0.3313,-0.0244,0.864,-7.05,8.03,-0.02,32.52
6688,0.3306,-0.0238,0.8667,-6.85,7.97,-0.02,32.53
6698,0.3315,-0.0276,0.8694,-6.92,7.95,-0.06,32.49
6708,0.3302,-0.0278,0.8616,-6.84,8.05,-0.05,32.51
6718,0.3285,-0.026,0.868,-6.93,8.02,0.03,32.52
6728,0.332,-0.0275,0.8673,-7.01,8.0,-0.11,32.52
6738,0.3314,-0.0265,0.8646,-7.02,8.03,-0.05,32.52
6748,0.3304,-0.0273,0.8643,-6.95,8.0,-0.11,32.5
6758,0.3289,-0.0282,0.8635,-6.95,7.98,-0.02,32.51
6768,0.3287,-0.0259,0.8666,-6.92,8.0,-0.06,32.5
6778,0.3286,-0.0256,0.8645,-6.98,8.09,-0.03,32.51
6788,0.3274,-0.0284,0.8695,-6.96,8.06,-0.06,32.52
6798,0.3291,-0.0251,0.866,-6.99,8.02,-0.11,32.51
6808,0.3313,-0.0244,0.8663,-6.95,7.97,-0.02,32.52
6818,0.3311,-0.0284,0.8639,-6.98,8.02,-0.05,32.52
6828,0.3306,-0.0231,0.8651,-6.92,7.95,-0.08,32.51
6838,0.3307,-0.025,0.866,-6.9,7.97,0.02,32.52
6848,0.3318,-0.0226,0.8657,-6.96,8.03,0.02,32.53
6858,0.3314,-0.0249,0.8618,-6.93,8.05,0.03,32.52
6868,0.33,-0.0243,0.8656,-6.89,8.03,-0.05,32.53
6878,0.3274,-0.0261,0.866,-6.9,8.0,-0.05,32.53
6888,0.3307,-0.0248,0.8643,-7.02,8.02,-0.14,32.52
6898,0.3256,-0.0228,0.8684,-6.96,7.98,-0.03,32.53
6908,0.3275,-0.0253,0.8677,-6.9,8.0,-0.08,32.54
6918,0.3311,-0.0255,0.8665,-6.95,8.08,-0.02,32.5
6928,0.3301,-0.0256,0.8654,-6.98,8.0,-0.05,32.54
6938,0.329,-0.0222,0.8627,-6.9,7.98,-0.11,32.52
6948,0.3286,-0.0239,0.8652,-6.92,8.03,0.0,32.52
6958,0.3295,-0.0239,0.8684,-6.9,8.09,-0.08,32.53
6968,0.3336,-0.0249,0.8654,-6.96,8.05,-0.09,32.55
6978,0.3303,-0.0223,0.8668,-6.95,8.06,0.0,32.52
6988,0.3295,-0.0256,0.8666,-6.92,7.98,-0.02,32.53
6998,0.3286,-0.026,0.8688,-6.93,8.02,-0.02,32.52
7008,0.3339,-0.0238,0.865,-6.92,7.95,-0.06,32.54
7019,0.332,-0.0265,0.8644,-6.99,7.91,-0.12,32.52
7029,0.3313,-0.0264,0.8667,-6.96,8.06,-0.05,32.54
7039,0.3326,-0.0255,0.8667,-7.05,8.03,0.0,32.51
7049,0.3306,-0.024,0.8669,-6.93,7.98,0.0,32.5
7059,0.3296,-0.024,0.8667,-6.96,7.98,0.0,32.53
7069,0.3285,-0.0256,0.8671,-6.9,8.12,-0.03,32.54
7079,0.328,-0.0245,0.8674,-7.02,8.0,-0.02,32.53
7089,0.3293,-0.0258,0.8684,-6.84,8.06,-0.03,32.54
7099,0.3312,-0.0272,0.861,-6.89,7.98,-0.12,32.55
7109,0.3304,-0.0272,0.8682,-6.89,8.0,-0.02,32.54
7119,0.3326,-0.0278,0.8704,-6.9,7.98,-0.02,32.54
7129,0.3333,-0.0264,0.865,-7.04,8.03,-0.06,32.55
7139,0.3301,-0.0221,0.8633,-6.92,8.06,0.06,32.53
7149,0.3317,-0.0237,0.8673,-7.02,8.02,0.02,32.54
7159,0.3303,-0.0238,0.8669,-6.99,8.08,-0.05,32.52
7169,0.3293,-0.0237,0.8621,-6.92,7.95,0.0,32.53
7179,0.3317,-0.0248,0.8638,-6.96,8.0,-0.06,32.52
7189,0.3292,-0.0264,0.8634,-6.93,8.03,-0.08,32.51
7199,0.3315,-0.0253,0.8651,-7.01,8.02,0.02,32.52
7209,0.3312,-0.0237,0.8679,-7.05,8.06,-0.03,32.53
7219,0.3312,-0.0251,0.8665,-6.96,8.06,0.03,32.53
7229,0.3308,-0.0239,0.8679,-6.93,8.0,0.02,32.51
7239,0.3317,-0.0262,0.8643,-6.93,8.06,-0.08,32.54
7249,0.3313,-0.0237,0.8663,-6.92,8.05,-0.05,32.51
7259,0.3311,-0.0253,0.8641,-6.84,8.03,-0.02,32.52
7269,0.3292,-0.0276,0.8666,-6.96,7.91,-0.08,32.52
7279,0.3278,-0.0238,0.8672,-6.98,7.98,-0.02,32.56
7294,0.3313,-0.0247,0.8666,-6.93,7.97,-0.02,32.53
7304,0.3345,-0.026,0.8656,-6.9,8.0,0.02,32.51
7315,0.3296,-0.0265,0.8691,-6.96,7.95,-0.08,32.54
7325,0.3307,-0.0254,0.8654,-6.98,7.98,0.0,32.52
7335,0.3303,-0.0254,0.8644,-6.96,8.02,0.06,32.52
7345,0.3312,-0.0256,0.8702,-6.93,8.02,-0.02,32.52
7358,0.327,-0.0238,0.8671,-6.85,8.03,-0.09,32.52
7368,0.3318,-0.0221,0.8666,-7.01,8.06,0.0,32.52
7378,0.332,-0.0295,0.8651,-6.89,8.02,-0.02,32.53
7388,0.3308,-0.0244,0.8644,-6.92,8.05,0.03,32.53
7398,0.3314,-0.0245,0.8646,-6.92,8.0,-0.03,32.52
7408,0.3322,-0.0272,0.8663,-6.89,7.98,-0.05,32.54
7418,0.3298,-0.0256,0.8649,-6.89,8.0,-0.05,32.52
7428,0.3315,-0.0256,0.8617,-7.01,8.03,-0.14,32.52
7438,0.3306,-0.026,0.8663,-7.05,7.97,-0.08,32.53
7448,0.3287,-0.0254,0.8668,-7.07,8.0,-0.05,32.54
7458,0.3279,-0.0261,0.8619,-6.96,8.03,-0.06,32.55
7468,0.3264,-0.0254,0.8646,-6.93,8.03,0.0,32.52
7478,0.3298,-0.0286,0.8656,-6.96,7.98,-0.03,32.53
7488,0.3304,-0.0253,0.8657,-6.95,8.02,-0.06,32.51
7498,0.332,-0.0255,0.8679,-6.95,7.94,-0.11,32.54
7508,0.332,-0.0256,0.8623,-7.02,7.97,-0.05,32.55
7518,0.3293,-0.0273,0.8689,-6.98,8.02,0.0,32.52
7528,0.3329,-0.0288,0.8687,-7.04,7.94,-0.03,32.54
7538,0.3304,-0.0254,0.866,-6.99,8.02,-0.03,32.54
7548,0.3315,-0.0253,0.8633,-6.92,8.09,-0.08,32.55
7558,0.3317,-0.0264,0.8673,-6.93,8.08,0.02,32.53
7568,0.3312,-0.0261,0.8658,-6.93,8.0,-0.03,32.54
7578,0.3289,-0.0247,0.868,-6.92,8.02,-0.06,32.54
7588,0.3314,-0.026,0.8679,-6.93,8.05,-0.09,32.53
7598,0.3282,-0.0262,0.8662,-6.9,8.08,0.02,32.54
7608,0.3318,-0.025,0.8643,-6.96,8.09,0.02,32.52
7618,0.3308,-0.0244,0.864,-7.07,7.95,-0.08,32.53
7628,0.3296,-0.0234,0.8625,-6.99,8.02,0.0,32.53
7638,0.3295,-0.024,0.8622,-6.96,8.08,-0.02,32.53
7649,0.3298,-0.026,0.8658,-6.92,8.12,0.0,32.54
7659,0.3314,-0.0225,0.8632,-6.95,8.03,0.02,32.53
7669,0.3292,-0.0236,0.8634,-7.02,8.03,0.02,32.54
7679,0.3301,-0.0256,0.8647,-6.93,7.94,-0.08,32.54
7689,0.33,-0.0266,0.8651,-6.99,7.91,-0.03,32.52
7699,0.3297,-0.0249,0.8649,-6.96,8.03,-0.08,32.54
7709,0.3335,-0.0248,0.8668,-7.02,8.06,0.0,32.53
7719,0.3307,-0.0258,0.8673,-7.01,8.06,0.03,32.52
7729,0.333,-0.0243,0.865,-6.98,7.94,0.02,32.53
7739,0.3319,-0.0243,0.8676,-6.98,8.03,-0.03,32.54
7749,0.3315,-0.0262,0.8668,-6.99,8.08,-0.11,32.54
7759,0.3289,-0.0273,0.864,-6.79,7.97,-0.05,32.54
7769,0.3282,-0.0242,0.8644,-6.9,8.03,-0.09,32.52
7779,0.3308,-0.0245,0.8635,-6.95,8.02,-0.05,32.54
7789,0.3295,-0.0232,0.8663,-7.04,8.02,-0.05,32.55
7799,0.3274,-0.0242,0.8639,-7.02,7.98,0.05,32.54
7809,0.3323,-0.0267,0.8624,-6.95,7.95,0.0,32.54
7819,0.3308,-0.0269,0.8663,-6.99,7.95,-0.05,32.56
7829,0.3309,-0.0283,0.8641,-6.96,7.97,-0.03,32.53
7839,0.3281,-0.0271,0.8656,-6.89,7.95,-0.02,32.54
7849,0.3297,-0.0239,0.8643,-6.84,8.0,0.05,32.53
7859,0.3303,-0.0265,0.861,-7.01,7.95,-0.05,32.55
7869,0.3313,-0.0261,0.8663,-6.87,8.12,-0.12,32.55
7879,0.3306,-0.0271,0.8665,-6.93,8.0,-0.06,32.53
7889,0.3333,-0.0248,0.8671,-7.01,7.98,-0.09,32.53
7899,0.3312,-0.0236,0.8678,-6.95,8.05,-0.09,32.52
7909,0.328,-0.0265,0.8668,-6.98,7.98,-0.05,32.52
7919,0.3325,-0.0239,0.8689,-6.85,8.02,-0.05,32.52
7929,0.3315,-0.0244,0.8641,-6.92,7.98,0.11,32.51
7939,0.33,-0.026,0.865,-6.87,8.0,-0.02,32.52
7949,0.3306,-0.0278,0.865,-6.98,8.0,0.06,32.54
7959,0.3298,-0.0277,0.8654,-6.78,8.06,0.0,32.56
7969,0.3257,-0.0265,0.871,-6.96,8.08,-0.02,32.53
7979,0.3301,-0.025,0.868,-7.01,8.03,-0.02,32.55
7989,0.3292,-0.0253,0.868,-6.96,8.03,0.02,32.52
7999,0.3298,-0.0251,0.8657,-7.02,8.03,-0.06,32.51
8009,0.3291,-0.0243,0.8647,-6.93,8.05,-0.08,32.54
8019,0.3253,-0.0258,0.8639,-6.95,8.09,-0.03,32.55
8029,0.3296,-0.0266,0.8645,-6.96,8.06,-0.03,32.54
8039,0.3303,-0.0244,0.8647,-6.95,8.05,-0.03,32.54
8049,0.3308,-0.0255,0.8632,-6.87,8.02,-0.02,32.56
8059,0.3315,-0.0251,0.864,-6.95,8.03,0.03,32.55
8069,0.3308,-0.025,0.8633,-6.95,8.0,-0.11,32.54
8079,0.3285,-0.0275,0.8667,-6.98,7.97,-0.06,32.54
8089,0.3301,-0.0275,0.8696,-6.96,8.06,0.02,32.53
8099,0.3312,-0.0271,0.8651,-6.95,8.02,-0.05,32.52
8109,0.3326,-0.0269,0.8682,-7.02,7.94,-0.06,32.51
8119,0.3319,-0.0265,0.8663,-6.99,8.06,-0.02,32.52
8129,0.3297,-0.0233,0.8608,-6.96,7.97,-0.02,32.54
8139,0.332,-0.0261,0.8646,-7.02,8.05,0.03,32.53
8149,0.3329,-0.0259,0.8638,-6.87,8.09,0.02,32.55
8159,0.3307,-0.0249,0.863,-6.92,8.0,-0.11,32.49
8169,0.329,-0.0267,0.8645,-7.01,7.97,0.03,32.53
8179,0.3315,-0.0259,0.8684,-6.93,8.05,0.03,32.53
8189,0.3298,-0.0259,0.8668,-6.93,7.98,-0.03,32.53
8199,0.3309,-0.0245,0.8646,-7.02,8.03,0.0,32.53
8209,0.3298,-0.026,0.8649,-6.95,8.05,-0.02,32.54
8219,0.3297,-0.0249,0.8628,-6.89,8.0,-0.09,32.54
8229,0.3314,-0.0261,0.8596,-6.89,8.05,-0.05,32.53
8239,0.328,-0.0234,0.8647,-6.84,8.0,0.03,32.55
8249,0.3309,-0.0242,0.8628,-6.95,8.03,-0.02,32.55
8259,0.3307,-0.0247,0.8628,-6.89,8.02,-0.05,32.57
8269,0.3311,-0.0238,0.8658,-6.93,8.05,-0.05,32.56
8279,0.3322,-0.0267,0.8646,-6.99,8.08,0.02,32.54
8289,0.3304,-0.0262,0.8649,-6.93,7.94,-0.11,32.54
8299,0.3273,-0.0277,0.8635,-6.95,8.0,-0.05,32.55
8309,0.328,-0.0262,0.8666,-6.9,8.06,-0.06,32.53
8319,0.3309,-0.0253,0.8641,-6.93,8.0,0.03,32.55
8329,0.3284,-0.0236,0.8669,-7.01,7.95,-0.08,32.55
8339,0.3284,-0.0276,0.8635,-6.89,8.02,-0.03,32.56
8349,0.3308,-0.0231,0.8672,-6.98,8.0,-0.02,32.55
8359,0.3308,-0.0249,0.863,-6.92,7.98,-0.02,32.54
8369,0.3293,-0.0269,0.868,-6.99,8.02,-0.02,32.53
8379,0.3318,-0.0264,0.8668,-6.93,8.05,-0.09,32.53
8389,0.332,-0.0267,0.8656,-7.01,8.08,0.0,32.54
8399,0.3287,-0.0259,0.8674,-6.92,8.05,-0.05,32.57
8409,0.3312,-0.0289,0.8666,-6.96,8.08,0.06,32.55
8419,0.3315,-0.0247,0.8666,-6.95,8.05,-0.02,32.55
8429,0.3295,-0.0283,0.8678,-6.95,8.03,0.03,32.57
8439,0.3295,-0.0256,0.8694,-6.89,8.05,-0.05,32.55
8449,0.3302,-0.024,0.8621,-6.93,7.95,-0.03,32.54
8459,0.3302,-0.0248,0.8645,-6.95,8.06,-0.03,32.56
8469,0.3318,-0.0261,0.8651,-7.01,7.98,0.02,32.56
8481,0.3328,-0.0215,0.8671,-7.01,8.02,0.02,32.55
8491,0.3322,-0.025,0.863,-6.95,7.98,0.02,32.54
8501,0.3296,-0.027,0.8683,-6.98,7.94,-0.03,32.56
8511,0.3289,-0.0273,0.8691,-7.04,7.95,-0.06,32.55
8521,0.3313,-0.0251,0.8656,-6.95,8.0,-0.02,32.53
8531,0.3302,-0.0251,0.864,-6.96,7.92,0.03,32.54
8541,0.3282,-0.0261,0.8671,-7.02,8.06,-0.06,32.57
8551,0.3291,-0.0287,0.8673,-6.98,7.97,-0.05,32.54
8561,0.3275,-0.0266,0.8635,-6.98,8.03,0.0,32.55
8571,0.3311,-0.0259,0.8643,-6.99,8.0,-0.03,32.55
8581,0.3329,-0.0217,0.8716,-6.93,8.08,-0.14,32.57
8591,0.333,-0.0233,0.8632,-6.93,7.97,-0.03,32.56
8601,0.3295,-0.0273,0.8662,-6.84,7.97,0.06,32.56
8611,0.3304,-0.0247,0.8674,-7.01,8.05,-0.05,32.56
8621,0.3344,-0.0232,0.8656,-7.02,8.09,-0.05,32.54
8631,0.3279,-0.0245,0.8678,-6.95,8.03,-0.05,32.57
8641,0.3282,-0.0255,0.8673,-6.9,7.89,-0.03,32.55
8651,0.3291,-0.0255,0.8662,-7.05,7.98,-0.03,32.51
8661,0.329,-0.0271,0.8644,-6.92,8.02,-0.05,32.55
8671,0.3317,-0.0248,0.8662,-7.04,8.02,-0.08,32.56
8681,0.3302,-0.0247,0.8628,-6.96,8.03,-0.09,32.56
8691,0.3308,-0.0258,0.8645,-6.96,8.05,-0.09,32.55
8701,0.3309,-0.0234,0.8644,-6.85,8.02,0.06,32.54
8711,0.3312,-0.0258,0.864,-7.01,8.08,0.05,32.57
8721,0.3339,-0.025,0.8698,-6.93,7.98,-0.05,32.56
8731,0.3308,-0.0261,0.8676,-6.95,7.97,0.02,32.56
8741,0.3308,-0.0266,0.8643,-6.95,8.05,0.0,32.55
8751,0.3281,-0.0234,0.8658,-7.01,8.06,0.03,32.56
8761,0.3295,-0.0248,0.8667,-6.9,8.0,-0.02,32.55
8771,0.3298,-0.0243,0.8669,-6.98,7.94,-0.08,32.55
8781,0.33,-0.0253,0.8621,-6.89,7.98,0.03,32.57
8791,0.3307,-0.025,0.8668,-6.92,7.97,0.0,32.55
8801,0.3313,-0.0269,0.8665,-6.89,8.02,-0.08,32.54
8811,0.33,-0.0228,0.866,-6.93,7.95,-0.03,32.55
8821,0.3302,-0.0255,0.8647,-6.93,8.08,-0.02,32.55
8831,0.3317,-0.0222,0.8622,-6.89,7.98,0.0,32.57
8841,0.3333,-0.0237,0.8608,-6.92,7.98,0.03,32.54
8851,0.3335,-0.027,0.8632,-6.84,8.0,0.05,32.55
8861,0.3309,-0.0278,0.8649,-6.99,7.97,-0.05,32.57
8871,0.3315,-0.0267,0.8628,-6.87,8.02,-0.14,32.55
8881,0.3313,-0.0232,0.8651,-6.87,8.11,-0.08,32.54
8891,0.33,-0.0253,0.8644,-6.92,8.0,-0.08,32.54
8901,0.3302,-0.0245,0.8701,-6.95,8.03,0.06,32.54
8911,0.3311,-0.0264,0.866,-6.98,7.97,0.02,32.56
8921,0.3287,-0.0281,0.869,-7.01,8.05,-0.08,32.57
8931,0.3312,-0.0242,0.8655,-6.95,8.02,0.02,32.55
8941,0.3302,-0.0256,0.8633,-6.98,8.0,-0.03,32.53
8951,0.3292,-0.0262,0.8638,-6.95,8.08,-0.12,32.55
8961,0.3334,-0.0249,0.8698,-6.9,7.94,-0.02,32.56
8971,0.332,-0.0255,0.8673,-6.84,8.03,0.02,32.55
8981,0.3319,-0.0273,0.8678,-6.87,8.06,-0.09,32.56
8991,0.3311,-0.0254,0.8667,-6.87,7.98,0.02,32.58
9001,0.3317,-0.0221,0.8671,-6.89,8.11,-0.05,32.59
9011,0.3289,-0.0244,0.8665,-7.01,8.05,0.02,32.58
9021,0.3334,-0.0214,0.8666,-7.01,7.98,-0.08,32.57
9031,0.3306,-0.0236,0.8639,-6.93,8.0,-0.14,32.57
9041,0.3311,-0.024,0.8708,-6.95,7.95,-0.06,32.56
9051,0.3326,-0.0275,0.8716,-6.92,8.03,0.0,32.57
9061,0.3306,-0.026,0.8685,-6.98,8.11,0.02,32.57
9071,0.3325,-0.0264,0.8684,-7.01,8.03,-0.05,32.54
9081,0.3329,-0.0253,0.8627,-7.02,8.05,-0.08,32.54
9093,0.3297,-0.0262,0.8666,-6.96,8.03,-0.05,32.55
9103,0.3298,-0.0255,0.8633,-6.87,8.03,-0.08,32.57
9113,0.3307,-0.0243,0.8658,-6.9,7.92,-0.03,32.56
9123,0.3312,-0.0239,0.8628,-6.98,8.09,-0.11,32.54
9133,0.3341,-0.0269,0.8676,-6.9,8.08,-0.03,32.57
9143,0.3296,-0.0249,0.8661,-6.95,7.98,-0.06,32.54
9153,0.3292,-0.026,0.8672,-6.93,7.98,-0.12,32.52
9163,0.3309,-0.0245,0.8705,-6.99,8.03,-0.08,32.56
9173,0.3334,-0.0284,0.8647,-7.01,8.05,-0.09,32.56
9183,0.3315,-0.025,0.8672,-6.92,8.05,0.0,32.55
9193,0.3279,-0.0247,0.8674,-6.99,8.15,-0.05,32.56
9203,0.3312,-0.0233,0.8635,-6.95,8.05,-0.08,32.56
9213,0.3311,-0.0247,0.8621,-7.07,8.06,0.03,32.55
9223,0.3306,-0.0272,0.8634,-6.98,8.02,-0.03,32.59
9233,0.3308,-0.0267,0.864,-6.93,7.92,0.0,32.56
9243,0.3318,-0.0264,0.8663,-6.93,8.0,-0.09,32.55
9253,0.3309,-0.0242,0.8663,-6.9,8.03,-0.11,32.56
9263,0.3325,-0.0239,0.8682,-6.85,8.05,-0.05,32.57
9273,0.3325,-0.026,0.8685,-6.85,8.02,-0.03,32.57
9283,0.3296,-0.0245,0.8669,-6.9,7.98,-0.03,32.54
9293,0.3293,-0.024,0.8666,-6.87,8.08,-0.11,32.57
9303,0.3281,-0.0233,0.8661,-6.96,8.08,0.0,32.56
9313,0.332,-0.025,0.8674,-6.98,7.92,0.06,32.55
9323,0.3291,-0.0245,0.8702,-6.99,8.12,-0.03,32.56
9333,0.3323,-0.0248,0.8669,-6.92,8.05,-0.08,32.56
9343,0.3326,-0.0216,0.8604,-6.98,8.02,-0.05,32.55
9353,0.3336,-0.0243,0.8663,-7.02,8.03,-0.12,32.57
9363,0.3297,-0.0244,0.8654,-7.01,8.02,0.0,32.55
9373,0.3319,-0.0249,0.8658,-6.95,8.02,-0.06,32.56
9383,0.3322,-0.0234,0.8698,-6.92,8.03,0.03,32.55
9393,0.3285,-0.0254,0.8691,-6.92,8.0,0.08,32.54
9403,0.3324,-0.0244,0.8671,-6.93,7.97,-0.06,32.54
9413,0.3322,-0.0227,0.8677,-7.01,7.94,0.08,32.55
9423,0.3292,-0.027,0.863,-6.96,8.03,0.03,32.57
9433,0.3267,-0.0281,0.8684,-6.99,8.02,-0.03,32.56
9443,0.3303,-0.0256,0.8644,-6.93,8.0,-0.03,32.56
9453,0.3247,-0.0231,0.8641,-7.01,8.08,-0.02,32.56
9463,0.3308,-0.0245,0.868,-6.95,8.05,-0.05,32.55
9473,0.3286,-0.0231,0.8645,-6.9,8.05,-0.03,32.56
9483,0.3269,-0.0259,0.866,-6.92,8.11,-0.06,32.57
9493,0.3301,-0.025,0.8674,-6.95,7.98,-0.02,32.58
9503,0.3301,-0.0275,0.8708,-6.92,8.09,-0.05,32.58
9513,0.3312,-0.026,0.8679,-6.85,8.02,-0.08,32.56
9523,0.332,-0.0289,0.8674,-6.87,8.0,-0.02,32.54
9533,0.3286,-0.0228,0.8655,-6.89,8.02,0.02,32.57
9543,0.3311,-0.0244,0.8671,-6.98,7.98,0.02,32.54
9553,0.3274,-0.0265,0.8667,-7.07,7.97,0.0,32.57
9563,0.3301,-0.0284,0.8641,-7.05,8.03,-0.03,32.58
9573,0.3298,-0.0255,0.8662,-7.07,8.08,-0.06,32.57
9583,0.3303,-0.0228,0.8679,-6.95,8.02,-0.03,32.57
9593,0.332,-0.0254,0.8641,-6.99,7.97,0.0,32.55
9603,0.3298,-0.0221,0.8701,-6.89,8.02,0.03,32.57
9613,0.3313,-0.0247,0.8661,-6.89,8.03,-0.03,32.54
9623,0.3317,-0.0259,0.8661,-6.98,8.06,-0.03,32.57
9633,0.3296,-0.025,0.8695,-6.95,8.11,-0.02,32.57
9643,0.3318,-0.0271,0.8668,-6.92,8.08,-0.05,32.55
9653,0.3311,-0.0262,0.8625,-6.92,7.95,-0.02,32.55
9663,0.3309,-0.0244,0.8667,-6.87,8.02,0.0,32.57
9673,0.3334,-0.0261,0.865,-6.89,8.05,-0.03,32.56
9683,0.3284,-0.025,0.8691,-6.98,8.08,-0.06,32.57
9693,0.3328,-0.0238,0.8639,-7.01,7.98,0.0,32.58
9703,0.3285,-0.0265,0.8619,-7.01,8.0,0.06,32.58
9713,0.3291,-0.025,0.8624,-6.95,7.97,-0.03,32.58
9723,0.329,-0.0239,0.86,-6.9,8.03,-0.02,32.57
9733,0.3282,-0.0271,0.8632,-6.99,8.03,-0.06,32.58
9743,0.3292,-0.0269,0.8641,-6.81,8.08,-0.12,32.56
9753,0.3298,-0.0247,0.8645,-6.93,8.02,-0.05,32.54
9763,0.3333,-0.027,0.8679,-6.89,8.02,-0.08,32.57
9773,0.3329,-0.0251,0.864,-6.9,7.98,-0.05,32.57
9783,0.3289,-0.0238,0.8696,-6.92,8.06,-0.09,32.57
9793,0.332,-0.0253,0.8715,-6.93,8.0,-0.03,32.56
9803,0.3303,-0.0249,0.8696,-6.95,7.97,-0.05,32.55
9813,0.3302,-0.0265,0.8622,-6.95,8.12,-0.12,32.57
9823,0.3286,-0.0245,0.8607,-6.93,8.0,-0.03,32.56
9833,0.3307,-0.027,0.8649,-6.99,8.02,-0.03,32.55
9843,0.333,-0.0261,0.8658,-7.01,8.03,0.02,32.55
9853,0.3319,-0.0242,0.8636,-6.93,7.97,0.02,32.57
9863,0.3314,-0.0248,0.8696,-6.98,8.0,0.03,32.57
9873,0.3317,-0.026,0.8666,-6.96,8.0,-0.02,32.58
9883,0.3293,-0.0248,0.8683,-6.93,8.02,-0.06,32.55
9893,0.3295,-0.0221,0.8676,-6.89,7.94,-0.02,32.57
9903,0.3315,-0.0273,0.8677,-6.96,8.03,-0.06,32.57
9913,0.3309,-0.0283,0.8667,-7.02,8.02,-0.06,32.59
9923,0.3311,-0.0249,0.8663,-6.98,8.03,0.03,32.59
9933,0.3317,-0.0256,0.8678,-6.87,8.08,-0.02,32.55
9943,0.3296,-0.0229,0.8654,-6.98,8.02,-0.08,32.58
9953,0.3296,-0.0258,0.8622,-6.99,8.05,0.02,32.56
9963,0.3311,-0.0247,0.8625,-6.93,8.06,-0.08,32.58
9973,0.3289,-0.0261,0.8634,-6.95,7.97,-0.06,32.59
9983,0.3289,-0.0265,0.8619,-6.93,7.95,-0.11,32.56
9993,0.3308,-0.0232,0.8698,-6.89,7.88,0.02,32.59
10003,0.3302,-0.0253,0.8669,-6.92,7.97,0.0,32.58
10013,0.3306,-0.0236,0.8683,-6.98,8.03,-0.09,32.57
10023,0.329,-0.0238,0.8645,-6.98,7.97,-0.08,32.56
10033,0.3312,-0.0239,0.868,-6.98,8.0,0.02,32.57
10043,0.3312,-0.0262,0.8658,-6.92,8.03,-0.09,32.59
10053,0.3313,-0.0248,0.8636,-6.93,8.08,-0.03,32.57
10063,0.3311,-0.0262,0.8635,-6.96,8.0,-0.02,32.56
10073,0.3323,-0.0247,0.8658,-7.01,8.05,0.03,32.57
10083,0.3273,-0.0236,0.8663,-6.87,7.95,-0.02,32.57
10093,0.3317,-0.0245,0.8677,-6.92,7.98,0.03,32.57
10103,0.3292,-0.0245,0.8677,-7.01,8.05,0.05,32.56
10113,0.3322,-0.0237,0.8647,-6.98,7.97,-0.05,32.55
10123,0.3295,-0.0291,0.8661,-6.95,8.05,-0.03,32.56
10133,0.3296,-0.0262,0.8671,-7.01,7.94,-0.09,32.57
10143,0.3301,-0.0266,0.8654,-7.01,8.06,-0.02,32.57
10153,0.3302,-0.026,0.8633,-6.95,8.05,-0.03,32.58
10163,0.3328,-0.0238,0.8657,-6.85,8.03,-0.02,32.58
10173,0.3335,-0.0205,0.8647,-6.87,7.94,-0.06,32.56
10183,0.3301,-0.0256,0.8667,-6.99,8.0,0.08,32.57
10193,0.333,-0.027,0.868,-6.95,8.05,-0.02,32.56
10203,0.3308,-0.0229,0.8633,-6.92,8.03,-0.08,32.57
10213,0.3285,-0.0243,0.8613,-6.95,8.05,-0.09,32.55
10223,0.3292,-0.0238,0.8672,-6.99,8.02,-0.03,32.57
10233,0.3325,-0.0276,0.8694,-6.95,8.03,-0.02,32.57
10243,0.3308,-0.0253,0.861,-6.95,8.11,-0.11,32.58
10253,0.3344,-0.0243,0.8628,-6.96,7.98,-0.03,32.54
10263,0.3287,-0.0259,0.8673,-6.96,8.0,-0.12,32.57
10273,0.3295,-0.0247,0.8666,-6.93,8.0,-0.05,32.57
10284,0.3314,-0.0231,0.8661,-6.98,8.11,-0.05,32.56
10296,0.3313,-0.0248,0.8645,-7.05,7.98,-0.06,32.61
10306,0.3291,-0.0261,0.8633,-6.99,8.06,-0.03,32.6
10316,0.3319,-0.0237,0.8636,-6.95,7.94,-0.08,32.56
10326,0.3308,-0.0258,0.8669,-6.99,7.94,-0.08,32.56
10336,0.3285,-0.0269,0.8676,-6.95,8.03,0.0,32.58
10346,0.3284,-0.0248,0.8635,-6.84,8.08,0.02,32.58
10356,0.3313,-0.0256,0.8652,-6.95,8.03,0.0,32.59
10366,0.3307,-0.0256,0.865,-6.96,8.02,-0.03,32.57
10376,0.3334,-0.0242,0.8625,-6.92,8.06,-0.02,32.59
10386,0.3308,-0.0254,0.8647,-6.93,8.03,-0.05,32.58
10396,0.3344,-0.0233,0.8684,-6.93,8.03,0.02,32.56
10406,0.3314,-0.0242,0.8695,-6.92,7.98,-0.11,32.55
10416,0.332,-0.0283,0.8695,-6.92,7.95,0.03,32.58
10426,0.3326,-0.0262,0.8673,-7.01,8.02,-0.05,32.55
10436,0.3291,-0.0226,0.8636,-6.99,7.98,-0.08,32.54
10446,0.3323,-0.027,0.8676,-6.98,7.97,-0.08,32.57
10456,0.3326,-0.024,0.8698,-6.99,8.08,0.0,32.56
10466,0.3274,-0.027,0.8665,-6.87,7.98,-0.03,32.57
10476,0.3303,-0.0262,0.8661,-6.95,8.05,-0.06,32.58
10486,0.3265,-0.026,0.8641,-6.85,8.02,0.02,32.58
10496,0.3263,-0.0219,0.8668,-6.9,7.95,-0.06,32.58
10506,0.3291,-0.0231,0.861,-6.89,8.12,0.0,32.57
10516,0.3296,-0.0255,0.8665,-6.95,8.05,0.02,32.57
10526,0.3335,-0.0289,0.865,-6.92,8.02,-0.06,32.56
10536,0.3326,-0.0282,0.8663,-7.01,8.03,-0.08,32.59
10546,0.333,-0.0265,0.8704,-7.05,7.97,-0.11,32.58
10556,0.3319,-0.0256,0.8665,-6.9,7.95,-0.06,32.58
10566,0.3303,-0.0255,0.8682,-6.96,8.02,-0.03,32.58
10576,0.3314,-0.0271,0.8652,-6.96,7.95,-0.12,32.57
10586,0.3292,-0.0259,0.8689,-6.96,8.0,-0.05,32.57
10596,0.3314,-0.0262,0.8661,-6.87,8.02,-0.08,32.57
10606,0.3318,-0.0254,0.8665,-6.95,8.02,-0.09,32.54
10616,0.3284,-0.0266,0.8654,-7.02,7.97,-0.05,32.56
10626,0.3303,-0.0273,0.8625,-6.92,7.95,0.02,32.57
10636,0.3314,-0.0262,0.8694,-6.93,8.11,-0.03,32.57
10646,0.33,-0.0253,0.8623,-6.96,8.05,0.06,32.57
10656,0.3281,-0.0236,0.8662,-6.95,8.0,0.02,32.56
10666,0.3292,-0.0262,0.8655,-6.84,8.11,-0.02,32.56
10676,0.3301,-0.0248,0.8647,-6.99,8.08,0.05,32.59
10686,0.3315,-0.0231,0.8673,-6.98,8.03,-0.08,32.59
10696,0.3322,-0.024,0.8627,-7.02,7.92,-0.08,32.57
10706,0.3323,-0.0266,0.8647,-6.9,8.02,-0.06,32.58
10716,0.3289,-0.0277,0.8677,-6.95,8.0,-0.15,32.56
10726,0.3304,-0.0255,0.8658,-6.98,8.03,-0.08,32.6
10736,0.3301,-0.022,0.8684,-6.87,8.0,-0.08,32.59
10746,0.3273,-0.0238,0.8682,-6.96,7.94,-0.05,32.56
10756,0.3309,-0.0261,0.8672,-6.95,8.02,0.0,32.57
10766,0.3296,-0.0254,0.8676,-6.95,7.98,-0.03,32.59
10776,0.3258,-0.024,0.8641,-6.93,7.97,-0.02,32.57
10786,0.33,-0.0244,0.8667,-6.96,8.08,-0.08,32.55
10796,0.3284,-0.0292,0.8678,-6.93,8.06,0.0,32.57
10806,0.3319,-0.0249,0.8661,-6.92,8.0,-0.03,32.56
10816,0.3298,-0.0239,0.8676,-6.92,8.0,0.0,32.57
10826,0.3317,-0.0245,0.8679,-7.01,8.0,-0.05,32.58
10836,0.329,-0.0266,0.8676,-6.98,8.05,-0.03,32.58
10846,0.3297,-0.0247,0.8625,-6.93,8.05,-0.05,32.58
10856,0.3297,-0.0256,0.8634,-6.89,7.98,-0.02,32.57
10866,0.3286,-0.0251,0.8635,-6.92,8.08,-0.08,32.59
10876,0.3307,-0.0228,0.8651,-6.76,7.97,-0.03,32.56
10886,0.3279,-0.0272,0.8677,-6.98,7.91,-0.08,32.55
10896,0.33,-0.0244,0.8665,-6.95,8.02,0.05,32.56
10906,0.3291,-0.0233,0.8691,-7.01,8.03,-0.05,32.56
10916,0.3313,-0.025,0.863,-6.96,8.03,-0.03,32.57
10926,0.3293,-0.0248,0.8649,-6.87,7.98,-0.09,32.57
10937,0.3335,-0.0281,0.8704,-6.95,8.0,-0.03,32.56
10947,0.3322,-0.0247,0.8696,-6.93,8.05,-0.05,32.57
10957,0.3301,-0.0258,0.8665,-6.9,7.95,0.02,32.57
10967,0.3285,-0.0262,0.8663,-6.87,8.0,-0.03,32.57
10977,0.3289,-0.0238,0.868,-6.93,7.95,-0.03,32.57
10987,0.3311,-0.0278,0.8654,-6.9,7.98,-0.05,32.55
10997,0.333,-0.0243,0.8639,-6.95,7.95,0.02,32.58
11007,0.3286,-0.0271,0.8652,-6.92,7.98,-0.05,32.56
11017,0.3302,-0.0256,0.864,-7.02,8.12,0.03,32.56
11028,0.3289,-0.0259,0.8676,-6.81,7.97,-0.08,32.59
11038,0.3297,-0.0273,0.8677,-6.87,7.98,-0.06,32.59
11048,0.3303,-0.0269,0.8661,-6.95,8.03,-0.08,32.58
11058,0.327,-0.0237,0.863,-6.98,8.08,-0.06,32.59
11068,0.33,-0.0273,0.8636,-6.93,8.06,-0.12,32.59
11078,0.3289,-0.0272,0.8662,-6.95,8.02,-0.06,32.6
11088,0.3301,-0.0223,0.8667,-7.04,8.05,-0.03,32.57
11098,0.329,-0.026,0.866,-6.93,8.06,0.0,32.58
11108,0.3304,-0.0271,0.8672,-6.9,8.12,-0.03,32.59
11118,0.3296,-0.0248,0.8646,-6.93,8.05,-0.05,32.58
11129,0.3314,-0.0221,0.8666,-6.9,8.05,-0.05,32.59
11139,0.3285,-0.0229,0.8638,-7.05,8.08,-0.03,32.6
11149,0.3287,-0.0238,0.8646,-6.87,8.0,-0.05,32.57
11159,0.3312,-0.0239,0.865,-6.98,7.98,-0.11,32.58
11169,0.3291,-0.0248,0.8673,-6.9,8.03,-0.06,32.59
11179,0.3334,-0.0247,0.8643,-6.98,8.08,-0.11,32.59
11189,0.3297,-0.0259,0.8676,-6.92,8.03,-0.03,32.57
11199,0.3292,-0.024,0.8674,-6.93,7.92,-0.05,32.59
11209,0.3335,-0.0264,0.869,-6.98,8.02,-0.08,32.59
11219,0.3281,-0.0245,0.8651,-7.05,8.05,-0.11,32.57
11229,0.3302,-0.0255,0.8687,-6.92,8.06,-0.06,32.59
11239,0.3311,-0.0265,0.868,-6.93,8.0,-0.05,32.57
11249,0.3308,-0.0205,0.8616,-6.98,8.02,-0.05,32.6
11259,0.3292,-0.0232,0.8633,-7.04,8.03,-0.06,32.58
11269,0.3284,-0.0253,0.8646,-6.93,7.94,-0.02,32.57
11279,0.3296,-0.024,0.8632,-6.92,7.98,-0.02,32.59
11289,0.328,-0.0255,0.8682,-6.96,8.02,-0.05,32.57
11299,0.3317,-0.0273,0.8682,-6.95,7.98,-0.03,32.57
11309,0.3293,-0.025,0.8599,-7.04,8.03,0.02,32.56
11319,0.3297,-0.0253,0.8669,-6.92,7.97,-0.06,32.58
11329,0.3315,-0.0256,0.8665,-6.9,8.08,-0.09,32.57
11339,0.3286,-0.0284,0.8669,-6.95,7.98,-0.02,32.57
11349,0.3303,-0.0266,0.8662,-6.95,8.06,-0.06,32.58
11359,0.3323,-0.0228,0.8646,-6.95,8.06,0.0,32.56
11369,0.33,-0.0242,0.8676,-6.95,8.08,-0.02,32.57
11379,0.3331,-0.0253,0.8667,-6.85,7.98,-0.05,32.6
11389,0.3298,-0.0215,0.8671,-6.96,8.06,-0.02,32.62
11399,0.3287,-0.0262,0.8673,-7.01,8.06,0.0,32.58
11409,0.3296,-0.0247,0.8669,-6.9,7.94,-0.08,32.6
11419,0.33,-0.0251,0.8679,-6.98,8.0,-0.05,32.56
11429,0.3296,-0.0262,0.8661,-6.93,7.98,-0.05,32.57
11439,0.3322,-0.0261,0.8647,-6.98,8.02,-0.05,32.59
11449,0.3324,-0.024,0.8683,-6.93,8.06,0.02,32.57
11459,0.3322,-0.0248,0.8694,-6.89,8.06,-0.05,32.59
11469,0.3324,-0.0243,0.8682,-6.9,8.14,-0.03,32.6
11479,0.3303,-0.0266,0.8689,-6.95,8.14,-0.09,32.61
11489,0.3301,-0.0256,0.866,-6.92,8.05,0.0,32.6
11499,0.3295,-0.0276,0.8665,-6.96,8.06,-0.08,32.57
11509,0.3289,-0.024,0.8656,-6.92,8.06,-0.05,32.57
11519,0.3286,-0.0267,0.8658,-6.95,8.02,-0.03,32.58
11529,0.328,-0.0283,0.8685,-6.98,8.03,-0.09,32.56
11539,0.3324,-0.0258,0.8676,-6.98,7.97,-0.03,32.57
11549,0.3331,-0.0256,0.8669,-6.96,7.97,0.0,32.58
11559,0.3328,-0.0265,0.8628,-7.02,7.97,-0.06,32.59
11569,0.3329,-0.027,0.8662,-7.01,7.95,-0.09,32.58
11579,0.3317,-0.0254,0.8612,-6.95,8.11,-0.06,32.59
11589,0.3278,-0.027,0.8655,-6.99,8.02,-0.11,32.58
11599,0.3328,-0.0278,0.8613,-6.93,8.03,0.05,32.57
11609,0.3324,-0.0243,0.864,-6.93,8.03,-0.06,32.57
11619,0.3298,-0.0247,0.8644,-6.98,8.09,-0.06,32.57
11629,0.3312,-0.0245,0.8668,-7.01,8.09,-0.02,32.58
11640,0.3285,-0.0233,0.8683,-6.87,8.09,0.03,32.57
11650,0.3315,-0.0251,0.8696,-6.99,8.03,0.03,32.56
11660,0.3286,-0.0256,0.8665,-6.9,8.02,0.0,32.59
11670,0.3295,-0.0264,0.8682,-6.93,7.95,-0.08,32.59
11680,0.3297,-0.0248,0.8679,-6.92,7.95,-0.03,32.6
11690,0.3292,-0.0238,0.8657,-6.89,8.03,-0.03,32.59
11700,0.3309,-0.0251,0.8668,-7.02,7.89,0.02,32.58
11710,0.3285,-0.024,0.866,-6.85,8.0,-0.12,32.56
11720,0.332,-0.0248,0.8661,-6.89,8.02,-0.05,32.59
11730,0.3298,-0.0245,0.865,-6.92,8.05,-0.05,32.59
11741,0.3291,-0.0261,0.8624,-6.89,8.02,-0.11,32.6
11751,0.3322,-0.0248,0.8652,-6.9,7.97,-0.05,32.58
11761,0.332,-0.0234,0.866,-6.87,7.95,-0.08,32.6
11771,0.3304,-0.024,0.8632,-6.95,8.02,0.05,32.57
11781,0.3314,-0.0234,0.8656,-6.93,8.0,-0.09,32.6
11791,0.3302,-0.0262,0.8654,-6.98,8.05,-0.02,32.6
11801,0.33,-0.0255,0.8649,-7.02,8.0,-0.05,32.57
11811,0.3298,-0.0248,0.8678,-6.99,7.98,-0.03,32.6
11821,0.3284,-0.0232,0.8656,-7.04,8.03,0.0,32.57
11831,0.3304,-0.0234,0.8658,-6.98,8.0,-0.02,32.6
11841,0.3292,-0.0219,0.8655,-6.99,7.98,-0.02,32.56
11851,0.3323,-0.0247,0.8636,-6.81,8.06,-0.05,32.58
11861,0.3346,-0.024,0.8652,-7.01,7.97,-0.03,32.58
11871,0.3297,-0.0253,0.8651,-6.95,7.98,-0.03,32.59
11881,0.3312,-0.0262,0.8628,-6.96,8.06,-0.03,32.57
11891,0.3322,-0.0243,0.871,-6.79,7.97,-0.06,32.61
11901,0.329,-0.0256,0.8647,-6.95,7.97,-0.06,32.59
11911,0.3286,-0.0271,0.8679,-6.93,8.0,-0.02,32.57
11921,0.3295,-0.0238,0.8655,-6.89,8.08,-0.03,32.57
11931,0.3282,-0.0258,0.8665,-6.9,8.06,-0.05,32.57
11941,0.3312,-0.0232,0.8644,-6.87,8.03,-0.09,32.59
11951,0.3314,-0.0245,0.8655,-6.92,8.08,-0.06,32.59
11961,0.3319,-0.0255,0.8656,-6.9,8.02,-0.02,32.59
11971,0.3303,-0.0266,0.8661,-6.98,7.95,-0.12,32.59
11981,0.3325,-0.0261,0.8646,-6.98,8.02,-0.08,32.6
11991,0.3298,-0.0254,0.8654,-6.95,8.0,0.0,32.6
12001,0.3292,-0.0266,0.8685,-6.92,8.06,-0.02,32.58
12011,0.3313,-0.0239,0.8613,-6.98,8.08,-0.08,32.58
12021,0.3314,-0.0266,0.8665,-6.89,7.98,-0.11,32.58
12031,0.3308,-0.0248,0.8613,-6.99,8.0,-0.03,32.59
12041,0.3325,-0.0236,0.8673,-6.98,8.0,-0.03,32.57
12051,0.3326,-0.0247,0.8657,-7.05,8.02,0.0,32.59
12061,0.3295,-0.0253,0.864,-6.92,8.0,0.0,32.58
12071,0.3298,-0.0271,0.8658,-7.02,7.92,-0.03,32.58
12081,0.3304,-0.025,0.8636,-6.78,8.0,-0.08,32.57
12091,0.3304,-0.0266,0.8657,-6.92,8.09,-0.08,32.6
12101,0.3302,-0.0245,0.8679,-6.85,8.03,-0.05,32.59
12111,0.3273,-0.024,0.8672,-6.96,8.05,-0.06,32.61
12121,0.3356,-0.0253,0.8613,-7.01,7.98,-0.02,32.62
12131,0.3282,-0.0264,0.8635,-7.01,8.05,-0.06,32.57
12141,0.3331,-0.0259,0.8633,-6.99,8.02,0.0,32.59
12151,0.3307,-0.028,0.8698,-6.96,8.02,-0.02,32.59
12161,0.3262,-0.0258,0.8651,-6.92,8.11,-0.12,32.6
12171,0.3273,-0.027,0.8616,-6.93,8.03,0.03,32.59
12181,0.3314,-0.0244,0.8654,-6.89,8.02,-0.08,32.6
12191,0.3331,-0.0247,0.8672,-6.96,8.08,-0.06,32.59
12201,0.3319,-0.0248,0.8669,-6.96,8.11,-0.03,32.59
12211,0.3342,-0.025,0.8671,-6.96,8.06,-0.02,32.58
12221,0.3312,-0.0228,0.8623,-6.95,8.08,0.0,32.61
12231,0.3365,-0.0238,0.8663,-6.96,8.02,0.06,32.6
12241,0.3296,-0.0232,0.868,-6.96,8.0,-0.02,32.59
12251,0.3308,-0.0234,0.8666,-7.02,7.98,-0.06,32.59
12261,0.3312,-0.0238,0.8663,-7.01,7.94,0.06,32.59
12271,0.3325,-0.0261,0.8665,-6.9,8.05,-0.05,32.59
12281,0.3298,-0.0267,0.8652,-6.96,8.03,0.0,32.6
12291,0.3341,-0.0264,0.8678,-6.85,8.03,-0.02,32.59
12301,0.3267,-0.0303,0.8672,-6.98,8.0,-0.09,32.6
12311,0.3553,-0.0262,0.8529,-6.92,7.16,0.0,32.6
12321,0.3214,-0.0316,0.8696,-6.76,7.89,0.0,32.6
12331,0.3557,-0.0284,0.8328,-6.9,7.6,0.08,32.6
12341,0.3295,-0.0282,0.8578,-7.01,7.94,-0.09,32.6
12351,0.3276,-0.0254,0.8638,-7.08,7.92,0.02,32.6
12361,0.3357,-0.0281,0.8634,-7.01,8.0,-0.03,32.6
12371,0.3351,-0.0258,0.8679,-7.02,8.06,-0.08,32.61
12381,0.3354,-0.0237,0.864,-6.95,8.0,-0.03,32.59
12391,0.3323,-0.022,0.866,-6.9,8.12,-0.03,32.59
12401,0.3268,-0.0273,0.8691,-6.92,8.21,-0.08,32.61
12411,0.3263,-0.0245,0.869,-7.05,8.08,-0.08,32.6
12421,0.334,-0.0278,0.8641,-6.89,8.03,-0.08,32.6
12431,0.3328,-0.0261,0.8655,-6.9,7.98,-0.02,32.62
12441,0.3318,-0.0282,0.8655,-6.89,8.0,-0.14,32.62
12451,0.3309,-0.0254,0.8717,-6.85,8.12,0.03,32.6
12461,0.327,-0.0266,0.863,-6.95,8.11,-0.02,32.61
12471,0.3317,-0.0223,0.8628,-6.98,8.06,0.0,32.63
12481,0.3291,-0.0228,0.8665,-6.98,8.02,-0.05,32.6
12491,0.3307,-0.0262,0.8674,-7.07,8.03,-0.02,32.58
12501,0.3325,-0.0261,0.8632,-7.02,8.02,-0.02,32.58
12511,0.3307,-0.0255,0.874,-6.85,8.08,-0.08,32.6
12521,0.3298,-0.026,0.8655,-6.89,8.05,-0.09,32.59
12531,0.3285,-0.0251,0.8655,-6.96,8.02,-0.05,32.59
12541,0.3301,-0.0269,0.8683,-6.84,8.03,-0.03,32.6
12551,0.3287,-0.0269,0.868,-6.9,8.11,-0.06,32.61
12561,0.33,-0.0284,0.8599,-6.95,7.95,0.0,32.58
12571,0.3312,-0.0255,0.8649,-6.98,8.08,-0.11,32.61
12581,0.329,-0.022,0.8671,-7.05,8.02,-0.05,32.59
12591,0.3317,-0.0242,0.8649,-6.96,8.02,-0.11,32.6
12601,0.332,-0.0248,0.8657,-6.99,8.02,-0.08,32.58
12611,0.3292,-0.0267,0.8651,-6.93,8.03,-0.02,32.6
12621,0.3308,-0.0251,0.8671,-7.01,7.94,-0.12,32.59
12631,0.3303,-0.0278,0.8605,-6.98,7.92,0.0,32.57
12641,0.3322,-0.0245,0.8668,-6.98,7.97,-0.05,32.58
12651,0.3318,-0.0276,0.8643,-6.95,7.95,-0.11,32.57
12661,0.3334,-0.0258,0.8652,-6.81,8.02,0.0,32.59
12671,0.3301,-0.027,0.8649,-6.99,8.03,-0.05,32.6
12681,0.3302,-0.0254,0.8652,-6.85,8.05,-0.03,32.59
12691,0.3284,-0.0232,0.8667,-6.95,7.94,-0.08,32.57
12701,0.3278,-0.0266,0.8643,-6.96,8.0,-0.08,32.59
12711,0.3297,-0.0264,0.8693,-6.89,8.06,-0.05,32.62
12721,0.3282,-0.0298,0.869,-7.01,8.12,-0.05,32.57
12731,0.329,-0.0231,0.8693,-6.92,7.95,0.02,32.59
12741,0.3296,-0.0265,0.8651,-6.84,8.02,-0.03,32.59
12751,0.3315,-0.0258,0.8649,-7.04,8.05,-0.05,32.59
12761,0.3291,-0.0256,0.8654,-6.89,8.05,-0.03,32.56
12771,0.3267,-0.0226,0.8665,-6.93,8.03,-0.12,32.6
12781,0.3319,-0.0248,0.8658,-6.98,8.02,-0.03,32.58
12791,0.3345,-0.0261,0.8724,-6.93,7.95,0.05,32.57
12801,0.3328,-0.0203,0.8678,-7.01,8.0,-0.02,32.59
12811,0.3314,-0.0221,0.8671,-6.9,8.03,-0.06,32.59
12821,0.3297,-0.026,0.8621,-7.02,8.08,-0.06,32.59
12831,0.3271,-0.0232,0.8654,-7.02,7.98,0.0,32.59
12841,0.3304,-0.0237,0.8628,-6.84,8.06,0.03,32.59
12851,0.3296,-0.0251,0.8633,-6.96,8.0,-0.08,32.6
12861,0.3282,-0.025,0.866,-6.93,8.03,0.02,32.59
12871,0.3323,-0.0247,0.8629,-6.99,8.02,-0.15,32.6
12881,0.3317,-0.0278,0.8669,-7.04,8.03,-0.09,32.58
12891,0.3282,-0.0255,0.8636,-6.93,8.0,-0.09,32.61
12901,0.3287,-0.024,0.8676,-6.96,7.97,-0.08,32.56
12911,0.3292,-0.0248,0.8661,-7.02,8.0,-0.06,32.59
12921,0.3304,-0.0231,0.8669,-7.01,8.03,-0.02,32.57
12931,0.3295,-0.0294,0.8634,-6.95,8.0,-0.05,32.57
12941,0.3322,-0.0253,0.8683,-6.93,7.95,-0.03,32.59
12951,0.3291,-0.0236,0.8673,-7.01,8.0,-0.06,32.59
12961,0.3293,-0.0284,0.8668,-6.96,8.03,0.03,32.57
12971,0.3311,-0.0282,0.8622,-6.98,8.02,0.0,32.58
12981,0.3281,-0.0266,0.8656,-6.89,8.05,-0.03,32.59
12991,0.33,-0.0271,0.8646,-7.01,8.03,0.03,32.59
13001,0.3292,-0.0239,0.8683,-6.96,8.03,0.03,32.61
13011,0.3317,-0.0239,0.8683,-7.01,7.91,-0.03,32.6
13021,0.3317,-0.0247,0.8612,-6.93,7.95,-0.05,32.59
13031,0.3315,-0.0283,0.8651,-6.85,7.94,0.0,32.62
13041,0.3323,-0.0249,0.8635,-6.93,7.97,-0.08,32.59
13051,0.3324,-0.0247,0.8673,-6.87,7.98,-0.03,32.6
13061,0.3303,-0.0227,0.8687,-7.01,7.94,0.05,32.61
13071,0.3301,-0.0256,0.864,-7.01,8.02,-0.03,32.62
13081,0.3296,-0.0281,0.8638,-6.92,8.06,-0.06,32.59
13091,0.3296,-0.0215,0.8625,-6.98,7.98,-0.06,32.62
13101,0.3303,-0.0227,0.8662,-6.96,8.06,-0.05,32.57
13111,0.3326,-0.0266,0.8665,-6.96,8.05,0.06,32.6
13121,0.3326,-0.025,0.8647,-6.98,8.0,0.0,32.59
13131,0.3295,-0.028,0.8647,-6.9,8.05,-0.03,32.6
13142,0.3319,-0.0269,0.8728,-6.93,8.0,-0.12,32.62
13152,0.3306,-0.0267,0.8671,-7.02,7.98,-0.05,32.59
13162,0.3318,-0.0247,0.8663,-6.96,8.03,-0.11,32.58
13172,0.3304,-0.0271,0.8691,-6.87,8.03,0.02,32.6
13182,0.3273,-0.0245,0.868,-6.95,8.08,-0.08,32.59
13192,0.3307,-0.0226,0.8625,-6.92,7.98,0.05,32.59
13202,0.3317,-0.0234,0.8624,-7.01,8.02,0.09,32.62
13212,0.3304,-0.0244,0.8656,-6.92,7.98,0.0,32.59
13222,0.3278,-0.0227,0.8639,-6.93,8.03,-0.05,32.61
13232,0.3324,-0.0225,0.8652,-7.01,8.08,0.0,32.59
13242,0.3293,-0.0258,0.8665,-6.85,7.94,-0.02,32.6
13252,0.3311,-0.0222,0.8669,-6.96,8.02,-0.05,32.61
13262,0.3313,-0.0231,0.8688,-6.93,8.06,-0.03,32.62
13272,0.3319,-0.0258,0.8605,-6.87,8.09,-0.02,32.59
13282,0.3319,-0.0248,0.8645,-6.9,8.06,-0.05,32.59
13292,0.3312,-0.0244,0.8654,-7.04,8.06,-0.11,32.63
13302,0.3304,-0.0271,0.8645,-6.95,8.03,-0.06,32.57
13312,0.3279,-0.0247,0.8645,-6.9,8.03,0.03,32.59
13322,0.3317,-0.024,0.8627,-6.93,8.02,-0.02,32.59
13332,0.3319,-0.024,0.863,-6.95,8.05,-0.03,32.59
13342,0.3297,-0.0254,0.8629,-7.01,8.03,-0.06,32.61
13352,0.328,-0.0232,0.8645,-6.95,8.03,-0.09,32.6
13362,0.3302,-0.026,0.865,-6.93,8.02,0.06,32.59
13372,0.3311,-0.0276,0.8651,-6.95,8.09,-0.02,32.6
13382,0.3308,-0.0262,0.8663,-6.95,8.08,-0.03,32.59
13392,0.3301,-0.0238,0.8673,-6.96,7.98,-0.06,32.61
13402,0.3307,-0.0256,0.8678,-7.08,7.97,0.02,32.59
13412,0.3274,-0.0248,0.8701,-6.93,8.02,-0.02,32.59
13422,0.3286,-0.0256,0.8677,-7.02,8.12,-0.06,32.62
13432,0.332,-0.0249,0.8674,-7.04,8.02,0.0,32.6
13442,0.3291,-0.0251,0.865,-7.02,8.06,-0.05,32.63
13452,0.3303,-0.0254,0.8641,-6.93,8.0,-0.11,32.59
13462,0.332,-0.0244,0.8663,-6.93,7.98,-0.09,32.6
13472,0.3315,-0.024,0.8666,-6.93,8.11,0.03,32.59
13482,0.3304,-0.0286,0.8638,-6.89,8.05,0.0,32.61
13492,0.3309,-0.0249,0.8645,-6.93,8.08,-0.05,32.6
13502,0.3337,-0.0266,0.869,-6.93,7.97,0.0,32.6
13512,0.3336,-0.0272,0.8688,-7.01,8.02,-0.03,32.61
13522,0.3336,-0.025,0.8655,-6.92,8.06,0.02,32.59
13532,0.3314,-0.0242,0.8688,-6.95,7.97,-0.03,32.62
13542,0.3295,-0.0255,0.8643,-6.9,8.05,-0.05,32.6
13552,0.328,-0.0248,0.8695,-6.96,8.02,0.05,32.62
13562,0.3308,-0.0273,0.8649,-6.93,8.05,-0.02,32.61
13572,0.332,-0.0256,0.8647,-6.93,7.98,0.05,32.62
13582,0.3309,-0.026,0.8676,-6.99,8.08,-0.08,32.6
13592,0.3329,-0.0256,0.8632,-6.92,8.03,-0.02,32.6
13602,0.3303,-0.0236,0.8678,-6.85,8.06,0.03,32.61
13612,0.3291,-0.0273,0.8651,-6.99,8.08,0.02,32.62
13622,0.3333,-0.0256,0.866,-6.93,8.02,-0.03,32.62
13632,0.3322,-0.0261,0.8651,-6.9,8.06,0.0,32.62
13642,0.3334,-0.0227,0.8672,-6.96,8.09,-0.02,32.62
13652,0.3318,-0.0272,0.8689,-6.99,8.09,-0.05,32.59
13662,0.3285,-0.0265,0.8688,-6.93,8.08,-0.05,32.61
13672,0.3296,-0.0234,0.866,-6.95,7.95,-0.03,32.59
13682,0.3322,-0.025,0.8649,-6.99,8.03,0.0,32.59
13692,0.3317,-0.0258,0.8643,-6.93,8.05,0.02,32.61
13702,0.3319,-0.0269,0.8646,-7.02,8.08,-0.09,32.59
13712,0.3302,-0.0253,0.8643,-6.93,8.0,-0.03,32.61
13722,0.3318,-0.0251,0.8607,-7.01,8.05,0.0,32.62
13732,0.3289,-0.0244,0.8624,-6.96,8.05,0.02,32.61
13742,0.3322,-0.0249,0.8625,-6.9,8.0,-0.02,32.59
13752,0.3282,-0.0237,0.865,-6.93,8.02,-0.03,32.6
13762,0.3292,-0.0266,0.8702,-6.9,8.09,0.0,32.61
13772,0.3312,-0.0262,0.8644,-6.85,8.03,-0.05,32.6
13782,0.3329,-0.0255,0.8676,-6.87,7.92,-0.03,32.58
13792,0.3311,-0.0273,0.866,-6.99,7.97,-0.03,32.6
13802,0.3296,-0.0254,0.8685,-6.93,8.0,0.02,32.59
13812,0.332,-0.0251,0.8672,-6.98,7.97,-0.03,32.59
13822,0.3291,-0.025,0.873,-6.93,8.03,-0.05,32.61
13832,0.3279,-0.0258,0.8669,-6.98,8.02,0.05,32.59
13842,0.3328,-0.0238,0.8615,-6.98,8.0,-0.11,32.62
13852,0.3326,-0.0244,0.8656,-6.98,8.03,0.02,32.61
13862,0.3312,-0.0247,0.8663,-7.1,8.0,-0.08,32.59
13872,0.3304,-0.024,0.8701,-6.96,8.0,-0.05,32.61
13882,0.3313,-0.0292,0.8646,-6.9,8.03,-0.06,32.61
13892,0.3304,-0.0265,0.8689,-6.95,7.95,-0.03,32.62
13902,0.3301,-0.0289,0.864,-6.92,7.98,-0.03,32.6
13912,0.3309,-0.0264,0.8683,-6.85,8.0,-0.06,32.6
13922,0.3287,-0.0267,0.8668,-6.9,8.03,-0.06,32.61
13932,0.3287,-0.024,0.8651,-6.9,8.09,-0.08,32.59
13942,0.3303,-0.0262,0.8673,-6.93,8.06,-0.11,32.6
13952,0.3302,-0.025,0.8695,-7.01,7.98,0.02,32.61
13962,0.3311,-0.0265,0.8621,-6.89,8.0,-0.02,32.59
13972,0.3309,-0.027,0.8671,-7.07,8.02,-0.03,32.6
13982,0.3313,-0.0259,0.8646,-6.95,8.0,0.03,32.61
13992,0.3311,-0.0242,0.8669,-7.01,8.09,-0.09,32.63
14002,0.3314,-0.0259,0.8682,-7.02,8.03,0.0,32.6
14012,0.3314,-0.0251,0.866,-6.92,8.14,-0.06,32.61
14022,0.3311,-0.0233,0.8632,-7.04,8.03,-0.08,32.62
14032,0.3286,-0.0249,0.8673,-6.92,8.05,0.02,32.59
14042,0.33,-0.0277,0.87,-6.9,8.02,0.02,32.59
14052,0.3295,-0.0228,0.8673,-6.92,7.98,-0.08,32.61
14062,0.3312,-0.0245,0.8677,-6.92,8.02,-0.12,32.6
14072,0.3313,-0.0267,0.8671,-6.9,7.97,-0.02,32.62
14082,0.3326,-0.0242,0.8636,-6.9,8.08,-0.02,32.61
14092,0.327,-0.0281,0.8666,-6.95,8.02,-0.03,32.62
14102,0.3295,-0.025,0.8673,-6.99,8.0,-0.03,32.6
14112,0.3281,-0.0237,0.8611,-6.89,8.06,-0.06,32.62
14122,0.33,-0.0242,0.8647,-6.87,8.03,0.02,32.62
14132,0.3282,-0.0273,0.866,-7.02,8.05,-0.05,32.6
14142,0.33,-0.0253,0.8691,-6.95,7.98,-0.06,32.61
14152,0.3319,-0.0278,0.8655,-6.99,8.11,0.06,32.62
14162,0.3322,-0.0256,0.8676,-7.01,8.02,-0.03,32.58
14172,0.3296,-0.0236,0.8651,-7.01,8.0,-0.03,32.6
14183,0.3331,-0.0243,0.8696,-6.98,7.98,-0.08,32.61
14193,0.3303,-0.0251,0.8647,-6.92,8.0,-0.05,32.59
14203,0.3289,-0.0254,0.8687,-6.96,8.03,-0.03,32.61
14213,0.3279,-0.0261,0.8661,-6.93,8.02,0.02,32.61
14223,0.3286,-0.0256,0.866,-6.99,7.97,-0.02,32.6
14233,0.3308,-0.0259,0.865,-6.98,7.98,-0.05,32.6
14243,0.3307,-0.0283,0.8657,-6.89,8.08,-0.11,32.6
14253,0.3311,-0.0265,0.8632,-6.9,8.06,0.05,32.61
14263,0.3291,-0.0271,0.8661,-6.89,8.03,-0.03,32.62
14273,0.3314,-0.027,0.8689,-6.98,8.05,-0.06,32.6
14294,0.3336,-0.0256,0.8628,-6.93,8.08,-0.03,32.62
14304,0.3303,-0.0271,0.8655,-6.93,7.94,-0.09,32.57
14314,0.3298,-0.0255,0.8661,-6.98,8.06,-0.08,32.6
14324,0.3315,-0.0253,0.8617,-6.89,8.08,-0.02,32.62
14335,0.3306,-0.0253,0.8612,-6.79,7.92,-0.08,32.61
14345,0.3304,-0.0258,0.8679,-6.85,8.02,-0.08,32.6
14355,0.3307,-0.0254,0.8655,-6.89,8.02,-0.09,32.58
14365,0.3297,-0.0269,0.8661,-6.89,8.0,-0.03,32.61
14375,0.3306,-0.0297,0.8684,-6.9,8.08,-0.03,32.61
14385,0.3284,-0.024,0.8671,-6.99,8.03,-0.03,32.6
14395,0.3324,-0.0261,0.8679,-6.89,8.08,-0.08,32.62
14405,0.3281,-0.0278,0.8636,-6.95,8.0,-0.06,32.59
14415,0.3284,-0.026,0.8654,-6.98,8.02,-0.06,32.6
14425,0.328,-0.0265,0.8623,-7.04,8.03,0.0,32.61
14437,0.3293,-0.0253,0.8666,-6.9,8.05,-0.05,32.58
14447,0.3312,-0.0248,0.8649,-6.96,8.05,0.03,32.59
14457,0.3302,-0.0253,0.8674,-6.93,7.94,-0.14,32.62
14467,0.3285,-0.0249,0.8635,-6.87,8.03,-0.06,32.62
14477,0.3328,-0.0277,0.8649,-6.96,8.05,-0.02,32.62
14487,0.3286,-0.024,0.8655,-6.99,7.97,-0.08,32.62
14498,0.3291,-0.0227,0.8643,-6.89,7.98,0.02,32.62
14508,0.3298,-0.026,0.8655,-6.79,8.03,-0.02,32.62
14519,0.3304,-0.0244,0.8666,-6.89,8.08,-0.05,32.62
14529,0.3256,-0.0278,0.8679,-6.98,8.06,-0.08,32.6
14539,0.3314,-0.0251,0.8668,-6.89,8.08,0.05,32.6
14549,0.3303,-0.0276,0.8662,-6.93,8.06,0.02,32.61
14559,0.3297,-0.0251,0.8663,-6.98,7.98,-0.03,32.61
14569,0.3309,-0.0266,0.8658,-6.89,8.0,-0.05,32.6
14579,0.3314,-0.0264,0.8666,-6.95,8.12,-0.06,32.58
14589,0.3289,-0.0273,0.8652,-6.93,8.05,-0.06,32.6
14599,0.3293,-0.0281,0.8663,-6.92,8.06,-0.03,32.63
14609,0.3322,-0.0239,0.8666,-6.96,8.02,0.0,32.63
14619,0.3286,-0.0253,0.8651,-6.93,7.97,-0.11,32.61
14629,0.3286,-0.0261,0.8667,-6.87,7.95,0.0,32.59
14639,0.3284,-0.0245,0.8654,-6.96,8.09,-0.08,32.61
14649,0.3322,-0.0237,0.8644,-7.07,7.94,-0.11,32.61
14659,0.3303,-0.0236,0.87,-6.98,8.08,-0.09,32.6
14669,0.3303,-0.0258,0.8657,-6.92,7.98,0.03,32.6
14679,0.3328,-0.0254,0.8656,-6.99,7.98,-0.05,32.59
14689,0.3311,-0.024,0.8662,-6.95,8.09,0.0,32.59
14699,0.3301,-0.0265,0.8661,-6.95,8.02,-0.02,32.6
14709,0.3354,-0.0248,0.8665,-7.01,7.98,0.03,32.59
14719,0.3342,-0.0251,0.8656,-6.92,7.92,-0.03,32.62
14729,0.3311,-0.0237,0.8639,-6.96,8.02,-0.06,32.62
14739,0.3293,-0.0265,0.8619,-6.85,8.05,-0.05,32.61
14749,0.3308,-0.0275,0.8644,-6.85,7.94,-0.12,32.61
14759,0.3296,-0.0253,0.8658,-6.95,8.08,-0.14,32.59
14769,0.3314,-0.0234,0.8671,-6.84,8.05,-0.09,32.59
14779,0.332,-0.0259,0.8646,-6.89,8.02,0.05,32.61
14789,0.3284,-0.0233,0.8688,-6.96,8.09,-0.08,32.59
14799,0.327,-0.0264,0.8682,-6.99,8.0,-0.06,32.61
14809,0.3286,-0.0284,0.8665,-6.9,7.94,-0.09,32.63
14819,0.3302,-0.026,0.8668,-6.96,8.02,0.0,32.61
14829,0.3298,-0.0277,0.8678,-7.04,8.05,0.02,32.61
14839,0.3291,-0.0264,0.8649,-6.95,8.02,-0.02,32.57
14849,0.3302,-0.0232,0.8662,-6.99,8.06,0.02,32.59
14859,0.3318,-0.0237,0.8645,-6.93,7.98,-0.05,32.6
14869,0.3335,-0.0251,0.8644,-6.95,8.08,-0.02,32.62
14879,0.3331,-0.0239,0.8662,-6.89,8.06,-0.11,32.6
14889,0.3314,-0.0239,0.8641,-6.96,8.02,-0.06,32.61
14899,0.3322,-0.0271,0.8672,-6.98,8.08,-0.05,32.6
14909,0.3322,-0.0242,0.8671,-6.95,8.02,-0.03,32.61
14919,0.3308,-0.0237,0.8672,-6.95,8.02,-0.05,32.6
14929,0.3303,-0.0248,0.8669,-6.96,8.02,-0.05,32.61
14939,0.3289,-0.0232,0.866,-7.05,7.98,-0.05,32.58
14949,0.3301,-0.0247,0.869,-7.05,8.03,-0.03,32.59
14959,0.3292,-0.0261,0.8666,-6.9,8.05,0.02,32.58
14969,0.33,-0.0269,0.8612,-7.02,7.98,-0.02,32.58
14979,0.3313,-0.0271,0.865,-6.93,8.05,-0.02,32.62
14989,0.3315,-0.0265,0.8594,-6.96,8.02,-0.08,32.6
14999,0.3281,-0.0244,0.8636,-6.95,8.02,-0.06,32.59
15010,0.3303,-0.0251,0.865,-6.98,8.05,0.03,32.63
15020,0.3293,-0.0243,0.8651,-6.95,7.94,-0.09,32.59
15030,0.3289,-0.0273,0.8691,-6.92,8.0,-0.06,32.58
15040,0.3325,-0.0243,0.8671,-6.98,8.0,-0.05,32.61
15050,0.3308,-0.0237,0.8695,-6.9,7.97,-0.05,32.59
15060,0.3323,-0.027,0.8663,-7.07,8.03,-0.02,32.6
15070,0.3328,-0.0261,0.8619,-7.01,8.0,0.05,32.6
15080,0.3319,-0.0254,0.8634,-6.98,7.98,-0.02,32.59
15090,0.3328,-0.0237,0.8679,-6.93,8.02,0.06,32.62
15100,0.3363,-0.0276,0.8652,-6.93,7.97,-0.09,32.6
15110,0.3301,-0.0269,0.8641,-6.96,8.09,-0.02,32.62
15120,0.3301,-0.025,0.8652,-6.99,8.02,-0.03,32.6
15130,0.3282,-0.0229,0.8679,-6.9,8.0,-0.02,32.6
15140,0.3276,-0.0236,0.864,-6.9,8.05,-0.03,32.62
15150,0.3302,-0.0221,0.8652,-6.98,8.03,0.0,32.61
15160,0.3303,-0.0242,0.8628,-6.92,8.05,-0.02,32.61
15170,0.3304,-0.025,0.8678,-6.93,8.02,-0.03,32.62
15180,0.3308,-0.028,0.8663,-6.95,7.95,-0.06,32.59
15190,0.3301,-0.0281,0.8667,-6.92,8.02,-0.08,32.59
15200,0.3307,-0.0228,0.8658,-6.85,8.06,-0.12,32.61
15210,0.3324,-0.0231,0.8672,-6.95,8.08,-0.02,32.62
15220,0.3296,-0.0266,0.8625,-6.93,8.05,0.0,32.61
15230,0.329,-0.0226,0.8645,-6.84,8.03,0.05,32.59
15240,0.3302,-0.0251,0.865,-6.93,8.02,-0.11,32.6
15250,0.3297,-0.0245,0.8661,-6.99,7.98,-0.05,32.61
15260,0.3308,-0.0258,0.8665,-6.99,7.97,0.08,32.62
15270,0.3303,-0.0259,0.868,-6.95,8.05,-0.08,32.64
15280,0.3302,-0.0239,0.8706,-6.95,8.14,0.02,32.63
15290,0.3291,-0.0234,0.8677,-6.93,8.02,0.0,32.6
15300,0.3306,-0.0243,0.8652,-6.92,8.0,-0.08,32.61
15310,0.3322,-0.0265,0.8667,-6.95,8.08,-0.12,32.6
15320,0.3306,-0.0251,0.8696,-6.89,8.0,-0.03,32.61
15330,0.3319,-0.0253,0.8667,-7.02,8.05,-0.03,32.59
15340,0.3308,-0.0247,0.8636,-6.92,8.03,-0.06,32.6
15350,0.33,-0.0242,0.8661,-6.85,8.0,0.02,32.59
15360,0.3322,-0.026,0.8615,-6.95,7.92,-0.05,32.61
15370,0.3309,-0.0236,0.8693,-7.01,8.05,-0.05,32.61
15380,0.3307,-0.0256,0.8662,-6.92,7.95,-0.02,32.6
15390,0.3308,-0.025,0.8616,-6.92,7.91,-0.02,32.61
15400,0.3301,-0.0229,0.8655,-6.93,7.97,-0.05,32.61
15410,0.33,-0.0248,0.8639,-6.85,7.92,-0.05,32.6
15420,0.3314,-0.025,0.8652,-6.85,8.02,-0.06,32.59
15430,0.3291,-0.0251,0.8684,-6.89,8.02,-0.12,32.62
15440,0.3319,-0.026,0.8661,-6.96,8.02,-0.09,32.61
15450,0.3275,-0.0242,0.8673,-6.92,8.05,-0.02,32.61
15460,0.3325,-0.026,0.8613,-6.92,8.06,-0.08,32.62
15470,0.3281,-0.0258,0.861,-7.02,8.05,-0.09,32.61
15480,0.3302,-0.0253,0.8662,-6.96,7.86,-0.08,32.61
15490,0.33,-0.0262,0.8627,-7.05,8.08,-0.02,32.6
15500,0.33,-0.0249,0.8665,-6.9,8.03,-0.09,32.6
15510,0.3323,-0.0231,0.8641,-6.93,8.02,-0.08,32.61
15520,0.3302,-0.0259,0.8665,-6.85,8.05,-0.05,32.63
15530,0.3303,-0.0255,0.8662,-6.85,8.03,0.0,32.62
15540,0.3293,-0.026,0.8684,-6.93,7.97,-0.06,32.61
15550,0.3314,-0.0259,0.8678,-6.96,7.89,-0.03,32.62
15560,0.3281,-0.0267,0.8683,-6.96,8.0,-0.11,32.59
15570,0.3298,-0.0242,0.8682,-6.96,7.98,-0.05,32.62
15580,0.3297,-0.026,0.8684,-6.95,8.03,-0.08,32.59
15590,0.3292,-0.0265,0.8647,-6.9,8.05,0.02,32.59
15600,0.3324,-0.0243,0.8641,-6.98,8.02,-0.11,32.59
15610,0.3312,-0.0272,0.8643,-6.89,8.06,-0.05,32.6
15620,0.328,-0.0264,0.8661,-6.98,8.09,-0.05,32.61
15630,0.3309,-0.0247,0.8615,-7.01,8.08,-0.05,32.6
15640,0.3303,-0.0249,0.8624,-6.89,8.03,-0.09,32.61
15650,0.3286,-0.0231,0.8665,-7.01,7.95,-0.05,32.59
15660,0.3289,-0.025,0.8684,-6.95,8.03,-0.06,32.59
15670,0.3306,-0.0261,0.8657,-6.98,7.97,0.0,32.62
15680,0.3287,-0.0256,0.8696,-6.96,8.05,-0.03,32.6
15690,0.3314,-0.028,0.8691,-6.92,8.0,0.0,32.62
15700,0.3279,-0.0284,0.8715,-6.99,8.06,-0.11,32.62
15710,0.3297,-0.0239,0.8673,-6.95,7.94,-0.03,32.6
15720,0.3286,-0.0261,0.8672,-6.9,8.0,0.09,32.6
15730,0.3307,-0.0248,0.8668,-6.89,8.0,0.0,32.59
15740,0.3319,-0.0237,0.8685,-6.95,8.09,-0.06,32.62
15750,0.3341,-0.0225,0.8676,-6.96,8.05,-0.08,32.62
15760,0.3308,-0.0217,0.8655,-6.92,8.06,-0.05,32.64
15770,0.3281,-0.0272,0.8676,-6.98,8.03,-0.03,32.62
15780,0.3307,-0.0251,0.8639,-7.05,7.94,-0.02,32.59
15790,0.3311,-0.0262,0.8701,-6.87,8.0,-0.09,32.62
15800,0.329,-0.025,0.8701,-7.01,8.03,-0.02,32.62
15810,0.3313,-0.0248,0.8679,-6.96,8.03,0.02,32.61
15820,0.3291,-0.024,0.8708,-6.95,7.98,-0.09,32.6
15830,0.3282,-0.0229,0.8668,-6.95,8.0,-0.06,32.61
15840,0.3287,-0.026,0.8645,-6.93,8.03,-0.02,32.61
15850,0.3292,-0.0261,0.8644,-6.93,8.08,-0.03,32.62
15860,0.3298,-0.0264,0.8641,-6.99,8.09,-0.05,32.61
15870,0.3308,-0.027,0.8688,-7.11,8.06,-0.08,32.62
15880,0.3287,-0.0215,0.8663,-6.98,8.05,-0.11,32.61
15890,0.3298,-0.0229,0.8655,-6.92,8.06,-0.03,32.59
15900,0.3295,-0.0256,0.8641,-7.04,8.09,0.02,32.64
15910,0.3317,-0.0287,0.868,-6.89,8.09,0.0,32.62
15920,0.3317,-0.0262,0.8645,-6.95,8.05,0.05,32.62
15930,0.328,-0.025,0.8689,-6.96,8.03,-0.02,32.6
15940,0.3312,-0.0229,0.8654,-6.96,8.06,0.02,32.62
15950,0.3308,-0.0261,0.8647,-7.02,8.06,-0.08,32.59
15960,0.3303,-0.0234,0.868,-6.93,8.08,-0.08,32.59
15970,0.3279,-0.0258,0.8676,-6.92,8.06,0.02,32.62
15980,0.3292,-0.0234,0.869,-6.99,7.98,-0.09,32.62
15990,0.3274,-0.0254,0.8661,-7.04,7.98,-0.02,32.63
16000,0.3298,-0.0247,0.8685,-7.04,8.09,-0.03,32.64
16010,0.3314,-0.0243,0.8643,-6.96,8.05,-0.06,32.62
16020,0.3315,-0.025,0.8643,-6.99,8.09,0.06,32.62
16030,0.3286,-0.0245,0.8641,-6.99,8.05,-0.05,32.63
16040,0.3301,-0.0233,0.8652,-7.02,7.94,-0.06,32.59
16050,0.3281,-0.025,0.8636,-6.99,8.05,0.02,32.61
16060,0.3278,-0.0271,0.8661,-6.92,8.02,-0.08,32.6
16070,0.3291,-0.0239,0.8687,-7.08,8.09,-0.18,32.62
16080,0.3302,-0.0239,0.8701,-6.92,8.0,-0.08,32.63
16090,0.3285,-0.0264,0.8665,-6.95,8.09,-0.05,32.61
16100,0.3312,-0.0277,0.8683,-6.95,7.97,0.02,32.63
16110,0.333,-0.0249,0.8712,-6.93,7.98,-0.08,32.61
16120,0.332,-0.028,0.8645,-6.95,7.97,-0.06,32.62
16130,0.3307,-0.0253,0.8696,-7.01,8.03,-0.06,32.61
16140,0.3292,-0.0265,0.8665,-6.96,8.02,0.0,32.61
16150,0.332,-0.0247,0.87,-6.98,8.09,-0.09,32.63
16160,0.3304,-0.0243,0.8657,-6.95,8.09,-0.02,32.62
16170,0.3307,-0.0278,0.8673,-6.92,7.98,0.03,32.62
16180,0.3335,-0.0236,0.8684,-6.95,7.98,0.0,32.61
16190,0.3265,-0.0261,0.8666,-6.98,8.06,0.03,32.6
16200,0.3303,-0.0271,0.8673,-6.87,8.02,-0.03,32.62
16210,0.3274,-0.0271,0.8684,-7.01,7.91,0.05,32.62
16220,0.3311,-0.025,0.8704,-7.04,7.97,0.0,32.64
16230,0.3302,-0.0273,0.8706,-6.96,8.02,0.02,32.6
16240,0.3291,-0.0233,0.8651,-6.95,8.05,-0.05,32.61
16250,0.3303,-0.0226,0.8683,-6.93,8.05,-0.09,32.6
16260,0.3323,-0.0239,0.8665,-6.92,7.98,-0.12,32.61
16270,0.3322,-0.0245,0.8661,-6.96,8.0,-0.05,32.59
16280,0.3289,-0.0236,0.8654,-7.04,7.98,0.02,32.61
16290,0.3302,-0.0255,0.8617,-6.98,8.05,-0.08,32.62
16300,0.3282,-0.0272,0.8645,-6.9,8.03,-0.05,32.62
16310,0.3333,-0.025,0.8652,-6.98,8.06,-0.08,32.61
16320,0.3278,-0.028,0.8655,-6.96,7.98,-0.09,32.6
16330,0.33,-0.0254,0.8684,-7.02,8.06,-0.09,32.61
16340,0.3284,-0.0272,0.8715,-6.92,8.05,-0.11,32.62
16350,0.3301,-0.025,0.8654,-6.96,8.03,-0.02,32.59
16360,0.3308,-0.0248,0.866,-7.01,8.02,-0.03,32.62
16370,0.3329,-0.0229,0.8674,-7.02,8.06,0.0,32.6
16380,0.329,-0.0266,0.8661,-6.96,8.03,-0.03,32.64
16390,0.329,-0.0282,0.8654,-6.96,8.11,0.02,32.61
16400,0.3313,-0.0255,0.8649,-7.01,7.97,0.05,32.59
16410,0.3311,-0.0281,0.8602,-6.95,8.0,-0.03,32.61
16420,0.3306,-0.0265,0.865,-6.98,8.06,-0.03,32.64
16430,0.3312,-0.024,0.868,-6.96,8.02,-0.05,32.63
16440,0.3317,-0.0267,0.8651,-6.84,8.06,-0.02,32.6
16450,0.3298,-0.0284,0.869,-6.96,8.0,-0.12,32.6
16460,0.3314,-0.027,0.8691,-7.04,7.98,-0.06,32.64
16470,0.3292,-0.0238,0.8651,-7.01,8.03,-0.11,32.6
16480,0.3304,-0.0256,0.8669,-6.93,8.09,-0.03,32.62
16490,0.3303,-0.0273,0.8646,-6.93,8.02,-0.03,32.63
16500,0.3318,-0.0249,0.8627,-6.98,8.03,0.06,32.65
16510,0.3303,-0.0261,0.8582,-6.99,7.97,-0.05,32.61
16520,0.3328,-0.0253,0.8649,-6.99,8.02,-0.06,32.6
16530,0.3297,-0.0236,0.8615,-6.95,8.03,-0.03,32.6
16540,0.3301,-0.0253,0.8651,-7.01,8.0,-0.11,32.62
16550,0.3314,-0.0253,0.8665,-6.98,7.97,0.02,32.6
16560,0.3304,-0.0238,0.868,-6.98,7.91,-0.09,32.61
16570,0.3308,-0.0215,0.8658,-6.92,7.98,0.02,32.59
16580,0.329,-0.0247,0.8687,-6.93,8.03,-0.03,32.6
16590,0.3311,-0.0244,0.8674,-6.96,8.08,0.03,32.62
16600,0.333,-0.0245,0.8661,-6.9,8.06,-0.03,32.62
16610,0.3303,-0.0245,0.866,-6.85,8.03,-0.08,32.61
16620,0.3298,-0.027,0.8682,-6.95,7.95,0.0,32.62
16630,0.3289,-0.0262,0.8704,-6.96,8.03,-0.09,32.6
16640,0.3289,-0.0254,0.8647,-6.99,8.0,-0.05,32.61
16650,0.3282,-0.0267,0.8628,-6.93,8.0,-0.02,32.61
16660,0.3298,-0.026,0.8663,-6.95,7.98,-0.12,32.62
16670,0.3303,-0.0259,0.866,-6.96,8.02,-0.08,32.63
16680,0.3308,-0.0217,0.8658,-6.96,8.02,-0.03,32.62
16690,0.3295,-0.025,0.864,-6.92,8.08,-0.03,32.59
16700,0.3292,-0.027,0.8649,-6.99,7.97,0.03,32.62
16710,0.3306,-0.0244,0.8698,-7.02,8.02,-0.03,32.63
16720,0.3273,-0.024,0.8651,-7.02,8.02,-0.05,32.63
16730,0.3295,-0.0231,0.8658,-6.96,8.06,-0.06,32.62
16740,0.3311,-0.0264,0.8666,-6.89,8.09,-0.05,32.62
16751,0.3284,-0.0239,0.8645,-7.02,8.08,-0.11,32.61
16761,0.3312,-0.0248,0.8621,-6.93,8.15,-0.09,32.62
16771,0.3291,-0.0238,0.8651,-7.04,8.03,0.02,32.64
16781,0.3295,-0.0258,0.865,-6.9,8.03,0.05,32.61
16791,0.3309,-0.0273,0.8655,-6.95,7.97,-0.03,32.6
16801,0.3326,-0.0248,0.8668,-6.93,8.03,-0.08,32.62
16811,0.3313,-0.0262,0.8678,-6.98,8.03,-0.05,32.61
16821,0.3311,-0.0245,0.8654,-6.98,8.05,-0.08,32.62
16831,0.3285,-0.0264,0.865,-6.95,8.03,-0.09,32.64
16841,0.3275,-0.027,0.868,-6.95,7.98,-0.14,32.62
16851,0.3271,-0.0249,0.8643,-6.89,8.03,-0.05,32.63
16861,0.328,-0.0253,0.8651,-6.95,8.0,-0.03,32.61
16871,0.3297,-0.027,0.8667,-6.96,7.98,-0.03,32.63
16881,0.3329,-0.0256,0.8673,-6.87,8.08,0.03,32.62
16891,0.3296,-0.0267,0.8673,-6.85,8.05,0.0,32.62
16901,0.3315,-0.0267,0.8645,-6.95,7.98,-0.03,32.62
16911,0.3284,-0.0238,0.8633,-6.96,8.02,0.02,32.63
16921,0.3322,-0.0243,0.8669,-6.92,8.06,0.03,32.61
16931,0.3284,-0.0222,0.8665,-6.98,8.0,-0.06,32.61
16941,0.3324,-0.0219,0.8635,-6.96,8.0,0.0,32.62
16951,0.3304,-0.0242,0.8683,-6.93,8.05,-0.05,32.63
16961,0.3312,-0.0248,0.8669,-6.96,8.03,-0.06,32.61
16971,0.3289,-0.0244,0.8677,-6.99,8.02,0.03,32.61
16981,0.3301,-0.025,0.8682,-6.98,8.05,-0.02,32.61
16991,0.3315,-0.0283,0.8671,-6.96,8.03,-0.02,32.62
17001,0.3287,-0.0259,0.8683,-6.9,8.03,-0.05,32.63
17011,0.3286,-0.0248,0.8663,-6.85,8.02,-0.08,32.64
17021,0.3312,-0.0239,0.866,-6.95,8.03,0.0,32.62
17031,0.3308,-0.0239,0.8691,-7.01,8.08,0.0,32.62
17041,0.3295,-0.0233,0.8625,-6.89,8.02,0.03,32.63
17051,0.332,-0.0251,0.8669,-6.92,8.03,0.0,32.64
17061,0.3303,-0.0228,0.8624,-6.96,8.06,0.02,32.63
17071,0.3318,-0.0259,0.8633,-6.98,8.02,-0.09,32.61
17081,0.3309,-0.027,0.8629,-6.93,7.98,-0.03,32.62
17091,0.3297,-0.0266,0.8649,-6.89,8.06,-0.02,32.62
17101,0.3312,-0.0266,0.8671,-7.02,7.97,-0.08,32.62
17111,0.3298,-0.0264,0.8689,-6.95,7.98,-0.06,32.61
17121,0.3301,-0.0251,0.8677,-6.99,7.94,0.02,32.61
17131,0.3291,-0.0261,0.8646,-6.99,8.05,-0.09,32.63
17141,0.3309,-0.024,0.866,-6.92,8.11,-0.03,32.63
17151,0.3304,-0.0277,0.8624,-6.98,8.06,-0.05,32.63
17161,0.332,-0.0247,0.8641,-6.93,8.06,-0.09,32.61
17171,0.3282,-0.0262,0.8656,-6.93,8.05,0.02,32.63
17181,0.3301,-0.0266,0.8682,-6.81,7.97,0.02,32.64
17191,0.3291,-0.0253,0.8672,-6.95,8.0,-0.11,32.63
17201,0.3308,-0.0244,0.8636,-6.98,8.02,-0.03,32.63
17211,0.3302,-0.0259,0.8651,-7.02,8.05,-0.05,32.63
17221,0.3309,-0.025,0.8666,-7.01,8.0,-0.05,32.64
17231,0.3328,-0.0232,0.8628,-7.01,8.05,-0.06,32.64
17241,0.3313,-0.0251,0.8645,-6.9,8.15,-0.02,32.63
17251,0.3284,-0.0284,0.8612,-6.92,8.0,-0.02,32.64
17261,0.3292,-0.0272,0.8654,-6.92,8.11,0.0,32.62
17271,0.3303,-0.0259,0.8698,-6.93,8.0,-0.06,32.64
17281,0.3297,-0.0255,0.8695,-6.98,8.09,-0.09,32.61
17291,0.3301,-0.0243,0.8652,-6.96,7.98,-0.06,32.61
17301,0.3333,-0.026,0.8665,-6.96,8.02,-0.05,32.62
17311,0.3318,-0.0269,0.8655,-6.85,7.98,0.03,32.64
17321,0.3302,-0.0267,0.8674,-6.81,8.03,-0.03,32.68
17331,0.3315,-0.0265,0.8633,-6.98,8.0,-0.02,32.62
17341,0.3293,-0.0282,0.8695,-6.92,8.0,-0.06,32.61
17351,0.3312,-0.0271,0.8656,-6.96,8.0,0.0,32.62
17361,0.3307,-0.0262,0.8657,-6.9,8.0,-0.06,32.61
17371,0.3285,-0.0232,0.8671,-6.99,8.02,-0.08,32.64
17381,0.3314,-0.0234,0.8636,-6.99,8.03,-0.08,32.62
17391,0.3312,-0.0255,0.8678,-7.02,7.95,0.02,32.61
17401,0.3308,-0.0242,0.8652,-6.95,7.89,0.05,32.62
17411,0.3287,-0.0255,0.8673,-6.96,8.05,-0.11,32.61
17421,0.3309,-0.0276,0.8667,-6.92,8.05,-0.06,32.63
17431,0.3293,-0.025,0.8634,-6.9,8.03,-0.08,32.62
17441,0.3282,-0.0262,0.8702,-6.95,7.97,-0.11,32.63
17451,0.3318,-0.0229,0.8669,-6.95,8.08,-0.08,32.64
17461,0.3273,-0.0256,0.8674,-6.98,8.05,-0.05,32.62
17471,0.33,-0.0244,0.8661,-7.04,7.98,0.03,32.64
17481,0.3303,-0.0253,0.8638,-6.95,7.88,-0.03,32.62
17491,0.3284,-0.0253,0.8627,-6.93,8.11,-0.05,32.62
17501,0.329,-0.0249,0.8633,-6.93,8.0,-0.09,32.64
17511,0.3276,-0.0262,0.8678,-6.93,8.03,0.0,32.63
17521,0.3319,-0.0278,0.8652,-6.92,7.98,-0.12,32.64
17531,0.3292,-0.0275,0.8607,-7.02,7.98,-0.02,32.62
17541,0.3281,-0.0266,0.8705,-6.9,7.98,0.0,32.63
17551,0.3335,-0.0266,0.8678,-6.92,8.05,-0.06,32.65
17561,0.3301,-0.0247,0.8688,-6.93,8.06,-0.02,32.62
17571,0.3292,-0.0256,0.871,-6.9,8.08,0.0,32.63
17581,0.3314,-0.026,0.8718,-7.01,8.02,-0.02,32.63
17591,0.3328,-0.0243,0.8652,-6.98,8.03,-0.11,32.62
17601,0.3314,-0.0271,0.865,-7.02,8.02,0.03,32.64
17611,0.3265,-0.0258,0.8663,-6.93,8.03,-0.03,32.62
17621,0.3291,-0.0234,0.8635,-6.85,8.02,-0.09,32.63
17631,0.3289,-0.0234,0.8677,-6.95,8.03,-0.02,32.61
17641,0.3339,-0.0275,0.8683,-6.95,8.05,-0.09,32.64
17652,0.3304,-0.0258,0.8678,-6.95,8.02,-0.02,32.62
17662,0.3331,-0.026,0.8665,-6.79,8.03,-0.05,32.63
17672,0.3298,-0.0254,0.8669,-7.04,8.03,-0.06,32.63
17682,0.33,-0.0254,0.8666,-6.99,8.06,-0.06,32.62
17692,0.3291,-0.0251,0.8693,-6.93,8.11,-0.02,32.67
17702,0.3297,-0.0255,0.865,-6.93,7.98,-0.09,32.63
17712,0.3291,-0.0243,0.869,-6.98,8.03,-0.05,32.61
17722,0.3285,-0.0229,0.8633,-6.85,8.02,0.02,32.64
17732,0.3298,-0.0222,0.8629,-6.92,8.06,-0.03,32.64
17742,0.3301,-0.0219,0.8663,-7.01,7.94,-0.05,32.62
17752,0.3285,-0.0237,0.8627,-6.93,7.98,0.0,32.65
17762,0.3312,-0.0236,0.8688,-6.99,8.06,0.03,32.65
17772,0.3317,-0.0229,0.8651,-6.87,7.98,-0.05,32.63
17782,0.3314,-0.0262,0.8661,-6.95,8.05,-0.05,32.62
17792,0.3307,-0.0262,0.8674,-6.96,8.09,-0.06,32.62
17802,0.3312,-0.0264,0.8671,-6.95,7.97,-0.02,32.62
17812,0.3313,-0.026,0.8661,-6.9,8.06,-0.08,32.64
17822,0.329,-0.0244,0.8667,-6.96,8.09,-0.05,32.62
17832,0.3309,-0.0253,0.8657,-6.95,8.0,-0.02,32.62
17842,0.3285,-0.025,0.8646,-6.96,8.03,-0.06,32.63
17852,0.3286,-0.0256,0.8644,-6.99,8.0,-0.06,32.63
17862,0.3296,-0.0248,0.8654,-6.98,8.03,-0.03,32.64
17872,0.3306,-0.0249,0.8607,-6.96,8.02,-0.03,32.62
17882,0.3297,-0.0236,0.8685,-6.84,7.98,0.03,32.64
17892,0.33,-0.0231,0.8662,-7.01,7.91,0.0,32.64
17902,0.3302,-0.0275,0.8645,-7.02,8.0,-0.12,32.64
17912,0.3286,-0.0259,0.8619,-6.95,8.09,0.0,32.62
17922,0.3303,-0.0253,0.8658,-6.95,8.03,-0.02,32.61
17932,0.3297,-0.0243,0.8657,-7.01,8.05,-0.06,32.62
17942,0.3326,-0.0253,0.8647,-7.02,8.03,-0.15,32.63
17952,0.3303,-0.0227,0.8661,-6.98,8.0,-0.11,32.64
17962,0.3302,-0.0253,0.8654,-7.01,8.03,-0.06,32.62
17972,0.3308,-0.0262,0.8654,-6.95,7.97,-0.11,32.64
17982,0.329,-0.0265,0.8667,-7.02,8.0,-0.02,32.62
17992,0.3292,-0.0262,0.8666,-6.99,8.05,-0.02,32.62
18002,0.3313,-0.0233,0.8682,-6.96,8.05,-0.05,32.63
18012,0.3311,-0.027,0.8685,-6.93,8.05,-0.08,32.62
18022,0.3312,-0.0238,0.8656,-6.99,8.06,-0.11,32.63
18032,0.3303,-0.0281,0.8629,-6.92,7.97,-0.11,32.63
18042,0.3289,-0.0264,0.8693,-6.89,8.03,0.08,32.62
18052,0.3304,-0.0261,0.8632,-6.95,8.02,-0.06,32.6
18062,0.3309,-0.0277,0.8657,-7.05,8.03,-0.09,32.64
18072,0.3306,-0.0238,0.8676,-6.96,8.03,0.0,32.64
18083,0.3289,-0.0272,0.8668,-6.95,8.03,-0.05,32.65
18093,0.3279,-0.0258,0.8627,-6.92,8.08,0.0,32.61
18103,0.3263,-0.0243,0.8666,-6.93,8.03,0.0,32.61
18113,0.3303,-0.0276,0.8669,-7.02,8.02,-0.03,32.62
18123,0.3304,-0.0254,0.8635,-7.01,8.08,-0.03,32.62
18133,0.3322,-0.0244,0.8656,-6.95,7.98,0.0,32.64
18143,0.3323,-0.0253,0.8641,-6.98,8.0,0.0,32.61
18153,0.3315,-0.0231,0.8638,-6.96,8.0,-0.05,32.63
18163,0.3301,-0.027,0.8634,-6.96,7.94,-0.05,32.62
18173,0.3284,-0.0267,0.8635,-6.99,7.98,-0.05,32.64
18183,0.3291,-0.0249,0.8707,-7.01,8.14,-0.02,32.64
18193,0.3297,-0.0269,0.8698,-6.96,8.02,-0.06,32.63
18203,0.3301,-0.0236,0.8662,-6.93,8.08,-0.05,32.65
18213,0.3289,-0.028,0.8698,-6.98,8.05,-0.06,32.64
18223,0.328,-0.0242,0.8649,-6.93,8.0,-0.06,32.64
18233,0.3298,-0.0238,0.8689,-6.95,7.94,-0.03,32.64
18243,0.3314,-0.0254,0.8657,-6.93,7.97,-0.02,32.63
18253,0.3285,-0.0244,0.8661,-7.02,8.02,-0.02,32.63
18263,0.3319,-0.0249,0.8645,-7.08,8.05,-0.02,32.62
18274,0.3303,-0.0231,0.8625,-7.05,7.98,-0.03,32.63
18284,0.3306,-0.0244,0.8671,-7.02,8.03,-0.02,32.63
18296,0.3286,-0.0228,0.8657,-6.99,8.08,-0.09,32.64
18306,0.332,-0.0271,0.8639,-6.99,7.97,-0.03,32.64
18316,0.3286,-0.0269,0.8682,-7.01,8.03,-0.03,32.64
18326,0.3315,-0.0278,0.8717,-6.98,8.03,-0.08,32.62
18337,0.3307,-0.024,0.8691,-7.04,8.0,0.03,32.62
18347,0.3286,-0.0265,0.8678,-6.93,7.98,-0.02,32.62
18357,0.329,-0.0266,0.8679,-6.95,8.03,0.02,32.62
18367,0.329,-0.027,0.8666,-7.04,8.02,-0.02,32.63
18377,0.3297,-0.0286,0.8689,-6.89,8.02,0.0,32.64
18387,0.3265,-0.024,0.8688,-6.99,8.09,-0.05,32.62
18397,0.3287,-0.0222,0.8623,-6.92,8.03,0.0,32.62
18407,0.3287,-0.0225,0.8678,-6.93,8.05,0.03,32.63
18417,0.3296,-0.024,0.8654,-6.92,8.03,-0.06,32.62
18427,0.3324,-0.0255,0.8674,-6.95,8.0,-0.03,32.62
18437,0.3306,-0.0253,0.8676,-6.98,7.97,-0.11,32.61
18447,0.3301,-0.0249,0.8652,-6.98,8.03,-0.02,32.6
18457,0.3289,-0.0262,0.8665,-6.96,8.05,-0.06,32.62
18467,0.3307,-0.0254,0.8636,-6.99,8.06,-0.06,32.63
18477,0.3297,-0.0258,0.8671,-6.92,8.08,-0.06,32.62
18487,0.3309,-0.0256,0.8656,-6.89,8.03,-0.05,32.61
18497,0.3306,-0.0242,0.8633,-6.87,8.05,-0.05,32.64
18507,0.3306,-0.0254,0.8661,-6.85,8.05,-0.09,32.62
18518,0.3282,-0.024,0.8633,-7.02,8.03,-0.03,32.62
18528,0.3306,-0.0272,0.8619,-7.08,7.97,-0.05,32.64
18538,0.3296,-0.0251,0.87,-6.93,8.06,-0.06,32.62
18548,0.3347,-0.0228,0.8673,-6.92,8.02,0.0,32.62
18558,0.3309,-0.0288,0.8658,-7.04,7.94,-0.05,32.61
18569,0.3304,-0.0265,0.8647,-6.99,8.02,-0.03,32.6
18579,0.3319,-0.0258,0.8641,-6.96,7.97,0.09,32.62
18589,0.3291,-0.028,0.8695,-6.96,8.03,-0.06,32.62
18599,0.3295,-0.0244,0.868,-6.93,8.02,-0.03,32.65
18609,0.3295,-0.0266,0.8639,-6.99,8.06,-0.09,32.62
18619,0.3311,-0.0251,0.8651,-6.99,8.0,-0.06,32.63
18629,0.3296,-0.0253,0.865,-6.95,7.95,-0.03,32.63
18639,0.3276,-0.0259,0.8685,-6.96,8.0,-0.06,32.61
18649,0.33,-0.0294,0.8719,-6.93,8.02,-0.02,32.63
18659,0.3296,-0.0245,0.8654,-6.98,8.08,-0.09,32.64
18669,0.3293,-0.0247,0.865,-6.98,8.03,-0.08,32.63
18679,0.3304,-0.0282,0.8645,-6.96,7.98,-0.08,32.62
18689,0.3304,-0.0254,0.8698,-7.02,7.95,-0.08,32.64
18699,0.326,-0.0262,0.8683,-6.92,8.0,0.03,32.63
18709,0.3304,-0.0245,0.8669,-6.9,8.05,-0.02,32.63
18719,0.3274,-0.0239,0.8649,-7.02,8.05,0.06,32.63
18729,0.3333,-0.0239,0.8708,-6.9,7.92,-0.02,32.64
18739,0.3273,-0.0273,0.8673,-7.04,8.0,-0.06,32.6
18749,0.3308,-0.0234,0.8667,-7.01,8.06,-0.03,32.63
18759,0.327,-0.0266,0.8689,-6.92,8.03,-0.18,32.65
18769,0.3318,-0.0289,0.8645,-6.95,8.08,-0.06,32.67
18779,0.3317,-0.027,0.8616,-6.89,8.03,-0.02,32.65
18789,0.334,-0.0269,0.8641,-6.93,7.98,-0.02,32.64
18799,0.3313,-0.0264,0.8635,-6.9,8.08,0.0,32.65
18809,0.3306,-0.026,0.8607,-6.96,8.0,-0.06,32.64
18819,0.3315,-0.0272,0.8641,-7.02,8.05,-0.09,32.61
18829,0.3324,-0.0223,0.8677,-6.96,8.03,0.03,32.64
18839,0.3295,-0.0248,0.8662,-6.89,8.0,0.0,32.63
18849,0.3312,-0.0259,0.8676,-6.92,8.02,0.02,32.64
18859,0.3285,-0.0233,0.8641,-7.01,8.02,-0.08,32.63
18869,0.3289,-0.0238,0.8651,-7.01,8.05,-0.03,32.63
18880,0.3297,-0.0276,0.8684,-6.85,8.05,-0.05,32.64
18890,0.3292,-0.0248,0.8658,-6.93,8.03,-0.05,32.63
18900,0.3289,-0.0216,0.8676,-6.93,7.98,0.03,32.62
18910,0.3284,-0.0251,0.8633,-6.98,8.06,0.03,32.65
18920,0.3325,-0.0248,0.8651,-7.02,7.97,0.0,32.64
18930,0.3318,-0.0247,0.8672,-7.05,8.06,-0.02,32.65
18941,0.3278,-0.0242,0.8673,-6.99,7.94,-0.14,32.65
18951,0.3279,-0.0229,0.8685,-6.92,8.0,-0.06,32.62
18961,0.3282,-0.0251,0.8628,-6.99,8.02,-0.02,32.63
18971,0.3271,-0.0225,0.8667,-6.87,8.02,-0.06,32.64
18981,0.3289,-0.0264,0.8673,-6.92,7.95,-0.09,32.66
18991,0.3308,-0.0248,0.8636,-6.89,8.09,-0.05,32.63
19001,0.3274,-0.0272,0.868,-6.98,8.0,-0.05,32.64
19011,0.3309,-0.0251,0.8673,-6.95,8.05,-0.02,32.65
19021,0.3315,-0.0247,0.8689,-6.9,8.0,0.0,32.66
19031,0.3304,-0.0265,0.8661,-6.92,8.0,-0.03,32.62
19041,0.3313,-0.0264,0.8649,-7.02,8.06,-0.05,32.63
19051,0.3281,-0.024,0.8654,-6.95,8.06,-0.05,32.62
19061,0.3265,-0.0253,0.865,-6.9,8.03,-0.06,32.62
19071,0.3254,-0.0215,0.864,-6.96,8.0,-0.02,32.62
19081,0.3313,-0.0261,0.8633,-6.84,8.0,0.0,32.63
19091,0.3319,-0.0211,0.8629,-6.99,8.06,-0.03,32.63
19101,0.334,-0.0269,0.8633,-6.95,8.03,-0.02,32.61
19111,0.3311,-0.0261,0.8656,-6.96,8.05,0.02,32.65
19121,0.3311,-0.0243,0.8682,-6.95,8.03,-0.03,32.62
19131,0.3312,-0.0239,0.8671,-6.92,7.98,-0.03,32.63
19141,0.3301,-0.0245,0.8679,-6.99,7.95,-0.03,32.66
19151,0.3308,-0.0251,0.8656,-6.99,8.03,-0.11,32.65
19161,0.3324,-0.0254,0.8671,-6.96,8.08,-0.05,32.63
19171,0.3319,-0.0244,0.8663,-6.98,8.03,0.05,32.62
19181,0.3323,-0.0253,0.8623,-7.01,8.05,-0.03,32.64
19191,0.3326,-0.0247,0.8673,-7.02,8.06,-0.05,32.65
19201,0.3289,-0.025,0.8647,-6.93,7.98,-0.11,32.62
19211,0.3303,-0.0267,0.8677,-7.01,8.06,-0.03,32.62
19221,0.3307,-0.0256,0.8666,-6.98,8.05,0.0,32.65
19231,0.3291,-0.0226,0.8668,-6.92,8.02,-0.02,32.64
19241,0.3302,-0.0256,0.8677,-6.98,8.02,-0.08,32.65
19251,0.3309,-0.0258,0.8655,-6.98,8.02,-0.03,32.63
19261,0.3324,-0.0254,0.8672,-6.96,8.0,-0.06,32.65
19271,0.3307,-0.0272,0.8635,-7.01,8.0,-0.08,32.64
19281,0.3286,-0.0251,0.8647,-6.92,8.06,-0.08,32.63
19291,0.3295,-0.0258,0.8646,-6.9,7.94,0.0,32.63
19301,0.3314,-0.0289,0.8657,-6.9,7.97,-0.02,32.63
19311,0.3298,-0.0278,0.864,-7.02,8.05,-0.06,32.65
19321,0.3285,-0.0247,0.8707,-6.89,8.03,-0.08,32.64
19331,0.3311,-0.0269,0.8635,-6.96,7.98,0.03,32.64
19341,0.3306,-0.022,0.868,-6.96,8.05,0.0,32.62
19351,0.33,-0.0249,0.8694,-6.98,8.0,-0.09,32.61
19361,0.3302,-0.0256,0.8647,-6.85,7.95,-0.03,32.63
19371,0.3268,-0.0247,0.8673,-6.96,8.03,-0.05,32.62
19381,0.3324,-0.0244,0.8645,-6.9,8.02,0.05,32.65
19391,0.3292,-0.0258,0.8646,-6.87,8.08,-0.03,32.62
19401,0.329,-0.0239,0.8685,-6.9,8.03,0.02,32.62
19411,0.3292,-0.0242,0.8684,-6.89,7.97,0.05,32.63
19421,0.3295,-0.0253,0.8665,-6.96,8.08,-0.02,32.64
19431,0.3308,-0.0258,0.8646,-6.96,8.02,-0.09,32.62
19441,0.3292,-0.0264,0.8638,-6.98,8.02,-0.06,32.62
19451,0.3291,-0.0255,0.8669,-6.85,8.02,-0.05,32.63
19461,0.3284,-0.0261,0.865,-7.02,8.05,-0.06,32.64
19471,0.3304,-0.0253,0.8629,-6.93,8.05,0.0,32.62
19481,0.3293,-0.0254,0.8687,-6.92,8.05,0.03,32.65
19491,0.3309,-0.0244,0.8604,-6.93,8.06,-0.06,32.66
19501,0.3306,-0.0256,0.8658,-6.98,7.95,-0.09,32.64
19511,0.3318,-0.0254,0.863,-6.99,8.03,-0.02,32.64
19521,0.3291,-0.0237,0.8645,-6.89,8.11,-0.02,32.66
19531,0.3308,-0.0271,0.8622,-6.89,8.06,0.0,32.64
19541,0.3313,-0.0261,0.8645,-6.93,7.92,0.03,32.63
19551,0.3292,-0.0238,0.8645,-6.95,7.98,-0.05,32.63
19561,0.3297,-0.0248,0.8652,-6.93,8.06,-0.06,32.62
19571,0.329,-0.0209,0.8699,-6.89,8.06,-0.06,32.65
19581,0.3298,-0.0227,0.8716,-6.98,8.05,0.02,32.62
19591,0.3303,-0.0239,0.8672,-6.9,8.02,-0.08,32.64
19601,0.329,-0.0229,0.8682,-6.99,7.98,0.0,32.65
19611,0.3315,-0.0234,0.865,-6.99,8.02,0.03,32.66
19621,0.3302,-0.0247,0.868,-6.89,8.0,-0.02,32.65
19631,0.3345,-0.0232,0.8617,-6.96,7.98,0.0,32.65
19641,0.3318,-0.0259,0.8678,-6.98,8.03,-0.05,32.65
19651,0.3325,-0.0243,0.8661,-7.01,8.08,-0.02,32.64
19661,0.3287,-0.0281,0.8678,-7.04,7.98,-0.05,32.65
19671,0.3302,-0.0273,0.863,-6.98,7.98,0.0,32.62
19681,0.3311,-0.0259,0.8673,-7.07,8.03,-0.05,32.65
19691,0.3286,-0.0262,0.8645,-6.95,8.02,-0.08,32.65
19701,0.3275,-0.0271,0.8651,-6.93,7.98,-0.09,32.64
19711,0.3307,-0.0267,0.8657,-6.98,8.0,-0.03,32.63
19721,0.3287,-0.0242,0.8641,-6.95,8.09,-0.12,32.63
19731,0.332,-0.0254,0.8658,-6.93,8.03,-0.03,32.62
19741,0.3322,-0.0205,0.8649,-6.96,8.08,0.03,32.62
19751,0.3329,-0.0265,0.864,-7.05,8.08,-0.08,32.65
19761,0.3286,-0.028,0.8699,-6.96,8.02,-0.03,32.64
19771,0.3292,-0.0222,0.8634,-7.04,8.02,-0.09,32.63
19781,0.3293,-0.0254,0.8663,-7.07,8.09,-0.08,32.65
19791,0.3302,-0.0264,0.8668,-6.93,7.97,-0.02,32.63
19801,0.3302,-0.0253,0.8687,-6.95,8.03,-0.03,32.66
19811,0.3318,-0.0276,0.865,-6.96,7.95,0.06,32.65
19821,0.3308,-0.0261,0.8677,-6.95,8.09,-0.05,32.63
19831,0.3302,-0.0265,0.8719,-6.96,8.06,0.02,32.64
19841,0.3297,-0.0256,0.8646,-7.02,8.09,0.0,32.64
19851,0.3312,-0.0251,0.8668,-6.92,8.02,-0.06,32.65
19861,0.3297,-0.0238,0.8596,-6.89,8.03,-0.02,32.62
19871,0.3295,-0.0264,0.865,-6.98,8.03,0.03,32.64
19881,0.3307,-0.0227,0.8665,-6.95,7.98,0.03,32.63
19891,0.3293,-0.0262,0.8629,-6.93,8.03,-0.09,32.64
19901,0.3331,-0.0238,0.8627,-6.84,8.0,-0.05,32.66
19911,0.3302,-0.0262,0.8589,-7.05,7.94,-0.09,32.66
19921,0.3302,-0.0225,0.8661,-6.96,8.03,-0.09,32.65
19931,0.3333,-0.0237,0.8661,-7.01,8.03,-0.11,32.63
19941,0.332,-0.024,0.8666,-6.98,8.17,-0.03,32.63
19951,0.3313,-0.0265,0.8687,-6.93,8.06,-0.02,32.66
19961,0.3342,-0.0231,0.8661,-6.99,8.05,-0.02,32.64
19971,0.3309,-0.026,0.8666,-7.02,8.02,-0.08,32.65
19981,0.3296,-0.0261,0.8622,-6.96,8.11,-0.03,32.64
19991,0.329,-0.0271,0.8665,-6.9,8.03,-0.02,32.63
20001,0.3293,-0.0254,0.8651,-6.89,8.09,-0.09,32.65
20011,0.33,-0.0271,0.8651,-6.9,8.03,-0.02,32.63
20021,0.3274,-0.0264,0.8635,-6.98,7.97,-0.08,32.66
20031,0.3269,-0.0244,0.863,-6.98,8.03,-0.05,32.61
20041,0.3312,-0.0242,0.8667,-7.05,7.92,-0.06,32.66
20051,0.3289,-0.0265,0.8696,-6.95,8.08,0.03,32.65
20061,0.3281,-0.0261,0.8644,-7.02,8.02,-0.05,32.65
20071,0.3308,-0.0278,0.8654,-6.96,7.98,0.02,32.63
20081,0.3324,-0.0242,0.8676,-7.01,8.0,-0.02,32.64
20091,0.3295,-0.0248,0.8654,-7.04,7.95,-0.03,32.65
20101,0.3291,-0.0256,0.8667,-6.93,8.06,0.0,32.62
20111,0.3302,-0.0247,0.8651,-6.93,7.92,0.02,32.62
20121,0.3322,-0.0261,0.8612,-7.05,7.98,-0.05,32.63
20131,0.3323,-0.0245,0.8641,-6.99,7.98,0.02,32.64
20141,0.3322,-0.0291,0.8612,-6.92,8.06,0.02,32.66
20151,0.3298,-0.0264,0.8676,-6.92,7.95,-0.08,32.65
20161,0.3293,-0.0277,0.8658,-7.04,8.15,-0.08,32.65
20171,0.3297,-0.0265,0.865,-6.95,7.92,-0.06,32.63
20181,0.329,-0.0265,0.8627,-7.01,8.0,-0.09,32.64
20191,0.3304,-0.0269,0.8679,-6.9,8.03,-0.06,32.66
20201,0.3302,-0.0234,0.8649,-6.93,8.08,-0.09,32.63
20211,0.3297,-0.0265,0.8655,-7.04,8.09,-0.05,32.64
20221,0.3292,-0.024,0.8671,-6.93,8.05,-0.05,32.64
20231,0.332,-0.0223,0.8666,-6.93,8.02,-0.05,32.65
20241,0.3304,-0.026,0.8621,-6.93,8.06,-0.11,32.66
20251,0.3297,-0.0249,0.8661,-6.96,8.0,-0.03,32.66
20261,0.3344,-0.0237,0.8674,-6.9,8.08,-0.08,32.66
20271,0.333,-0.0232,0.8654,-7.1,8.05,-0.06,32.65
20281,0.3326,-0.0261,0.8638,-6.96,8.06,-0.05,32.65
20291,0.3291,-0.0243,0.8694,-7.01,8.02,-0.03,32.66
20301,0.333,-0.0244,0.8649,-7.07,7.97,-0.05,32.63
20311,0.3322,-0.0261,0.8625,-6.9,8.09,0.05,32.65
20321,0.3307,-0.0244,0.8655,-7.02,7.97,0.06,32.64
20331,0.3318,-0.0259,0.8665,-6.93,7.92,0.0,32.63
20341,0.3303,-0.0269,0.8647,-6.96,8.02,-0.12,32.66
20351,0.3317,-0.028,0.8696,-7.01,8.0,0.03,32.65
20361,0.3301,-0.0249,0.8684,-6.93,8.02,-0.08,32.65
20371,0.3303,-0.027,0.8699,-6.87,8.05,-0.03,32.65
20381,0.3306,-0.0239,0.8685,-6.93,7.98,0.0,32.64
20391,0.3304,-0.0247,0.8719,-6.92,8.05,-0.03,32.65
20401,0.3301,-0.0223,0.8661,-6.85,8.08,-0.06,32.68
20411,0.328,-0.0265,0.8667,-6.89,8.08,-0.08,32.67
20421,0.3298,-0.0232,0.8666,-6.99,8.03,-0.03,32.65
20431,0.3309,-0.0239,0.8643,-6.96,8.05,0.02,32.66
20441,0.3317,-0.0259,0.8658,-6.93,8.0,-0.05,32.67
20451,0.3317,-0.025,0.868,-6.96,8.0,-0.02,32.66
20461,0.334,-0.0249,0.8635,-6.85,8.05,0.0,32.66
20471,0.3325,-0.0243,0.8644,-6.82,8.03,0.0,32.63
20481,0.3282,-0.0262,0.8639,-6.89,7.98,-0.12,32.65
20491,0.3286,-0.0232,0.8676,-6.99,8.06,-0.05,32.63
20501,0.3314,-0.0254,0.8657,-6.98,8.06,-0.05,32.64
20512,0.3268,-0.0247,0.8617,-6.96,8.08,-0.11,32.65
20522,0.3265,-0.0243,0.8639,-6.98,7.98,-0.06,32.67
20532,0.3308,-0.0227,0.8663,-6.9,8.06,-0.02,32.66
20542,0.3278,-0.026,0.8606,-7.07,8.05,-0.02,32.64
20552,0.3318,-0.0275,0.8661,-6.96,7.97,-0.02,32.62
20562,0.3304,-0.026,0.8661,-6.93,8.03,0.03,32.65
20572,0.3307,-0.0256,0.8628,-6.92,7.98,-0.06,32.66
20582,0.3304,-0.0272,0.8641,-6.99,8.06,-0.05,32.67
20592,0.3268,-0.0244,0.8651,-6.92,8.09,0.0,32.65
20602,0.3328,-0.0269,0.8616,-6.84,7.95,0.0,32.65
20612,0.327,-0.0259,0.8663,-7.04,7.98,-0.05,32.64
20622,0.3296,-0.0273,0.8635,-6.87,8.0,-0.09,32.67
20632,0.33,-0.0233,0.8651,-6.89,7.95,-0.02,32.67
20642,0.3286,-0.0255,0.8669,-6.93,8.0,-0.03,32.64
20652,0.328,-0.0256,0.864,-6.92,8.0,-0.03,32.63
20662,0.3314,-0.0247,0.8672,-6.92,8.0,-0.06,32.66
20672,0.3306,-0.0234,0.8705,-7.04,8.14,-0.03,32.65
20682,0.3303,-0.0278,0.8611,-7.01,8.03,-0.03,32.67
20692,0.3333,-0.0244,0.8645,-6.84,7.97,-0.02,32.66
20702,0.3295,-0.0265,0.8668,-6.93,7.98,-0.02,32.66
20712,0.3284,-0.0249,0.8657,-6.93,8.03,-0.11,32.67
20722,0.3301,-0.0265,0.8685,-6.99,8.03,-0.15,32.67
20732,0.3312,-0.025,0.8652,-6.95,8.05,-0.08,32.66
20742,0.3306,-0.0269,0.8658,-7.04,8.06,-0.03,32.65
20752,0.333,-0.0248,0.8666,-6.99,8.03,-0.03,32.64
20762,0.332,-0.0226,0.8682,-6.9,8.02,-0.02,32.65
20772,0.3308,-0.0225,0.8677,-6.99,8.05,0.0,32.65
20782,0.3292,-0.0227,0.8649,-6.98,8.0,-0.02,32.64
20792,0.3314,-0.0254,0.8668,-6.78,8.0,-0.14,32.64
20802,0.3304,-0.0269,0.8705,-6.95,7.95,-0.06,32.66
20812,0.3286,-0.0238,0.8643,-7.01,8.08,0.03,32.65
20822,0.3289,-0.0258,0.8684,-6.98,8.05,0.0,32.66
20832,0.3322,-0.0262,0.8668,-7.01,8.08,-0.02,32.64
20842,0.3306,-0.024,0.8668,-6.95,8.03,0.0,32.66
20852,0.3317,-0.0237,0.8652,-7.04,8.02,0.0,32.66
20862,0.3326,-0.0242,0.8629,-6.93,8.02,0.0,32.67
20872,0.3281,-0.0242,0.8671,-6.98,8.02,-0.05,32.66
20882,0.3282,-0.0243,0.8698,-6.96,8.06,-0.02,32.65
20892,0.332,-0.0253,0.8687,-6.84,8.0,-0.08,32.65
20902,0.3323,-0.028,0.8667,-6.95,8.08,0.0,32.67
20912,0.3307,-0.0261,0.8668,-7.01,8.05,-0.06,32.66
20922,0.3328,-0.025,0.8656,-6.9,7.98,0.06,32.64
20932,0.3273,-0.026,0.8693,-6.98,8.05,-0.06,32.64
20942,0.3301,-0.0272,0.8678,-6.98,8.05,0.02,32.66
20952,0.3317,-0.0264,0.8617,-6.98,8.0,-0.05,32.64
20962,0.3318,-0.0233,0.8646,-6.96,8.11,-0.06,32.66
20972,0.3298,-0.0239,0.8621,-6.9,8.09,0.03,32.66
20982,0.3292,-0.0222,0.8687,-6.93,7.98,-0.03,32.65
20992,0.3304,-0.0273,0.8657,-6.96,7.92,-0.02,32.67
21002,0.3304,-0.0278,0.8688,-6.95,8.03,-0.02,32.67
21012,0.3329,-0.0258,0.8661,-6.96,8.03,0.02,32.66
21022,0.3339,-0.0288,0.8677,-6.95,8.02,-0.09,32.66
21032,0.3324,-0.025,0.8693,-6.92,7.97,-0.09,32.66
21042,0.3293,-0.027,0.868,-6.98,8.08,-0.05,32.67
21052,0.328,-0.0239,0.8652,-6.96,8.0,-0.11,32.65
21062,0.3311,-0.025,0.8674,-6.99,8.06,-0.09,32.66
21072,0.3285,-0.026,0.861,-6.98,8.0,-0.03,32.65
21082,0.3317,-0.0245,0.8658,-7.01,8.03,-0.06,32.63
21092,0.3303,-0.0247,0.8671,-6.92,8.09,0.0,32.65
21102,0.3323,-0.026,0.8654,-7.01,8.03,0.05,32.66
21112,0.3336,-0.0215,0.8646,-6.87,7.97,-0.06,32.65
21122,0.332,-0.0248,0.8652,-7.02,8.02,0.03,32.67
21132,0.3282,-0.0242,0.8645,-6.99,8.05,-0.08,32.65
21142,0.3293,-0.0249,0.8662,-6.99,8.0,-0.06,32.66
21152,0.3285,-0.0245,0.8662,-7.05,8.03,-0.03,32.66
21162,0.3306,-0.0264,0.8665,-6.96,7.98,-0.17,32.68
21172,0.3309,-0.0265,0.8677,-6.93,8.02,-0.06,32.65
21182,0.3323,-0.0264,0.8683,-6.89,7.97,0.02,32.68
21192,0.3318,-0.0249,0.8668,-6.89,8.05,0.02,32.66
21202,0.3328,-0.0234,0.8663,-6.93,8.06,0.0,32.64
21212,0.3313,-0.0259,0.863,-6.98,8.09,0.02,32.64
21222,0.3306,-0.0222,0.8684,-6.85,8.0,-0.11,32.69
21232,0.329,-0.025,0.869,-6.93,8.0,-0.03,32.66
21242,0.3319,-0.0273,0.8635,-6.92,8.03,0.0,32.66
21252,0.3284,-0.0262,0.8672,-6.93,7.97,-0.05,32.67
21262,0.3308,-0.025,0.8699,-6.87,8.05,0.02,32.65
21272,0.327,-0.0292,0.8685,-6.92,8.09,-0.06,32.64
21285,0.3326,-0.0254,0.8665,-6.93,8.0,-0.11,32.64
21296,0.3306,-0.0247,0.8649,-6.93,8.05,-0.09,32.68
21306,0.3307,-0.0233,0.8682,-6.93,8.0,0.0,32.66
21316,0.3276,-0.0253,0.869,-6.99,8.03,0.0,32.67
21326,0.3326,-0.0243,0.8685,-7.05,8.09,-0.05,32.65
21336,0.3308,-0.0231,0.8684,-7.02,8.08,-0.06,32.67
21346,0.3301,-0.0259,0.8671,-7.01,7.92,-0.02,32.65
21356,0.3317,-0.0253,0.8672,-6.98,7.98,-0.05,32.65
21366,0.3304,-0.0272,0.8636,-6.98,8.08,-0.05,32.64
21376,0.328,-0.0239,0.8652,-6.99,8.12,-0.09,32.66
21386,0.3282,-0.026,0.8656,-6.95,8.03,0.0,32.66
21396,0.3336,-0.0261,0.8649,-7.02,8.05,0.0,32.67
21406,0.3292,-0.0264,0.863,-7.01,8.05,-0.05,32.66
21416,0.3319,-0.0249,0.8672,-6.98,7.91,0.02,32.65
21426,0.3317,-0.0272,0.8693,-6.99,8.08,0.11,32.64
21436,0.3324,-0.0266,0.8674,-6.98,7.95,-0.05,32.66
21446,0.3309,-0.0231,0.8711,-6.95,7.97,-0.02,32.63
21457,0.3301,-0.0273,0.8656,-6.92,8.02,0.06,32.66
21467,0.3295,-0.0249,0.8669,-6.96,7.98,0.02,32.68
21477,0.332,-0.0244,0.8669,-6.99,8.05,-0.02,32.65
21487,0.3286,-0.0228,0.866,-6.93,8.02,-0.02,32.66
21497,0.3306,-0.0276,0.8698,-6.98,8.05,-0.12,32.66
21507,0.3285,-0.0238,0.8627,-6.84,7.92,0.0,32.66
21517,0.3304,-0.0262,0.8682,-6.99,8.02,0.0,32.66
21527,0.3318,-0.0232,0.8679,-6.98,7.97,0.0,32.64
21537,0.3296,-0.0267,0.8641,-6.9,8.02,-0.06,32.64
21547,0.3326,-0.0273,0.8679,-6.98,8.08,-0.05,32.63
21557,0.3306,-0.0245,0.8666,-6.93,8.02,-0.02,32.64
21567,0.3319,-0.0283,0.8676,-6.96,8.02,-0.09,32.66
21577,0.3313,-0.0255,0.8668,-6.98,8.02,0.0,32.65
21587,0.3329,-0.0267,0.868,-7.01,8.02,0.0,32.66
21597,0.3303,-0.0229,0.8691,-6.95,7.97,-0.06,32.65
21607,0.3307,-0.0244,0.8657,-7.02,8.03,-0.03,32.66
21617,0.329,-0.025,0.8654,-7.01,8.03,-0.05,32.65
21627,0.3292,-0.0253,0.8627,-6.92,8.0,-0.05,32.65
21637,0.3308,-0.0254,0.8687,-6.95,7.95,0.02,32.67
21647,0.3284,-0.0226,0.8662,-6.87,8.03,-0.12,32.65
21657,0.3293,-0.027,0.8646,-6.99,8.03,-0.06,32.66
21667,0.3308,-0.0277,0.8662,-6.98,7.89,0.0,32.66
21677,0.3289,-0.0267,0.8669,-6.92,8.0,-0.11,32.67
21687,0.3318,-0.0281,0.8651,-6.89,7.98,-0.09,32.65
21697,0.3301,-0.0265,0.8708,-6.95,8.06,-0.09,32.63
21707,0.3301,-0.024,0.8645,-6.95,8.12,-0.02,32.66
21717,0.3298,-0.0249,0.8673,-6.95,8.02,-0.08,32.65
21729,0.3296,-0.0266,0.8687,-6.89,7.97,-0.02,32.66
21739,0.3311,-0.0262,0.8634,-6.98,8.0,-0.08,32.65
21749,0.332,-0.0275,0.865,-6.98,8.0,0.03,32.66
21759,0.3307,-0.0242,0.864,-6.87,8.03,0.0,32.64
21769,0.3303,-0.0281,0.8685,-6.92,8.03,-0.03,32.65
21779,0.333,-0.025,0.8655,-7.02,8.05,-0.02,32.66
21789,0.3315,-0.0259,0.8711,-6.95,8.06,-0.06,32.66
21799,0.3303,-0.0261,0.8663,-6.95,8.08,0.03,32.64
21809,0.33,-0.0256,0.8639,-7.01,8.0,0.0,32.67
21819,0.3323,-0.0253,0.8677,-6.92,8.05,0.0,32.68
21829,0.3282,-0.0272,0.8668,-6.93,8.02,-0.05,32.64
21839,0.3295,-0.0256,0.868,-6.93,7.97,-0.05,32.65
21849,0.3301,-0.0251,0.8654,-6.95,8.0,-0.05,32.67
21859,0.3315,-0.0269,0.8667,-7.05,8.02,-0.08,32.65
21869,0.334,-0.0259,0.8661,-6.98,7.98,-0.05,32.66
21879,0.3292,-0.0248,0.8644,-6.96,8.11,-0.06,32.68
21889,0.3317,-0.026,0.8672,-6.93,8.06,-0.09,32.65
21899,0.3297,-0.0258,0.86,-6.92,8.09,-0.06,32.64
21909,0.332,-0.0237,0.8685,-6.87,8.0,-0.08,32.65
21919,0.3313,-0.0244,0.8643,-6.95,8.0,-0.03,32.67
21929,0.3282,-0.0278,0.8683,-7.07,8.08,-0.03,32.64
21939,0.3291,-0.0269,0.8688,-6.95,7.97,-0.09,32.65
21949,0.3313,-0.0271,0.8667,-7.02,7.98,-0.06,32.65
21959,0.3285,-0.0261,0.8679,-7.01,7.97,-0.06,32.66
21969,0.3314,-0.0254,0.8655,-7.05,8.05,-0.05,32.63
21979,0.3312,-0.0271,0.864,-6.9,8.03,-0.08,32.64
21989,0.3306,-0.024,0.8657,-6.92,8.02,-0.02,32.63
21999,0.3322,-0.0229,0.8627,-6.87,8.06,-0.06,32.66
22009,0.3308,-0.0232,0.8689,-6.95,8.0,-0.02,32.65
22019,0.329,-0.0267,0.8649,-6.93,8.03,0.0,32.64
22029,0.3304,-0.0249,0.8629,-6.93,8.02,-0.02,32.65
22039,0.3271,-0.0272,0.865,-6.99,8.06,-0.02,32.65
22049,0.3298,-0.0236,0.8657,-6.9,8.02,-0.11,32.65
22059,0.3276,-0.0265,0.8669,-6.95,7.91,-0.05,32.66
22069,0.3296,-0.0264,0.8674,-6.85,8.02,-0.03,32.64
22079,0.3275,-0.0267,0.866,-6.93,8.05,-0.05,32.66
22089,0.3326,-0.0259,0.8678,-6.89,8.06,-0.06,32.62
22099,0.329,-0.0271,0.8685,-6.95,8.06,-0.03,32.64
22109,0.3322,-0.0276,0.8647,-6.98,7.98,-0.06,32.68
22119,0.3291,-0.0272,0.8666,-6.92,8.03,0.0,32.67
22129,0.332,-0.0258,0.864,-7.01,8.03,0.0,32.66
22140,0.3296,-0.0225,0.8663,-6.98,8.02,0.02,32.66
22150,0.3315,-0.0262,0.8636,-6.96,8.08,0.0,32.65
22160,0.332,-0.0256,0.8622,-6.98,8.06,0.03,32.67
22170,0.3296,-0.0265,0.8617,-6.92,7.98,-0.03,32.69
22180,0.329,-0.0228,0.8677,-6.92,8.02,-0.05,32.67
22190,0.3297,-0.0269,0.8658,-6.99,8.03,-0.05,32.66
22200,0.3312,-0.0244,0.8643,-6.95,8.0,-0.05,32.65
22210,0.3313,-0.0258,0.8672,-7.04,7.98,-0.03,32.64
22220,0.3336,-0.0238,0.8685,-6.99,7.98,0.0,32.67
22230,0.3303,-0.026,0.8618,-6.9,7.98,-0.08,32.67
22240,0.3322,-0.0273,0.8672,-6.84,7.94,-0.03,32.66
22250,0.3306,-0.0251,0.8702,-7.04,7.98,-0.05,32.65
22260,0.3309,-0.0238,0.8656,-6.99,8.08,-0.02,32.65
22270,0.3287,-0.0258,0.8665,-6.89,8.11,-0.11,32.65
22280,0.3286,-0.0237,0.8657,-6.93,8.06,-0.03,32.64
22290,0.3312,-0.0238,0.8627,-6.99,8.02,0.0,32.66
22300,0.3301,-0.0253,0.8632,-6.99,8.03,-0.05,32.67
22310,0.3304,-0.0227,0.864,-7.01,8.02,-0.02,32.64
22320,0.3289,-0.0275,0.8661,-6.99,8.02,-0.02,32.65
22330,0.3331,-0.024,0.8632,-6.93,8.06,-0.02,32.67
22340,0.3285,-0.0244,0.8632,-7.01,8.02,-0.06,32.67
22350,0.3291,-0.0262,0.8636,-6.99,7.98,0.0,32.66
22360,0.3275,-0.0277,0.8639,-6.9,8.02,-0.05,32.66
22370,0.3311,-0.027,0.8658,-6.9,8.03,-0.02,32.66
22380,0.3292,-0.0248,0.8649,-6.85,8.0,-0.06,32.65
22390,0.3301,-0.0269,0.8638,-6.9,8.0,-0.05,32.65
22400,0.3309,-0.0232,0.8691,-6.9,8.03,-0.06,32.65
22410,0.3319,-0.0262,0.864,-6.98,7.97,-0.08,32.65
22420,0.3289,-0.0243,0.8644,-6.96,8.02,0.05,32.64
22430,0.3306,-0.0227,0.8634,-7.07,8.08,-0.05,32.67
22440,0.3307,-0.0267,0.8667,-7.02,8.05,-0.08,32.64
22450,0.3291,-0.0253,0.8656,-6.85,8.08,0.05,32.67
22460,0.3309,-0.0248,0.8656,-6.92,8.0,-0.03,32.69
22470,0.3287,-0.0267,0.8678,-7.05,7.94,0.0,32.66
22480,0.3315,-0.0225,0.8639,-6.89,8.11,-0.03,32.64
22490,0.3312,-0.0238,0.8651,-7.01,8.03,-0.02,32.66
22500,0.3303,-0.0242,0.8605,-6.93,8.0,-0.03,32.66
22510,0.33,-0.0253,0.8678,-6.87,7.94,-0.02,32.65
22520,0.3282,-0.0244,0.8702,-6.93,8.06,0.05,32.68
22530,0.3314,-0.0261,0.8683,-6.92,8.15,0.05,32.64
22540,0.3311,-0.0236,0.8678,-6.98,8.02,-0.08,32.64
22550,0.3324,-0.0237,0.8649,-7.07,8.08,-0.06,32.64
22560,0.33,-0.0259,0.8629,-6.9,8.03,-0.05,32.65
22570,0.3286,-0.0253,0.8632,-6.93,7.98,-0.09,32.65
22580,0.3309,-0.0237,0.8649,-7.1,8.06,-0.03,32.67
22590,0.328,-0.0226,0.8667,-7.01,8.03,-0.03,32.67
22600,0.3297,-0.024,0.8687,-6.92,8.08,0.02,32.67
22610,0.3251,-0.0261,0.8655,-7.01,8.06,0.02,32.66
22620,0.3317,-0.025,0.8632,-7.01,7.97,-0.02,32.67
22630,0.3273,-0.0255,0.8644,-6.95,8.02,0.02,32.63
22640,0.3289,-0.0264,0.8679,-6.93,8.05,-0.02,32.65
22650,0.3318,-0.0253,0.8696,-6.93,8.0,-0.05,32.65
22661,0.329,-0.0253,0.8699,-7.04,7.97,-0.08,32.63
22671,0.3312,-0.0295,0.866,-6.89,8.08,-0.08,32.64
22681,0.3307,-0.0291,0.8643,-7.01,8.08,-0.03,32.67
22691,0.3293,-0.0254,0.8641,-6.96,8.02,-0.06,32.65
22701,0.329,-0.0248,0.8638,-7.01,8.03,0.05,32.66
22711,0.3309,-0.0249,0.8676,-6.9,8.02,-0.02,32.66
22721,0.3295,-0.0254,0.8704,-6.98,8.0,-0.02,32.64
22731,0.33,-0.0264,0.8666,-7.05,8.05,-0.03,32.65
22741,0.3313,-0.0222,0.8669,-6.93,8.06,-0.05,32.66
22751,0.3302,-0.0254,0.8636,-6.95,7.97,-0.06,32.64
22761,0.3295,-0.0261,0.8685,-6.96,8.0,0.0,32.64
22771,0.3304,-0.0272,0.8644,-6.84,8.02,-0.09,32.64
22781,0.3312,-0.0265,0.8665,-6.98,8.0,0.03,32.64
22791,0.3311,-0.022,0.8656,-6.98,7.98,0.0,32.66
22801,0.3289,-0.0262,0.8649,-6.96,7.98,0.0,32.65
22811,0.3297,-0.027,0.8643,-6.99,8.06,-0.03,32.64
22821,0.3329,-0.0228,0.8617,-6.95,8.0,0.0,32.65
22831,0.3319,-0.0245,0.8674,-7.02,8.12,0.0,32.65
22841,0.3293,-0.0266,0.8647,-7.01,8.05,-0.05,32.64
22851,0.3337,-0.0276,0.8671,-6.99,8.08,-0.05,32.65
22861,0.3298,-0.0253,0.8668,-7.05,8.09,0.0,32.66
22871,0.3326,-0.0254,0.8695,-6.99,8.05,-0.05,32.67
22881,0.3303,-0.0255,0.8612,-7.01,8.06,-0.09,32.69
22891,0.3281,-0.0264,0.8654,-6.9,8.06,0.03,32.64
22901,0.3311,-0.0255,0.8646,-6.89,8.08,-0.05,32.66
22911,0.3289,-0.0265,0.8666,-6.92,8.0,-0.05,32.65
22921,0.3291,-0.0282,0.8663,-7.07,8.06,0.0,32.66
22931,0.3291,-0.0287,0.8679,-6.96,8.11,-0.11,32.66
22941,0.3319,-0.0253,0.8711,-6.93,7.92,-0.09,32.67
22951,0.3318,-0.0247,0.8685,-6.92,8.0,-0.02,32.67
22961,0.3302,-0.0243,0.8658,-7.01,8.06,-0.14,32.67
22971,0.3304,-0.0247,0.8657,-6.9,8.0,-0.08,32.64
22981,0.3304,-0.0255,0.8638,-6.92,8.0,-0.06,32.66
22991,0.3303,-0.0228,0.8677,-6.98,8.0,-0.12,32.66
23001,0.3309,-0.0256,0.8671,-6.96,8.12,-0.14,32.65
23011,0.3311,-0.0259,0.8656,-6.95,8.02,-0.09,32.67
23021,0.332,-0.0225,0.8644,-6.96,8.03,-0.03,32.66
23031,0.3303,-0.0272,0.8688,-6.98,8.09,-0.08,32.65
23041,0.3297,-0.024,0.8693,-7.04,8.05,-0.12,32.65
23052,0.3298,-0.027,0.8656,-6.93,7.98,-0.05,32.66
23062,0.3308,-0.0259,0.8683,-6.98,7.94,-0.05,32.65
23072,0.3303,-0.0264,0.8688,-7.01,8.06,-0.06,32.64
23082,0.3317,-0.0243,0.8679,-7.05,7.98,0.02,32.66
23092,0.3312,-0.0259,0.869,-6.96,7.95,0.05,32.63
23102,0.3306,-0.0238,0.8644,-6.92,8.03,-0.03,32.63
23112,0.3322,-0.0253,0.863,-6.92,8.0,-0.03,32.66
23122,0.3284,-0.0249,0.865,-6.96,8.05,-0.03,32.67
23132,0.3319,-0.0242,0.866,-6.96,8.08,-0.02,32.65
23142,0.3314,-0.0255,0.8638,-6.95,8.03,-0.02,32.64
23152,0.3308,-0.0248,0.865,-6.98,7.97,-0.06,32.65
23162,0.3307,-0.0223,0.8673,-6.92,8.03,-0.02,32.64
23172,0.3281,-0.0273,0.868,-6.96,8.08,-0.03,32.67
23182,0.3271,-0.027,0.8737,-6.92,8.05,-0.12,32.65
23192,0.3319,-0.0253,0.8652,-6.96,8.08,-0.08,32.67
23202,0.3273,-0.0229,0.8696,-6.98,8.09,0.05,32.68
23212,0.3303,-0.0266,0.8684,-7.04,8.12,-0.03,32.67
23222,0.329,-0.0227,0.8638,-7.04,7.98,-0.08,32.67
23232,0.33,-0.0242,0.8668,-6.99,7.91,-0.08,32.67
23242,0.3326,-0.0244,0.8646,-6.95,8.05,-0.02,32.67
23252,0.3317,-0.0237,0.863,-6.93,8.02,0.0,32.68
23262,0.3297,-0.0233,0.868,-6.92,8.02,-0.02,32.68
23272,0.3298,-0.0226,0.8651,-6.92,7.92,-0.02,32.64
23293,0.3313,-0.0265,0.8673,-6.89,8.03,-0.03,32.67
23303,0.3289,-0.0243,0.8652,-6.93,8.02,-0.02,32.67
23313,0.3314,-0.0234,0.865,-6.9,7.98,-0.11,32.66
23323,0.3309,-0.0258,0.865,-7.01,8.12,-0.03,32.67
23333,0.334,-0.0244,0.8628,-6.99,8.02,0.03,32.67
23343,0.3301,-0.0267,0.8651,-7.02,7.98,-0.08,32.68
23353,0.3302,-0.0264,0.8639,-7.08,8.05,-0.06,32.67
23363,0.3298,-0.0236,0.8715,-7.05,8.12,-0.02,32.65
23373,0.3303,-0.0264,0.8655,-6.9,8.03,-0.03,32.65
23383,0.3313,-0.0247,0.8632,-6.95,8.09,0.02,32.68
23393,0.3306,-0.0245,0.8635,-6.9,8.02,-0.02,32.65
23403,0.3306,-0.0273,0.8643,-6.92,8.14,0.02,32.69
23413,0.3296,-0.0264,0.8649,-7.02,8.06,-0.03,32.65
23423,0.3306,-0.0267,0.8627,-6.99,7.97,-0.02,32.66
23433,0.3303,-0.0242,0.8668,-6.92,8.08,-0.06,32.65
23443,0.3292,-0.0254,0.8689,-6.96,8.11,-0.05,32.64
23453,0.3271,-0.0281,0.8657,-6.96,8.11,0.0,32.65
23463,0.3309,-0.0243,0.8674,-7.05,8.06,-0.12,32.68
23473,0.3324,-0.0244,0.8672,-6.99,8.02,-0.03,32.66
23483,0.3295,-0.0262,0.8693,-6.93,8.06,0.03,32.65
23493,0.3303,-0.0259,0.8669,-6.96,8.02,-0.02,32.64
23503,0.3285,-0.0265,0.8656,-7.02,8.02,-0.02,32.67
23513,0.3293,-0.0293,0.8662,-6.95,8.08,-0.08,32.66
23523,0.3308,-0.0266,0.8647,-6.99,8.06,-0.06,32.67
23533,0.3303,-0.0234,0.8651,-6.93,8.02,0.02,32.67
23543,0.3304,-0.0276,0.8666,-6.92,7.98,-0.05,32.66
23553,0.3311,-0.0223,0.8633,-6.95,8.02,-0.05,32.66
23563,0.3313,-0.0227,0.8656,-7.01,8.06,-0.06,32.66
23573,0.3296,-0.024,0.8657,-6.96,8.06,-0.06,32.65
23583,0.3315,-0.0266,0.8662,-6.9,8.11,0.02,32.67
23593,0.3273,-0.0255,0.8668,-6.96,8.11,-0.06,32.67
23603,0.3317,-0.0234,0.8667,-6.89,7.98,-0.02,32.66
23613,0.3281,-0.0273,0.8671,-7.04,7.97,-0.14,32.67
23623,0.3304,-0.0245,0.8677,-7.02,7.98,0.08,32.67
23633,0.3306,-0.0262,0.8661,-6.96,8.06,0.02,32.66
23643,0.3322,-0.0271,0.8661,-6.99,8.0,-0.02,32.65
23653,0.3304,-0.0244,0.8651,-7.01,8.06,-0.02,32.65
23663,0.3329,-0.0227,0.8698,-6.99,8.05,-0.12,32.66
23673,0.3331,-0.0259,0.8673,-6.92,8.11,0.0,32.64
23683,0.3329,-0.0243,0.8649,-6.96,8.02,-0.05,32.67
23693,0.3259,-0.0225,0.8678,-6.95,7.95,-0.05,32.67
23703,0.3301,-0.0244,0.8645,-6.93,8.08,-0.02,32.66
23713,0.3329,-0.0269,0.8629,-7.04,8.03,-0.02,32.65
23723,0.3275,-0.0289,0.8662,-6.95,8.08,0.03,32.63
23733,0.3304,-0.0277,0.8665,-6.93,8.0,-0.08,32.66
23743,0.3293,-0.0248,0.8628,-6.87,8.12,-0.06,32.64
23753,0.3304,-0.0243,0.8641,-6.96,8.03,-0.09,32.66
23763,0.3318,-0.0256,0.8705,-7.01,8.0,0.0,32.66
23773,0.3309,-0.0229,0.8677,-6.93,8.09,-0.02,32.67
23783,0.3318,-0.0258,0.8628,-6.96,7.97,-0.06,32.66
23793,0.3304,-0.0228,0.8671,-7.04,8.0,-0.02,32.66
23803,0.3298,-0.0245,0.8676,-7.01,8.08,-0.02,32.65
23813,0.329,-0.026,0.8651,-6.99,8.0,-0.11,32.67
23823,0.332,-0.021,0.8669,-6.96,8.11,-0.05,32.69
23833,0.3273,-0.0239,0.8674,-6.92,8.02,0.02,32.66
23843,0.3301,-0.0232,0.8616,-6.99,8.05,-0.03,32.66
23853,0.333,-0.0258,0.8696,-6.95,8.08,0.03,32.66
23863,0.3301,-0.0266,0.8696,-6.93,7.98,0.03,32.63
23873,0.3313,-0.03,0.8691,-6.89,8.0,-0.02,32.65
23883,0.329,-0.0248,0.8667,-7.01,7.97,-0.08,32.67
23893,0.3306,-0.0265,0.8658,-6.96,7.98,-0.03,32.66
23903,0.3275,-0.0291,0.8651,-6.95,7.97,0.0,32.68
23913,0.3292,-0.0275,0.8669,-6.85,7.95,-0.02,32.66
23923,0.3298,-0.0255,0.8652,-6.96,8.03,0.0,32.67
23933,0.3281,-0.0261,0.8621,-6.98,8.02,-0.12,32.66
23943,0.3301,-0.026,0.8646,-6.87,8.0,-0.06,32.68
23953,0.3279,-0.0238,0.8633,-6.92,8.02,-0.06,32.67
23963,0.3293,-0.0269,0.8695,-6.99,8.03,-0.08,32.68
23973,0.3295,-0.0258,0.8652,-6.95,8.02,0.0,32.68
23983,0.33,-0.0231,0.8652,-6.95,7.97,-0.02,32.67
23993,0.3292,-0.0264,0.8667,-7.02,8.03,-0.08,32.67
24003,0.3297,-0.0262,0.866,-6.99,8.12,-0.09,32.68
24013,0.3307,-0.0258,0.8693,-6.95,8.0,-0.03,32.67
24023,0.3309,-0.0295,0.8655,-6.92,8.0,0.08,32.66
24033,0.3315,-0.0262,0.8676,-6.99,8.0,-0.02,32.67
24043,0.3308,-0.025,0.8673,-7.01,8.0,-0.03,32.68
24053,0.3318,-0.0247,0.864,-6.93,8.17,-0.09,32.66
24063,0.3292,-0.0259,0.8674,-6.99,8.05,0.02,32.67
24073,0.3265,-0.0258,0.8712,-7.05,8.03,0.02,32.64
24083,0.3276,-0.0271,0.8634,-6.92,8.03,-0.05,32.67
24093,0.3279,-0.0242,0.8652,-6.93,8.02,-0.05,32.68
24103,0.328,-0.0243,0.8649,-6.93,8.0,-0.03,32.66
24113,0.3269,-0.0256,0.8685,-6.89,7.97,0.02,32.67
24123,0.329,-0.0247,0.868,-6.85,8.05,-0.03,32.66
24133,0.3323,-0.0267,0.8607,-6.98,8.08,-0.03,32.64
24143,0.3319,-0.0254,0.8629,-6.89,8.02,-0.03,32.67
24153,0.3302,-0.0254,0.8673,-6.99,7.98,-0.08,32.69
24163,0.3317,-0.0248,0.8661,-6.96,8.09,-0.09,32.67
24173,0.3307,-0.0267,0.8669,-7.05,8.06,-0.11,32.65
24183,0.3326,-0.0239,0.8646,-6.95,8.0,-0.05,32.64
24193,0.3302,-0.0248,0.8651,-7.01,8.03,-0.03,32.68
24203,0.3334,-0.0244,0.8668,-7.04,8.08,-0.02,32.67
24213,0.3318,-0.0259,0.8627,-6.89,8.06,-0.02,32.65
24223,0.3309,-0.026,0.8643,-6.93,8.06,-0.05,32.68
24233,0.3322,-0.0269,0.8632,-6.89,8.12,-0.06,32.69
24243,0.333,-0.0242,0.8695,-6.96,8.05,-0.08,32.68
24253,0.3304,-0.027,0.8649,-7.01,8.02,0.02,32.68
24263,0.3311,-0.027,0.8673,-6.84,7.92,0.0,32.66
24273,0.3303,-0.0243,0.8676,-6.89,8.03,-0.03,32.64
24285,0.3306,-0.0259,0.8694,-6.85,8.08,-0.05,32.67
24296,0.3314,-0.0278,0.8699,-6.92,7.98,0.08,32.64
24306,0.328,-0.027,0.8652,-6.93,8.0,-0.08,32.66
24316,0.3289,-0.0284,0.8688,-7.01,8.02,-0.05,32.67
24326,0.3281,-0.026,0.8661,-6.87,8.0,-0.02,32.66
24336,0.3308,-0.0253,0.8662,-6.96,8.08,-0.03,32.66
24346,0.329,-0.0247,0.8643,-6.85,7.98,-0.05,32.66
24356,0.3279,-0.0234,0.8643,-7.01,8.06,0.0,32.66
24366,0.3324,-0.0232,0.8663,-6.96,7.86,-0.02,32.65
24376,0.3298,-0.0253,0.8685,-6.99,7.98,-0.03,32.68
24386,0.3306,-0.0239,0.8669,-7.04,8.0,0.0,32.65
24396,0.3322,-0.0216,0.8662,-7.04,8.09,-0.11,32.68
24406,0.3311,-0.0234,0.8652,-6.99,7.97,-0.06,32.69
24416,0.3298,-0.0272,0.8639,-6.99,8.03,-0.08,32.69
24426,0.3306,-0.0262,0.8627,-6.89,7.98,-0.02,32.66
24437,0.3311,-0.026,0.8654,-6.98,8.02,0.03,32.65
24447,0.3309,-0.0272,0.8671,-6.85,8.0,0.02,32.68
24457,0.332,-0.0266,0.8658,-6.9,8.03,-0.03,32.65
24467,0.3326,-0.0229,0.869,-6.92,8.09,0.03,32.69
24477,0.3298,-0.0238,0.8667,-6.95,8.05,-0.03,32.69
24487,0.3285,-0.0219,0.863,-7.02,7.98,-0.03,32.68
24497,0.33,-0.0245,0.8696,-7.01,8.02,-0.05,32.68
24507,0.3319,-0.0258,0.8628,-6.92,8.03,-0.06,32.67
24517,0.3335,-0.0232,0.8689,-7.05,8.05,0.03,32.69
24527,0.3326,-0.0258,0.8632,-6.98,8.05,-0.02,32.69
24537,0.3314,-0.0254,0.8661,-6.87,7.98,-0.11,32.68
24547,0.3331,-0.0251,0.865,-6.93,8.05,-0.02,32.66
24557,0.3315,-0.026,0.868,-6.95,8.03,-0.05,32.66
24567,0.3311,-0.0269,0.8663,-6.82,7.98,0.0,32.65
24577,0.3334,-0.0233,0.8619,-6.96,8.02,-0.05,32.66
24587,0.3326,-0.026,0.8668,-6.98,8.05,-0.03,32.67
24597,0.3326,-0.027,0.8661,-7.08,8.05,0.05,32.66
24607,0.3285,-0.0255,0.868,-6.93,8.09,-0.03,32.68
24617,0.3279,-0.0236,0.8669,-6.95,7.97,-0.08,32.67
24627,0.3271,-0.0267,0.8654,-6.98,8.03,-0.08,32.66
24637,0.3271,-0.024,0.8649,-6.89,7.98,-0.06,32.67
24647,0.3282,-0.026,0.8654,-6.93,8.06,-0.09,32.67
24657,0.329,-0.0242,0.8683,-6.92,8.09,-0.06,32.69
24667,0.333,-0.0231,0.8656,-6.95,7.97,-0.05,32.66
24677,0.3315,-0.0244,0.8641,-7.01,7.98,0.0,32.68
24688,0.3323,-0.0236,0.8677,-6.99,8.0,0.0,32.67
24698,0.3296,-0.0239,0.8641,-7.02,7.98,-0.05,32.67
24708,0.3302,-0.0244,0.8666,-6.93,8.02,-0.05,32.7
24718,0.3329,-0.026,0.8707,-6.87,8.05,-0.02,32.67
24728,0.3342,-0.0258,0.8677,-7.02,8.03,0.05,32.69
24738,0.3298,-0.028,0.8666,-6.96,8.08,-0.05,32.71
24748,0.3314,-0.0229,0.8688,-6.99,7.95,-0.06,32.68
24758,0.3298,-0.025,0.865,-6.99,8.09,-0.08,32.67
24768,0.3293,-0.0273,0.8685,-6.9,7.98,-0.15,32.66
24778,0.3278,-0.0275,0.8663,-6.93,7.94,-0.03,32.67
24788,0.3297,-0.0247,0.8677,-6.93,8.03,-0.05,32.64
24798,0.3291,-0.0265,0.8668,-7.04,8.11,0.03,32.7
24808,0.3287,-0.0264,0.8651,-7.07,7.95,0.0,32.66
24818,0.3303,-0.025,0.8685,-6.95,8.08,-0.02,32.67
24828,0.3297,-0.025,0.8608,-6.96,8.08,-0.05,32.69
24838,0.3289,-0.0225,0.8689,-7.01,8.09,-0.08,32.7
24848,0.3306,-0.0245,0.8688,-6.93,8.08,-0.12,32.66
24858,0.3304,-0.0264,0.8658,-6.98,8.05,-0.05,32.67
24868,0.3289,-0.028,0.8677,-6.9,8.0,-0.02,32.69
24878,0.3314,-0.0249,0.8618,-6.92,8.05,-0.05,32.69
24888,0.3314,-0.0244,0.8652,-6.98,8.05,-0.08,32.66
24898,0.3304,-0.0266,0.868,-6.92,8.03,-0.08,32.66
24908,0.3344,-0.0247,0.8656,-6.96,8.02,0.02,32.7
24918,0.3312,-0.0237,0.8654,-6.96,8.02,-0.06,32.68
24928,0.3284,-0.0249,0.8594,-6.9,8.0,0.02,32.67
24938,0.329,-0.0245,0.8667,-6.87,8.08,-0.11,32.67
24948,0.3287,-0.0244,0.866,-7.02,7.98,-0.03,32.68
24958,0.3287,-0.0261,0.8676,-6.93,8.05,-0.02,32.66
24968,0.3314,-0.0254,0.8724,-6.93,8.0,0.0,32.67
24978,0.3309,-0.0269,0.8663,-6.98,7.98,-0.05,32.68
24988,0.3313,-0.0228,0.8662,-7.02,8.0,-0.02,32.67
24998,0.3329,-0.0245,0.8663,-7.02,7.95,-0.06,32.67
25008,0.3297,-0.0245,0.8708,-6.89,8.02,-0.09,32.66
25018,0.3329,-0.0264,0.8689,-6.98,8.08,0.0,32.65
25028,0.3301,-0.0248,0.8677,-7.01,7.91,-0.05,32.69
25038,0.3317,-0.0249,0.8698,-6.95,8.02,0.0,32.67
25049,0.3284,-0.0209,0.8639,-6.82,8.11,-0.06,32.68
25059,0.3324,-0.0269,0.864,-6.92,8.0,-0.02,32.68
25069,0.3301,-0.0256,0.8645,-6.96,8.02,-0.06,32.69
25079,0.33,-0.0216,0.8655,-6.98,7.98,-0.08,32.67
25089,0.3296,-0.0259,0.8645,-6.93,8.09,-0.02,32.7
25099,0.3286,-0.0234,0.8671,-7.01,8.0,0.02,32.68
25109,0.3317,-0.0259,0.8668,-6.92,8.03,0.0,32.66
25119,0.3302,-0.0239,0.8656,-6.96,7.92,0.02,32.66
25129,0.3281,-0.0261,0.869,-6.95,7.98,-0.06,32.68
25139,0.3312,-0.0251,0.8699,-6.93,8.06,-0.06,32.67
25149,0.3295,-0.0245,0.8651,-6.95,8.0,-0.12,32.69
25159,0.3303,-0.0276,0.8702,-6.99,8.02,-0.03,32.68
25169,0.3302,-0.0264,0.8645,-6.99,8.05,-0.06,32.67
25179,0.3313,-0.0242,0.8657,-6.93,8.02,-0.09,32.69
25189,0.3293,-0.0262,0.8646,-6.87,8.03,-0.08,32.67
25199,0.3271,-0.0259,0.8666,-6.92,7.89,-0.06,32.67
25209,0.3308,-0.0262,0.8645,-6.98,8.06,-0.06,32.69
25219,0.3304,-0.027,0.8638,-7.05,8.03,-0.03,32.66
25229,0.3308,-0.0217,0.8666,-7.04,8.03,-0.03,32.65
25239,0.3306,-0.0223,0.8688,-6.95,8.09,-0.05,32.67
25249,0.332,-0.0261,0.8676,-6.93,8.02,-0.05,32.66
25259,0.3304,-0.0269,0.8655,-7.04,7.95,-0.02,32.65
25269,0.3301,-0.0238,0.8677,-6.96,8.02,0.02,32.67
25279,0.3302,-0.0262,0.871,-6.98,8.08,0.0,32.68
25289,0.3296,-0.0231,0.8671,-6.89,8.03,-0.05,32.69
25299,0.3268,-0.0255,0.869,-6.9,8.15,-0.05,32.69
25309,0.3275,-0.0243,0.8666,-6.95,8.11,-0.06,32.67
25319,0.3307,-0.0242,0.8615,-6.96,7.95,0.0,32.7
25329,0.3276,-0.0253,0.8647,-6.98,8.11,-0.03,32.67
25339,0.3293,-0.0255,0.8649,-6.98,8.06,-0.05,32.7
25350,0.3297,-0.0231,0.8619,-6.96,7.97,-0.14,32.67
25360,0.3315,-0.0247,0.8617,-6.93,8.02,-0.06,32.67
25370,0.3304,-0.0244,0.8656,-6.9,7.97,-0.05,32.69
25380,0.3307,-0.028,0.8665,-6.93,7.97,-0.02,32.69
25390,0.3292,-0.0255,0.8657,-6.93,8.02,-0.14,32.69
25400,0.3285,-0.0254,0.8689,-6.96,8.15,0.0,32.68
25410,0.3281,-0.0244,0.8639,-6.96,8.03,-0.02,32.7
25420,0.3309,-0.0234,0.8694,-6.98,8.06,0.02,32.68
25430,0.3335,-0.0245,0.8662,-6.95,7.98,-0.03,32.68
25440,0.3326,-0.028,0.8716,-6.9,7.98,-0.08,32.68
25450,0.3315,-0.0253,0.8666,-6.96,8.09,-0.03,32.69
25460,0.3298,-0.0261,0.8632,-6.96,8.11,-0.02,32.69
25470,0.3275,-0.027,0.8635,-6.95,8.0,-0.03,32.7
25480,0.3312,-0.0267,0.864,-6.89,8.06,-0.03,32.7
25490,0.329,-0.0225,0.864,-6.87,8.03,-0.09,32.69
25500,0.3293,-0.0239,0.8639,-6.95,8.05,-0.02,32.69
25510,0.332,-0.0256,0.8618,-6.93,8.02,-0.05,32.7
25520,0.3302,-0.0248,0.8651,-6.89,8.0,-0.08,32.67
25530,0.3297,-0.0233,0.8663,-6.98,7.98,0.03,32.69
25540,0.3301,-0.0265,0.8671,-6.98,7.98,-0.05,32.67
25550,0.3319,-0.0237,0.8683,-6.95,8.02,0.05,32.69
25560,0.3297,-0.0243,0.869,-6.89,8.15,-0.02,32.66
25570,0.3292,-0.0262,0.864,-6.93,7.95,-0.05,32.65
25580,0.3285,-0.026,0.8688,-6.99,8.08,-0.11,32.68
25590,0.3315,-0.0254,0.8641,-6.95,8.03,-0.03,32.68
25600,0.3275,-0.0236,0.8654,-6.9,8.05,-0.09,32.69
25610,0.3293,-0.0228,0.8628,-6.93,8.02,-0.02,32.68
25620,0.3323,-0.0258,0.8636,-6.99,8.0,-0.09,32.7
25630,0.3336,-0.0223,0.8645,-6.98,8.05,-0.08,32.69
25640,0.3334,-0.0254,0.8636,-6.99,8.06,-0.09,32.67
25650,0.3282,-0.0256,0.866,-6.89,7.98,-0.03,32.67
25660,0.3304,-0.0278,0.8632,-6.99,8.06,0.03,32.67
25670,0.3295,-0.0278,0.8647,-6.96,8.14,-0.05,32.67
25680,0.3286,-0.0258,0.8658,-7.05,7.97,0.06,32.68
25690,0.3312,-0.0215,0.8625,-7.01,7.89,-0.03,32.68
25700,0.3309,-0.0245,0.8649,-6.96,7.94,-0.06,32.68
25710,0.3302,-0.0255,0.8651,-6.82,8.0,0.05,32.68
25720,0.332,-0.0233,0.8694,-6.95,8.02,-0.02,32.67
25730,0.3328,-0.0272,0.8695,-6.81,8.06,-0.08,32.69
25740,0.3303,-0.0256,0.8662,-6.9,8.06,-0.05,32.69
25750,0.3278,-0.0264,0.8602,-6.84,7.94,-0.09,32.67
25760,0.3314,-0.0253,0.8682,-6.9,7.97,-0.03,32.66
25770,0.3315,-0.0233,0.8682,-6.9,8.06,-0.05,32.68
25780,0.3281,-0.0245,0.868,-6.98,8.0,0.0,32.67
25790,0.3297,-0.0229,0.8673,-7.04,7.95,-0.09,32.69
25800,0.3313,-0.0248,0.8704,-7.05,8.02,-0.06,32.67
25810,0.3281,-0.0281,0.8674,-6.99,7.95,-0.05,32.68
25820,0.3295,-0.0264,0.8708,-6.98,8.03,0.0,32.67
25830,0.3276,-0.0251,0.8691,-6.99,8.03,-0.05,32.67
25840,0.3295,-0.0265,0.8616,-6.95,8.06,-0.06,32.68
25850,0.3302,-0.0248,0.8665,-6.99,8.09,-0.05,32.68
25860,0.3304,-0.0261,0.8663,-6.93,8.09,0.0,32.68
25871,0.3282,-0.0223,0.8662,-7.01,8.05,-0.05,32.69
25881,0.334,-0.0275,0.8666,-6.98,8.05,-0.06,32.67
25891,0.3324,-0.0254,0.8625,-6.87,7.97,-0.11,32.67
25901,0.3303,-0.0248,0.8654,-6.96,7.97,-0.02,32.69
25911,0.3308,-0.0233,0.8633,-6.98,7.97,-0.03,32.66
25921,0.33,-0.0264,0.8619,-6.99,7.98,-0.02,32.68
25931,0.3309,-0.0239,0.8657,-6.96,8.03,-0.05,32.67
25941,0.3303,-0.022,0.8694,-7.05,8.08,-0.05,32.7
25951,0.3306,-0.0248,0.864,-6.99,7.94,-0.02,32.68
25961,0.3275,-0.0277,0.8647,-6.96,8.03,0.0,32.69
25971,0.3287,-0.0256,0.8652,-6.96,8.08,0.05,32.69
25981,0.3308,-0.0243,0.8685,-6.99,8.09,0.0,32.69
25991,0.3298,-0.0261,0.8667,-6.98,8.02,0.05,32.69
26001,0.3301,-0.0266,0.8639,-6.95,7.95,-0.06,32.69
26011,0.3295,-0.0261,0.8651,-6.95,7.98,-0.02,32.67
26021,0.3278,-0.0239,0.866,-7.01,7.95,0.0,32.66
26031,0.3276,-0.0229,0.8668,-7.04,7.98,-0.08,32.67
26041,0.3289,-0.0272,0.8666,-6.99,7.98,0.03,32.69
26051,0.3312,-0.0247,0.864,-6.95,8.09,0.06,32.67
26061,0.33,-0.0287,0.8641,-6.92,7.95,-0.05,32.69
26071,0.3304,-0.0253,0.8669,-6.92,8.03,0.0,32.68
26081,0.3306,-0.0278,0.8654,-7.01,8.15,-0.02,32.68
26091,0.3313,-0.0231,0.8643,-6.95,8.02,0.02,32.68
26101,0.3307,-0.0239,0.8663,-6.95,8.02,-0.05,32.67
26111,0.33,-0.0254,0.8691,-6.95,7.98,0.02,32.67
26121,0.3314,-0.0259,0.8668,-6.95,7.97,0.0,32.7
26131,0.3296,-0.0253,0.8662,-7.02,8.0,-0.11,32.69
26141,0.3293,-0.0265,0.8621,-6.96,7.95,-0.08,32.69
26151,0.3322,-0.0227,0.8625,-6.85,8.05,0.0,32.69
26161,0.3285,-0.0266,0.8678,-6.93,8.03,-0.03,32.69
26171,0.3279,-0.0244,0.8634,-6.95,8.08,-0.02,32.67
26181,0.3311,-0.0249,0.8661,-7.02,8.05,-0.08,32.7
26191,0.3315,-0.0236,0.866,-6.99,8.09,-0.08,32.7
26201,0.3297,-0.0234,0.8699,-6.96,8.0,0.02,32.68
26211,0.3322,-0.0232,0.8669,-6.99,8.05,-0.03,32.67
26221,0.3274,-0.0248,0.8643,-6.98,8.09,-0.09,32.68
26231,0.3278,-0.0242,0.8685,-6.99,8.05,-0.14,32.68
26241,0.3302,-0.0249,0.8668,-6.96,8.08,-0.02,32.7
26251,0.3304,-0.025,0.8646,-6.98,8.0,0.03,32.69
26261,0.3317,-0.0236,0.8663,-6.98,7.92,-0.06,32.69
26271,0.3295,-0.0245,0.8684,-6.98,8.08,-0.06,32.68
26281,0.3296,-0.0227,0.8676,-6.96,8.03,0.0,32.69
26291,0.3295,-0.0261,0.8676,-6.98,7.95,0.02,32.67
26301,0.3307,-0.0264,0.8658,-7.01,8.02,-0.09,32.68
26311,0.3273,-0.0266,0.8656,-6.92,8.05,-0.05,32.67
26321,0.3275,-0.0247,0.8635,-6.95,7.98,-0.11,32.69
26331,0.328,-0.0261,0.8654,-6.92,7.98,-0.06,32.69
26341,0.3312,-0.0258,0.8667,-7.02,8.12,-0.06,32.69
26351,0.3303,-0.0264,0.8602,-6.92,7.97,-0.05,32.7
26361,0.3313,-0.0243,0.8657,-6.95,8.12,-0.08,32.68
26371,0.3302,-0.0251,0.8658,-6.89,8.0,-0.06,32.69
26381,0.3315,-0.0251,0.863,-6.96,8.0,-0.02,32.68
26391,0.3322,-0.0243,0.8651,-6.92,7.98,-0.08,32.68
26401,0.3313,-0.0239,0.8639,-7.01,7.98,0.02,32.67
26411,0.3311,-0.0244,0.8636,-6.96,8.05,0.03,32.68
26421,0.3308,-0.0232,0.866,-6.98,8.06,0.05,32.7
26431,0.3348,-0.0231,0.8617,-6.93,8.03,-0.11,32.7
26441,0.3323,-0.0265,0.8655,-6.96,8.09,0.03,32.69
26451,0.3307,-0.022,0.8638,-6.96,8.09,-0.09,32.68
26461,0.3319,-0.028,0.8663,-7.04,8.11,0.06,32.69
26471,0.3312,-0.0275,0.8689,-6.93,8.08,-0.02,32.69
26481,0.3287,-0.0287,0.8649,-6.95,7.95,-0.05,32.69
26491,0.33,-0.0306,0.865,-7.01,7.92,-0.08,32.7
26501,0.3315,-0.0265,0.866,-7.05,7.95,-0.06,32.69
26511,0.3325,-0.0242,0.8636,-6.93,7.92,-0.08,32.69
26521,0.329,-0.0249,0.8676,-6.9,7.97,-0.12,32.69
26531,0.3298,-0.0236,0.8668,-6.89,8.02,-0.05,32.67
26541,0.3292,-0.0255,0.8667,-6.96,7.98,-0.11,32.69
26551,0.3291,-0.0227,0.8682,-6.96,8.0,-0.06,32.68
26561,0.3309,-0.0266,0.8669,-6.99,8.06,-0.02,32.68
26571,0.3331,-0.0242,0.8678,-7.04,8.08,0.0,32.69
26581,0.3303,-0.0249,0.8655,-6.96,7.98,0.03,32.7
26591,0.3296,-0.0255,0.8638,-6.93,8.06,-0.06,32.66
26601,0.3284,-0.0238,0.864,-6.99,8.11,-0.09,32.66
26611,0.3328,-0.0258,0.8646,-6.99,7.98,0.05,32.69
26621,0.3297,-0.0277,0.8677,-7.04,8.03,-0.08,32.7
26631,0.3293,-0.025,0.8666,-6.98,8.05,-0.08,32.69
26641,0.3314,-0.0275,0.8684,-6.9,8.03,-0.02,32.69
26651,0.3301,-0.027,0.8688,-6.89,8.05,-0.08,32.7
26661,0.3341,-0.0242,0.8611,-6.98,7.95,-0.05,32.69
26671,0.3311,-0.0234,0.8629,-6.93,7.98,-0.05,32.7
26681,0.3315,-0.026,0.8634,-6.89,8.02,-0.08,32.7
26691,0.3291,-0.0262,0.866,-6.98,8.06,-0.03,32.69
26701,0.329,-0.0266,0.8676,-6.96,8.11,-0.03,32.68
26711,0.3303,-0.0249,0.8667,-6.9,8.05,-0.05,32.67
26721,0.3328,-0.0232,0.8619,-6.93,7.95,-0.08,32.7
26731,0.3318,-0.0265,0.8665,-6.93,8.09,-0.08,32.68
26741,0.332,-0.0248,0.8639,-7.01,8.09,0.02,32.68
26751,0.3289,-0.0254,0.8687,-7.01,7.95,-0.08,32.7
26761,0.3308,-0.0255,0.8671,-7.02,7.97,-0.06,32.67
26771,0.3313,-0.024,0.8639,-6.96,8.06,0.0,32.69
26781,0.3304,-0.0253,0.8701,-7.02,8.06,-0.06,32.67
26791,0.3271,-0.0226,0.8707,-6.99,8.0,0.0,32.67
26801,0.3322,-0.0242,0.8645,-6.99,8.05,0.05,32.7
26811,0.3315,-0.0272,0.8623,-7.01,8.0,-0.06,32.69
26822,0.33,-0.0273,0.866,-7.02,8.0,0.03,32.68
26832,0.3326,-0.0244,0.8618,-6.99,7.95,-0.06,32.7
26842,0.3296,-0.0277,0.8655,-7.02,8.03,0.06,32.69
26852,0.3297,-0.0244,0.863,-6.81,8.02,0.06,32.68
26862,0.3312,-0.0266,0.8667,-7.05,8.03,-0.06,32.7
26872,0.3296,-0.0231,0.8651,-7.04,8.05,-0.03,32.7
26882,0.3297,-0.027,0.866,-6.96,8.0,-0.06,32.69
26892,0.3313,-0.028,0.8673,-6.93,8.05,0.02,32.68
26902,0.3306,-0.0238,0.8676,-7.11,8.02,-0.03,32.7
26912,0.3279,-0.0237,0.8656,-6.96,7.97,0.0,32.71
26922,0.3304,-0.0231,0.8672,-6.98,8.08,0.02,32.72
26932,0.3284,-0.0205,0.8678,-7.02,8.02,0.05,32.7
26942,0.3308,-0.024,0.8628,-6.99,7.98,-0.11,32.67
26952,0.3285,-0.024,0.8618,-6.99,8.0,0.02,32.7
26962,0.3315,-0.0255,0.8627,-6.95,8.14,-0.06,32.69
26972,0.3326,-0.0253,0.863,-6.99,8.15,-0.05,32.71
26982,0.3306,-0.0232,0.8677,-6.92,7.98,-0.02,32.7
26992,0.3308,-0.0266,0.8652,-6.84,8.02,0.02,32.71
27002,0.33,-0.0254,0.8646,-6.93,8.05,-0.06,32.69
27012,0.3281,-0.0276,0.8612,-6.99,8.08,-0.05,32.69
27023,0.3286,-0.0253,0.8645,-6.95,7.95,-0.08,32.69
27033,0.3284,-0.0265,0.8612,-6.99,8.02,-0.05,32.7
27043,0.332,-0.0261,0.8661,-6.95,8.06,-0.08,32.7
27053,0.33,-0.0238,0.8645,-6.95,8.0,-0.05,32.7
27063,0.3303,-0.0251,0.8671,-6.9,8.06,-0.06,32.67
27073,0.3315,-0.0247,0.8684,-6.89,8.03,-0.08,32.68
27083,0.3304,-0.024,0.8676,-6.87,7.95,-0.06,32.68
27093,0.3328,-0.0242,0.865,-6.93,8.06,-0.05,32.69
27103,0.3314,-0.0239,0.864,-7.01,7.95,-0.02,32.69
27113,0.3309,-0.025,0.8724,-6.93,8.08,-0.06,32.67
27123,0.33,-0.0233,0.8701,-6.98,7.95,-0.03,32.67
27133,0.3303,-0.025,0.8649,-7.07,7.95,0.02,32.69
27143,0.3309,-0.0275,0.8665,-6.9,8.02,-0.05,32.68
27153,0.3304,-0.0277,0.8641,-6.93,8.09,-0.12,32.69
27163,0.3282,-0.0264,0.864,-6.93,8.0,-0.03,32.7
27173,0.3284,-0.0242,0.8667,-6.89,7.98,-0.06,32.67
27183,0.3312,-0.0255,0.8672,-6.89,8.05,-0.11,32.67
27193,0.3285,-0.0265,0.8661,-6.95,8.02,-0.02,32.67
27203,0.3296,-0.0216,0.8658,-6.9,7.97,-0.06,32.69
27213,0.3302,-0.0232,0.8636,-6.92,8.02,-0.05,32.69
27223,0.3312,-0.0264,0.8632,-6.95,8.0,0.03,32.71
27233,0.3329,-0.0217,0.869,-6.93,8.0,0.08,32.66
27243,0.3293,-0.0244,0.8638,-6.93,8.02,-0.05,32.67
27253,0.3306,-0.0254,0.8691,-6.89,8.05,-0.08,32.69
27263,0.3311,-0.0237,0.8638,-6.92,7.97,-0.06,32.71
27273,0.3284,-0.0242,0.8655,-6.95,7.98,-0.08,32.7
27285,0.3293,-0.0256,0.8639,-6.99,8.03,0.02,32.67
27295,0.3304,-0.0264,0.8685,-6.95,7.98,-0.02,32.69
27305,0.3319,-0.0273,0.8651,-6.92,8.06,0.05,32.68
27317,0.3322,-0.0266,0.8636,-6.93,8.03,-0.08,32.67
27327,0.3311,-0.0258,0.8662,-6.96,8.02,0.08,32.7
27337,0.3342,-0.0276,0.8646,-6.92,8.0,0.0,32.69
27347,0.3331,-0.0269,0.866,-6.96,7.98,0.02,32.67
27357,0.3289,-0.0269,0.866,-6.92,8.06,-0.03,32.68
27367,0.3306,-0.0281,0.8641,-7.02,8.06,0.02,32.68
27377,0.3307,-0.0244,0.868,-7.01,8.02,-0.02,32.71
27387,0.33,-0.0259,0.8652,-6.99,8.09,0.06,32.67
27398,0.3298,-0.0239,0.8661,-6.99,8.03,-0.08,32.68
27408,0.329,-0.0242,0.8657,-7.04,7.98,-0.05,32.68
27418,0.3297,-0.0255,0.8695,-6.95,8.05,-0.02,32.69
27428,0.3308,-0.0237,0.8636,-6.99,7.97,-0.06,32.68
27438,0.3303,-0.0272,0.8617,-6.92,8.05,-0.08,32.69
27448,0.3309,-0.0237,0.8683,-6.96,7.98,-0.03,32.72
27458,0.3312,-0.0253,0.8634,-6.96,7.98,0.0,32.71
27468,0.3317,-0.0248,0.8666,-7.01,8.03,-0.05,32.69
27478,0.3291,-0.0262,0.8671,-6.9,8.0,-0.06,32.71
27488,0.3295,-0.0229,0.8674,-6.96,8.08,0.02,32.69
