t_ms,accel_x_g,accel_y_g,accel_z_g,gyro_x_dps,gyro_y_dps,gyro_z_dps,imu_temp_c
3279,0.2141,-0.0129,0.8854,-6.02,7.66,0.11,21.16
3289,0.2159,-0.014,0.8868,-6.03,7.68,-0.03,21.15
3299,0.2134,-0.0142,0.8835,-6.02,7.71,-0.08,21.14
3309,0.2159,-0.0132,0.8877,-6.03,7.69,-0.08,21.16
3319,0.2167,-0.0151,0.8867,-5.95,7.68,-0.03,21.15
3329,0.2179,-0.015,0.8815,-6.0,7.68,0.03,21.13
3339,0.2186,-0.0159,0.8832,-6.03,7.68,0.02,21.17
3349,0.218,-0.0139,0.8817,-6.02,7.69,0.0,21.14
3359,0.2168,-0.0139,0.8829,-6.06,7.71,0.0,21.14
3369,0.2156,-0.0166,0.8853,-5.92,7.76,0.02,21.16
3379,0.2162,-0.0142,0.8854,-5.89,7.68,0.0,21.17
3389,0.217,-0.0134,0.884,-5.97,7.66,-0.03,21.18
3399,0.2156,-0.0171,0.8826,-6.14,7.69,-0.05,21.18
3409,0.2152,-0.011,0.8837,-5.98,7.71,0.0,21.17
3419,0.2192,-0.0143,0.885,-6.03,7.71,-0.05,21.16
3429,0.2197,-0.0126,0.8873,-6.02,7.82,0.03,21.16
3439,0.215,-0.0143,0.887,-6.0,7.77,-0.09,21.16
3449,0.2184,-0.0142,0.8862,-5.98,7.65,-0.06,21.17
3459,0.2166,-0.016,0.8887,-6.12,7.71,-0.08,21.17
3469,0.2147,-0.0148,0.8849,-6.03,7.66,0.05,21.18
3479,0.2173,-0.0145,0.8839,-5.95,7.65,0.0,21.16
3489,0.2152,-0.0131,0.8883,-6.02,7.66,-0.03,21.17
3499,0.218,-0.014,0.8883,-6.09,7.69,0.0,21.16
3509,0.2178,-0.0148,0.8859,-5.98,7.73,0.06,21.13
3519,0.218,-0.0142,0.8859,-6.03,7.69,-0.06,21.16
3529,0.2159,-0.0154,0.8849,-6.09,7.63,0.0,21.18
3539,0.2155,-0.0148,0.8867,-6.09,7.71,0.0,21.16
3549,0.2167,-0.0153,0.8894,-6.0,7.68,0.09,21.15
3559,0.2181,-0.0167,0.8878,-6.05,7.69,-0.02,21.18
3569,0.2144,-0.0139,0.8861,-6.05,7.73,-0.12,21.17
3579,0.2157,-0.0128,0.8868,-5.92,7.73,-0.05,21.18
3589,0.2179,-0.0145,0.8859,-5.98,7.71,0.0,21.17
3599,0.2153,-0.0166,0.8844,-6.06,7.63,-0.06,21.18
3609,0.2184,-0.0153,0.887,-6.02,7.63,-0.02,21.2
3619,0.2181,-0.0154,0.8854,-5.94,7.69,-0.14,21.17
3629,0.2186,-0.0156,0.887,-6.08,7.63,-0.05,21.17
3639,0.2166,-0.0151,0.885,-6.0,7.74,-0.05,21.2
3649,0.2167,-0.0145,0.8851,-5.97,7.69,-0.09,21.16
3659,0.2184,-0.0143,0.8835,-6.03,7.62,-0.05,21.16
3669,0.2186,-0.0143,0.8844,-6.09,7.76,-0.03,21.18
3679,0.2148,-0.0142,0.8849,-6.12,7.73,-0.09,21.18
3689,0.215,-0.014,0.8865,-6.0,7.73,-0.03,21.17
3699,0.2147,-0.014,0.8896,-6.17,7.74,-0.08,21.17
3709,0.2159,-0.0142,0.8889,-6.09,7.66,-0.02,21.18
3719,0.2164,-0.0151,0.8896,-6.08,7.69,-0.03,21.17
3729,0.2181,-0.0138,0.8849,-5.95,7.69,-0.14,21.17
3739,0.217,-0.0175,0.886,-6.12,7.69,-0.05,21.17
3749,0.2156,-0.0145,0.8871,-6.02,7.79,0.05,21.18
3759,0.2126,-0.0173,0.8904,-6.11,7.77,0.05,21.19
3769,0.2179,-0.0144,0.8854,-6.14,7.68,0.02,21.18
3779,0.2166,-0.0132,0.8868,-6.09,7.69,0.0,21.17
3789,0.2167,-0.0121,0.8835,-6.06,7.73,0.03,21.18
3799,0.2162,-0.0121,0.8846,-6.03,7.68,0.0,21.17
3809,0.2183,-0.0133,0.8864,-6.05,7.71,-0.06,21.17
3819,0.2173,-0.0121,0.8844,-6.02,7.74,0.0,21.18
3829,0.2163,-0.0151,0.8883,-6.08,7.71,-0.09,21.17
3839,0.2175,-0.0154,0.8906,-6.0,7.63,-0.09,21.18
3849,0.2166,-0.0128,0.8876,-5.94,7.65,0.0,21.18
3859,0.2166,-0.0144,0.884,-6.06,7.68,-0.02,21.19
3869,0.2169,-0.0132,0.8844,-6.0,7.65,-0.05,21.2
3879,0.2166,-0.015,0.8828,-6.03,7.68,0.02,21.18
3889,0.2179,-0.0139,0.8854,-6.06,7.68,-0.09,21.18
3899,0.2161,-0.0153,0.8829,-6.0,7.69,0.02,21.18
3909,0.2151,-0.0142,0.8879,-6.06,7.74,-0.05,21.17
3919,0.2168,-0.0131,0.8893,-6.02,7.74,-0.03,21.17
3929,0.217,-0.0143,0.8854,-5.92,7.65,0.05,21.17
3939,0.2162,-0.0127,0.887,-6.08,7.73,0.02,21.2
3949,0.218,-0.015,0.8895,-6.14,7.69,0.03,21.19
3959,0.2186,-0.0156,0.8861,-6.11,7.65,-0.06,21.18
3969,0.2164,-0.0142,0.8856,-6.06,7.73,-0.05,21.21
3979,0.2145,-0.0139,0.8832,-6.06,7.65,0.03,21.2
3989,0.2137,-0.014,0.8815,-6.05,7.74,-0.03,21.2
3999,0.2167,-0.0123,0.884,-6.06,7.62,0.06,21.2
4009,0.2164,-0.0161,0.8862,-6.0,7.59,-0.02,21.21
4019,0.2152,-0.0167,0.8826,-6.11,7.68,-0.06,21.21
4029,0.2153,-0.0142,0.8832,-6.11,7.71,-0.02,21.19
4039,0.2169,-0.0148,0.8865,-6.03,7.68,0.02,21.2
4049,0.2179,-0.0154,0.8883,-6.05,7.63,0.02,21.19
4059,0.2198,-0.0129,0.8923,-5.98,7.73,-0.02,21.18
4069,0.2167,-0.0143,0.8857,-6.14,7.77,-0.11,21.18
4079,0.2178,-0.0173,0.8854,-6.08,7.74,-0.06,21.19
4089,0.2152,-0.0146,0.8855,-6.03,7.79,0.03,21.19
4099,0.2168,-0.0155,0.885,-6.08,7.69,-0.08,21.19
4109,0.2141,-0.0143,0.8866,-6.08,7.62,-0.03,21.2
4119,0.2136,-0.0154,0.8829,-6.0,7.76,0.0,21.2
4129,0.2153,-0.0146,0.8873,-6.06,7.68,-0.02,21.2
4139,0.2179,-0.0155,0.8867,-6.06,7.71,-0.12,21.19
4149,0.217,-0.0134,0.8898,-6.0,7.71,-0.03,21.19
4159,0.2157,-0.0115,0.8867,-6.0,7.66,0.03,21.22
4169,0.2151,-0.0161,0.8835,-6.12,7.71,-0.06,21.19
4179,0.2137,-0.0155,0.8854,-6.08,7.76,0.02,21.21
4189,0.2168,-0.0139,0.8879,-6.05,7.71,0.05,21.19
4199,0.2178,-0.0156,0.8884,-6.11,7.66,0.03,21.22
4209,0.2144,-0.0156,0.8861,-6.09,7.65,0.0,21.21
4219,0.2178,-0.0144,0.8877,-6.08,7.74,0.0,21.22
4229,0.2158,-0.015,0.8873,-6.14,7.76,-0.02,21.2
4239,0.2169,-0.0166,0.8855,-6.17,7.68,0.03,21.18
4249,0.2164,-0.0145,0.8873,-6.05,7.68,-0.06,21.2
4259,0.2161,-0.0173,0.8846,-6.08,7.65,-0.02,21.2
4269,0.2151,-0.0164,0.8884,-6.02,7.69,0.0,21.23
4279,0.2164,-0.0135,0.8861,-6.05,7.77,-0.06,21.2
4289,0.217,-0.0156,0.8867,-6.06,7.66,-0.06,21.19
4299,0.2151,-0.0157,0.8848,-6.0,7.76,-0.08,21.23
4309,0.2166,-0.0165,0.8833,-6.14,7.68,-0.06,21.23
4319,0.2164,-0.0144,0.8861,-6.02,7.68,0.02,21.22
4329,0.2195,-0.0127,0.885,-6.09,7.71,-0.08,21.24
4339,0.2168,-0.0138,0.8878,-6.06,7.68,-0.06,21.21
4349,0.2146,-0.014,0.8866,-6.09,7.71,0.03,21.21
4359,0.2144,-0.0159,0.8838,-6.08,7.62,0.03,21.23
4369,0.2136,-0.0157,0.886,-5.95,7.71,-0.05,21.22
4379,0.2159,-0.0167,0.8853,-6.0,7.71,-0.05,21.2
4389,0.2153,-0.0135,0.8859,-6.0,7.59,0.03,21.22
4399,0.2163,-0.0154,0.8856,-6.09,7.68,-0.03,21.18
4409,0.2178,-0.0154,0.886,-6.03,7.77,0.03,21.2
4419,0.218,-0.0149,0.8865,-6.05,7.65,-0.09,21.21
4429,0.214,-0.0156,0.8856,-6.03,7.77,-0.06,21.2
4439,0.2186,-0.0142,0.8864,-6.08,7.69,-0.05,21.22
4449,0.2184,-0.0139,0.8849,-6.05,7.73,0.03,21.23
4459,0.217,-0.0159,0.8853,-6.17,7.62,-0.03,21.22
4469,0.2191,-0.0131,0.8833,-6.02,7.76,-0.03,21.23
4479,0.2162,-0.0171,0.8843,-6.03,7.76,0.05,21.22
4489,0.2166,-0.0134,0.8873,-6.02,7.65,-0.05,21.21
4499,0.2161,-0.0166,0.8849,-6.03,7.69,-0.08,21.22
4509,0.2156,-0.0112,0.8857,-6.08,7.68,0.05,21.22
4519,0.2157,-0.0137,0.8854,-6.09,7.63,-0.06,21.22
4529,0.2163,-0.0131,0.8875,-6.06,7.66,0.0,21.22
4539,0.2173,-0.0138,0.8857,-6.09,7.69,-0.02,21.25
4549,0.2162,-0.0134,0.8853,-6.0,7.66,-0.09,21.24
4559,0.2179,-0.0177,0.8851,-6.08,7.79,-0.14,21.22
4569,0.2213,-0.0151,0.8798,-6.03,7.71,-0.02,21.24
4579,0.2198,-0.0142,0.8843,-6.11,7.66,-0.05,21.22
4589,0.2136,-0.015,0.8844,-6.03,7.69,-0.03,21.23
4599,0.2144,-0.0171,0.8854,-6.03,7.79,-0.02,21.22
4609,0.2166,-0.0159,0.8871,-6.03,7.79,-0.12,21.23
4619,0.219,-0.0166,0.8893,-6.03,7.77,-0.05,21.24
4629,0.2175,-0.0133,0.8846,-6.12,7.71,-0.05,21.24
4639,0.2179,-0.015,0.8837,-6.03,7.73,0.02,21.22
4649,0.2158,-0.017,0.8849,-6.06,7.76,-0.12,21.23
4659,0.2152,-0.0133,0.8859,-6.08,7.77,0.05,21.24
4669,0.2159,-0.0151,0.884,-6.06,7.66,-0.11,21.24
4679,0.2169,-0.0137,0.8823,-6.02,7.68,-0.08,21.24
4689,0.2183,-0.0151,0.8864,-6.0,7.66,0.06,21.21
4699,0.2145,-0.0125,0.8844,-5.94,7.6,0.0,21.22
4710,0.2162,-0.0173,0.8851,-6.03,7.6,0.03,21.22
4720,0.2202,-0.0151,0.8834,-6.09,7.74,-0.06,21.24
4730,0.2158,-0.0143,0.8867,-6.2,7.71,-0.05,21.23
4740,0.2145,-0.0131,0.8873,-6.09,7.66,0.02,21.22
4750,0.2173,-0.0127,0.8873,-6.0,7.73,0.0,21.23
4760,0.2163,-0.0118,0.8848,-6.03,7.74,-0.05,21.25
4770,0.2179,-0.0128,0.8871,-6.0,7.69,-0.03,21.22
4780,0.2192,-0.0162,0.8888,-6.03,7.65,-0.05,21.24
4790,0.2153,-0.0145,0.8862,-6.09,7.73,-0.06,21.22
4800,0.2133,-0.0121,0.8864,-6.05,7.73,-0.02,21.24
4810,0.2153,-0.0146,0.8817,-6.11,7.69,-0.02,21.24
4820,0.2173,-0.0166,0.8849,-5.94,7.68,0.02,21.25
4830,0.2137,-0.0157,0.8883,-6.05,7.74,-0.08,21.25
4840,0.2169,-0.0151,0.8834,-6.06,7.65,-0.03,21.23
4850,0.2144,-0.0161,0.8888,-6.03,7.66,0.0,21.24
4861,0.2184,-0.0132,0.8854,-6.02,7.63,-0.02,21.25
4871,0.2141,-0.0161,0.8844,-6.08,7.68,-0.06,21.23
4881,0.2177,-0.0143,0.8817,-6.14,7.73,-0.02,21.25
4891,0.2147,-0.0155,0.8873,-6.0,7.66,-0.02,21.23
4901,0.2172,-0.0154,0.8872,-6.09,7.76,-0.02,21.26
4911,0.2164,-0.015,0.8844,-6.12,7.63,-0.03,21.25
4921,0.2156,-0.0146,0.8895,-6.06,7.68,0.06,21.26
4931,0.2153,-0.0165,0.8864,-6.03,7.66,0.05,21.26
4941,0.2168,-0.0153,0.8867,-6.03,7.85,-0.06,21.26
4951,0.2167,-0.0168,0.8877,-6.03,7.62,0.0,21.25
4961,0.2164,-0.014,0.8896,-6.09,7.66,-0.02,21.25
4971,0.217,-0.0142,0.8878,-6.02,7.68,0.02,21.24
4981,0.2152,-0.0166,0.8872,-6.03,7.69,-0.02,21.26
4991,0.2191,-0.0139,0.886,-6.12,7.83,0.03,21.26
5001,0.2142,-0.0112,0.885,-6.0,7.74,0.0,21.25
5011,0.2156,-0.0121,0.8848,-6.0,7.69,0.05,21.25
5021,0.2179,-0.0153,0.8846,-5.98,7.74,0.0,21.24
5031,0.2162,-0.0146,0.8895,-6.03,7.71,-0.06,21.23
5041,0.2144,-0.0145,0.8833,-6.08,7.8,0.0,21.22
5051,0.2161,-0.0164,0.8903,-6.06,7.69,0.02,21.25
5061,0.2168,-0.014,0.8867,-6.02,7.69,0.06,21.27
5071,0.2201,-0.0164,0.8875,-6.0,7.68,0.06,21.26
5081,0.2169,-0.0154,0.8848,-6.03,7.73,-0.06,21.24
5091,0.2188,-0.0153,0.8865,-6.21,7.71,0.0,21.25
5101,0.2172,-0.0131,0.8855,-6.06,7.73,0.02,21.26
5111,0.2148,-0.0146,0.8877,-6.05,7.6,-0.05,21.25
5121,0.2167,-0.015,0.8865,-6.06,7.66,-0.03,21.27
5131,0.2133,-0.0122,0.886,-6.11,7.71,-0.09,21.25
5141,0.2133,-0.0156,0.885,-6.08,7.76,-0.03,21.27
5151,0.2123,-0.0128,0.8854,-6.09,7.77,-0.15,21.25
5161,0.2144,-0.0128,0.8848,-6.05,7.68,-0.05,21.28
5171,0.2136,-0.0144,0.8864,-6.08,7.65,-0.05,21.26
5181,0.2153,-0.014,0.8868,-6.0,7.71,0.0,21.28
5191,0.2163,-0.017,0.8848,-6.05,7.65,0.03,21.26
5201,0.2159,-0.0151,0.8854,-5.98,7.65,-0.03,21.27
5211,0.2169,-0.0126,0.8837,-6.09,7.73,0.0,21.27
5221,0.2166,-0.0167,0.8849,-6.12,7.62,-0.03,21.27
5231,0.2158,-0.0126,0.886,-6.17,7.66,-0.08,21.27
5241,0.2166,-0.0145,0.8876,-6.09,7.69,0.02,21.24
5251,0.219,-0.0135,0.8857,-6.06,7.66,0.0,21.28
5261,0.2164,-0.0134,0.8859,-6.02,7.68,0.06,21.27
5271,0.219,-0.0149,0.8867,-6.06,7.74,0.02,21.27
5281,0.218,-0.0133,0.8872,-6.11,7.66,0.03,21.3
5291,0.2168,-0.0145,0.8868,-6.08,7.71,0.03,21.28
5301,0.2158,-0.0165,0.8837,-6.09,7.68,0.09,21.27
5311,0.22,-0.016,0.8887,-6.08,7.73,-0.03,21.26
5321,0.2152,-0.0148,0.8854,-6.03,7.69,0.06,21.26
5331,0.2145,-0.0112,0.8868,-6.14,7.8,-0.02,21.27
5341,0.2135,-0.0172,0.8876,-6.03,7.69,-0.06,21.3
5351,0.2166,-0.0155,0.8823,-6.05,7.71,-0.02,21.26
5361,0.2141,-0.0159,0.8844,-6.08,7.73,-0.09,21.25
5371,0.2178,-0.0145,0.8856,-6.06,7.73,-0.03,21.26
5381,0.2168,-0.0151,0.8861,-6.03,7.69,-0.02,21.27
5391,0.2178,-0.0156,0.8833,-6.08,7.68,-0.03,21.3
5401,0.2181,-0.0132,0.8859,-6.14,7.65,-0.05,21.27
5411,0.2175,-0.0145,0.8872,-6.06,7.73,-0.05,21.29
5421,0.2172,-0.0168,0.8848,-6.14,7.76,-0.03,21.29
5431,0.215,-0.0151,0.8896,-6.03,7.71,0.02,21.29
5441,0.2164,-0.014,0.8838,-5.98,7.71,0.02,21.28
5451,0.214,-0.0142,0.8844,-6.08,7.69,-0.02,21.29
5461,0.2166,-0.0129,0.8867,-6.08,7.76,-0.05,21.28
5471,0.2157,-0.0159,0.8866,-6.09,7.63,0.0,21.27
5481,0.2148,-0.0146,0.889,-6.09,7.71,-0.06,21.28
5491,0.2137,-0.0142,0.8866,-6.05,7.66,-0.02,21.28
5501,0.2161,-0.0148,0.8898,-6.03,7.65,-0.05,21.31
5511,0.2159,-0.0172,0.884,-6.03,7.76,-0.06,21.29
5521,0.217,-0.014,0.882,-6.05,7.77,-0.05,21.29
5531,0.2162,-0.0128,0.8844,-6.09,7.76,-0.05,21.3
5541,0.2173,-0.0132,0.8844,-5.98,7.71,0.03,21.28
5551,0.2183,-0.0145,0.8892,-6.0,7.69,-0.12,21.29
5561,0.2151,-0.0131,0.8816,-6.03,7.65,-0.08,21.28
5571,0.2184,-0.015,0.8871,-6.05,7.66,-0.14,21.32
5581,0.2166,-0.0107,0.8842,-6.08,7.68,0.0,21.29
5591,0.2158,-0.015,0.8832,-6.11,7.68,0.03,21.3
5601,0.2126,-0.0148,0.8815,-5.94,7.63,-0.03,21.3
5611,0.2159,-0.0173,0.8839,-6.05,7.71,-0.05,21.3
5621,0.2197,-0.016,0.8837,-6.05,7.69,-0.06,21.29
5631,0.2173,-0.0157,0.8883,-6.08,7.69,-0.02,21.27
5641,0.2178,-0.0156,0.8849,-6.08,7.73,-0.05,21.29
5651,0.217,-0.0157,0.8879,-6.09,7.69,0.03,21.31
5661,0.2175,-0.0143,0.8873,-6.08,7.68,0.06,21.31
5671,0.2163,-0.0161,0.8878,-6.11,7.68,0.0,21.31
5681,0.2155,-0.0166,0.8867,-6.08,7.69,-0.02,21.32
5691,0.214,-0.0157,0.8853,-6.05,7.74,0.02,21.32
5701,0.2198,-0.0151,0.8837,-6.0,7.71,-0.08,21.31
5711,0.2159,-0.0122,0.8872,-6.14,7.82,-0.03,21.31
5721,0.2145,-0.0132,0.8837,-6.0,7.77,-0.05,21.33
5731,0.2164,-0.0111,0.8831,-6.03,7.63,-0.02,21.3
5741,0.2186,-0.0117,0.8855,-6.06,7.73,0.0,21.28
5751,0.2195,-0.0138,0.8827,-6.11,7.74,-0.12,21.32
5761,0.2167,-0.016,0.8856,-6.02,7.68,-0.06,21.31
5771,0.2157,-0.0111,0.885,-6.03,7.71,0.05,21.3
5781,0.2162,-0.0137,0.8856,-6.08,7.73,0.02,21.3
5791,0.2162,-0.0142,0.8851,-6.0,7.69,0.05,21.35
5801,0.2179,-0.0125,0.885,-6.08,7.76,-0.03,21.33
5811,0.2159,-0.0134,0.8829,-6.03,7.65,0.0,21.33
5821,0.2159,-0.0134,0.8857,-6.02,7.62,0.02,21.32
5831,0.2145,-0.014,0.8845,-6.06,7.66,-0.12,21.32
5841,0.2144,-0.0146,0.8801,-6.11,7.69,-0.06,21.32
5851,0.215,-0.0142,0.8828,-6.06,7.73,-0.02,21.33
5861,0.2163,-0.0155,0.887,-6.12,7.77,0.03,21.3
5871,0.2162,-0.0133,0.8871,-5.95,7.69,0.0,21.3
5881,0.2166,-0.0129,0.8806,-6.09,7.69,-0.02,21.29
5891,0.2157,-0.0139,0.8855,-6.12,7.74,-0.02,21.33
5901,0.2167,-0.0129,0.8853,-6.11,7.73,0.0,21.32
5911,0.2179,-0.0153,0.8873,-6.08,7.68,0.03,21.3
5921,0.2191,-0.0166,0.8871,-5.98,7.74,-0.06,21.3
5931,0.2166,-0.014,0.8867,-6.09,7.62,-0.02,21.3
5941,0.2191,-0.0156,0.8871,-5.98,7.71,-0.02,21.32
5951,0.2155,-0.0139,0.8848,-6.03,7.63,-0.02,21.31
5961,0.2155,-0.0148,0.8894,-6.06,7.68,-0.06,21.31
5971,0.2152,-0.0146,0.882,-6.05,7.56,-0.02,21.32
5981,0.2151,-0.015,0.8883,-6.08,7.76,-0.05,21.31
5991,0.2147,-0.0126,0.8907,-6.11,7.74,-0.02,21.32
6001,0.2167,-0.0135,0.8884,-6.09,7.69,-0.03,21.31
6011,0.2167,-0.0133,0.884,-6.02,7.62,-0.08,21.3
6021,0.2167,-0.0139,0.8867,-6.14,7.73,-0.06,21.32
6031,0.2179,-0.0149,0.8861,-6.08,7.66,0.0,21.31
6041,0.2181,-0.0142,0.8842,-6.11,7.66,-0.06,21.31
6051,0.2172,-0.0157,0.8848,-6.09,7.71,0.03,21.3
6061,0.2136,-0.0151,0.8859,-6.05,7.68,-0.03,21.33
6071,0.2155,-0.0101,0.884,-6.05,7.71,-0.06,21.32
6081,0.217,-0.0125,0.8868,-6.05,7.73,-0.06,21.32
6091,0.2166,-0.0153,0.8866,-6.05,7.69,-0.11,21.3
6101,0.2139,-0.0155,0.8884,-6.03,7.62,-0.08,21.31
6111,0.2152,-0.0155,0.8851,-6.14,7.62,-0.05,21.32
6121,0.2177,-0.0144,0.8875,-5.95,7.77,-0.06,21.34
6131,0.2172,-0.0138,0.8831,-6.03,7.68,-0.02,21.31
6141,0.2159,-0.0146,0.8823,-6.14,7.66,0.02,21.32
6151,0.2148,-0.0129,0.8861,-6.14,7.76,0.08,21.31
6161,0.2123,-0.0127,0.8876,-6.0,7.73,0.03,21.32
6171,0.2139,-0.0146,0.8856,-6.0,7.76,-0.08,21.34
6181,0.2156,-0.0137,0.8884,-6.09,7.73,-0.09,21.32
6191,0.2147,-0.014,0.8881,-6.03,7.74,-0.02,21.32
6201,0.2167,-0.0145,0.885,-6.06,7.74,-0.03,21.32
6211,0.2151,-0.0155,0.8868,-5.98,7.77,-0.03,21.34
6221,0.2169,-0.0154,0.8862,-6.0,7.71,-0.03,21.34
6231,0.2162,-0.0151,0.8856,-6.17,7.77,0.02,21.32
6241,0.2169,-0.0148,0.8846,-5.94,7.73,0.06,21.32
6251,0.2147,-0.0149,0.887,-6.03,7.66,-0.02,21.33
6261,0.2175,-0.0155,0.8882,-6.08,7.69,-0.08,21.34
6271,0.214,-0.0138,0.8844,-6.03,7.71,-0.05,21.32
6281,0.2157,-0.011,0.8844,-6.02,7.71,-0.05,21.32
6291,0.2172,-0.016,0.8842,-6.05,7.68,-0.08,21.33
6301,0.2158,-0.0161,0.8862,-6.05,7.63,-0.03,21.33
6311,0.2172,-0.0161,0.8857,-6.15,7.63,-0.06,21.33
6321,0.2166,-0.0166,0.8829,-6.06,7.65,0.05,21.35
6331,0.2178,-0.0156,0.8849,-5.98,7.66,-0.02,21.32
6342,0.2164,-0.0144,0.8842,-6.02,7.65,-0.03,21.33
6352,0.2159,-0.0155,0.8901,-6.03,7.71,-0.02,21.33
6362,0.2161,-0.0128,0.8856,-6.0,7.77,0.0,21.32
6372,0.2175,-0.0157,0.8893,-5.98,7.74,-0.02,21.32
6382,0.2145,-0.0129,0.8885,-6.05,7.66,-0.09,21.32
6396,0.2153,-0.0139,0.8868,-5.98,7.66,-0.03,21.34
6406,0.2163,-0.0134,0.8826,-6.06,7.69,-0.09,21.34
6416,0.2161,-0.0125,0.8861,-6.09,7.74,-0.02,21.34
6426,0.2163,-0.016,0.8876,-6.14,7.76,-0.02,21.32
6437,0.2177,-0.0157,0.8842,-6.12,7.65,-0.03,21.35
6447,0.2166,-0.0139,0.8837,-6.21,7.69,-0.38,21.33
6457,0.2231,-0.0153,0.8815,-6.12,7.6,-0.06,21.34
6467,0.2197,-0.0153,0.8843,-6.02,7.68,0.0,21.34
6477,0.2167,-0.0128,0.8895,-6.06,7.66,-0.02,21.34
6487,0.2139,-0.0135,0.8873,-5.97,7.69,-0.09,21.36
6497,0.2155,-0.0149,0.8861,-5.94,7.74,0.05,21.33
6507,0.2141,-0.0164,0.8854,-5.98,7.74,-0.11,21.33
6517,0.2161,-0.015,0.8851,-6.05,7.66,-0.03,21.34
6527,0.215,-0.0151,0.8871,-6.11,7.73,0.0,21.33
6537,0.2136,-0.0178,0.8865,-6.06,7.79,-0.02,21.34
6547,0.2157,-0.0144,0.8881,-6.06,7.71,-0.03,21.36
6557,0.2179,-0.016,0.8857,-5.95,7.66,0.0,21.35
6567,0.2172,-0.0143,0.8871,-6.08,7.68,-0.05,21.35
6577,0.2128,-0.0135,0.8881,-6.11,7.73,-0.06,21.36
6587,0.2169,-0.0151,0.886,-6.15,7.73,-0.02,21.35
6597,0.2159,-0.0164,0.8851,-6.08,7.63,0.08,21.34
6607,0.2161,-0.0146,0.8855,-6.06,7.69,0.09,21.37
6617,0.2147,-0.0162,0.8823,-6.06,7.62,-0.02,21.35
6627,0.2178,-0.0126,0.8844,-6.08,7.76,-0.02,21.36
6637,0.2161,-0.0142,0.8885,-6.03,7.74,-0.05,21.33
6647,0.2178,-0.0132,0.8855,-5.98,7.76,-0.06,21.34
6657,0.2192,-0.0179,0.8834,-6.03,7.71,0.06,21.35
6667,0.2155,-0.0134,0.8861,-6.11,7.63,0.02,21.36
6677,0.2145,-0.0135,0.884,-6.06,7.74,-0.03,21.33
6687,0.214,-0.0159,0.8893,-6.03,7.69,-0.05,21.36
6697,0.2192,-0.0143,0.8883,-6.12,7.71,-0.11,21.34
6707,0.2144,-0.0157,0.8837,-6.08,7.71,-0.05,21.32
6717,0.2184,-0.0149,0.8843,-6.03,7.69,-0.03,21.36
6727,0.2159,-0.0162,0.8853,-6.15,7.73,0.02,21.35
6737,0.2142,-0.0135,0.8868,-6.14,7.68,0.02,21.34
6747,0.2148,-0.0154,0.8837,-6.02,7.79,-0.03,21.34
6757,0.2129,-0.0133,0.8876,-6.08,7.69,0.02,21.31
6767,0.2185,-0.0172,0.8848,-6.06,7.71,-0.09,21.35
6777,0.2174,-0.0128,0.8843,-6.05,7.76,-0.03,21.34
6787,0.2145,-0.0133,0.8896,-6.0,7.68,0.0,21.37
6797,0.217,-0.0123,0.8871,-6.09,7.62,0.02,21.36
6807,0.2172,-0.0137,0.8854,-6.05,7.69,-0.05,21.35
6817,0.2168,-0.0148,0.8839,-6.12,7.71,0.02,21.36
6827,0.2161,-0.0114,0.8845,-6.08,7.65,0.02,21.35
6837,0.2141,-0.0129,0.8857,-6.08,7.73,0.08,21.35
6847,0.2161,-0.014,0.8842,-6.08,7.74,0.03,21.35
6858,0.2135,-0.0159,0.8868,-6.11,7.71,0.02,21.34
6868,0.2189,-0.0135,0.8879,-6.03,7.71,-0.12,21.33
6878,0.2152,-0.0133,0.8846,-6.06,7.74,-0.06,21.39
6889,0.2173,-0.0144,0.8845,-6.08,7.79,-0.08,21.34
6899,0.2174,-0.0157,0.8838,-6.0,7.66,-0.06,21.36
6909,0.2173,-0.0132,0.8849,-6.15,7.73,-0.08,21.36
6919,0.215,-0.0161,0.8888,-6.14,7.65,-0.06,21.35
6929,0.2181,-0.0125,0.8873,-6.12,7.66,0.0,21.36
6940,0.2158,-0.0149,0.8898,-6.03,7.65,0.02,21.36
6950,0.2159,-0.0144,0.8812,-6.06,7.71,-0.05,21.35
6960,0.214,-0.0157,0.8864,-6.15,7.63,-0.02,21.37
6970,0.2162,-0.0151,0.8854,-6.0,7.65,0.0,21.34
6980,0.2194,-0.0145,0.8856,-6.06,7.73,0.05,21.38
6990,0.219,-0.0134,0.8856,-6.15,7.68,0.06,21.36
7000,0.2167,-0.0126,0.8835,-6.15,7.66,-0.02,21.37
7010,0.2156,-0.016,0.8855,-6.06,7.69,-0.02,21.36
7020,0.2172,-0.0139,0.8861,-5.98,7.71,0.02,21.36
7030,0.2177,-0.0134,0.8885,-6.05,7.71,-0.11,21.36
7040,0.2185,-0.0132,0.8862,-6.03,7.62,-0.12,21.33
7050,0.217,-0.017,0.8859,-6.09,7.76,0.03,21.37
7060,0.2168,-0.0166,0.8853,-6.03,7.66,-0.05,21.37
7070,0.2123,-0.0137,0.8866,-6.05,7.74,-0.06,21.34
7080,0.2155,-0.0148,0.884,-6.02,7.74,-0.02,21.37
7090,0.2142,-0.0138,0.8838,-6.08,7.65,-0.03,21.36
7100,0.2144,-0.0137,0.8876,-6.14,7.79,0.03,21.37
7110,0.2144,-0.0153,0.8843,-6.03,7.73,-0.08,21.35
7120,0.2141,-0.0148,0.8877,-6.02,7.77,0.0,21.37
7130,0.2168,-0.0142,0.8881,-6.09,7.73,0.06,21.34
7140,0.2157,-0.0146,0.8843,-6.05,7.66,-0.02,21.33
7150,0.2179,-0.0142,0.8839,-6.14,7.65,-0.03,21.35
7160,0.2152,-0.0153,0.8845,-6.08,7.62,-0.09,21.38
7170,0.2167,-0.0146,0.8877,-6.06,7.71,0.03,21.36
7180,0.2157,-0.0146,0.8854,-6.09,7.74,0.03,21.39
7190,0.2162,-0.0148,0.887,-6.14,7.73,0.0,21.34
7200,0.2161,-0.0161,0.8821,-6.02,7.82,-0.03,21.36
7210,0.2156,-0.0118,0.8864,-6.02,7.77,0.02,21.37
7220,0.2172,-0.0139,0.8848,-6.11,7.74,-0.02,21.36
7230,0.2158,-0.0128,0.8862,-6.06,7.77,-0.08,21.39
7240,0.2131,-0.0123,0.886,-6.03,7.69,0.0,21.39
7250,0.2125,-0.0159,0.8824,-6.09,7.8,0.0,21.37
7260,0.2173,-0.0131,0.8857,-6.14,7.69,-0.08,21.36
7270,0.2142,-0.0151,0.8877,-6.09,7.69,0.02,21.36
7283,0.219,-0.0142,0.8872,-6.11,7.68,0.05,21.36
7293,0.2164,-0.0142,0.8877,-5.97,7.71,-0.05,21.37
7303,0.214,-0.0142,0.885,-6.08,7.65,-0.02,21.39
7313,0.2173,-0.0153,0.8872,-6.08,7.68,-0.06,21.4
7323,0.2172,-0.0148,0.8879,-6.02,7.71,-0.08,21.37
7333,0.2164,-0.0144,0.8851,-6.02,7.73,-0.03,21.38
7343,0.2156,-0.0154,0.8846,-6.06,7.76,0.06,21.38
7354,0.2152,-0.015,0.8809,-6.09,7.66,0.09,21.4
7364,0.2172,-0.0154,0.8879,-6.08,7.69,0.03,21.4
7374,0.217,-0.0121,0.884,-6.08,7.71,0.09,21.38
7384,0.2185,-0.0139,0.8851,-6.11,7.71,-0.03,21.39
7394,0.2173,-0.0133,0.8877,-6.11,7.65,-0.02,21.36
7404,0.2167,-0.0156,0.8845,-6.05,7.73,0.0,21.36
7415,0.2163,-0.0155,0.8893,-6.08,7.73,0.0,21.4
7425,0.2142,-0.0154,0.8839,-6.0,7.73,0.03,21.39
7435,0.2167,-0.0116,0.8884,-6.0,7.66,-0.02,21.37
7445,0.2155,-0.0138,0.8888,-6.14,7.76,-0.06,21.38
7455,0.2156,-0.016,0.8871,-6.11,7.66,0.0,21.37
7465,0.2163,-0.0161,0.8864,-6.05,7.63,0.02,21.37
7475,0.2158,-0.0149,0.8859,-6.08,7.74,0.0,21.37
7485,0.2166,-0.0145,0.8889,-6.08,7.77,0.02,21.39
7495,0.2177,-0.0121,0.887,-6.06,7.73,0.06,21.39
7505,0.2186,-0.0154,0.8878,-6.11,7.69,0.03,21.38
7515,0.2166,-0.0134,0.8861,-6.11,7.68,-0.05,21.37
7525,0.2168,-0.0161,0.8872,-6.06,7.73,-0.02,21.4
7535,0.2151,-0.0171,0.8854,-6.17,7.73,-0.05,21.38
7545,0.2133,-0.0142,0.8867,-6.06,7.68,0.03,21.37
7555,0.2151,-0.0142,0.8867,-6.15,7.68,-0.02,21.38
7565,0.217,-0.0142,0.8837,-6.17,7.77,0.03,21.39
7575,0.2159,-0.015,0.8853,-6.06,7.73,0.05,21.4
7585,0.2173,-0.0125,0.8829,-6.0,7.69,-0.05,21.39
7595,0.2158,-0.015,0.8829,-6.02,7.71,0.02,21.37
7605,0.2156,-0.0129,0.8851,-6.17,7.74,0.0,21.39
7615,0.2146,-0.0166,0.8884,-6.11,7.73,0.02,21.37
7625,0.215,-0.0146,0.8853,-6.11,7.77,-0.02,21.38
7635,0.2185,-0.0155,0.8864,-6.12,7.76,0.05,21.39
7645,0.2157,-0.0139,0.8837,-6.11,7.8,0.0,21.39
7655,0.2164,-0.0149,0.8914,-6.11,7.68,-0.02,21.4
7666,0.2156,-0.0149,0.8846,-6.14,7.74,-0.03,21.39
7676,0.2179,-0.0134,0.8894,-6.03,7.65,-0.09,21.39
7687,0.2189,-0.0117,0.8882,-6.08,7.76,-0.03,21.39
7697,0.2152,-0.0114,0.8872,-6.11,7.69,0.0,21.39
7707,0.2172,-0.0143,0.8844,-6.02,7.8,0.0,21.39
7717,0.2151,-0.0148,0.8849,-6.17,7.73,-0.02,21.37
7727,0.2161,-0.0145,0.8849,-6.12,7.66,0.0,21.4
7737,0.2146,-0.0138,0.8839,-6.08,7.69,-0.03,21.39
7747,0.2159,-0.0175,0.8909,-6.05,7.74,0.03,21.38
7757,0.2162,-0.0162,0.8883,-6.02,7.79,-0.05,21.4
7767,0.2173,-0.0129,0.8832,-6.09,7.71,-0.05,21.39
7777,0.2162,-0.0142,0.8868,-6.0,7.71,-0.05,21.39
7787,0.2183,-0.0151,0.8904,-6.03,7.73,0.03,21.4
7797,0.2157,-0.0111,0.8877,-6.08,7.73,-0.02,21.39
7807,0.2148,-0.0146,0.8884,-6.12,7.71,-0.05,21.4
7817,0.2163,-0.0143,0.886,-6.15,7.76,-0.06,21.38
7827,0.2142,-0.0144,0.8872,-6.03,7.69,-0.09,21.4
7837,0.2174,-0.0167,0.8876,-6.03,7.8,0.0,21.39
7847,0.2151,-0.0167,0.8834,-6.12,7.69,-0.05,21.4
7857,0.2124,-0.0131,0.8832,-6.11,7.68,-0.06,21.42
7867,0.2161,-0.0149,0.889,-6.2,7.73,-0.05,21.38
7877,0.2166,-0.012,0.8868,-6.09,7.71,-0.05,21.4
7887,0.2175,-0.0139,0.8879,-6.09,7.71,-0.05,21.39
7897,0.2139,-0.0155,0.8849,-6.05,7.65,-0.15,21.42
7907,0.2166,-0.0157,0.8877,-6.09,7.71,-0.05,21.4
7917,0.2185,-0.0156,0.8846,-6.08,7.65,0.02,21.41
7927,0.2181,-0.017,0.8855,-6.08,7.71,0.0,21.4
7937,0.2153,-0.014,0.8855,-6.08,7.66,0.03,21.39
7947,0.2162,-0.015,0.8864,-6.06,7.66,-0.05,21.38
7957,0.2161,-0.0134,0.8848,-6.06,7.73,-0.02,21.41
7968,0.2175,-0.0167,0.8844,-6.15,7.82,-0.11,21.41
7978,0.2173,-0.0132,0.8862,-6.02,7.71,-0.08,21.39
7988,0.217,-0.0146,0.8848,-6.02,7.68,-0.05,21.39
7998,0.2172,-0.0167,0.8845,-6.09,7.82,0.0,21.41
8008,0.2157,-0.0133,0.8882,-6.11,7.77,0.02,21.41
8018,0.217,-0.0149,0.8848,-6.14,7.76,-0.09,21.4
8028,0.2164,-0.0129,0.8848,-6.06,7.73,0.03,21.38
8038,0.217,-0.0154,0.8876,-6.06,7.69,-0.02,21.39
8048,0.2148,-0.017,0.8873,-6.02,7.71,-0.03,21.41
8059,0.2131,-0.0142,0.8872,-6.03,7.69,-0.06,21.4
8069,0.2136,-0.015,0.8898,-6.09,7.73,-0.02,21.42
8079,0.2129,-0.0159,0.8807,-6.03,7.68,0.0,21.42
8089,0.2142,-0.0145,0.8828,-5.97,7.63,-0.02,21.39
8099,0.2161,-0.0177,0.885,-6.05,7.77,0.03,21.4
8109,0.2167,-0.0146,0.8883,-6.08,7.69,0.0,21.44
8119,0.2179,-0.012,0.8855,-6.09,7.74,-0.08,21.43
8129,0.2181,-0.0149,0.887,-6.09,7.69,-0.09,21.42
8139,0.2183,-0.0137,0.8861,-6.03,7.76,-0.09,21.42
8149,0.2162,-0.0145,0.8862,-6.09,7.68,0.03,21.4
8159,0.2189,-0.0127,0.8844,-6.17,7.69,-0.05,21.39
8169,0.218,-0.0142,0.8844,-6.11,7.73,0.03,21.4
8179,0.2166,-0.0118,0.8872,-6.15,7.68,-0.03,21.42
8189,0.2137,-0.0134,0.8912,-6.09,7.66,-0.11,21.41
8199,0.2153,-0.015,0.8834,-6.09,7.76,-0.03,21.41
8209,0.2164,-0.0154,0.8876,-6.11,7.68,-0.03,21.42
8219,0.2124,-0.0131,0.8842,-6.12,7.68,0.0,21.42
8229,0.2151,-0.0137,0.8875,-6.08,7.76,-0.08,21.42
8239,0.2167,-0.0154,0.887,-6.14,7.74,0.02,21.4
8249,0.2157,-0.0167,0.8843,-6.06,7.74,-0.11,21.4
8259,0.2153,-0.0134,0.8888,-5.97,7.8,-0.05,21.4
8269,0.2162,-0.0175,0.8856,-6.08,7.71,-0.11,21.43
8279,0.2158,-0.0142,0.8861,-6.02,7.76,0.0,21.39
8289,0.2169,-0.0154,0.8888,-5.98,7.76,0.03,21.42
8299,0.2157,-0.0132,0.8889,-6.11,7.68,-0.02,21.41
8309,0.22,-0.0143,0.8831,-6.06,7.73,-0.03,21.4
8319,0.2209,-0.0138,0.8867,-6.17,7.76,-0.03,21.39
8329,0.2192,-0.0145,0.8853,-6.05,7.82,0.0,21.42
8339,0.2148,-0.0123,0.8872,-6.06,7.71,-0.05,21.42
8349,0.2155,-0.0133,0.8855,-6.12,7.68,-0.11,21.42
8359,0.2179,-0.0183,0.8834,-6.09,7.73,-0.02,21.38
8369,0.2192,-0.0145,0.8843,-6.02,7.74,-0.03,21.43
8379,0.2205,-0.0153,0.8826,-6.03,7.69,-0.03,21.42
8389,0.2167,-0.0167,0.8892,-6.05,7.76,0.0,21.4
8399,0.2136,-0.0155,0.8905,-6.02,7.76,-0.05,21.42
8409,0.2162,-0.0168,0.8871,-6.14,7.71,-0.11,21.4
8419,0.2162,-0.0142,0.8834,-6.08,7.76,-0.05,21.41
8429,0.217,-0.0173,0.8856,-6.12,7.66,-0.05,21.42
8439,0.2158,-0.0137,0.8881,-6.05,7.82,-0.03,21.41
8449,0.2147,-0.0149,0.8889,-6.02,7.68,-0.03,21.41
8459,0.2147,-0.0143,0.8873,-6.14,7.76,0.03,21.39
8469,0.2177,-0.0126,0.8844,-6.17,7.69,0.0,21.39
8479,0.2198,-0.0143,0.8885,-5.97,7.71,-0.08,21.41
8489,0.2164,-0.0122,0.8855,-6.02,7.79,-0.03,21.41
8499,0.2177,-0.0145,0.8862,-6.09,7.71,0.0,21.41
8509,0.2157,-0.0123,0.8868,-6.03,7.76,0.0,21.43
8519,0.2151,-0.0125,0.8871,-6.08,7.76,-0.06,21.4
8529,0.2136,-0.0114,0.8883,-6.09,7.79,0.03,21.42
8539,0.2157,-0.0133,0.889,-6.11,7.79,0.06,21.42
8549,0.215,-0.0179,0.8883,-6.09,7.66,0.0,21.41
8559,0.2164,-0.0149,0.8866,-6.08,7.71,-0.05,21.42
8569,0.2189,-0.0135,0.887,-6.06,7.71,0.03,21.41
8579,0.2178,-0.0138,0.8837,-6.02,7.68,0.0,21.42
8589,0.2159,-0.0126,0.8832,-5.98,7.73,-0.03,21.42
8599,0.2156,-0.0162,0.8857,-6.02,7.71,0.02,21.41
8609,0.2184,-0.0175,0.8853,-6.12,7.74,0.02,21.42
8619,0.2155,-0.0129,0.8868,-6.12,7.73,-0.09,21.42
8629,0.2167,-0.014,0.8868,-6.14,7.68,-0.03,21.42
8639,0.2145,-0.0172,0.8882,-6.12,7.68,-0.11,21.42
8649,0.2175,-0.0164,0.8881,-6.05,7.74,-0.12,21.43
8659,0.2167,-0.0131,0.8843,-6.12,7.73,0.0,21.43
8669,0.2159,-0.0153,0.8848,-5.97,7.8,-0.06,21.45
8679,0.2148,-0.0111,0.8862,-6.02,7.74,-0.09,21.43
8689,0.2146,-0.0146,0.8876,-6.08,7.6,-0.03,21.4
8699,0.2157,-0.0116,0.8885,-6.12,7.71,-0.03,21.38
8709,0.2163,-0.0118,0.8928,-6.05,7.63,0.0,21.43
8719,0.2157,-0.0159,0.8845,-6.06,7.71,0.0,21.42
8729,0.2191,-0.0142,0.8842,-6.06,7.74,-0.08,21.42
8739,0.2203,-0.0175,0.8868,-6.14,7.69,-0.08,21.4
8749,0.2153,-0.0143,0.8918,-6.05,7.71,0.02,21.4
8759,0.2142,-0.0155,0.8864,-6.2,7.71,-0.03,21.41
8769,0.2144,-0.0162,0.8879,-6.09,7.65,0.02,21.43
8779,0.2164,-0.0172,0.8849,-6.06,7.77,-0.06,21.44
8789,0.2178,-0.0172,0.8856,-6.08,7.69,-0.06,21.44
8799,0.2177,-0.0148,0.8845,-6.18,7.68,0.0,21.42
8809,0.2168,-0.0149,0.8877,-6.14,7.71,-0.08,21.41
8819,0.2158,-0.0159,0.8849,-6.05,7.68,-0.06,21.41
8829,0.2155,-0.0166,0.8872,-6.08,7.69,-0.02,21.43
8839,0.2172,-0.0139,0.8888,-6.12,7.76,-0.03,21.45
8849,0.215,-0.0197,0.8893,-6.11,7.76,0.05,21.41
8859,0.2136,-0.011,0.8892,-6.09,7.73,-0.02,21.42
8869,0.2178,-0.0096,0.8885,-6.02,7.62,-0.11,21.42
8879,0.2158,-0.0084,0.8849,-6.12,7.63,0.0,21.42
8889,0.2152,-0.0094,0.8843,-6.05,7.68,0.02,21.44
8899,0.2141,-0.0127,0.8833,-6.09,7.69,-0.05,21.43
8909,0.2164,-0.0138,0.8824,-6.12,7.68,-0.02,21.42
8919,0.2172,-0.0115,0.8859,-6.0,7.76,-0.08,21.45
8929,0.2169,-0.0131,0.8855,-5.98,7.77,0.02,21.44
8939,0.2158,-0.0155,0.8833,-6.08,7.73,-0.02,21.43
8949,0.2151,-0.017,0.8843,-6.09,7.63,-0.09,21.44
8959,0.2146,-0.0168,0.8866,-5.95,7.73,-0.03,21.46
8969,0.2167,-0.0186,0.8853,-6.08,7.69,-0.08,21.44
8979,0.2157,-0.0214,0.884,-6.05,7.65,-0.09,21.42
8989,0.2153,-0.0187,0.8844,-6.09,7.69,0.02,21.42
8999,0.2148,-0.0179,0.8875,-6.0,7.73,0.08,21.42
9009,0.2153,-0.0198,0.8821,-6.08,7.62,-0.05,21.44
9019,0.2168,-0.0192,0.8844,-6.05,7.74,-0.11,21.42
9029,0.2162,-0.0175,0.8879,-6.06,7.71,0.02,21.42
9039,0.2153,-0.0148,0.8864,-6.11,7.74,0.05,21.44
9049,0.2163,-0.0145,0.8864,-6.02,7.63,-0.02,21.43
9059,0.2155,-0.0137,0.8846,-5.95,7.71,-0.14,21.43
9069,0.2168,-0.0146,0.8845,-6.03,7.77,-0.02,21.42
9079,0.2126,-0.0125,0.8853,-6.05,7.66,0.0,21.42
9089,0.2163,-0.0131,0.8876,-6.09,7.76,-0.03,21.44
9099,0.2169,-0.0122,0.886,-6.03,7.66,-0.05,21.46
9109,0.2163,-0.0121,0.8873,-5.95,7.59,0.02,21.45
9119,0.2146,-0.0133,0.8873,-6.15,7.71,0.03,21.43
9129,0.2156,-0.0118,0.8848,-6.17,7.69,-0.05,21.45
9139,0.2155,-0.0131,0.8895,-6.15,7.82,-0.05,21.43
9149,0.2177,-0.0135,0.887,-6.21,7.73,0.02,21.44
9159,0.213,-0.0145,0.8903,-6.14,7.65,0.03,21.47
9169,0.2162,-0.0151,0.8862,-6.06,7.63,-0.05,21.46
9179,0.217,-0.017,0.8853,-6.05,7.65,-0.03,21.44
9189,0.2156,-0.0162,0.886,-6.11,7.73,0.0,21.44
9199,0.2174,-0.0183,0.8878,-6.05,7.73,0.02,21.45
9209,0.2169,-0.0179,0.8837,-6.12,7.71,-0.06,21.43
9219,0.2164,-0.0168,0.8892,-6.06,7.69,-0.06,21.45
9229,0.2147,-0.0175,0.8848,-6.03,7.73,-0.11,21.44
9239,0.2164,-0.0159,0.8877,-6.12,7.69,0.02,21.46
9249,0.2153,-0.0164,0.8872,-6.08,7.76,-0.05,21.47
9259,0.2163,-0.0167,0.8862,-6.03,7.73,-0.09,21.45
9269,0.2172,-0.0131,0.8815,-6.12,7.71,-0.02,21.45
9279,0.2159,-0.0167,0.8888,-6.15,7.65,-0.06,21.46
9289,0.217,-0.0126,0.8849,-6.11,7.68,-0.08,21.44
9299,0.2173,-0.0146,0.8875,-6.03,7.76,-0.03,21.44
9309,0.2169,-0.0143,0.8864,-6.11,7.76,0.02,21.44
9319,0.2144,-0.0137,0.8805,-6.12,7.66,0.08,21.46
9329,0.2147,-0.0101,0.8862,-6.09,7.76,-0.05,21.47
9339,0.2167,-0.0146,0.885,-6.05,7.74,-0.05,21.46
9349,0.2163,-0.0127,0.8873,-6.06,7.69,-0.05,21.46
9359,0.2164,-0.0107,0.8851,-6.08,7.77,-0.03,21.47
9369,0.2147,-0.0137,0.8887,-6.05,7.71,-0.09,21.44
9379,0.2146,-0.017,0.8889,-6.05,7.65,-0.08,21.47
9389,0.2153,-0.0146,0.8865,-6.0,7.71,-0.02,21.49
9399,0.2159,-0.016,0.8845,-6.14,7.69,-0.09,21.44
9409,0.2173,-0.016,0.8843,-6.14,7.79,-0.11,21.45
9419,0.2163,-0.0149,0.886,-6.15,7.66,-0.02,21.45
9429,0.2174,-0.0171,0.8873,-6.17,7.6,-0.11,21.43
9439,0.2178,-0.0173,0.8861,-6.2,7.74,-0.02,21.45
9449,0.2158,-0.0157,0.8875,-6.09,7.74,-0.02,21.45
9459,0.2151,-0.016,0.886,-6.03,7.68,0.0,21.45
9469,0.2179,-0.0192,0.8877,-6.02,7.71,-0.02,21.43
9479,0.2174,-0.0162,0.8868,-6.06,7.66,0.02,21.47
9489,0.2163,-0.0148,0.8875,-6.06,7.66,0.03,21.47
9500,0.2147,-0.0161,0.8875,-6.15,7.69,-0.05,21.47
9510,0.2148,-0.017,0.89,-6.09,7.71,-0.03,21.44
9520,0.2179,-0.0153,0.8853,-6.03,7.66,-0.03,21.45
9530,0.2153,-0.0142,0.8862,-6.05,7.68,0.0,21.46
9540,0.2167,-0.0115,0.8862,-6.14,7.71,-0.08,21.44
9550,0.2152,-0.0142,0.8879,-6.03,7.68,-0.08,21.47
9560,0.2153,-0.014,0.8871,-6.12,7.69,-0.06,21.47
9570,0.2175,-0.0122,0.8853,-6.23,7.79,-0.05,21.47
9580,0.2152,-0.0125,0.8881,-6.09,7.82,-0.06,21.45
9590,0.2162,-0.0111,0.8864,-6.03,7.77,-0.02,21.47
9600,0.2155,-0.0168,0.8861,-6.02,7.66,0.03,21.47
9610,0.217,-0.0151,0.8844,-5.94,7.66,0.03,21.47
9620,0.2158,-0.0135,0.8837,-6.12,7.68,-0.06,21.47
9631,0.2178,-0.0116,0.8868,-6.0,7.68,0.02,21.45
9641,0.2166,-0.0128,0.8856,-6.05,7.68,-0.03,21.47
9651,0.2168,-0.019,0.8883,-6.06,7.66,-0.05,21.45
9661,0.2168,-0.0159,0.8859,-6.06,7.66,-0.06,21.49
9671,0.2178,-0.0183,0.8896,-6.05,7.65,-0.03,21.45
9681,0.2164,-0.0164,0.8861,-6.06,7.71,-0.09,21.46
9691,0.2141,-0.0166,0.8866,-6.06,7.69,-0.05,21.47
9701,0.2142,-0.0172,0.8853,-6.03,7.74,-0.06,21.47
9711,0.219,-0.0145,0.8878,-6.05,7.71,0.0,21.44
9721,0.2181,-0.0164,0.8833,-6.09,7.68,-0.05,21.45
9731,0.2168,-0.0157,0.8864,-6.0,7.71,0.03,21.46
9741,0.2146,-0.0122,0.8885,-6.26,7.66,-0.05,21.47
9751,0.2166,-0.0153,0.8845,-6.12,7.77,-0.03,21.47
9761,0.2153,-0.0146,0.8879,-6.02,7.74,0.03,21.47
9771,0.2161,-0.0154,0.884,-6.03,7.69,-0.03,21.46
9781,0.2148,-0.0118,0.8861,-6.03,7.71,-0.03,21.44
9791,0.218,-0.0127,0.8883,-6.05,7.71,-0.12,21.46
9801,0.2174,-0.0133,0.8875,-6.09,7.76,0.02,21.48
9811,0.2168,-0.0089,0.8865,-6.12,7.73,-0.09,21.48
9821,0.2156,-0.0115,0.8848,-6.05,7.73,0.05,21.46
9831,0.2148,-0.0133,0.8856,-6.03,7.77,-0.09,21.48
9841,0.2155,-0.0122,0.8907,-6.02,7.71,-0.09,21.46
9851,0.2137,-0.0154,0.8875,-6.03,7.68,-0.05,21.46
9861,0.2158,-0.0145,0.8827,-6.0,7.66,-0.03,21.48
9871,0.2159,-0.0153,0.8862,-6.06,7.69,-0.06,21.47
9881,0.2202,-0.0175,0.8842,-6.05,7.63,-0.12,21.48
9891,0.218,-0.016,0.8835,-6.05,7.71,-0.08,21.46
9901,0.2166,-0.0157,0.8826,-6.05,7.71,0.02,21.48
9911,0.215,-0.0138,0.8889,-6.08,7.74,-0.06,21.47
9921,0.2162,-0.0161,0.8842,-6.08,7.77,-0.03,21.48
9931,0.2178,-0.0167,0.8851,-6.02,7.68,0.02,21.47
9941,0.2158,-0.0151,0.8887,-6.08,7.66,-0.02,21.48
9951,0.2118,-0.0171,0.8872,-6.02,7.74,-0.03,21.48
9961,0.2151,-0.0165,0.8855,-6.08,7.73,-0.06,21.49
9971,0.2158,-0.0156,0.8871,-6.11,7.74,-0.05,21.45
9981,0.2159,-0.0134,0.8871,-6.06,7.74,0.0,21.47
9991,0.2188,-0.0131,0.885,-6.02,7.63,-0.09,21.46
10001,0.2164,-0.0149,0.8856,-6.02,7.74,-0.02,21.48
10011,0.2145,-0.0128,0.8855,-6.02,7.71,-0.03,21.48
10021,0.2162,-0.0132,0.8893,-6.11,7.79,-0.08,21.45
10031,0.2151,-0.0104,0.8883,-6.06,7.76,-0.11,21.48
10041,0.2148,-0.0133,0.8829,-6.05,7.71,-0.03,21.5
10051,0.2157,-0.0155,0.8839,-6.09,7.77,-0.06,21.48
10061,0.213,-0.0145,0.8892,-6.08,7.69,0.0,21.5
10071,0.2152,-0.0139,0.8888,-6.12,7.71,0.03,21.48
10081,0.2166,-0.0132,0.8903,-6.12,7.76,-0.05,21.47
10091,0.2192,-0.0125,0.8849,-6.03,7.65,-0.02,21.48
10101,0.2153,-0.0131,0.8854,-6.14,7.66,0.0,21.48
10112,0.2157,-0.0161,0.8866,-6.12,7.76,-0.08,21.47
10123,0.2152,-0.0138,0.8864,-6.06,7.76,-0.06,21.49
10133,0.2159,-0.0135,0.8839,-6.06,7.73,0.05,21.48
10143,0.2161,-0.0168,0.8866,-6.06,7.66,0.0,21.49
10153,0.2173,-0.0176,0.8854,-6.02,7.69,-0.05,21.5
10163,0.2183,-0.017,0.889,-6.11,7.71,-0.11,21.49
10174,0.2174,-0.0167,0.8862,-6.09,7.69,-0.03,21.48
10184,0.2162,-0.019,0.8864,-6.05,7.76,-0.02,21.49
10195,0.2156,-0.0171,0.8842,-6.03,7.63,0.06,21.49
10205,0.2151,-0.0137,0.8815,-6.05,7.69,0.05,21.49
10215,0.214,-0.0176,0.8894,-6.05,7.68,-0.03,21.47
10225,0.22,-0.0164,0.884,-6.12,7.76,-0.03,21.48
10235,0.2181,-0.0135,0.8815,-6.03,7.68,0.08,21.47
10245,0.2177,-0.0122,0.8887,-6.06,7.79,-0.02,21.47
10255,0.218,-0.0148,0.8834,-5.98,7.74,-0.08,21.49
10265,0.2146,-0.0109,0.8878,-6.03,7.76,0.0,21.48
10275,0.2136,-0.0142,0.8875,-6.09,7.77,-0.02,21.49
10285,0.2142,-0.0131,0.8861,-6.0,7.68,-0.05,21.48
10295,0.2157,-0.0135,0.8849,-5.98,7.62,-0.03,21.5
10305,0.217,-0.0132,0.8854,-6.09,7.71,0.02,21.48
10315,0.2144,-0.0138,0.882,-5.98,7.68,0.02,21.49
10325,0.2166,-0.015,0.8868,-6.11,7.73,-0.15,21.5
10335,0.2162,-0.0128,0.8853,-6.14,7.83,-0.12,21.47
10345,0.2157,-0.0148,0.8877,-6.18,7.66,-0.08,21.47
10355,0.2157,-0.0135,0.8842,-6.03,7.73,0.0,21.45
10365,0.2157,-0.0159,0.882,-6.06,7.73,0.03,21.47
10375,0.2131,-0.0156,0.8842,-6.12,7.62,-0.02,21.47
10385,0.2157,-0.0156,0.8871,-6.06,7.76,-0.11,21.49
10395,0.218,-0.0188,0.8893,-6.12,7.63,0.0,21.48
10405,0.2189,-0.0164,0.8831,-6.09,7.73,-0.06,21.49
10415,0.217,-0.0172,0.8842,-6.17,7.68,-0.08,21.48
10425,0.2145,-0.014,0.8853,-6.06,7.71,-0.06,21.49
10435,0.2156,-0.0138,0.8853,-6.06,7.71,-0.09,21.5
10445,0.2137,-0.0157,0.8887,-6.05,7.71,-0.03,21.48
10455,0.2163,-0.0145,0.8849,-6.11,7.66,0.02,21.49
10465,0.2156,-0.0106,0.8878,-6.12,7.65,-0.06,21.47
10475,0.2167,-0.0122,0.8816,-6.02,7.73,-0.11,21.48
10485,0.2147,-0.0114,0.8828,-6.06,7.69,-0.08,21.49
10495,0.2162,-0.0112,0.8842,-6.06,7.71,-0.06,21.49
10505,0.215,-0.0118,0.8853,-6.12,7.73,-0.06,21.49
10515,0.2155,-0.0131,0.8849,-6.03,7.65,-0.09,21.48
10525,0.2163,-0.0134,0.8885,-6.11,7.68,-0.11,21.46
10535,0.2153,-0.0084,0.8857,-5.98,7.76,-0.05,21.52
10545,0.2181,-0.0121,0.8853,-6.15,7.79,0.02,21.5
10555,0.2189,-0.0128,0.8849,-6.11,7.76,-0.06,21.5
10565,0.2173,-0.0149,0.8882,-6.0,7.69,-0.15,21.47
10575,0.2155,-0.0156,0.8857,-6.06,7.73,0.0,21.49
10585,0.2189,-0.0156,0.8925,-6.03,7.71,0.0,21.51
10595,0.2178,-0.017,0.8876,-6.14,7.71,-0.02,21.49
10605,0.2175,-0.0156,0.8888,-6.05,7.79,0.0,21.47
10615,0.2178,-0.0166,0.8839,-6.03,7.76,-0.03,21.5
10625,0.213,-0.0161,0.8899,-6.05,7.68,-0.02,21.48
10635,0.2172,-0.016,0.8873,-6.08,7.71,-0.06,21.52
10645,0.2159,-0.0134,0.8877,-6.03,7.69,0.06,21.51
10655,0.2158,-0.0183,0.889,-6.02,7.69,-0.02,21.52
10665,0.2169,-0.0164,0.8878,-5.98,7.74,-0.08,21.5
10675,0.2179,-0.0143,0.8876,-6.09,7.71,0.02,21.5
10685,0.2188,-0.0193,0.8877,-6.06,7.77,-0.03,21.51
10695,0.2142,-0.0146,0.8826,-6.09,7.74,-0.09,21.48
10705,0.2151,-0.0123,0.8842,-6.0,7.68,-0.03,21.5
10715,0.218,-0.0101,0.8848,-6.09,7.77,-0.05,21.5
10725,0.2161,-0.0116,0.8904,-6.06,7.76,-0.02,21.49
10735,0.217,-0.0157,0.8857,-6.14,7.6,-0.02,21.49
10745,0.2159,-0.0131,0.8865,-6.06,7.76,-0.03,21.51
10755,0.2159,-0.0109,0.8885,-6.08,7.76,0.02,21.52
10765,0.2164,-0.0126,0.8815,-6.02,7.68,0.0,21.51
10775,0.2172,-0.0089,0.8837,-6.09,7.74,-0.03,21.52
10785,0.2172,-0.015,0.8846,-6.02,7.77,0.0,21.52
10795,0.2131,-0.0142,0.8855,-6.15,7.76,-0.02,21.52
10805,0.2162,-0.0164,0.8861,-6.08,7.66,-0.05,21.52
10815,0.2192,-0.0181,0.886,-6.11,7.71,-0.11,21.51
10825,0.2181,-0.0151,0.8888,-6.06,7.71,0.0,21.52
10835,0.2167,-0.0154,0.8855,-6.11,7.71,-0.11,21.52
10845,0.2183,-0.0155,0.8845,-6.08,7.79,0.02,21.48
10855,0.2164,-0.0139,0.8866,-6.03,7.69,-0.06,21.51
10865,0.2172,-0.017,0.8859,-6.09,7.62,-0.12,21.52
10875,0.2151,-0.0154,0.8877,-6.06,7.68,-0.03,21.52
10885,0.218,-0.0137,0.8879,-6.12,7.68,-0.03,21.52
10895,0.2156,-0.0148,0.8905,-6.11,7.66,0.05,21.51
10905,0.2159,-0.0148,0.884,-6.02,7.66,-0.02,21.5
10915,0.217,-0.0146,0.8849,-6.15,7.65,-0.09,21.49
10925,0.2191,-0.014,0.8832,-6.06,7.71,-0.06,21.53
10935,0.2161,-0.0135,0.8872,-6.09,7.68,0.0,21.51
10945,0.2169,-0.0148,0.8873,-6.14,7.77,0.0,21.52
10955,0.213,-0.0144,0.886,-6.05,7.69,0.0,21.52
10965,0.2151,-0.014,0.8865,-6.14,7.73,-0.05,21.52
10975,0.2183,-0.0096,0.8832,-6.09,7.66,0.03,21.5
10985,0.2179,-0.0167,0.8846,-6.06,7.74,-0.02,21.52
10995,0.2172,-0.014,0.8856,-6.02,7.69,-0.02,21.51
11005,0.2152,-0.0143,0.8901,-6.09,7.8,0.0,21.54
11015,0.2174,-0.0128,0.8849,-6.09,7.71,0.02,21.52
11025,0.2155,-0.0186,0.8859,-6.09,7.65,0.0,21.52
11035,0.2152,-0.017,0.8887,-6.09,7.73,0.02,21.53
11045,0.2183,-0.0144,0.8885,-5.94,7.74,-0.02,21.52
11055,0.2155,-0.0166,0.8867,-6.11,7.69,-0.11,21.52
11065,0.2166,-0.0176,0.8868,-6.06,7.68,-0.06,21.52
11075,0.2155,-0.0162,0.8854,-6.17,7.68,-0.08,21.52
11085,0.2156,-0.0154,0.8892,-6.0,7.76,-0.08,21.49
11095,0.2152,-0.0177,0.8861,-6.17,7.71,-0.02,21.52
11105,0.2162,-0.0146,0.887,-6.03,7.74,-0.05,21.52
11115,0.2168,-0.0178,0.8872,-6.11,7.74,0.0,21.52
11125,0.2172,-0.0132,0.8845,-6.12,7.71,-0.11,21.52
11135,0.2188,-0.0156,0.8846,-6.05,7.69,-0.02,21.52
11145,0.2179,-0.0157,0.8837,-6.05,7.74,-0.02,21.51
11155,0.2146,-0.0134,0.8882,-6.08,7.79,0.05,21.52
11165,0.2151,-0.014,0.8839,-6.17,7.69,0.0,21.5
11175,0.2179,-0.0132,0.8826,-6.03,7.77,-0.03,21.53
11185,0.2179,-0.0133,0.8851,-6.02,7.66,0.11,21.53
11195,0.2164,-0.0135,0.8864,-6.11,7.73,-0.06,21.54
11205,0.2173,-0.0132,0.8839,-6.11,7.66,-0.05,21.54
11215,0.2161,-0.016,0.8879,-6.09,7.74,0.0,21.52
11225,0.2158,-0.0126,0.8901,-6.09,7.8,-0.05,21.52
11235,0.2152,-0.0127,0.887,-6.11,7.77,-0.02,21.51
11245,0.2173,-0.0148,0.8859,-6.06,7.77,-0.05,21.51
11255,0.2168,-0.0145,0.8907,-6.06,7.74,-0.06,21.5
11265,0.2161,-0.0155,0.8881,-6.08,7.71,-0.14,21.52
11275,0.2164,-0.0143,0.8833,-6.14,7.71,0.06,21.52
11285,0.2159,-0.0145,0.8893,-6.05,7.63,0.02,21.52
11295,0.2144,-0.019,0.8835,-6.05,7.79,-0.06,21.53
11305,0.2173,-0.0184,0.8856,-6.06,7.8,-0.06,21.52
11315,0.2141,-0.015,0.8881,-6.12,7.73,0.02,21.53
11325,0.2178,-0.0161,0.8857,-6.12,7.76,-0.02,21.52
11335,0.215,-0.0166,0.8812,-6.14,7.71,-0.02,21.5
11345,0.2166,-0.0171,0.8846,-6.15,7.66,-0.02,21.53
11355,0.2163,-0.0156,0.8878,-6.05,7.71,-0.02,21.52
11365,0.213,-0.0145,0.8879,-6.12,7.74,0.02,21.5
11375,0.2186,-0.0129,0.8826,-5.98,7.66,0.0,21.53
11385,0.2148,-0.0149,0.884,-6.05,7.73,-0.06,21.51
11395,0.2158,-0.0179,0.8855,-6.11,7.74,0.0,21.54
11405,0.217,-0.0151,0.8862,-6.06,7.66,-0.09,21.52
11415,0.2147,-0.0143,0.8873,-6.18,7.73,-0.09,21.53
11425,0.2152,-0.0138,0.8818,-6.2,7.66,-0.02,21.52
11435,0.2164,-0.014,0.8881,-6.11,7.69,0.0,21.53
11445,0.2159,-0.0125,0.8882,-6.06,7.69,0.0,21.52
11455,0.2126,-0.0098,0.8856,-6.09,7.68,-0.05,21.51
11465,0.2151,-0.0143,0.8833,-6.0,7.79,0.0,21.52
11475,0.2184,-0.0153,0.8835,-6.11,7.73,-0.05,21.53
11485,0.2144,-0.0138,0.8875,-6.12,7.76,0.0,21.52
11495,0.2166,-0.0162,0.8899,-6.12,7.73,-0.03,21.5
11505,0.2157,-0.0157,0.8856,-6.09,7.71,-0.03,21.54
11515,0.2179,-0.0155,0.8862,-6.11,7.69,-0.02,21.51
11525,0.2141,-0.0156,0.884,-6.05,7.68,-0.05,21.52
11535,0.2152,-0.0155,0.8866,-6.09,7.65,0.03,21.52
11545,0.214,-0.0161,0.8866,-6.0,7.66,0.02,21.54
11555,0.2155,-0.0161,0.8851,-5.97,7.65,0.11,21.54
11565,0.2163,-0.0135,0.8848,-6.06,7.69,-0.02,21.53
11575,0.2162,-0.0121,0.8875,-6.12,7.65,0.02,21.53
11585,0.218,-0.0145,0.8892,-5.97,7.62,0.0,21.54
11595,0.2177,-0.0146,0.8795,-6.15,7.65,-0.06,21.56
11605,0.2169,-0.0126,0.8882,-6.06,7.71,-0.05,21.53
11615,0.2167,-0.0157,0.884,-6.11,7.77,0.0,21.54
11625,0.2136,-0.0134,0.8838,-6.14,7.71,-0.08,21.53
11635,0.2144,-0.0153,0.8884,-6.09,7.82,-0.05,21.52
11645,0.2151,-0.0159,0.8899,-6.06,7.76,-0.03,21.52
11655,0.2157,-0.0173,0.8843,-6.03,7.76,-0.05,21.53
11665,0.2162,-0.015,0.8842,-6.11,7.71,-0.11,21.53
11675,0.2194,-0.0149,0.8844,-6.08,7.69,-0.03,21.53
11685,0.2161,-0.0149,0.8867,-5.97,7.68,-0.05,21.53
11695,0.2152,-0.015,0.8866,-6.03,7.76,0.0,21.51
11705,0.2161,-0.0164,0.887,-5.97,7.73,-0.03,21.52
11715,0.2161,-0.0142,0.886,-6.11,7.73,-0.08,21.52
11725,0.2155,-0.0135,0.8848,-6.15,7.73,-0.03,21.52
11735,0.217,-0.0137,0.8854,-6.17,7.73,-0.03,21.52
11745,0.2178,-0.0165,0.8898,-6.03,7.71,-0.03,21.52
11755,0.2159,-0.0171,0.8889,-6.05,7.69,-0.05,21.53
11765,0.2156,-0.0139,0.8879,-6.03,7.74,0.02,21.53
11775,0.217,-0.017,0.8829,-5.98,7.65,0.03,21.52
11785,0.2147,-0.0134,0.8877,-6.08,7.63,-0.06,21.56
11795,0.2169,-0.0151,0.8873,-6.21,7.69,-0.03,21.54
11805,0.2172,-0.0151,0.8854,-6.05,7.71,0.02,21.53
11815,0.2189,-0.0186,0.8851,-6.08,7.66,-0.03,21.55
11825,0.2181,-0.0156,0.8846,-6.05,7.73,-0.12,21.54
11835,0.2198,-0.0156,0.8877,-6.06,7.69,0.05,21.51
11845,0.2157,-0.0137,0.8807,-6.05,7.73,-0.02,21.55
11855,0.2152,-0.0145,0.8833,-6.06,7.63,-0.03,21.54
11865,0.2177,-0.0137,0.8873,-6.05,7.68,0.0,21.51
11875,0.2179,-0.0123,0.8873,-6.11,7.71,0.02,21.54
11885,0.2167,-0.0157,0.8857,-6.06,7.53,0.05,21.57
11895,0.2151,-0.0138,0.8877,-6.12,7.71,0.02,21.57
11905,0.2156,-0.0142,0.886,-5.97,7.8,-0.15,21.56
11915,0.2157,-0.0128,0.8892,-6.06,7.79,-0.06,21.54
11925,0.2166,-0.0149,0.8839,-6.14,7.66,0.02,21.54
11935,0.2152,-0.0142,0.8845,-6.09,7.69,0.02,21.54
11945,0.2151,-0.0145,0.891,-6.24,7.76,0.0,21.54
11955,0.217,-0.0145,0.8842,-6.14,7.8,0.03,21.54
11965,0.2192,-0.0181,0.8849,-6.06,7.68,0.05,21.55
11975,0.2156,-0.0145,0.8834,-6.08,7.63,-0.05,21.52
11985,0.2144,-0.0151,0.889,-6.08,7.66,0.05,21.55
11995,0.215,-0.0157,0.8896,-6.15,7.76,0.05,21.55
12005,0.2148,-0.0157,0.8885,-6.11,7.68,0.02,21.53
12015,0.217,-0.0159,0.8827,-6.14,7.66,-0.03,21.54
12025,0.2151,-0.0144,0.8843,-6.09,7.59,-0.05,21.53
12035,0.2156,-0.0127,0.8867,-6.15,7.76,-0.05,21.54
12045,0.2142,-0.016,0.8856,-6.11,7.76,-0.02,21.55
12055,0.218,-0.0142,0.8849,-6.12,7.68,-0.02,21.53
12065,0.2151,-0.0137,0.8857,-6.05,7.69,-0.08,21.55
12075,0.2163,-0.014,0.8875,-6.08,7.65,-0.06,21.52
12085,0.2178,-0.0154,0.8851,-6.03,7.71,-0.08,21.54
12095,0.2164,-0.0132,0.8892,-6.02,7.71,-0.09,21.54
12105,0.2175,-0.0135,0.8877,-6.09,7.69,-0.05,21.55
12115,0.2151,-0.0144,0.8872,-6.06,7.73,-0.03,21.54
12125,0.2168,-0.0135,0.8859,-6.14,7.59,-0.03,21.55
12135,0.2156,-0.011,0.8854,-6.12,7.77,-0.05,21.55
12145,0.2139,-0.0162,0.8855,-6.09,7.68,0.03,21.54
12156,0.2146,-0.0144,0.8837,-5.98,7.69,-0.03,21.53
12166,0.2122,-0.0129,0.8835,-6.08,7.76,-0.02,21.54
12176,0.2148,-0.0129,0.8878,-6.03,7.74,-0.06,21.54
12187,0.2173,-0.0133,0.8868,-6.11,7.68,-0.05,21.57
12197,0.217,-0.0175,0.8851,-6.02,7.76,-0.06,21.56
12207,0.2141,-0.015,0.8842,-6.08,7.68,0.0,21.55
12217,0.214,-0.0138,0.8873,-6.11,7.74,0.0,21.55
12227,0.2166,-0.0166,0.8898,-6.03,7.79,-0.03,21.56
12237,0.2126,-0.0144,0.8883,-6.05,7.73,-0.08,21.53
12247,0.2133,-0.0171,0.8856,-6.14,7.71,-0.09,21.54
12257,0.2158,-0.0167,0.8857,-6.08,7.69,-0.02,21.54
12267,0.2173,-0.0127,0.8856,-6.02,7.71,-0.08,21.54
12277,0.2134,-0.0127,0.8873,-6.08,7.74,-0.03,21.53
12287,0.2158,-0.0156,0.8839,-6.03,7.66,0.0,21.55
12297,0.2157,-0.0139,0.8855,-6.08,7.62,0.02,21.54
12310,0.2158,-0.0154,0.8859,-6.09,7.74,-0.03,21.54
12320,0.2157,-0.0115,0.8826,-6.05,7.76,-0.11,21.57
12331,0.2163,-0.0153,0.8873,-6.12,7.69,-0.14,21.56
12341,0.2159,-0.0138,0.8896,-6.17,7.71,-0.05,21.54
12351,0.2152,-0.0171,0.8903,-6.08,7.74,-0.03,21.56
12361,0.2178,-0.0148,0.8875,-6.12,7.79,-0.05,21.56
12371,0.2157,-0.0127,0.8857,-6.23,7.62,-0.06,21.59
12381,0.2169,-0.017,0.8834,-6.18,7.68,-0.08,21.57
12391,0.2205,-0.0109,0.887,-6.08,7.71,-0.05,21.54
12401,0.2156,-0.0149,0.8861,-6.05,7.79,0.05,21.56
12411,0.2173,-0.0133,0.8856,-5.97,7.76,0.11,21.57
12421,0.2172,-0.0154,0.8849,-6.11,7.69,0.0,21.57
12431,0.2152,-0.0159,0.8866,-6.11,7.68,0.0,21.57
12441,0.2178,-0.0154,0.8898,-6.08,7.76,-0.12,21.56
12451,0.2174,-0.0162,0.8889,-6.11,7.56,0.0,21.56
12461,0.2166,-0.0164,0.8854,-6.08,7.66,-0.06,21.57
12471,0.218,-0.0151,0.8848,-6.08,7.63,0.05,21.57
12481,0.2152,-0.0144,0.8846,-6.24,7.69,0.0,21.54
12491,0.2166,-0.0149,0.8832,-6.08,7.71,-0.05,21.53
12501,0.2152,-0.015,0.8843,-6.14,7.71,0.03,21.54
12511,0.2174,-0.0135,0.8829,-6.0,7.66,0.0,21.53
12521,0.2173,-0.0156,0.8887,-6.03,7.63,-0.09,21.56
12531,0.2172,-0.0129,0.8881,-6.03,7.65,-0.09,21.55
12541,0.2157,-0.0127,0.889,-6.11,7.68,-0.05,21.56
12551,0.2169,-0.0117,0.8873,-6.15,7.68,-0.02,21.54
12561,0.2169,-0.0171,0.8896,-6.17,7.71,0.05,21.57
12571,0.2157,-0.0143,0.8845,-6.15,7.69,0.0,21.56
12581,0.2153,-0.0133,0.8842,-6.05,7.62,-0.06,21.56
12591,0.2172,-0.0128,0.8888,-6.11,7.69,-0.02,21.55
12601,0.2172,-0.0144,0.8928,-6.11,7.71,-0.11,21.54
12611,0.215,-0.0137,0.8855,-6.14,7.69,-0.06,21.56
12621,0.2153,-0.0176,0.8917,-6.03,7.63,0.03,21.55
12631,0.2126,-0.0131,0.8866,-6.03,7.69,-0.06,21.54
12641,0.2166,-0.0167,0.8868,-6.12,7.63,0.0,21.57
12651,0.2161,-0.0137,0.8853,-6.08,7.65,-0.03,21.55
12661,0.2142,-0.0157,0.8889,-6.12,7.66,-0.03,21.54
12671,0.2192,-0.0155,0.8896,-6.08,7.74,-0.05,21.55
12681,0.2188,-0.0181,0.8837,-6.12,7.71,-0.05,21.55
12691,0.217,-0.0157,0.8875,-6.09,7.76,-0.02,21.55
12701,0.2167,-0.0161,0.8844,-6.12,7.71,0.0,21.56
12711,0.2145,-0.0132,0.8853,-6.09,7.71,-0.08,21.56
12721,0.2163,-0.0161,0.8861,-6.06,7.79,-0.03,21.57
12731,0.2163,-0.0153,0.8866,-6.08,7.73,0.0,21.56
12741,0.2146,-0.0132,0.8809,-6.08,7.63,0.0,21.58
12751,0.2166,-0.0125,0.8839,-6.11,7.6,-0.02,21.57
12761,0.2161,-0.0126,0.8881,-6.12,7.74,-0.06,21.53
12771,0.2147,-0.0143,0.8835,-5.98,7.69,-0.14,21.57
12781,0.2137,-0.0143,0.8885,-6.06,7.69,0.0,21.58
12791,0.2189,-0.0131,0.8845,-6.09,7.73,0.03,21.57
12801,0.2194,-0.0164,0.8883,-6.05,7.69,-0.09,21.57
12811,0.2175,-0.0155,0.8895,-6.08,7.73,-0.08,21.57
12821,0.2141,-0.0143,0.8848,-6.15,7.71,-0.08,21.55
12831,0.2175,-0.0138,0.884,-5.98,7.69,-0.02,21.54
12841,0.2186,-0.0133,0.882,-5.94,7.71,-0.06,21.55
12851,0.2177,-0.0171,0.8862,-6.06,7.71,-0.06,21.59
12861,0.2169,-0.0157,0.8885,-6.06,7.71,0.02,21.57
12871,0.2181,-0.0162,0.8876,-6.05,7.71,0.0,21.56
12881,0.2174,-0.0155,0.8857,-6.09,7.66,-0.08,21.58
12891,0.2164,-0.0168,0.8889,-6.03,7.68,-0.06,21.56
12901,0.2174,-0.0137,0.8887,-6.11,7.66,0.09,21.58
12911,0.2189,-0.0165,0.8883,-6.08,7.76,0.0,21.57
12921,0.2162,-0.0139,0.8881,-6.15,7.69,-0.05,21.56
12931,0.2175,-0.0164,0.8888,-6.03,7.71,0.03,21.55
12941,0.2186,-0.016,0.8843,-6.02,7.66,-0.05,21.58
12951,0.2156,-0.0123,0.8879,-5.98,7.77,-0.06,21.55
12961,0.2135,-0.0149,0.8942,-6.11,7.76,-0.12,21.59
12971,0.2147,-0.0123,0.8901,-6.12,7.68,-0.05,21.56
12981,0.2175,-0.0135,0.8792,-6.06,7.63,-0.11,21.56
12991,0.2172,-0.0112,0.8861,-6.17,7.74,0.0,21.57
13001,0.2128,-0.0123,0.884,-6.09,7.79,0.03,21.58
13011,0.2163,-0.0066,0.8856,-6.09,7.74,0.05,21.57
13021,0.2223,-0.0062,0.8844,-6.14,7.63,0.0,21.57
13031,0.2184,-0.0107,0.8862,-6.09,7.56,0.02,21.56
13041,0.2148,-0.0083,0.8879,-5.97,7.6,0.02,21.59
13051,0.2098,-0.0149,0.8849,-6.14,7.77,-0.03,21.57
13061,0.2147,-0.0149,0.8861,-6.14,7.76,-0.06,21.56
13071,0.214,-0.0156,0.8845,-6.15,7.76,-0.02,21.58
13081,0.2157,-0.0154,0.881,-6.09,7.68,0.0,21.55
13091,0.2189,-0.0165,0.8872,-6.14,7.71,0.03,21.56
13101,0.2195,-0.0195,0.8864,-6.23,7.73,0.0,21.57
13111,0.2174,-0.0197,0.8848,-6.12,7.76,-0.08,21.57
13121,0.2186,-0.019,0.8834,-6.06,7.71,0.02,21.56
13131,0.2177,-0.0171,0.8844,-6.11,7.79,-0.09,21.59
13141,0.2156,-0.0173,0.8851,-6.05,7.59,0.0,21.57
13151,0.2147,-0.0168,0.8829,-6.08,7.73,0.0,21.57
13161,0.2141,-0.0183,0.884,-6.12,7.71,-0.06,21.59
13171,0.2158,-0.0137,0.8835,-6.06,7.68,-0.08,21.57
13181,0.2186,-0.0143,0.8815,-6.14,7.73,-0.03,21.55
13192,0.2175,-0.0096,0.8812,-6.12,7.73,-0.05,21.57
13202,0.2179,-0.0098,0.8866,-6.11,7.76,0.03,21.57
13214,0.2137,-0.0143,0.8906,-6.21,7.66,0.06,21.56
13224,0.2135,-0.0128,0.8881,-6.11,7.73,-0.06,21.56
13234,0.2162,-0.0137,0.8866,-6.14,7.62,-0.05,21.57
13244,0.2131,-0.0122,0.8845,-6.17,7.63,0.0,21.57
13254,0.2164,-0.0129,0.8848,-6.06,7.73,-0.05,21.58
13264,0.2173,-0.0121,0.8876,-6.06,7.69,0.02,21.6
13274,0.214,-0.0135,0.8868,-6.03,7.65,-0.08,21.57
13284,0.2189,-0.016,0.887,-6.08,7.62,-0.05,21.58
13294,0.2178,-0.0146,0.886,-6.05,7.73,-0.06,21.58
13304,0.2164,-0.0166,0.889,-6.08,7.71,0.06,21.59
13314,0.2122,-0.0164,0.8862,-6.06,7.66,-0.06,21.59
13324,0.2167,-0.0139,0.8882,-6.12,7.73,0.0,21.57
13336,0.2167,-0.0145,0.8871,-6.06,7.74,0.08,21.56
13346,0.2145,-0.0181,0.8861,-6.12,7.65,0.02,21.56
13356,0.2145,-0.0173,0.8888,-6.09,7.76,0.03,21.58
13366,0.2156,-0.016,0.8905,-5.98,7.65,-0.03,21.6
13376,0.2191,-0.017,0.8881,-6.11,7.66,-0.03,21.56
13386,0.2169,-0.0167,0.8899,-6.11,7.65,-0.05,21.58
13396,0.2144,-0.0162,0.8834,-5.98,7.71,-0.03,21.59
13406,0.2158,-0.017,0.8867,-6.15,7.74,0.0,21.58
13417,0.2147,-0.015,0.8809,-6.05,7.74,0.0,21.58
13427,0.2159,-0.0118,0.8889,-6.09,7.76,0.09,21.59
13437,0.2191,-0.0153,0.8833,-6.06,7.73,-0.02,21.59
13447,0.2163,-0.0117,0.8848,-6.05,7.69,-0.05,21.57
13457,0.215,-0.0138,0.8861,-6.06,7.69,-0.08,21.56
13467,0.2158,-0.0133,0.8857,-6.05,7.68,-0.05,21.59
13477,0.2158,-0.0118,0.8857,-6.06,7.74,-0.05,21.59
13487,0.2153,-0.0128,0.8859,-6.09,7.69,-0.03,21.59
13497,0.2158,-0.0104,0.8906,-6.08,7.73,-0.06,21.58
13507,0.2161,-0.0127,0.8877,-6.08,7.73,-0.09,21.58
13517,0.218,-0.0171,0.8889,-6.11,7.71,0.0,21.59
13527,0.2192,-0.0195,0.8881,-6.08,7.68,0.02,21.59
13537,0.2174,-0.0173,0.8865,-6.02,7.69,-0.02,21.58
13547,0.2184,-0.0149,0.8845,-6.09,7.73,0.09,21.62
13557,0.2158,-0.0165,0.8894,-6.08,7.68,0.02,21.59
13567,0.2156,-0.0156,0.8839,-6.09,7.6,0.02,21.59
13577,0.2166,-0.0151,0.8826,-6.05,7.76,0.05,21.57
13587,0.2159,-0.0159,0.8826,-6.09,7.71,-0.05,21.59
13597,0.2164,-0.0168,0.8864,-6.06,7.82,-0.11,21.58
13607,0.2184,-0.0151,0.8844,-6.02,7.73,-0.06,21.58
13617,0.2142,-0.0133,0.8896,-6.11,7.69,-0.02,21.58
13627,0.2174,-0.0175,0.8901,-6.02,7.73,-0.06,21.58
13637,0.2175,-0.0159,0.8838,-6.06,7.71,-0.03,21.6
13647,0.2151,-0.0162,0.8868,-6.03,7.69,-0.03,21.61
13657,0.2146,-0.0157,0.8879,-6.06,7.73,-0.03,21.6
13667,0.2157,-0.0145,0.8883,-6.08,7.77,-0.08,21.59
13677,0.2161,-0.0109,0.882,-6.15,7.71,-0.02,21.59
13687,0.2164,-0.0127,0.8888,-6.18,7.74,-0.06,21.57
13697,0.2183,-0.0116,0.8899,-6.15,7.79,-0.03,21.59
13707,0.2175,-0.0143,0.8872,-6.05,7.79,0.0,21.6
13717,0.2157,-0.0165,0.8862,-6.06,7.68,0.02,21.62
13727,0.2142,-0.0126,0.8849,-6.12,7.71,0.02,21.62
13737,0.2189,-0.0122,0.8871,-6.03,7.71,0.02,21.58
13747,0.2159,-0.0133,0.8907,-6.15,7.65,0.0,21.6
13757,0.2174,-0.0157,0.8811,-6.06,7.69,0.08,21.59
13767,0.2155,-0.0142,0.8851,-6.03,7.68,-0.02,21.6
13777,0.2181,-0.016,0.8872,-6.06,7.73,-0.05,21.59
13787,0.2159,-0.0164,0.8846,-5.97,7.69,-0.06,21.6
13797,0.2152,-0.0172,0.8857,-6.05,7.71,0.03,21.59
13807,0.2189,-0.0187,0.8855,-6.05,7.73,-0.08,21.6
13817,0.2148,-0.0161,0.8854,-6.14,7.69,-0.08,21.58
13827,0.2159,-0.0172,0.8851,-5.98,7.68,-0.02,21.6
13837,0.2164,-0.0157,0.889,-6.05,7.69,0.02,21.59
13847,0.2156,-0.0162,0.8881,-6.05,7.82,-0.03,21.6
13857,0.2151,-0.014,0.8809,-6.05,7.68,-0.06,21.61
13867,0.2179,-0.0145,0.8835,-5.98,7.68,-0.03,21.6
13877,0.217,-0.0132,0.8829,-6.14,7.69,-0.06,21.6
13887,0.217,-0.0105,0.8839,-6.09,7.76,0.0,21.6
13897,0.2181,-0.0142,0.8883,-6.09,7.63,-0.08,21.59
13907,0.2155,-0.0149,0.8878,-6.02,7.77,0.0,21.6
13917,0.2148,-0.0117,0.8864,-6.09,7.71,0.0,21.59
13927,0.2177,-0.0127,0.8853,-5.97,7.62,-0.11,21.59
13937,0.2184,-0.0134,0.8875,-6.09,7.73,0.03,21.58
13947,0.2185,-0.0132,0.8833,-6.09,7.71,0.02,21.58
13957,0.2162,-0.0145,0.8867,-6.09,7.73,-0.02,21.59
13967,0.2163,-0.0168,0.8875,-6.12,7.76,0.02,21.59
13977,0.2137,-0.0165,0.882,-6.05,7.71,-0.05,21.6
13987,0.2159,-0.0143,0.8889,-6.08,7.69,-0.05,21.6
13997,0.2139,-0.0172,0.8875,-6.05,7.76,-0.02,21.6
14007,0.2179,-0.0161,0.8887,-6.0,7.77,0.09,21.58
14017,0.2151,-0.0154,0.8889,-6.09,7.76,-0.08,21.59
14027,0.2166,-0.0157,0.8865,-6.18,7.66,-0.06,21.63
14037,0.2144,-0.015,0.8878,-6.15,7.76,-0.08,21.6
14047,0.2179,-0.0157,0.8868,-6.05,7.73,-0.08,21.61
14057,0.2169,-0.0157,0.8882,-6.03,7.74,-0.05,21.59
14067,0.2174,-0.0129,0.8887,-6.03,7.68,-0.08,21.6
14077,0.2163,-0.0115,0.8859,-6.0,7.73,0.08,21.59
14087,0.2172,-0.0137,0.8849,-6.05,7.69,0.05,21.61
14097,0.2141,-0.0143,0.8872,-6.11,7.71,-0.05,21.59
14107,0.2156,-0.0145,0.8872,-6.0,7.8,0.02,21.59
14117,0.2133,-0.014,0.89,-6.06,7.69,-0.03,21.58
14127,0.2162,-0.0129,0.8839,-6.09,7.69,0.0,21.59
14137,0.2189,-0.0115,0.8837,-6.17,7.77,-0.08,21.58
14147,0.218,-0.0118,0.8861,-6.21,7.73,-0.11,21.58
14157,0.2184,-0.0145,0.8862,-6.12,7.68,-0.03,21.62
14167,0.2167,-0.015,0.8842,-6.15,7.69,-0.05,21.61
14177,0.2159,-0.0154,0.8875,-6.0,7.71,0.08,21.6
14187,0.2147,-0.0137,0.886,-6.09,7.69,-0.06,21.61
14197,0.2134,-0.0131,0.8861,-6.14,7.71,-0.02,21.6
14207,0.2172,-0.0137,0.8873,-6.03,7.71,-0.06,21.61
14217,0.243,-0.0105,0.8646,-6.08,6.93,0.03,21.59
14227,0.2202,-0.0181,0.8943,-6.17,6.92,-0.06,21.61
14237,0.208,-0.0182,0.8916,-6.09,8.05,-0.02,21.62
14247,0.2186,-0.0201,0.8782,-6.11,7.76,0.02,21.59
14257,0.2384,-0.0099,0.8679,-6.08,7.22,-0.06,21.6
14267,0.2185,-0.0101,0.8856,-6.11,7.22,0.0,21.6
14277,0.1973,-0.0143,0.9034,-6.2,7.86,-0.09,21.58
14287,0.2119,-0.0142,0.8927,-6.06,7.82,-0.09,21.6
14297,0.2268,-0.01,0.8785,-6.0,7.65,0.05,21.62
14307,0.2312,-0.0146,0.8771,-6.06,7.5,-0.06,21.6
14317,0.222,-0.0116,0.8878,-6.11,7.63,0.05,21.6
14327,0.2124,-0.0109,0.8845,-6.12,7.71,-0.03,21.62
14337,0.2123,-0.0138,0.8861,-6.06,7.77,-0.02,21.61
14347,0.2117,-0.0138,0.8928,-6.12,7.8,0.05,21.61
14357,0.2146,-0.0149,0.8906,-6.05,7.77,-0.06,21.61
14367,0.2135,-0.0175,0.8871,-6.06,7.73,-0.08,21.61
14377,0.2186,-0.017,0.885,-6.06,7.74,-0.05,21.61
14387,0.2157,-0.0154,0.884,-6.05,7.65,-0.03,21.61
14397,0.2183,-0.0188,0.884,-6.11,7.71,0.02,21.59
14407,0.2157,-0.0176,0.8871,-6.11,7.79,0.03,21.62
14417,0.2156,-0.0194,0.8871,-6.05,7.8,-0.05,21.61
14427,0.2158,-0.0173,0.8873,-6.02,7.76,-0.02,21.58
14437,0.2174,-0.0151,0.8871,-6.15,7.74,-0.06,21.61
14447,0.2189,-0.0112,0.8887,-6.17,7.76,0.0,21.59
14457,0.2147,-0.0144,0.8864,-6.14,7.74,0.05,21.6
14467,0.2158,-0.0153,0.8845,-6.14,7.62,-0.05,21.61
14477,0.2167,-0.0159,0.8859,-6.03,7.65,-0.03,21.64
14487,0.2167,-0.011,0.887,-6.17,7.71,0.0,21.62
14497,0.2174,-0.012,0.8848,-6.08,7.79,-0.08,21.62
14507,0.2136,-0.0116,0.8815,-6.12,7.8,-0.05,21.61
14517,0.2181,-0.011,0.8843,-6.05,7.66,-0.08,21.63
14527,0.2169,-0.0135,0.8846,-6.06,7.69,0.0,21.62
14537,0.2168,-0.0131,0.8885,-6.12,7.8,0.0,21.6
14547,0.217,-0.0135,0.8822,-6.12,7.69,0.05,21.59
14557,0.2169,-0.0133,0.8855,-6.11,7.71,0.0,21.6
14567,0.2174,-0.012,0.8865,-6.09,7.71,-0.08,21.64
14577,0.2175,-0.0133,0.8835,-6.14,7.68,0.02,21.63
14587,0.2126,-0.0159,0.8853,-6.06,7.68,0.02,21.63
14597,0.2177,-0.0148,0.8861,-6.0,7.71,0.02,21.63
14607,0.2145,-0.0171,0.8857,-6.09,7.69,-0.03,21.64
14617,0.2161,-0.0161,0.8871,-6.02,7.69,-0.03,21.63
14627,0.2172,-0.0143,0.8833,-6.15,7.74,-0.08,21.64
14637,0.2178,-0.0138,0.8872,-6.17,7.74,-0.05,21.63
14647,0.217,-0.0167,0.8876,-6.09,7.69,-0.06,21.62
14657,0.2163,-0.0149,0.8831,-6.17,7.69,-0.06,21.62
14667,0.218,-0.0133,0.8827,-6.12,7.73,-0.02,21.63
14677,0.219,-0.0123,0.8857,-6.12,7.73,0.02,21.62
14687,0.2141,-0.0164,0.8889,-6.09,7.69,-0.08,21.64
14697,0.2169,-0.0117,0.8872,-6.06,7.73,-0.05,21.61
14707,0.2173,-0.0111,0.8829,-6.12,7.79,-0.08,21.62
14717,0.2142,-0.0132,0.886,-6.09,7.65,0.02,21.64
14727,0.2158,-0.0115,0.889,-6.08,7.68,-0.12,21.6
14737,0.2174,-0.0142,0.887,-6.08,7.71,0.03,21.64
14747,0.2161,-0.0125,0.8857,-5.92,7.73,-0.02,21.65
14757,0.2169,-0.0112,0.8885,-6.0,7.77,-0.09,21.63
14767,0.2184,-0.0126,0.886,-6.11,7.69,-0.02,21.63
14777,0.2169,-0.0142,0.8846,-6.11,7.69,-0.05,21.6
14787,0.2158,-0.0144,0.8837,-6.14,7.71,0.0,21.63
14797,0.2153,-0.0151,0.8856,-5.97,7.77,0.02,21.64
14807,0.2155,-0.0137,0.8918,-6.15,7.69,0.05,21.63
14817,0.2166,-0.014,0.885,-6.12,7.77,0.02,21.64
14827,0.2152,-0.0146,0.8845,-6.09,7.76,0.02,21.63
14837,0.2196,-0.0172,0.8866,-6.06,7.66,-0.05,21.61
14847,0.2172,-0.0177,0.8876,-6.03,7.66,-0.08,21.61
14857,0.2144,-0.0139,0.8871,-6.09,7.76,-0.05,21.62
14867,0.2145,-0.0171,0.8888,-6.05,7.73,0.03,21.62
14877,0.217,-0.0168,0.8831,-6.02,7.69,-0.02,21.63
14887,0.2164,-0.0135,0.8866,-6.09,7.63,-0.05,21.62
14897,0.2168,-0.0156,0.8843,-6.03,7.68,-0.08,21.62
14907,0.2205,-0.0155,0.8879,-6.05,7.63,-0.05,21.61
14917,0.2175,-0.0167,0.8895,-6.05,7.73,0.0,21.61
14927,0.2159,-0.0139,0.8883,-6.11,7.76,-0.05,21.64
14937,0.2174,-0.0143,0.8834,-6.09,7.71,-0.05,21.61
14947,0.2131,-0.0148,0.8843,-6.11,7.73,-0.05,21.62
14957,0.2188,-0.016,0.8833,-6.12,7.76,-0.02,21.62
14967,0.2159,-0.0127,0.8864,-6.11,7.74,-0.02,21.63
14977,0.218,-0.0178,0.8862,-6.0,7.68,-0.05,21.6
14987,0.2168,-0.0133,0.8854,-6.05,7.68,-0.06,21.62
14997,0.2156,-0.015,0.8802,-6.08,7.68,0.0,21.61
15007,0.2158,-0.0143,0.8892,-5.98,7.76,-0.05,21.62
15017,0.217,-0.0144,0.8899,-6.06,7.76,-0.02,21.64
15027,0.2172,-0.0134,0.8881,-6.0,7.74,-0.03,21.62
15037,0.2169,-0.0139,0.8883,-6.03,7.69,0.02,21.59
15047,0.2152,-0.016,0.8851,-6.03,7.77,0.0,21.61
15057,0.2189,-0.0148,0.8872,-6.14,7.77,0.08,21.64
15067,0.2161,-0.0153,0.8815,-6.15,7.71,-0.09,21.61
15077,0.2169,-0.0184,0.8881,-6.18,7.77,0.03,21.61
15087,0.2141,-0.0155,0.8859,-6.05,7.79,-0.08,21.63
15097,0.2166,-0.0146,0.8861,-6.08,7.71,-0.05,21.63
15107,0.2151,-0.017,0.8846,-5.98,7.71,0.02,21.62
15117,0.2147,-0.0154,0.8846,-6.14,7.68,-0.05,21.63
15127,0.2153,-0.0157,0.8865,-6.09,7.66,-0.05,21.62
15137,0.2174,-0.0137,0.8885,-6.18,7.69,-0.03,21.64
15147,0.2163,-0.0118,0.8839,-6.05,7.77,0.0,21.63
15157,0.2174,-0.014,0.8837,-6.09,7.76,-0.03,21.63
15167,0.214,-0.0154,0.8878,-6.14,7.74,-0.05,21.62
15177,0.2191,-0.0154,0.8867,-6.08,7.66,-0.05,21.63
15187,0.2159,-0.0129,0.8849,-6.06,7.66,-0.02,21.6
15197,0.2164,-0.0155,0.8884,-6.08,7.73,-0.05,21.62
15207,0.218,-0.0156,0.8862,-6.18,7.71,-0.09,21.62
15217,0.214,-0.016,0.8868,-6.09,7.71,-0.09,21.61
15227,0.215,-0.0122,0.8894,-5.98,7.73,-0.05,21.64
15237,0.2151,-0.0122,0.8892,-6.03,7.68,-0.03,21.65
15247,0.2161,-0.014,0.8888,-6.08,7.74,-0.03,21.64
15257,0.218,-0.011,0.8823,-6.14,7.73,0.03,21.66
15267,0.2168,-0.0142,0.8885,-6.08,7.71,-0.03,21.65
15277,0.2153,-0.0122,0.8872,-6.14,7.69,-0.06,21.65
15287,0.2164,-0.0145,0.8857,-6.06,7.73,-0.02,21.64
15297,0.2152,-0.0149,0.8857,-6.02,7.71,0.0,21.64
15307,0.2192,-0.0144,0.8829,-6.08,7.76,0.02,21.65
15317,0.2178,-0.0132,0.8877,-6.08,7.8,-0.06,21.66
15327,0.2141,-0.0159,0.8876,-6.08,7.71,0.02,21.63
15337,0.2147,-0.016,0.8894,-6.08,7.68,-0.03,21.66
15347,0.2167,-0.016,0.8846,-6.06,7.74,0.08,21.64
15357,0.2152,-0.0159,0.8873,-6.08,7.71,-0.02,21.64
15367,0.2139,-0.0149,0.8909,-6.08,7.69,-0.09,21.62
15377,0.2151,-0.014,0.8873,-6.06,7.76,-0.06,21.64
15387,0.2146,-0.0157,0.8872,-6.17,7.71,-0.02,21.65
15397,0.2181,-0.0153,0.887,-6.08,7.73,0.06,21.68
15407,0.2164,-0.0145,0.8845,-6.03,7.79,-0.05,21.67
15417,0.2161,-0.0151,0.8883,-6.14,7.69,-0.08,21.63
15427,0.2158,-0.0121,0.8911,-6.08,7.66,-0.09,21.62
15437,0.2141,-0.0137,0.887,-6.11,7.71,-0.03,21.65
15447,0.217,-0.0131,0.8861,-6.24,7.71,0.0,21.65
15457,0.2147,-0.0135,0.8868,-6.24,7.73,0.0,21.64
15467,0.2146,-0.0149,0.8842,-6.12,7.63,-0.03,21.64
15477,0.2203,-0.0133,0.8877,-6.09,7.71,0.06,21.64
15487,0.2163,-0.0162,0.8859,-6.06,7.8,-0.02,21.64
15497,0.2133,-0.0151,0.8885,-6.15,7.73,-0.02,21.64
15507,0.2167,-0.0144,0.89,-6.17,7.76,-0.05,21.64
15517,0.2156,-0.0165,0.8881,-6.12,7.79,0.0,21.62
15527,0.2173,-0.0143,0.8834,-6.12,7.66,0.02,21.67
15537,0.2178,-0.0154,0.8842,-6.09,7.6,0.02,21.65
15547,0.2158,-0.0148,0.8849,-5.97,7.65,-0.08,21.65
15557,0.2169,-0.0123,0.8888,-6.15,7.69,0.02,21.63
15567,0.2192,-0.0154,0.8894,-5.98,7.79,-0.03,21.64
15577,0.2173,-0.0165,0.8846,-6.02,7.76,-0.02,21.64
15587,0.2202,-0.0135,0.886,-6.08,7.71,0.0,21.63
15597,0.2177,-0.0134,0.8856,-6.11,7.74,0.02,21.64
15607,0.2173,-0.0135,0.8864,-6.06,7.63,0.0,21.66
15618,0.2155,-0.0139,0.8894,-6.03,7.79,-0.06,21.63
15628,0.2153,-0.0144,0.8871,-6.2,7.76,0.0,21.63
15638,0.2152,-0.0164,0.8844,-6.11,7.71,-0.02,21.64
15648,0.2148,-0.0107,0.8882,-6.09,7.69,-0.02,21.67
15658,0.2146,-0.0157,0.8888,-6.15,7.63,0.03,21.64
15668,0.2128,-0.0142,0.8853,-6.11,7.68,0.03,21.62
15678,0.2147,-0.0138,0.8865,-6.05,7.71,0.02,21.64
15688,0.2167,-0.015,0.8846,-6.06,7.69,-0.05,21.66
15698,0.2166,-0.0148,0.8864,-6.21,7.68,-0.05,21.63
15709,0.2173,-0.0148,0.8883,-6.08,7.76,-0.02,21.64
15719,0.2162,-0.015,0.8884,-6.08,7.73,-0.02,21.63
15729,0.2161,-0.0134,0.8878,-6.14,7.77,0.05,21.63
15739,0.2166,-0.016,0.8856,-6.2,7.69,-0.03,21.63
15749,0.2159,-0.0166,0.8866,-6.03,7.71,-0.08,21.63
15759,0.2153,-0.0177,0.8893,-5.92,7.66,-0.06,21.66
15769,0.2134,-0.015,0.8854,-6.09,7.66,0.0,21.64
15779,0.2172,-0.0143,0.8853,-6.14,7.71,-0.05,21.65
15789,0.2184,-0.0188,0.8804,-6.12,7.73,0.02,21.67
15799,0.2161,-0.0116,0.8865,-6.09,7.71,-0.02,21.64
15809,0.217,-0.0115,0.8844,-5.98,7.69,0.02,21.64
15820,0.2172,-0.0139,0.8856,-6.11,7.74,-0.08,21.62
15830,0.2166,-0.0137,0.8876,-6.12,7.71,-0.06,21.63
15840,0.2144,-0.0145,0.8888,-6.12,7.76,0.05,21.64
15850,0.2144,-0.0155,0.8879,-6.15,7.69,0.02,21.65
15860,0.2167,-0.0148,0.8845,-6.08,7.73,0.0,21.64
15870,0.2134,-0.0123,0.889,-6.09,7.74,-0.06,21.66
15880,0.2175,-0.012,0.8876,-6.05,7.76,-0.05,21.65
15890,0.2158,-0.0155,0.8871,-6.17,7.68,0.05,21.65
15901,0.2172,-0.0128,0.8851,-5.98,7.68,0.03,21.64
15911,0.2169,-0.0115,0.8887,-6.05,7.71,0.03,21.67
15921,0.2159,-0.0148,0.8859,-6.17,7.71,0.0,21.64
15931,0.2191,-0.0139,0.8866,-6.06,7.73,-0.02,21.62
15941,0.2156,-0.0137,0.8843,-6.12,7.69,0.02,21.64
15951,0.2175,-0.0138,0.8894,-6.11,7.73,0.06,21.64
15961,0.2145,-0.015,0.8854,-6.08,7.76,-0.02,21.63
15971,0.2159,-0.0155,0.8875,-6.08,7.71,-0.03,21.64
15981,0.2144,-0.0138,0.8856,-6.14,7.77,0.02,21.65
15991,0.2167,-0.0156,0.8851,-6.17,7.73,-0.06,21.66
16001,0.2179,-0.0138,0.8865,-6.11,7.73,-0.08,21.66
16011,0.2152,-0.0176,0.8846,-6.12,7.71,0.06,21.65
16021,0.2152,-0.0138,0.8837,-6.02,7.66,-0.02,21.65
16031,0.2157,-0.0138,0.8915,-6.09,7.66,0.02,21.68
16041,0.2169,-0.0146,0.8888,-6.06,7.77,-0.02,21.65
16051,0.2151,-0.0143,0.8851,-6.17,7.65,-0.06,21.66
16061,0.2178,-0.0153,0.8873,-6.06,7.66,-0.08,21.63
16071,0.2175,-0.014,0.8864,-6.12,7.71,-0.05,21.66
16081,0.2166,-0.016,0.8845,-6.02,7.66,-0.02,21.65
16091,0.2175,-0.0157,0.89,-6.14,7.71,-0.11,21.64
16101,0.2177,-0.0135,0.8838,-6.12,7.77,-0.05,21.64
16111,0.2159,-0.0153,0.8851,-6.18,7.71,0.0,21.65
16122,0.2147,-0.0134,0.8823,-6.09,7.73,-0.09,21.66
16132,0.2141,-0.0123,0.8844,-6.2,7.76,0.0,21.65
16142,0.2158,-0.0159,0.8831,-6.11,7.79,0.02,21.66
16153,0.2146,-0.0133,0.8827,-6.03,7.71,0.05,21.65
16163,0.2178,-0.0135,0.8865,-6.14,7.8,0.08,21.67
16174,0.2168,-0.0148,0.8871,-6.05,7.76,-0.03,21.66
16184,0.2168,-0.0143,0.8839,-6.05,7.73,-0.05,21.66
16194,0.2164,-0.0132,0.8909,-6.02,7.79,0.02,21.65
16204,0.2152,-0.0168,0.8834,-6.09,7.66,0.0,21.66
16216,0.2158,-0.0139,0.8865,-6.14,7.71,0.0,21.65
16226,0.2155,-0.0149,0.8851,-6.09,7.73,-0.06,21.66
16237,0.2175,-0.0175,0.8907,-6.06,7.69,-0.03,21.66
16247,0.2178,-0.0143,0.8872,-6.03,7.62,-0.02,21.64
16257,0.2148,-0.0146,0.8837,-6.03,7.77,-0.06,21.66
16267,0.2162,-0.0116,0.8884,-6.17,7.73,-0.06,21.67
16277,0.2181,-0.0128,0.8877,-6.14,7.66,-0.06,21.65
16323,0.2164,-0.0132,0.8837,-6.05,7.73,0.0,21.64
16333,0.2181,-0.0142,0.8884,-6.11,7.71,-0.08,21.65
16343,0.2161,-0.015,0.8881,-6.18,7.77,-0.02,21.64
16354,0.2163,-0.0181,0.8864,-6.09,7.63,0.0,21.65
16364,0.2178,-0.015,0.8881,-6.2,7.71,0.08,21.67
16374,0.2148,-0.0145,0.8887,-6.17,7.74,0.05,21.66
16384,0.2135,-0.0159,0.8894,-6.14,7.76,-0.06,21.66
16396,0.2161,-0.0125,0.8875,-6.06,7.74,-0.06,21.67
16406,0.2136,-0.0155,0.8866,-6.05,7.69,-0.02,21.67
16417,0.2181,-0.0159,0.8824,-6.09,7.68,0.0,21.67
16427,0.215,-0.0132,0.8851,-6.11,7.73,0.0,21.67
16437,0.2161,-0.0157,0.8892,-6.08,7.66,-0.06,21.68
16447,0.2155,-0.0154,0.8875,-6.12,7.6,0.05,21.66
16457,0.2177,-0.0144,0.8867,-6.15,7.73,0.03,21.67
16467,0.2217,-0.0155,0.8821,-6.08,7.66,-0.08,21.67
16477,0.2158,-0.0177,0.8872,-6.08,7.71,-0.08,21.68
16487,0.2174,-0.0153,0.8866,-6.12,7.68,0.02,21.67
16497,0.2157,-0.0126,0.884,-6.05,7.68,-0.03,21.67
16507,0.2128,-0.017,0.8875,-6.14,7.71,-0.02,21.68
16517,0.2124,-0.0149,0.8866,-6.06,7.63,0.0,21.7
16527,0.2166,-0.0138,0.8867,-6.05,7.68,-0.05,21.68
16537,0.2169,-0.014,0.8882,-6.08,7.74,-0.05,21.67
16547,0.2172,-0.0123,0.8856,-6.15,7.71,-0.03,21.66
16557,0.2141,-0.0144,0.8827,-6.14,7.71,0.05,21.7
16567,0.2189,-0.0131,0.8866,-6.11,7.71,-0.06,21.66
16577,0.217,-0.0133,0.8868,-6.17,7.76,0.0,21.67
16587,0.2184,-0.0138,0.8833,-6.09,7.68,-0.08,21.64
16597,0.2155,-0.0155,0.8865,-6.11,7.71,0.03,21.66
16607,0.2147,-0.014,0.8826,-6.09,7.73,-0.03,21.69
16617,0.2156,-0.015,0.8849,-6.15,7.8,-0.02,21.69
16627,0.2133,-0.0132,0.8866,-6.08,7.71,-0.03,21.67
16637,0.218,-0.0171,0.8884,-6.03,7.69,-0.08,21.67
16647,0.2169,-0.014,0.8898,-6.15,7.73,-0.05,21.7
16657,0.2164,-0.0166,0.882,-6.11,7.73,-0.05,21.68
16667,0.2155,-0.0131,0.886,-6.21,7.71,0.03,21.68
16677,0.2157,-0.0142,0.8853,-6.17,7.69,-0.03,21.66
16687,0.2151,-0.0164,0.8839,-6.11,7.71,0.0,21.69
16697,0.2174,-0.0178,0.8857,-6.08,7.65,-0.05,21.68
16707,0.2186,-0.016,0.8832,-6.14,7.6,-0.11,21.68
16717,0.217,-0.0131,0.8861,-6.12,7.71,-0.03,21.68
16727,0.2177,-0.016,0.8832,-6.08,7.69,0.0,21.67
16737,0.2164,-0.0131,0.8816,-6.03,7.68,-0.11,21.67
16747,0.2185,-0.0131,0.8859,-6.03,7.71,-0.12,21.72
16757,0.2188,-0.0132,0.8905,-6.12,7.66,0.03,21.69
16767,0.2185,-0.0138,0.8879,-6.11,7.71,-0.05,21.69
16777,0.2173,-0.0134,0.8879,-6.15,7.69,0.0,21.7
16787,0.2159,-0.0137,0.8846,-6.03,7.76,-0.09,21.69
16797,0.2158,-0.0161,0.8837,-6.12,7.73,-0.05,21.67
16807,0.2206,-0.0134,0.8857,-6.14,7.65,0.0,21.67
16817,0.2155,-0.0156,0.8875,-6.05,7.74,-0.05,21.68
16827,0.2158,-0.0139,0.8828,-6.12,7.63,-0.03,21.68
16837,0.2146,-0.0164,0.8842,-6.14,7.66,0.02,21.69
16847,0.215,-0.0146,0.8864,-6.08,7.74,-0.11,21.67
16857,0.2175,-0.0137,0.8872,-6.06,7.73,-0.12,21.67
16867,0.2151,-0.0128,0.8846,-6.09,7.74,-0.08,21.68
16877,0.2144,-0.0139,0.8877,-6.0,7.62,0.0,21.68
16887,0.2135,-0.0172,0.8857,-6.11,7.68,-0.02,21.7
16897,0.2181,-0.0154,0.8865,-6.17,7.76,0.02,21.69
16907,0.2155,-0.0161,0.886,-6.05,7.74,0.02,21.67
16917,0.2167,-0.0139,0.8856,-6.12,7.79,0.02,21.66
16927,0.2153,-0.0146,0.8853,-6.08,7.73,0.05,21.7
16937,0.212,-0.0127,0.8846,-6.06,7.76,0.03,21.69
16947,0.2155,-0.0171,0.8882,-6.12,7.76,0.0,21.69
16957,0.2189,-0.0139,0.8838,-6.12,7.68,-0.02,21.68
16967,0.2161,-0.0167,0.886,-6.06,7.69,-0.05,21.69
16977,0.2162,-0.0134,0.8835,-6.12,7.79,0.0,21.69
16987,0.2169,-0.0157,0.8859,-6.26,7.76,-0.02,21.68
16997,0.2144,-0.0128,0.8861,-6.18,7.66,0.03,21.68
17007,0.2162,-0.017,0.8882,-6.02,7.73,-0.09,21.69
17017,0.2155,-0.0138,0.8867,-6.06,7.66,-0.08,21.66
17027,0.2177,-0.0109,0.8862,-6.08,7.73,-0.05,21.67
17037,0.2163,-0.015,0.8875,-6.08,7.73,-0.05,21.7
17047,0.2156,-0.0138,0.8866,-6.12,7.69,-0.06,21.69
17057,0.2169,-0.0137,0.8853,-6.08,7.76,-0.12,21.7
17067,0.219,-0.0151,0.8835,-6.05,7.71,0.05,21.7
17077,0.2144,-0.0143,0.885,-6.09,7.74,0.02,21.65
17087,0.2147,-0.0143,0.8844,-6.12,7.74,-0.02,21.69
17097,0.2151,-0.0133,0.8859,-6.05,7.74,-0.03,21.66
17107,0.2168,-0.015,0.8843,-6.05,7.73,-0.02,21.67
17117,0.2173,-0.0142,0.8831,-6.11,7.86,-0.03,21.72
17127,0.2155,-0.014,0.8849,-6.11,7.66,0.03,21.7
17137,0.2166,-0.0168,0.8875,-6.08,7.69,0.0,21.7
17147,0.2172,-0.0129,0.8876,-6.14,7.71,-0.11,21.71
17157,0.2142,-0.0154,0.8861,-6.14,7.73,0.0,21.7
17167,0.2161,-0.0149,0.8876,-6.06,7.73,-0.06,21.72
17177,0.2124,-0.019,0.8868,-6.11,7.76,-0.12,21.69
17187,0.2148,-0.0143,0.8855,-6.03,7.69,0.05,21.71
17197,0.2159,-0.0118,0.8888,-6.0,7.74,0.0,21.71
17207,0.218,-0.0128,0.8822,-6.15,7.63,0.06,21.71
17217,0.2172,-0.0156,0.8883,-6.15,7.69,-0.14,21.72
17227,0.2148,-0.014,0.8887,-6.17,7.68,-0.02,21.68
17237,0.2156,-0.0116,0.8849,-6.06,7.69,0.03,21.7
17247,0.2159,-0.0118,0.8857,-6.11,7.74,0.0,21.71
17257,0.2163,-0.0134,0.8861,-6.17,7.66,-0.08,21.69
17267,0.2145,-0.0153,0.8854,-6.18,7.73,0.12,21.7
17277,0.2146,-0.0133,0.8849,-6.14,7.71,-0.09,21.72
17287,0.2159,-0.0138,0.8859,-6.08,7.66,-0.08,21.7
17297,0.2145,-0.014,0.8853,-6.14,7.71,0.02,21.67
17307,0.2144,-0.016,0.885,-6.15,7.74,0.03,21.68
17317,0.2174,-0.0144,0.886,-6.18,7.69,-0.03,21.68
17327,0.2186,-0.0139,0.8832,-6.08,7.63,0.0,21.72
17337,0.2174,-0.014,0.8856,-6.08,7.66,0.02,21.71
17347,0.2155,-0.014,0.8856,-6.05,7.73,-0.08,21.71
17357,0.2167,-0.0156,0.8866,-6.09,7.63,0.02,21.71
17367,0.2161,-0.0157,0.8857,-6.15,7.71,0.02,21.7
17377,0.2159,-0.0153,0.8876,-6.09,7.71,-0.02,21.69
17387,0.2164,-0.0146,0.887,-6.12,7.79,-0.08,21.67
17397,0.2147,-0.0148,0.8873,-6.12,7.74,-0.05,21.71
17407,0.2153,-0.0149,0.8884,-6.09,7.83,-0.12,21.69
17417,0.2167,-0.0159,0.8899,-6.09,7.73,-0.03,21.68
17427,0.2151,-0.0125,0.8859,-6.11,7.66,-0.06,21.69
17437,0.2172,-0.0145,0.889,-6.17,7.77,-0.17,21.71
17447,0.2156,-0.0145,0.8896,-6.09,7.76,0.09,21.68
17457,0.2167,-0.014,0.879,-6.05,7.76,0.02,21.68
17467,0.2179,-0.0135,0.8894,-6.0,7.71,-0.05,21.69
17477,0.2148,-0.0145,0.8873,-6.05,7.71,-0.12,21.7
17487,0.2173,-0.0148,0.8862,-5.98,7.63,-0.06,21.69
17497,0.2162,-0.0134,0.8842,-6.12,7.69,0.02,21.71
17507,0.2177,-0.0132,0.8849,-6.05,7.66,-0.06,21.7
17517,0.2159,-0.0137,0.8837,-6.14,7.74,-0.08,21.69
17527,0.2177,-0.0153,0.8851,-6.0,7.69,-0.05,21.7
17537,0.217,-0.0142,0.8864,-6.14,7.73,-0.02,21.71
17547,0.2159,-0.0164,0.8878,-6.02,7.8,0.02,21.71
17557,0.2146,-0.0144,0.8865,-6.15,7.74,-0.02,21.69
17567,0.2151,-0.0134,0.8884,-6.14,7.73,-0.02,21.72
17577,0.2134,-0.0194,0.8892,-6.02,7.71,-0.08,21.7
17587,0.2155,-0.0139,0.8865,-6.08,7.76,-0.02,21.69
17597,0.2164,-0.0168,0.8854,-6.11,7.69,-0.14,21.7
17607,0.2142,-0.0153,0.8844,-6.15,7.76,-0.05,21.68
17617,0.2166,-0.0125,0.8842,-6.12,7.68,-0.08,21.71
17627,0.2172,-0.0148,0.8857,-6.03,7.69,-0.02,21.71
17637,0.215,-0.014,0.8887,-6.08,7.73,0.02,21.71
17647,0.2186,-0.0162,0.8871,-6.06,7.71,-0.03,21.71
17657,0.2169,-0.0171,0.8888,-6.17,7.68,-0.08,21.69
17667,0.2162,-0.0153,0.8872,-6.05,7.74,-0.11,21.7
17677,0.2151,-0.014,0.8866,-6.08,7.69,0.0,21.71
17687,0.2191,-0.0142,0.8877,-6.12,7.68,0.02,21.73
17697,0.2159,-0.014,0.8857,-6.14,7.73,-0.03,21.7
17707,0.2153,-0.0168,0.8866,-6.14,7.71,-0.08,21.7
17717,0.219,-0.015,0.8881,-6.2,7.71,0.0,21.69
17727,0.2168,-0.0128,0.8846,-6.23,7.73,-0.06,21.69
17737,0.2148,-0.0126,0.8864,-6.15,7.68,-0.05,21.69
17747,0.2184,-0.0134,0.8848,-6.09,7.69,0.0,21.73
17757,0.2174,-0.0166,0.8859,-5.97,7.79,0.0,21.71
17767,0.2152,-0.0146,0.8873,-6.0,7.63,-0.09,21.72
17777,0.2186,-0.0125,0.8876,-6.08,7.74,-0.05,21.69
17787,0.2139,-0.016,0.8848,-6.03,7.71,-0.03,21.72
17797,0.2164,-0.014,0.8867,-6.12,7.77,-0.05,21.69
17807,0.2152,-0.0125,0.8864,-6.05,7.73,-0.05,21.72
17817,0.2181,-0.0165,0.8866,-6.05,7.68,0.0,21.72
17827,0.2161,-0.014,0.8887,-6.15,7.74,0.02,21.71
17837,0.2184,-0.0164,0.8837,-6.11,7.73,-0.02,21.71
17847,0.2172,-0.0146,0.8914,-6.08,7.69,-0.05,21.74
17857,0.2185,-0.0123,0.886,-6.14,7.74,-0.06,21.72
17867,0.2159,-0.0167,0.8854,-6.06,7.74,-0.14,21.73
17877,0.2147,-0.0146,0.8883,-6.05,7.71,-0.03,21.72
17887,0.2178,-0.0127,0.8837,-5.98,7.76,-0.08,21.72
17897,0.2152,-0.0161,0.886,-6.17,7.69,-0.03,21.72
17907,0.2173,-0.0137,0.8806,-6.11,7.69,-0.09,21.72
17917,0.2195,-0.0161,0.8865,-6.14,7.74,0.02,21.71
17927,0.2178,-0.0129,0.8871,-6.05,7.69,0.0,21.72
17937,0.2161,-0.0138,0.8848,-6.2,7.71,0.0,21.72
17947,0.2166,-0.015,0.8851,-6.11,7.68,0.03,21.74
17957,0.214,-0.0126,0.8834,-6.17,7.69,-0.05,21.73
17967,0.2167,-0.0159,0.8914,-6.02,7.66,-0.02,21.7
17977,0.2185,-0.0143,0.8882,-6.09,7.74,0.05,21.73
17987,0.2167,-0.0146,0.8884,-6.08,7.77,-0.02,21.72
17997,0.2177,-0.0114,0.8848,-6.11,7.69,-0.03,21.69
18007,0.2163,-0.0137,0.884,-6.03,7.69,0.02,21.71
18017,0.2151,-0.0139,0.8848,-6.09,7.68,0.03,21.71
18027,0.2153,-0.0125,0.8839,-6.08,7.76,-0.02,21.7
18037,0.2156,-0.0149,0.8857,-5.92,7.66,0.06,21.72
18047,0.2172,-0.0118,0.8871,-5.98,7.71,-0.08,21.7
18057,0.2163,-0.0146,0.8881,-6.03,7.69,-0.06,21.69
18067,0.2155,-0.0153,0.8849,-6.15,7.71,-0.06,21.7
18077,0.2172,-0.0157,0.8881,-6.18,7.71,0.0,21.71
18087,0.2184,-0.0125,0.8884,-6.06,7.77,-0.06,21.71
18097,0.2188,-0.0134,0.8871,-6.14,7.68,0.02,21.73
18107,0.2161,-0.0117,0.8876,-6.0,7.79,0.0,21.7
18117,0.2148,-0.0142,0.8906,-6.14,7.71,0.06,21.72
18127,0.2181,-0.0139,0.8885,-6.14,7.76,-0.05,21.74
18137,0.217,-0.0142,0.8873,-6.05,7.73,-0.05,21.69
18147,0.215,-0.0129,0.8859,-6.12,7.71,-0.05,21.72
18157,0.2167,-0.0118,0.8861,-6.11,7.8,0.02,21.74
18167,0.217,-0.0128,0.8839,-6.06,7.69,-0.05,21.72
18177,0.2178,-0.0155,0.8877,-6.05,7.74,-0.06,21.73
18187,0.2152,-0.0155,0.8876,-6.14,7.74,-0.08,21.74
18197,0.2156,-0.0178,0.8885,-6.14,7.69,0.0,21.73
18207,0.2156,-0.0156,0.8881,-6.2,7.69,0.02,21.72
18217,0.2139,-0.0168,0.8873,-6.06,7.63,-0.06,21.7
18227,0.2126,-0.0139,0.8859,-6.17,7.74,-0.02,21.72
18237,0.2117,-0.0154,0.8876,-6.0,7.69,-0.02,21.72
18247,0.2131,-0.0173,0.8831,-6.17,7.74,-0.03,21.72
18257,0.2166,-0.0146,0.8876,-6.06,7.76,-0.02,21.72
18267,0.2158,-0.015,0.8846,-6.08,7.74,0.0,21.72
18277,0.2183,-0.0148,0.8881,-6.11,7.71,-0.05,21.73
18287,0.2147,-0.0145,0.8855,-6.17,7.73,0.08,21.72
18297,0.215,-0.014,0.8868,-6.03,7.71,-0.08,21.71
18307,0.2168,-0.015,0.8866,-6.15,7.77,-0.12,21.72
18317,0.2168,-0.015,0.8893,-6.06,7.74,-0.08,21.72
18327,0.2159,-0.0149,0.8846,-6.14,7.66,-0.11,21.73
18337,0.2172,-0.0153,0.8856,-6.12,7.73,-0.03,21.72
18347,0.2166,-0.0156,0.8872,-6.14,7.65,-0.05,21.75
18357,0.2153,-0.0128,0.8846,-6.08,7.65,-0.06,21.72
18367,0.2146,-0.0143,0.8855,-6.11,7.68,-0.03,21.73
18377,0.2173,-0.015,0.8876,-6.08,7.71,-0.03,21.74
18387,0.2148,-0.0159,0.8846,-6.08,7.63,-0.03,21.72
18397,0.2158,-0.0146,0.8866,-6.14,7.77,-0.03,21.72
18407,0.2168,-0.0154,0.8855,-6.06,7.74,-0.08,21.74
18417,0.2161,-0.0172,0.8849,-6.05,7.68,-0.03,21.71
18427,0.2177,-0.0166,0.8876,-6.11,7.69,-0.03,21.74
18437,0.2166,-0.0162,0.8846,-6.12,7.62,0.08,21.74
18447,0.2166,-0.0139,0.8839,-6.08,7.68,-0.02,21.72
18457,0.2146,-0.014,0.8881,-6.06,7.69,-0.03,21.73
18467,0.217,-0.0116,0.8914,-6.06,7.71,-0.02,21.74
18477,0.2174,-0.0166,0.8877,-6.14,7.68,-0.06,21.74
18487,0.2146,-0.0118,0.8875,-6.08,7.71,-0.05,21.71
18497,0.2169,-0.011,0.8839,-6.17,7.74,-0.03,21.7
18507,0.2168,-0.0109,0.8853,-6.14,7.69,-0.06,21.74
18517,0.2175,-0.0164,0.8882,-6.06,7.71,-0.08,21.73
18527,0.2145,-0.0149,0.8868,-6.06,7.73,-0.05,21.75
18537,0.2164,-0.0118,0.8838,-6.12,7.8,-0.06,21.76
18547,0.2169,-0.0135,0.8868,-6.12,7.71,-0.11,21.73
18557,0.2173,-0.0145,0.8876,-6.05,7.79,-0.11,21.72
18567,0.2142,-0.0155,0.8879,-6.12,7.77,-0.02,21.73
18577,0.2161,-0.015,0.8867,-6.11,7.66,0.02,21.71
18587,0.2206,-0.0172,0.8855,-6.12,7.66,-0.09,21.74
18597,0.2151,-0.0166,0.8885,-6.14,7.73,-0.02,21.73
18607,0.2177,-0.0117,0.8885,-6.12,7.73,-0.03,21.74
18617,0.2152,-0.0156,0.8888,-6.18,7.73,0.03,21.75
18627,0.217,-0.0134,0.8871,-6.2,7.68,-0.02,21.74
18637,0.2174,-0.0138,0.8856,-6.02,7.69,-0.12,21.76
18647,0.2152,-0.0151,0.8876,-6.0,7.74,-0.09,21.73
18657,0.2164,-0.0154,0.8894,-6.15,7.73,-0.02,21.76
18667,0.2164,-0.0126,0.8855,-6.12,7.74,-0.08,21.73
18677,0.2155,-0.0126,0.8829,-6.05,7.71,0.0,21.73
18687,0.2137,-0.0175,0.8861,-6.06,7.77,0.03,21.71
18697,0.217,-0.0127,0.8854,-6.08,7.79,-0.05,21.7
18707,0.2153,-0.0166,0.8859,-6.05,7.71,-0.09,21.74
18717,0.2174,-0.0154,0.8883,-6.08,7.73,-0.05,21.74
18727,0.2146,-0.0143,0.8867,-6.11,7.65,-0.03,21.73
18737,0.2181,-0.0157,0.8856,-6.15,7.71,-0.05,21.72
18747,0.2146,-0.015,0.8864,-6.05,7.73,-0.06,21.72
18757,0.2192,-0.0139,0.8889,-6.15,7.8,-0.02,21.74
18767,0.2169,-0.0125,0.8871,-6.15,7.76,-0.09,21.73
18777,0.2153,-0.016,0.8868,-6.12,7.73,-0.03,21.72
18787,0.2158,-0.0138,0.8883,-5.98,7.76,-0.06,21.74
18797,0.2172,-0.0142,0.8828,-6.09,7.79,-0.03,21.74
18807,0.2197,-0.0143,0.885,-6.0,7.71,0.02,21.72
18817,0.2142,-0.0156,0.8884,-6.12,7.69,-0.06,21.75
18827,0.2157,-0.0156,0.8895,-6.15,7.69,-0.05,21.75
18837,0.2166,-0.014,0.8834,-6.12,7.73,-0.02,21.73
18847,0.2168,-0.0162,0.8859,-6.14,7.74,0.0,21.75
18857,0.2168,-0.0146,0.8827,-6.12,7.63,-0.08,21.74
18867,0.217,-0.0157,0.8853,-6.14,7.71,-0.05,21.72
18877,0.2155,-0.0146,0.8878,-6.11,7.74,-0.05,21.74
18887,0.2158,-0.0162,0.8896,-6.17,7.76,-0.05,21.72
18897,0.2152,-0.0135,0.8845,-6.05,7.63,-0.03,21.73
18907,0.212,-0.0143,0.889,-6.02,7.79,0.0,21.73
18917,0.2151,-0.0129,0.8889,-6.12,7.66,-0.02,21.72
18927,0.2155,-0.0126,0.8851,-6.18,7.65,0.02,21.73
18937,0.2152,-0.0142,0.8885,-6.12,7.71,-0.05,21.74
18947,0.2139,-0.0189,0.8868,-6.15,7.62,-0.05,21.74
18957,0.215,-0.0118,0.8911,-6.11,7.66,-0.05,21.74
18967,0.2197,-0.0161,0.8877,-6.06,7.69,-0.12,21.72
18977,0.2162,-0.0127,0.8864,-6.08,7.66,-0.06,21.74
18987,0.2173,-0.0159,0.8876,-6.14,7.69,-0.05,21.74
18997,0.2167,-0.0149,0.8856,-6.08,7.66,-0.02,21.75
19007,0.2148,-0.0151,0.8846,-6.06,7.76,-0.03,21.75
19017,0.2152,-0.0142,0.8834,-6.06,7.8,-0.03,21.74
19027,0.2185,-0.0162,0.8824,-6.14,7.65,-0.03,21.75
19037,0.2166,-0.0129,0.8845,-6.09,7.66,0.02,21.72
19047,0.214,-0.0156,0.8853,-6.08,7.71,-0.05,21.76
19057,0.2166,-0.0148,0.8875,-6.12,7.77,-0.06,21.73
19067,0.2157,-0.0135,0.8853,-6.08,7.74,0.0,21.74
19077,0.2162,-0.0131,0.8865,-6.12,7.79,-0.02,21.75
19087,0.2147,-0.0139,0.8843,-6.09,7.79,-0.14,21.75
19097,0.2172,-0.0115,0.8904,-6.12,7.68,-0.05,21.73
19107,0.2169,-0.015,0.8868,-6.06,7.73,-0.03,21.73
19117,0.2153,-0.0186,0.8837,-6.09,7.69,-0.14,21.74
19127,0.2158,-0.0138,0.8868,-5.97,7.71,-0.05,21.77
19137,0.2146,-0.0154,0.8849,-6.11,7.71,-0.02,21.74
19147,0.2169,-0.0137,0.8889,-6.03,7.66,0.05,21.74
19157,0.2179,-0.0133,0.8834,-6.11,7.73,-0.06,21.77
19167,0.2175,-0.0154,0.8865,-6.06,7.68,0.0,21.75
19177,0.2166,-0.0149,0.8856,-6.09,7.74,-0.08,21.74
19187,0.2151,-0.0143,0.8838,-6.06,7.68,-0.06,21.73
19197,0.2177,-0.0131,0.8883,-6.14,7.69,-0.02,21.79
19207,0.2137,-0.0127,0.8851,-6.15,7.76,-0.02,21.76
19217,0.2129,-0.0173,0.8871,-6.05,7.69,0.02,21.74
19227,0.2168,-0.0127,0.8899,-6.09,7.74,-0.06,21.76
19237,0.2164,-0.0143,0.8904,-6.11,7.66,-0.09,21.74
19247,0.2145,-0.0156,0.8864,-6.14,7.73,0.02,21.75
19257,0.2148,-0.0139,0.8872,-6.09,7.74,-0.03,21.76
19267,0.2158,-0.0151,0.8851,-6.02,7.69,-0.11,21.75
19277,0.215,-0.0123,0.8876,-6.09,7.76,0.0,21.74
19287,0.2181,-0.0155,0.8862,-6.15,7.68,0.03,21.74
19297,0.2151,-0.0138,0.8873,-6.08,7.76,-0.02,21.77
19307,0.2146,-0.0125,0.887,-6.12,7.68,0.05,21.75
19317,0.2164,-0.0149,0.8848,-6.06,7.71,0.05,21.76
19327,0.2153,-0.0164,0.8855,-6.15,7.69,-0.12,21.75
19337,0.2174,-0.0157,0.8865,-6.14,7.63,0.02,21.75
19347,0.2147,-0.0164,0.8862,-5.98,7.66,-0.06,21.76
19357,0.2136,-0.0159,0.8857,-6.09,7.76,-0.09,21.74
19367,0.2147,-0.0106,0.8865,-6.09,7.68,-0.06,21.77
19377,0.2167,-0.0146,0.8834,-6.05,7.77,0.05,21.76
19387,0.2146,-0.0149,0.8838,-6.05,7.68,0.0,21.78
19397,0.2167,-0.0123,0.887,-6.11,7.73,-0.09,21.75
19407,0.2164,-0.0149,0.8822,-6.12,7.69,-0.09,21.77
19417,0.2144,-0.0166,0.8855,-6.05,7.77,-0.09,21.76
19427,0.2173,-0.012,0.884,-6.09,7.71,-0.05,21.75
19438,0.2148,-0.0142,0.8866,-6.17,7.74,0.06,21.75
19448,0.2145,-0.0154,0.8853,-6.17,7.74,0.05,21.75
19458,0.2168,-0.0151,0.8876,-5.97,7.74,-0.02,21.77
19468,0.2162,-0.0171,0.8842,-5.98,7.66,0.0,21.77
19478,0.2175,-0.0142,0.8877,-6.08,7.69,-0.05,21.77
19488,0.2161,-0.0157,0.8866,-5.97,7.63,-0.06,21.75
19498,0.2145,-0.0117,0.8851,-6.06,7.79,-0.03,21.76
19508,0.2164,-0.014,0.8892,-6.08,7.77,-0.05,21.74
19518,0.2173,-0.0145,0.8896,-5.95,7.71,-0.02,21.76
19528,0.2158,-0.0162,0.8868,-6.09,7.74,-0.06,21.74
19538,0.2179,-0.014,0.8854,-6.12,7.62,0.08,21.77
19548,0.2172,-0.0156,0.8888,-6.12,7.79,0.03,21.74
19558,0.2148,-0.0126,0.8907,-6.2,7.76,0.05,21.76
19568,0.2177,-0.0125,0.8855,-6.12,7.76,-0.06,21.75
19579,0.2157,-0.0118,0.8859,-6.15,7.66,-0.02,21.74
19589,0.2177,-0.0142,0.8853,-6.06,7.74,-0.09,21.77
19599,0.2183,-0.0146,0.8855,-6.12,7.73,-0.05,21.75
19609,0.2166,-0.0157,0.887,-6.14,7.66,0.0,21.79
19619,0.2157,-0.0149,0.8875,-6.11,7.74,0.0,21.75
19629,0.2155,-0.0168,0.8854,-6.09,7.66,0.0,21.76
19639,0.2157,-0.0155,0.8855,-6.12,7.69,0.03,21.75
19649,0.2194,-0.0137,0.8892,-6.14,7.74,-0.08,21.76
19659,0.2172,-0.0134,0.8909,-6.09,7.74,-0.08,21.76
19669,0.2188,-0.0157,0.89,-6.12,7.69,-0.09,21.75
19679,0.2139,-0.0135,0.8877,-6.03,7.73,-0.03,21.74
19689,0.2163,-0.0161,0.8875,-6.14,7.79,0.02,21.77
19699,0.2141,-0.0137,0.8878,-6.14,7.76,-0.05,21.74
19709,0.2163,-0.0145,0.8893,-6.09,7.63,-0.03,21.76
19719,0.2163,-0.015,0.8845,-6.18,7.79,-0.11,21.78
19729,0.2181,-0.0137,0.8881,-6.14,7.71,-0.12,21.77
19739,0.2148,-0.0132,0.8857,-6.11,7.85,-0.08,21.75
19749,0.2185,-0.0129,0.8804,-6.12,7.74,0.0,21.76
19759,0.2144,-0.0148,0.882,-6.09,7.69,-0.05,21.76
19769,0.2153,-0.0161,0.8851,-6.08,7.71,-0.12,21.76
19779,0.2175,-0.0116,0.8877,-6.14,7.77,-0.06,21.77
19789,0.2169,-0.0146,0.8838,-6.17,7.76,-0.09,21.77
19799,0.2164,-0.0139,0.8822,-6.0,7.69,-0.06,21.76
19809,0.2189,-0.0109,0.8892,-6.14,7.66,-0.03,21.75
19819,0.2167,-0.0132,0.8844,-6.12,7.73,-0.08,21.73
19829,0.2147,-0.0112,0.8859,-6.05,7.8,-0.02,21.74
19839,0.2188,-0.0133,0.884,-6.12,7.73,0.03,21.77
19849,0.2161,-0.0137,0.8889,-6.09,7.71,-0.03,21.74
19859,0.215,-0.0151,0.8899,-6.05,7.71,0.05,21.76
19869,0.2155,-0.0162,0.8849,-6.08,7.76,-0.08,21.77
19879,0.2152,-0.0167,0.8878,-6.03,7.68,-0.05,21.79
19889,0.2151,-0.0134,0.8861,-6.08,7.82,-0.05,21.74
19899,0.2185,-0.0127,0.8831,-6.05,7.74,-0.03,21.79
19909,0.2168,-0.0134,0.885,-6.15,7.73,-0.03,21.77
19919,0.2175,-0.0146,0.8878,-6.12,7.69,0.03,21.76
19929,0.2169,-0.0166,0.8895,-6.09,7.71,-0.05,21.74
19939,0.2175,-0.0143,0.8866,-6.05,7.76,0.05,21.78
19949,0.2162,-0.0145,0.8842,-6.06,7.76,-0.03,21.77
19959,0.2148,-0.017,0.8871,-6.08,7.71,-0.06,21.77
19969,0.2196,-0.016,0.8873,-6.08,7.77,-0.03,21.77
19979,0.2159,-0.0142,0.8872,-6.15,7.76,-0.06,21.75
19989,0.2163,-0.0127,0.884,-6.03,7.68,-0.06,21.78
19999,0.2162,-0.0151,0.8901,-6.18,7.71,0.0,21.78
20009,0.2123,-0.017,0.8861,-6.02,7.79,-0.03,21.76
20019,0.2162,-0.0146,0.8867,-6.21,7.73,-0.03,21.77
20029,0.2159,-0.0157,0.8892,-6.14,7.68,-0.09,21.76
20039,0.2177,-0.0156,0.8877,-6.15,7.76,0.0,21.77
20049,0.2166,-0.0112,0.8853,-6.11,7.65,-0.03,21.78
20059,0.213,-0.014,0.8835,-6.12,7.69,-0.03,21.77
20069,0.2181,-0.0146,0.8866,-6.06,7.69,-0.03,21.78
20079,0.2161,-0.0162,0.8876,-6.03,7.71,0.02,21.79
20089,0.2163,-0.0125,0.8864,-6.06,7.66,-0.05,21.79
20099,0.2168,-0.0139,0.8893,-6.08,7.77,0.08,21.76
20109,0.2163,-0.0139,0.8894,-6.08,7.77,-0.05,21.76
20119,0.2156,-0.0135,0.8881,-6.21,7.65,0.0,21.77
20129,0.2163,-0.0142,0.8848,-6.11,7.68,-0.12,21.79
20139,0.2141,-0.0123,0.8889,-6.12,7.68,0.02,21.79
20149,0.2164,-0.01,0.8824,-6.06,7.68,-0.06,21.78
20159,0.2183,-0.0129,0.8839,-6.14,7.71,0.0,21.77
20169,0.2158,-0.0135,0.8849,-6.14,7.76,-0.06,21.77
20179,0.2163,-0.0149,0.8877,-6.0,7.66,0.05,21.79
20189,0.2167,-0.0173,0.8893,-6.05,7.71,-0.06,21.76
20199,0.2152,-0.0149,0.8857,-6.15,7.69,-0.03,21.81
20209,0.2153,-0.0129,0.8843,-6.21,7.68,-0.08,21.78
20219,0.2168,-0.0161,0.8835,-6.06,7.66,0.05,21.77
20229,0.2174,-0.0134,0.8828,-6.11,7.71,-0.03,21.79
20239,0.2172,-0.0132,0.8835,-6.05,7.69,-0.05,21.78
20249,0.2181,-0.0127,0.8854,-6.17,7.79,0.0,21.77
20259,0.2157,-0.0143,0.8875,-6.02,7.77,0.02,21.73
20269,0.2164,-0.0133,0.8843,-6.12,7.73,-0.06,21.78
20279,0.2177,-0.011,0.8856,-6.09,7.73,-0.02,21.77
20289,0.2163,-0.0129,0.8838,-6.09,7.69,0.0,21.78
20300,0.2181,-0.0146,0.8837,-5.97,7.71,-0.05,21.77
20310,0.2178,-0.0155,0.8823,-6.02,7.74,-0.11,21.77
20320,0.2172,-0.0137,0.886,-6.08,7.71,0.0,21.78
20330,0.2186,-0.0156,0.8873,-6.11,7.73,-0.08,21.78
20340,0.2175,-0.0133,0.8844,-5.98,7.74,-0.03,21.79
20350,0.2153,-0.0159,0.8842,-6.17,7.71,-0.05,21.8
20360,0.2183,-0.0157,0.8855,-6.15,7.73,-0.06,21.78
20371,0.2168,-0.0156,0.8876,-6.11,7.77,0.08,21.77
20381,0.2188,-0.015,0.8903,-6.08,7.71,-0.05,21.77
20391,0.2163,-0.0127,0.8833,-6.14,7.77,-0.06,21.78
20401,0.2157,-0.0154,0.8851,-6.08,7.68,0.0,21.78
20411,0.2156,-0.0133,0.8846,-6.17,7.8,-0.03,21.79
20421,0.2144,-0.0156,0.8876,-6.05,7.71,-0.03,21.77
20431,0.2177,-0.0138,0.887,-6.09,7.65,-0.05,21.76
20441,0.2139,-0.0156,0.8848,-6.12,7.68,-0.02,21.78
20451,0.2144,-0.0145,0.8871,-6.24,7.76,-0.05,21.79
20461,0.2155,-0.0154,0.8871,-6.15,7.73,-0.08,21.78
20471,0.2164,-0.0131,0.8864,-6.09,7.79,-0.05,21.78
20481,0.2152,-0.0149,0.8846,-6.11,7.63,0.0,21.8
20491,0.2188,-0.014,0.8878,-6.09,7.65,0.0,21.78
20501,0.2128,-0.0146,0.8857,-6.18,7.71,-0.08,21.77
20511,0.2141,-0.0133,0.8881,-6.09,7.68,-0.03,21.77
20521,0.2166,-0.014,0.886,-6.08,7.77,-0.11,21.77
20531,0.2173,-0.0153,0.8894,-6.11,7.77,-0.06,21.76
20541,0.2164,-0.016,0.886,-6.14,7.63,-0.03,21.77
20551,0.213,-0.0151,0.8878,-6.11,7.71,0.0,21.79
20561,0.2156,-0.0143,0.8906,-6.08,7.71,-0.05,21.78
20571,0.2179,-0.0139,0.8865,-6.15,7.71,0.02,21.78
20581,0.2164,-0.012,0.8878,-6.05,7.73,-0.02,21.8
20591,0.2164,-0.0134,0.8888,-6.09,7.74,-0.02,21.77
20601,0.2172,-0.015,0.8882,-6.09,7.69,0.03,21.79
20611,0.2186,-0.0154,0.8878,-6.08,7.74,-0.05,21.79
20621,0.2152,-0.0148,0.8875,-6.06,7.76,-0.05,21.79
20631,0.2142,-0.015,0.8837,-6.14,7.69,0.05,21.79
20641,0.2144,-0.0134,0.8876,-6.12,7.71,-0.05,21.8
20651,0.2146,-0.0125,0.8888,-6.12,7.62,-0.05,21.78
20661,0.2162,-0.0161,0.8866,-6.09,7.74,-0.06,21.78
20671,0.2166,-0.0145,0.8835,-6.12,7.69,-0.02,21.8
20681,0.2177,-0.0161,0.8883,-6.11,7.66,-0.02,21.79
20691,0.2131,-0.0151,0.891,-6.06,7.68,-0.09,21.78
20701,0.2178,-0.0133,0.8845,-6.12,7.71,-0.06,21.82
20711,0.2173,-0.0142,0.8861,-6.11,7.71,0.02,21.77
20721,0.2141,-0.0138,0.8875,-6.12,7.68,-0.02,21.79
20731,0.2152,-0.0132,0.8844,-6.15,7.74,-0.06,21.78
20741,0.2166,-0.0135,0.8882,-6.15,7.71,-0.05,21.81
20751,0.2148,-0.0145,0.89,-6.11,7.66,-0.06,21.8
20761,0.2161,-0.0166,0.8859,-6.08,7.71,0.03,21.82
20771,0.2142,-0.0144,0.8893,-6.14,7.76,-0.06,21.8
20781,0.2186,-0.0182,0.8844,-6.06,7.77,-0.06,21.81
20791,0.2168,-0.015,0.885,-6.11,7.74,-0.05,21.8
20801,0.2185,-0.0142,0.8859,-6.09,7.68,-0.08,21.78
20811,0.2164,-0.0168,0.8843,-6.17,7.71,0.02,21.8
20821,0.2153,-0.0146,0.8861,-6.12,7.74,-0.05,21.79
20831,0.2163,-0.0161,0.8885,-6.11,7.68,-0.02,21.8
20841,0.2155,-0.015,0.8846,-6.08,7.65,-0.08,21.82
20851,0.2141,-0.0145,0.8844,-6.06,7.71,-0.02,21.79
20861,0.2169,-0.0133,0.8875,-6.09,7.73,-0.11,21.79
20871,0.2185,-0.0111,0.8873,-6.11,7.71,-0.06,21.82
20881,0.2178,-0.0131,0.8834,-6.12,7.73,0.0,21.79
20891,0.2153,-0.0157,0.8834,-6.09,7.68,-0.03,21.78
20901,0.2159,-0.0138,0.8842,-6.03,7.74,-0.08,21.79
20911,0.2173,-0.0178,0.8832,-6.05,7.71,0.02,21.8
20921,0.2157,-0.0143,0.8848,-6.06,7.77,-0.08,21.8
20931,0.2167,-0.0133,0.8868,-6.17,7.79,0.03,21.81
20941,0.2164,-0.015,0.89,-6.11,7.73,0.03,21.8
20951,0.2177,-0.0165,0.887,-6.11,7.69,-0.03,21.81
20961,0.2157,-0.0133,0.8871,-6.06,7.76,-0.05,21.81
20971,0.215,-0.0133,0.8853,-6.09,7.68,0.02,21.8
20981,0.2164,-0.0133,0.8872,-6.17,7.69,0.0,21.8
20991,0.2144,-0.0129,0.887,-6.11,7.74,-0.05,21.78
21001,0.2147,-0.015,0.8862,-6.06,7.8,-0.02,21.78
21011,0.2183,-0.0165,0.8871,-6.02,7.77,-0.03,21.8
21021,0.2146,-0.0137,0.8887,-6.09,7.74,-0.05,21.79
21031,0.2169,-0.0155,0.8829,-5.98,7.68,-0.03,21.81
21041,0.2159,-0.014,0.8883,-6.2,7.74,-0.09,21.78
21051,0.2175,-0.0159,0.8827,-6.14,7.73,0.0,21.78
21061,0.2175,-0.0135,0.8878,-6.06,7.65,0.02,21.8
21071,0.2151,-0.0153,0.88,-6.05,7.66,0.02,21.79
21081,0.2177,-0.0128,0.8844,-6.18,7.59,-0.08,21.81
21091,0.2153,-0.0165,0.8872,-6.21,7.66,0.03,21.79
21101,0.2169,-0.0159,0.8845,-6.11,7.74,-0.09,21.8
21111,0.2163,-0.0177,0.8877,-6.14,7.59,-0.05,21.8
21121,0.2146,-0.0166,0.8839,-6.03,7.66,-0.02,21.8
21131,0.2167,-0.016,0.8859,-6.09,7.71,-0.05,21.8
21141,0.2146,-0.015,0.8842,-6.06,7.79,0.02,21.79
21151,0.2168,-0.0159,0.887,-6.11,7.63,0.0,21.81
21161,0.2162,-0.0148,0.8848,-6.08,7.69,0.0,21.8
21171,0.2145,-0.0159,0.8854,-6.03,7.69,-0.03,21.8
21181,0.2172,-0.0129,0.8895,-6.09,7.68,0.0,21.79
21191,0.2163,-0.0132,0.8861,-6.09,7.74,-0.06,21.82
21201,0.217,-0.0142,0.8864,-6.12,7.79,0.0,21.81
21211,0.2162,-0.0148,0.8857,-6.06,7.65,0.05,21.8
21221,0.217,-0.0127,0.8876,-6.15,7.71,0.05,21.8
21231,0.2164,-0.0139,0.889,-6.08,7.69,0.05,21.8
21241,0.217,-0.0137,0.8867,-6.05,7.71,0.05,21.78
21251,0.2166,-0.0132,0.8859,-6.08,7.71,-0.05,21.79
21261,0.2159,-0.0134,0.8861,-5.94,7.71,-0.08,21.81
21271,0.2183,-0.0129,0.8879,-6.11,7.69,-0.02,21.8
21282,0.2153,-0.0139,0.8865,-6.02,7.73,-0.03,21.81
21292,0.2153,-0.0144,0.8856,-6.08,7.77,-0.05,21.78
21302,0.2151,-0.0156,0.8879,-6.12,7.71,-0.08,21.81
21312,0.2181,-0.0157,0.8853,-6.15,7.77,-0.06,21.8
21322,0.2135,-0.0101,0.8901,-6.17,7.74,-0.03,21.77
21332,0.2175,-0.0133,0.8904,-6.08,7.71,-0.12,21.8
21342,0.2158,-0.0168,0.8872,-6.12,7.68,-0.05,21.82
21354,0.2157,-0.0133,0.8838,-6.14,7.74,-0.05,21.83
21364,0.2128,-0.0143,0.8849,-6.12,7.74,-0.08,21.8
21374,0.2174,-0.0159,0.8833,-6.12,7.73,-0.11,21.81
21384,0.2174,-0.0114,0.885,-6.09,7.73,-0.03,21.84
21394,0.2162,-0.0133,0.8857,-6.09,7.76,-0.03,21.8
21404,0.2159,-0.0144,0.885,-6.2,7.76,-0.02,21.8
21414,0.2152,-0.0157,0.8827,-6.12,7.73,-0.03,21.82
21424,0.2168,-0.0157,0.886,-6.11,7.66,0.03,21.79
21434,0.2157,-0.0162,0.886,-6.11,7.63,-0.02,21.82
21444,0.2162,-0.0137,0.8865,-6.09,7.73,-0.03,21.78
21454,0.2145,-0.0128,0.8846,-6.06,7.73,-0.05,21.8
21464,0.2174,-0.0142,0.8889,-6.17,7.65,0.02,21.79
21475,0.2155,-0.0135,0.8876,-6.12,7.73,-0.02,21.79
21485,0.2151,-0.0129,0.8838,-6.02,7.71,0.05,21.8
21495,0.2152,-0.0139,0.8856,-6.14,7.73,-0.02,21.79
21505,0.2156,-0.0154,0.8875,-6.09,7.73,0.02,21.79
21515,0.2131,-0.0145,0.8845,-6.06,7.69,-0.03,21.8
21525,0.2164,-0.0134,0.885,-6.08,7.73,-0.06,21.8
21535,0.2177,-0.0146,0.8862,-6.12,7.69,-0.02,21.79
21545,0.2175,-0.0116,0.8848,-6.15,7.65,0.0,21.83
21555,0.2152,-0.0146,0.8845,-6.12,7.73,-0.02,21.81
21565,0.2151,-0.0155,0.889,-6.08,7.76,0.0,21.8
21575,0.2167,-0.0153,0.89,-6.05,7.65,-0.06,21.81
21585,0.2159,-0.0168,0.8875,-6.08,7.68,0.0,21.8
21595,0.2159,-0.0145,0.8871,-6.03,7.73,-0.02,21.81
21605,0.2166,-0.0134,0.8871,-6.0,7.62,-0.05,21.84
21615,0.2178,-0.0144,0.8851,-6.03,7.8,-0.02,21.81
21625,0.2153,-0.0139,0.8853,-6.03,7.8,-0.02,21.83
21635,0.2141,-0.0143,0.8861,-6.14,7.77,-0.03,21.8
21645,0.2162,-0.0139,0.8879,-6.08,7.74,-0.02,21.82
21655,0.2188,-0.0181,0.8898,-6.15,7.63,-0.02,21.81
21665,0.2163,-0.0148,0.8862,-6.12,7.65,-0.05,21.81
21675,0.218,-0.0134,0.8865,-6.09,7.76,0.0,21.82
21685,0.2178,-0.0157,0.8828,-6.02,7.68,0.03,21.8
21695,0.2155,-0.0142,0.8845,-6.05,7.69,-0.06,21.82
21705,0.2142,-0.0138,0.8849,-6.11,7.74,-0.03,21.81
21715,0.2168,-0.0164,0.8857,-6.15,7.74,0.02,21.82
21725,0.219,-0.0149,0.8853,-6.12,7.73,-0.06,21.81
21735,0.2173,-0.0137,0.8832,-6.12,7.68,-0.03,21.8
21745,0.2144,-0.0137,0.8865,-6.08,7.68,-0.08,21.82
21755,0.2157,-0.0162,0.887,-6.11,7.74,-0.05,21.8
21765,0.218,-0.0151,0.8873,-6.06,7.69,-0.09,21.77
21775,0.2163,-0.0134,0.8872,-6.11,7.69,-0.11,21.79
21785,0.2141,-0.0167,0.8865,-6.11,7.73,0.02,21.83
21795,0.2164,-0.0125,0.8894,-6.2,7.69,-0.12,21.82
21805,0.2151,-0.0142,0.8877,-6.15,7.71,0.03,21.81
21815,0.2153,-0.0133,0.8879,-6.02,7.71,0.0,21.83
21825,0.215,-0.0138,0.887,-6.05,7.76,-0.05,21.81
21835,0.2158,-0.0157,0.8855,-6.02,7.83,-0.02,21.8
21845,0.2134,-0.0159,0.8864,-6.06,7.73,-0.05,21.81
21855,0.2158,-0.014,0.8873,-6.05,7.77,-0.05,21.79
21865,0.2158,-0.0129,0.889,-6.06,7.68,-0.03,21.8
21875,0.2159,-0.0132,0.8893,-6.11,7.68,0.02,21.79
21885,0.2131,-0.0144,0.8843,-6.12,7.69,-0.03,21.78
21895,0.2159,-0.012,0.8839,-6.12,7.76,0.02,21.8
21905,0.2145,-0.0132,0.886,-6.11,7.63,0.0,21.81
21915,0.2168,-0.0153,0.8862,-5.95,7.71,-0.09,21.8
21925,0.2162,-0.0162,0.885,-6.03,7.66,-0.05,21.81
21936,0.2125,-0.0172,0.8848,-6.0,7.69,-0.03,21.81
21946,0.2148,-0.0144,0.8857,-6.12,7.71,0.11,21.8
21956,0.22,-0.0153,0.8872,-5.98,7.77,-0.06,21.8
21967,0.2161,-0.0127,0.8834,-6.12,7.74,-0.03,21.79
21977,0.2167,-0.0133,0.8882,-6.17,7.77,-0.02,21.81
21987,0.2175,-0.0127,0.8883,-6.09,7.73,-0.05,21.82
21997,0.2133,-0.0153,0.8827,-6.12,7.66,0.05,21.81
22007,0.2202,-0.0137,0.8833,-6.17,7.76,0.02,21.78
22017,0.2177,-0.0165,0.8844,-6.15,7.76,0.0,21.81
22027,0.2189,-0.0157,0.8859,-5.97,7.77,-0.03,21.8
22037,0.2183,-0.0133,0.8879,-6.11,7.71,-0.05,21.82
22047,0.2163,-0.0164,0.8878,-6.06,7.65,-0.08,21.79
22057,0.2167,-0.0135,0.8885,-6.12,7.74,-0.09,21.82
22067,0.214,-0.0127,0.8853,-6.17,7.76,-0.05,21.83
22077,0.2194,-0.0149,0.8843,-6.24,7.68,-0.03,21.84
22087,0.2152,-0.0131,0.8842,-6.14,7.88,0.0,21.83
22097,0.2163,-0.015,0.8872,-6.08,7.73,-0.06,21.79
22107,0.2157,-0.0134,0.8844,-6.08,7.76,-0.02,21.81
22117,0.2179,-0.0151,0.8849,-6.14,7.68,-0.05,21.82
22127,0.2155,-0.0167,0.8883,-6.11,7.73,-0.03,21.8
22137,0.2175,-0.0154,0.8827,-6.17,7.71,0.0,21.8
22147,0.2145,-0.0135,0.8867,-6.09,7.74,-0.02,21.79
22157,0.2119,-0.0129,0.8831,-6.02,7.79,0.03,21.79
22167,0.2158,-0.0168,0.8867,-6.03,7.65,-0.08,21.81
22177,0.219,-0.0144,0.8854,-6.12,7.73,0.02,21.81
22187,0.2161,-0.019,0.8828,-6.12,7.74,-0.08,21.8
22197,0.2151,-0.0123,0.8878,-6.12,7.69,-0.03,21.81
22207,0.2155,-0.0125,0.8864,-6.06,7.68,0.02,21.82
22217,0.2158,-0.0145,0.8894,-6.11,7.68,0.0,21.82
22227,0.2159,-0.0105,0.889,-6.09,7.69,0.0,21.79
22237,0.2146,-0.0133,0.8883,-6.11,7.69,-0.06,21.82
22247,0.219,-0.0139,0.8899,-6.02,7.73,0.0,21.81
22257,0.2157,-0.0166,0.887,-6.11,7.69,-0.06,21.81
22267,0.2177,-0.0153,0.8876,-6.21,7.69,0.02,21.8
22277,0.2161,-0.0125,0.8821,-6.12,7.69,-0.08,21.8
22287,0.2172,-0.0121,0.8872,-6.05,7.8,-0.02,21.81
22297,0.2198,-0.0128,0.8881,-6.14,7.76,-0.09,21.82
22307,0.2167,-0.0121,0.885,-6.18,7.76,-0.05,21.81
22317,0.2146,-0.0151,0.8864,-6.21,7.69,0.02,21.82
22327,0.2148,-0.0146,0.8873,-6.0,7.74,-0.06,21.79
22337,0.2159,-0.0133,0.8846,-6.02,7.74,-0.03,21.81
22347,0.2169,-0.0144,0.887,-6.15,7.68,-0.05,21.77
22357,0.2158,-0.0114,0.8883,-6.09,7.71,-0.08,21.79
22367,0.2178,-0.0145,0.8862,-6.05,7.76,-0.08,21.81
22377,0.2141,-0.0133,0.892,-6.05,7.73,0.02,21.84
22387,0.2164,-0.0173,0.8894,-6.02,7.68,0.02,21.82
22397,0.2173,-0.0122,0.8839,-6.06,7.65,0.02,21.79
22407,0.2148,-0.0146,0.8889,-6.06,7.69,0.03,21.82
22417,0.2179,-0.0127,0.8816,-6.05,7.73,-0.09,21.83
22427,0.2167,-0.0114,0.8887,-6.12,7.73,-0.03,21.81
22437,0.2168,-0.0145,0.8872,-6.02,7.74,-0.11,21.82
22447,0.2179,-0.0115,0.8859,-6.12,7.73,-0.06,21.81
22457,0.2139,-0.0159,0.8867,-6.12,7.73,-0.06,21.82
22467,0.2142,-0.0149,0.8866,-6.08,7.63,-0.02,21.81
22477,0.2172,-0.0153,0.887,-6.08,7.69,-0.06,21.81
22487,0.2178,-0.0142,0.8885,-6.15,7.79,-0.06,21.84
22497,0.219,-0.0145,0.8826,-6.09,7.8,0.0,21.82
22507,0.2167,-0.0143,0.8857,-6.08,7.69,-0.02,21.83
22517,0.2159,-0.0137,0.8848,-6.08,7.69,-0.06,21.79
22527,0.2148,-0.017,0.8876,-6.23,7.73,0.05,21.8
22537,0.2196,-0.0164,0.8844,-6.12,7.73,-0.12,21.82
22547,0.2162,-0.0154,0.8865,-6.11,7.71,-0.05,21.82
22557,0.2144,-0.0143,0.8845,-6.12,7.69,-0.03,21.82
22567,0.2158,-0.0154,0.8837,-6.08,7.76,-0.05,21.8
22577,0.2146,-0.0168,0.8844,-6.05,7.73,0.09,21.82
22587,0.2155,-0.0162,0.8846,-6.15,7.71,0.0,21.81
22597,0.2148,-0.017,0.8859,-6.08,7.74,0.03,21.82
22607,0.2167,-0.015,0.8868,-6.05,7.71,-0.08,21.83
22617,0.2174,-0.0154,0.8839,-6.11,7.69,-0.06,21.82
22627,0.2172,-0.0146,0.8834,-6.08,7.73,-0.06,21.83
22637,0.2174,-0.0161,0.8866,-6.08,7.76,-0.05,21.81
22647,0.2139,-0.0162,0.8867,-6.23,7.69,-0.06,21.82
22657,0.217,-0.0133,0.8859,-6.0,7.68,-0.09,21.82
22667,0.2152,-0.0133,0.8867,-6.14,7.71,-0.08,21.82
22677,0.2172,-0.0154,0.8862,-6.03,7.66,-0.05,21.83
22687,0.2167,-0.014,0.8865,-6.17,7.77,-0.02,21.81
22697,0.2166,-0.0148,0.8837,-6.05,7.8,-0.05,21.8
22707,0.2131,-0.0134,0.8855,-6.08,7.71,-0.06,21.82
22717,0.2168,-0.0154,0.8871,-6.11,7.71,0.0,21.85
22727,0.213,-0.0132,0.8873,-6.17,7.62,-0.05,21.83
22737,0.2162,-0.0149,0.8857,-6.17,7.82,-0.09,21.85
22747,0.2148,-0.0137,0.8853,-6.09,7.66,-0.03,21.82
22757,0.2169,-0.0145,0.8821,-6.11,7.74,-0.02,21.84
22767,0.2164,-0.0149,0.8862,-6.08,7.65,-0.03,21.81
22777,0.2158,-0.0187,0.8879,-6.11,7.65,-0.06,21.84
22787,0.2144,-0.0159,0.8846,-6.18,7.73,-0.05,21.82
22797,0.2189,-0.0154,0.8835,-6.12,7.74,0.0,21.84
22807,0.2137,-0.0138,0.8873,-6.15,7.74,-0.02,21.84
22817,0.2152,-0.0145,0.8813,-6.03,7.65,-0.06,21.83
22827,0.2148,-0.0176,0.8883,-6.11,7.73,0.02,21.84
22837,0.2177,-0.0156,0.8846,-6.12,7.77,-0.03,21.85
22848,0.2137,-0.0146,0.8871,-6.02,7.71,-0.14,21.83
22858,0.217,-0.0142,0.8876,-6.18,7.73,-0.03,21.83
22868,0.2162,-0.0138,0.8875,-6.08,7.71,-0.08,21.82
22878,0.217,-0.014,0.8849,-6.11,7.73,-0.02,21.82
22888,0.2173,-0.0165,0.8835,-6.15,7.74,0.06,21.84
22898,0.2191,-0.0166,0.8877,-6.0,7.79,0.0,21.84
22908,0.2163,-0.014,0.887,-6.09,7.79,-0.06,21.84
22918,0.2159,-0.0139,0.8854,-6.14,7.79,-0.12,21.84
22928,0.2164,-0.0159,0.8862,-6.17,7.73,0.0,21.83
22938,0.2167,-0.016,0.8882,-6.12,7.76,-0.03,21.82
22948,0.2164,-0.0161,0.8842,-6.17,7.74,0.0,21.86
22958,0.2153,-0.014,0.8846,-6.17,7.79,-0.02,21.86
22968,0.2153,-0.016,0.8831,-6.18,7.79,-0.03,21.85
22978,0.2151,-0.0117,0.886,-6.03,7.71,-0.06,21.83
22988,0.217,-0.0175,0.8851,-6.11,7.73,-0.05,21.82
22998,0.2161,-0.0138,0.8875,-6.05,7.68,-0.09,21.82
23008,0.2169,-0.0162,0.8829,-6.05,7.73,-0.12,21.83
23018,0.2136,-0.0112,0.8848,-6.17,7.68,-0.02,21.87
23028,0.2178,-0.0153,0.8868,-6.15,7.69,-0.06,21.83
23038,0.2174,-0.0154,0.8859,-6.03,7.71,0.02,21.86
23048,0.2161,-0.0164,0.8879,-6.12,7.69,-0.02,21.85
23059,0.2163,-0.0149,0.8881,-6.05,7.73,-0.03,21.85
23069,0.2167,-0.0164,0.8871,-6.08,7.74,-0.02,21.83
23079,0.2168,-0.015,0.8878,-6.15,7.66,-0.03,21.83
23089,0.2172,-0.014,0.8843,-6.12,7.71,-0.11,21.85
23099,0.2155,-0.0164,0.8868,-6.09,7.69,-0.06,21.84
23109,0.2167,-0.0168,0.8855,-6.05,7.66,-0.08,21.84
23119,0.2162,-0.0157,0.8842,-6.12,7.73,-0.12,21.85
23129,0.2184,-0.014,0.886,-6.06,7.68,-0.11,21.83
23139,0.2183,-0.0134,0.8871,-6.11,7.74,0.0,21.85
23149,0.2178,-0.016,0.8866,-6.12,7.69,-0.06,21.86
23159,0.2166,-0.0154,0.8854,-5.98,7.73,-0.03,21.84
23169,0.2153,-0.015,0.8872,-6.18,7.73,0.0,21.86
23179,0.2179,-0.0144,0.887,-6.06,7.76,0.05,21.85
23189,0.2177,-0.0106,0.8851,-6.14,7.77,-0.12,21.84
23199,0.2159,-0.0111,0.8865,-6.11,7.79,-0.02,21.83
23209,0.2163,-0.0129,0.8838,-6.0,7.71,0.03,21.85
23219,0.2189,-0.0139,0.8871,-6.08,7.77,-0.08,21.86
23229,0.2172,-0.0149,0.8829,-6.2,7.74,0.0,21.85
23239,0.215,-0.0151,0.8873,-6.15,7.71,-0.03,21.86
23249,0.2164,-0.011,0.8879,-6.2,7.66,-0.06,21.84
23259,0.2175,-0.0172,0.8839,-6.24,7.71,-0.02,21.84
23269,0.214,-0.0146,0.8832,-6.23,7.63,-0.03,21.84
23279,0.2169,-0.0151,0.8868,-6.11,7.71,-0.03,21.85
23289,0.2178,-0.0164,0.8873,-6.0,7.69,-0.02,21.84
23299,0.215,-0.0161,0.8864,-6.09,7.68,-0.02,21.83
23309,0.2166,-0.0176,0.8877,-6.14,7.74,-0.06,21.85
23319,0.2157,-0.0162,0.8922,-6.05,7.74,0.0,21.86
23329,0.2152,-0.0148,0.891,-6.0,7.66,0.0,21.82
23339,0.2128,-0.015,0.8853,-6.08,7.69,-0.08,21.85
23349,0.2164,-0.0137,0.8831,-6.08,7.62,0.05,21.85
23359,0.2173,-0.0127,0.8857,-6.11,7.68,-0.12,21.84
23369,0.2155,-0.0144,0.8873,-6.18,7.63,-0.03,21.85
23379,0.2139,-0.0159,0.8865,-6.02,7.69,-0.09,21.84
23389,0.2173,-0.0129,0.885,-6.11,7.69,-0.12,21.84
23399,0.2164,-0.014,0.8878,-6.06,7.69,-0.05,21.85
23409,0.2137,-0.0165,0.8854,-6.03,7.77,-0.05,21.85
23419,0.2151,-0.014,0.8877,-6.18,7.74,-0.11,21.83
23429,0.2162,-0.0109,0.8834,-6.17,7.77,-0.06,21.84
23439,0.2155,-0.0178,0.8834,-6.08,7.69,-0.06,21.86
23449,0.2153,-0.0142,0.8854,-6.08,7.76,-0.05,21.86
23460,0.2131,-0.0186,0.8883,-6.02,7.68,0.05,21.83
23470,0.218,-0.014,0.8871,-6.08,7.71,-0.06,21.82
23480,0.2137,-0.0162,0.8845,-6.15,7.6,-0.06,21.84
23490,0.2174,-0.0121,0.884,-6.08,7.74,-0.03,21.81
23500,0.2175,-0.0138,0.8851,-6.03,7.76,-0.05,21.83
23510,0.2167,-0.0127,0.8843,-6.05,7.71,-0.05,21.82
23520,0.2177,-0.0149,0.8877,-6.18,7.74,-0.03,21.84
23530,0.2172,-0.0135,0.8871,-6.0,7.76,-0.05,21.82
23540,0.219,-0.0143,0.8861,-6.08,7.71,0.03,21.83
23551,0.2161,-0.0167,0.8843,-6.12,7.63,0.0,21.85
23561,0.2168,-0.0142,0.8827,-6.06,7.73,0.02,21.83
23571,0.2146,-0.0132,0.8835,-6.18,7.8,0.02,21.83
23581,0.2156,-0.0135,0.8851,-6.09,7.74,0.03,21.85
23591,0.2162,-0.0149,0.8855,-6.11,7.69,-0.03,21.84
23601,0.2159,-0.0157,0.8879,-6.05,7.71,-0.09,21.84
23611,0.2172,-0.0155,0.8851,-6.14,7.76,0.0,21.86
23621,0.2186,-0.0151,0.8875,-6.18,7.77,-0.06,21.87
23631,0.2169,-0.0109,0.8887,-6.09,7.69,-0.11,21.87
23641,0.2186,-0.0168,0.8882,-6.15,7.74,-0.14,21.82
23651,0.2161,-0.0143,0.8898,-6.03,7.63,-0.08,21.84
23661,0.2159,-0.0162,0.8823,-6.06,7.73,-0.08,21.85
23671,0.2155,-0.0128,0.8856,-6.12,7.79,0.02,21.84
23681,0.2177,-0.0123,0.8829,-6.08,7.69,0.02,21.86
23691,0.2152,-0.0178,0.89,-6.05,7.69,-0.03,21.85
23701,0.2151,-0.0161,0.8846,-6.12,7.74,-0.05,21.85
23711,0.2161,-0.0129,0.8856,-6.08,7.74,-0.08,21.85
23721,0.2129,-0.0131,0.8885,-6.23,7.73,-0.03,21.87
23731,0.2155,-0.0168,0.8893,-6.17,7.74,-0.02,21.86
23741,0.2167,-0.0153,0.8854,-6.06,7.69,-0.15,21.83
23751,0.2183,-0.0139,0.8845,-6.03,7.69,-0.08,21.85
23761,0.2169,-0.0131,0.8851,-6.11,7.69,-0.11,21.85
23771,0.2181,-0.0135,0.8859,-6.15,7.62,0.06,21.84
23781,0.2155,-0.0154,0.8888,-5.98,7.63,-0.05,21.85
23791,0.2156,-0.0134,0.8884,-6.06,7.73,0.0,21.86
23801,0.2159,-0.0149,0.8861,-6.05,7.79,0.05,21.85
23811,0.2158,-0.015,0.8855,-6.08,7.69,-0.05,21.85
23821,0.2163,-0.0162,0.8839,-6.08,7.71,-0.05,21.86
23831,0.2175,-0.017,0.8905,-6.11,7.74,-0.05,21.85
23841,0.2167,-0.0144,0.8838,-6.2,7.71,-0.06,21.89
23851,0.2151,-0.0159,0.8875,-6.03,7.71,0.0,21.86
23861,0.2157,-0.0123,0.8834,-6.21,7.69,0.0,21.88
23871,0.2174,-0.0157,0.8845,-6.12,7.74,0.0,21.87
23881,0.2175,-0.0132,0.8823,-6.15,7.77,0.05,21.86
23891,0.2192,-0.0157,0.8871,-6.03,7.74,-0.02,21.87
23901,0.2172,-0.0153,0.887,-6.2,7.66,-0.06,21.85
23911,0.2145,-0.0121,0.885,-6.08,7.79,0.0,21.85
23921,0.2175,-0.0142,0.8848,-6.11,7.74,0.0,21.89
23931,0.2158,-0.0157,0.8875,-6.05,7.66,0.0,21.86
23941,0.2173,-0.0154,0.8844,-6.09,7.76,0.03,21.84
23951,0.2126,-0.0116,0.8834,-6.12,7.71,0.06,21.84
23961,0.2161,-0.0133,0.8871,-6.09,7.69,-0.03,21.86
23971,0.217,-0.0144,0.8843,-6.11,7.68,-0.03,21.87
23981,0.218,-0.0155,0.8881,-6.03,7.69,-0.09,21.87
23991,0.2175,-0.0179,0.8915,-6.03,7.71,0.05,21.87
24001,0.2157,-0.0122,0.8879,-6.12,7.66,0.03,21.87
24011,0.2162,-0.0133,0.887,-5.98,7.71,-0.05,21.87
24021,0.2155,-0.0155,0.8862,-6.09,7.73,-0.08,21.89
24031,0.2142,-0.0155,0.8873,-6.03,7.71,0.02,21.89
24041,0.2145,-0.0153,0.887,-6.15,7.71,-0.08,21.87
24051,0.2161,-0.0134,0.8882,-6.18,7.66,-0.09,21.89
24061,0.2173,-0.0166,0.8873,-6.03,7.63,-0.08,21.88
24072,0.2142,-0.0154,0.8845,-6.08,7.63,-0.08,21.85
24082,0.2184,-0.015,0.8884,-6.09,7.77,-0.11,21.87
24093,0.2163,-0.0128,0.8882,-6.02,7.74,-0.05,21.86
24103,0.2162,-0.0143,0.8867,-6.03,7.71,-0.02,21.87
24115,0.2166,-0.0172,0.8862,-6.06,7.6,0.0,21.87
24125,0.2162,-0.0132,0.8868,-6.06,7.71,-0.02,21.89
24135,0.2141,-0.0142,0.8854,-6.03,7.71,0.0,21.87
24145,0.2159,-0.012,0.8903,-6.03,7.66,0.06,21.88
24155,0.2169,-0.0137,0.884,-6.12,7.68,0.03,21.89
24165,0.217,-0.0137,0.8839,-6.18,7.66,-0.08,21.88
24175,0.2167,-0.014,0.8885,-6.09,7.71,-0.02,21.86
24185,0.2152,-0.0161,0.8873,-6.2,7.77,-0.05,21.85
24195,0.2179,-0.0131,0.8877,-6.11,7.76,-0.03,21.88
24205,0.2185,-0.0157,0.8882,-6.09,7.68,-0.03,21.85
24215,0.2168,-0.0131,0.8851,-6.0,7.74,0.05,21.89
24225,0.2162,-0.0125,0.8871,-6.08,7.66,-0.05,21.87
24235,0.2196,-0.0149,0.887,-6.08,7.68,-0.06,21.87
24245,0.2148,-0.0164,0.8883,-6.03,7.74,-0.02,21.89
24255,0.2117,-0.0166,0.8862,-6.12,7.73,-0.03,21.87
24265,0.2152,-0.0137,0.8845,-6.12,7.71,0.05,21.89
24276,0.2156,-0.0146,0.8879,-6.09,7.73,0.02,21.88
24286,0.2146,-0.0149,0.8857,-6.12,7.68,-0.09,21.87
24296,0.2158,-0.0154,0.8851,-6.09,7.73,-0.14,21.88
24307,0.2153,-0.0123,0.8912,-6.15,7.76,-0.08,21.87
24317,0.2168,-0.0134,0.8831,-6.12,7.66,-0.09,21.88
24327,0.2162,-0.0149,0.8889,-6.05,7.69,-0.06,21.9
24337,0.2185,-0.0132,0.8895,-6.12,7.76,0.03,21.88
24347,0.2135,-0.0157,0.8873,-6.11,7.69,-0.06,21.88
24357,0.2122,-0.0151,0.8846,-6.05,7.73,-0.05,21.88
24367,0.2183,-0.0161,0.8868,-6.02,7.65,-0.06,21.89
24377,0.2178,-0.0145,0.8833,-6.05,7.73,-0.11,21.89
24387,0.2133,-0.0142,0.8873,-6.09,7.68,-0.09,21.9
24397,0.2167,-0.0142,0.8893,-6.11,7.68,-0.06,21.9
24407,0.2148,-0.0121,0.886,-6.09,7.65,-0.15,21.89
24417,0.2162,-0.0155,0.8827,-6.08,7.76,-0.06,21.89
24427,0.2136,-0.0161,0.8864,-6.09,7.6,-0.12,21.87
24437,0.218,-0.0168,0.884,-6.02,7.69,-0.03,21.88
24447,0.2157,-0.0127,0.8857,-6.02,7.68,-0.02,21.87
24457,0.2184,-0.0175,0.8877,-6.15,7.66,0.0,21.88
24467,0.2144,-0.014,0.8857,-6.14,7.71,-0.05,21.87
24477,0.2177,-0.0137,0.8854,-6.11,7.69,-0.05,21.89
24487,0.2192,-0.0149,0.8861,-6.18,7.73,-0.05,21.87
24497,0.2173,-0.0146,0.8864,-6.09,7.73,-0.06,21.89
24507,0.2181,-0.0145,0.8845,-6.11,7.76,0.03,21.87
24517,0.2166,-0.0151,0.8857,-6.15,7.71,-0.08,21.88
24527,0.2159,-0.0156,0.8855,-6.11,7.68,-0.05,21.88
24537,0.2177,-0.0162,0.8832,-6.08,7.71,-0.03,21.88
24547,0.2177,-0.0162,0.8882,-6.14,7.68,-0.05,21.86
24557,0.2134,-0.0154,0.8855,-6.12,7.73,-0.08,21.86
24567,0.2167,-0.0129,0.8833,-6.09,7.69,-0.05,21.9
24577,0.2181,-0.0166,0.8865,-6.17,7.79,-0.03,21.86
24587,0.2156,-0.0126,0.8856,-6.14,7.79,0.03,21.85
24597,0.2134,-0.0156,0.8839,-6.15,7.77,-0.06,21.89
24607,0.2168,-0.0137,0.8844,-6.12,7.76,-0.02,21.89
24617,0.2185,-0.0122,0.8853,-6.03,7.76,-0.08,21.89
24627,0.2167,-0.0151,0.8876,-6.08,7.69,-0.03,21.87
24637,0.2147,-0.0145,0.89,-6.09,7.71,-0.05,21.89
24647,0.2133,-0.0144,0.8843,-6.14,7.79,0.0,21.9
24657,0.2156,-0.0157,0.8848,-6.17,7.74,-0.11,21.9
24667,0.2168,-0.0135,0.8843,-6.09,7.68,-0.05,21.87
24677,0.215,-0.0145,0.8848,-6.15,7.74,-0.05,21.88
24687,0.2173,-0.0098,0.8875,-6.11,7.73,-0.05,21.88
24697,0.2155,-0.0121,0.8884,-6.02,7.74,0.05,21.88
24707,0.2157,-0.0144,0.8856,-6.06,7.71,0.0,21.9
24717,0.2148,-0.0133,0.8846,-6.09,7.71,-0.03,21.87
24727,0.2166,-0.0143,0.889,-6.09,7.65,-0.05,21.9
24737,0.2128,-0.0126,0.8846,-6.09,7.73,-0.06,21.89
24747,0.2141,-0.0145,0.89,-6.14,7.71,-0.09,21.87
24757,0.217,-0.0137,0.8878,-6.05,7.68,-0.14,21.88
24767,0.2172,-0.0148,0.8844,-6.11,7.69,-0.08,21.89
24777,0.2185,-0.0198,0.8865,-6.15,7.77,-0.08,21.91
24787,0.2163,-0.0193,0.8868,-6.05,7.69,0.05,21.89
24797,0.2162,-0.0198,0.8837,-6.08,7.76,-0.02,21.89
24807,0.2152,-0.0143,0.8826,-5.98,7.69,-0.08,21.89
24817,0.2164,-0.0181,0.8854,-6.14,7.68,-0.03,21.87
24827,0.2158,-0.015,0.8838,-6.14,7.6,-0.14,21.89
24837,0.2157,-0.0166,0.8835,-6.08,7.76,-0.05,21.87
24847,0.2159,-0.016,0.8831,-6.05,7.68,-0.02,21.91
24857,0.218,-0.0148,0.8837,-6.12,7.73,-0.03,21.9
24867,0.2156,-0.0115,0.8867,-6.11,7.66,-0.03,21.89
24877,0.2144,-0.0112,0.8871,-6.17,7.74,-0.02,21.89
24888,0.2128,-0.0112,0.8878,-6.05,7.74,-0.02,21.88
24898,0.2159,-0.0138,0.8899,-6.14,7.85,-0.06,21.87
24908,0.2162,-0.0109,0.8844,-6.11,7.74,0.03,21.88
24918,0.2156,-0.009,0.8849,-6.14,7.74,-0.02,21.89
24928,0.2119,-0.014,0.8867,-6.12,7.74,-0.02,21.9
24938,0.2135,-0.0128,0.8877,-6.15,7.66,-0.08,21.87
24948,0.2167,-0.0137,0.8864,-6.14,7.71,-0.03,21.89
24958,0.2157,-0.015,0.8855,-6.02,7.65,0.06,21.89
24968,0.217,-0.016,0.8871,-6.06,7.66,0.03,21.9
24978,0.2174,-0.0142,0.8829,-6.08,7.69,0.0,21.89
24988,0.2152,-0.0132,0.8826,-6.17,7.74,0.11,21.89
24998,0.2174,-0.0146,0.8842,-6.14,7.63,-0.09,21.89
25008,0.2142,-0.0165,0.8862,-6.14,7.74,-0.03,21.89
25018,0.2153,-0.0176,0.884,-6.02,7.76,-0.08,21.89
25028,0.2146,-0.0189,0.8859,-6.06,7.71,-0.06,21.89
25038,0.2186,-0.015,0.8893,-6.15,7.77,-0.02,21.91
25048,0.2162,-0.0181,0.8884,-6.05,7.76,-0.02,21.89
25058,0.2136,-0.0137,0.8859,-6.06,7.68,-0.05,21.89
25068,0.2175,-0.0154,0.889,-6.06,7.68,-0.05,21.9
25078,0.2167,-0.0135,0.8862,-6.11,7.66,-0.05,21.91
25088,0.2168,-0.0138,0.8871,-6.17,7.69,-0.06,21.89
25098,0.2161,-0.0095,0.8839,-6.12,7.74,-0.11,21.93
25108,0.2147,-0.0123,0.885,-6.15,7.73,-0.06,21.92
25118,0.2168,-0.01,0.8867,-6.02,7.73,-0.05,21.92
25128,0.2169,-0.0112,0.8866,-6.08,7.74,-0.06,21.9
25138,0.2186,-0.0115,0.8856,-6.18,7.79,0.02,21.91
25148,0.2157,-0.0126,0.8857,-6.12,7.76,-0.06,21.89
25159,0.2174,-0.0114,0.885,-6.09,7.68,-0.05,21.91
25169,0.2174,-0.0122,0.8894,-6.0,7.73,-0.03,21.9
25179,0.2161,-0.0172,0.8839,-6.06,7.71,-0.02,21.89
25189,0.2152,-0.0144,0.8826,-6.05,7.76,0.0,21.89
25199,0.2164,-0.0138,0.8873,-6.12,7.71,0.02,21.91
25209,0.2155,-0.0164,0.8857,-6.15,7.76,0.0,21.91
25219,0.2158,-0.0173,0.8876,-6.12,7.68,-0.06,21.91
25229,0.2169,-0.017,0.8855,-6.05,7.71,0.0,21.88
25239,0.2152,-0.0149,0.8846,-6.03,7.66,0.09,21.9
25249,0.2147,-0.0175,0.8876,-6.08,7.76,0.03,21.92
25259,0.2144,-0.0156,0.8843,-6.14,7.76,-0.03,21.92
25269,0.2168,-0.0161,0.8848,-6.06,7.76,-0.06,21.9
25279,0.2136,-0.0139,0.8887,-6.03,7.77,-0.05,21.92
25289,0.2168,-0.0155,0.8835,-6.14,7.69,-0.06,21.89
25299,0.2168,-0.0164,0.8846,-6.02,7.77,-0.03,21.88
25309,0.2147,-0.0155,0.884,-6.12,7.73,0.0,21.92
25319,0.2166,-0.0143,0.8901,-6.12,7.63,0.03,21.92
25329,0.2169,-0.0133,0.8885,-6.08,7.71,-0.02,21.93
25339,0.2178,-0.0151,0.8882,-6.0,7.68,-0.06,21.91
25349,0.2174,-0.0146,0.8855,-6.08,7.74,-0.12,21.91
25359,0.2166,-0.0132,0.8842,-6.11,7.66,0.02,21.92
25369,0.2158,-0.014,0.8864,-6.08,7.63,0.03,21.92
25379,0.218,-0.0154,0.886,-6.18,7.69,-0.09,21.9
25389,0.2169,-0.0146,0.8889,-6.09,7.65,0.0,21.9
25400,0.2142,-0.0125,0.8871,-6.18,7.79,-0.02,21.91
25410,0.2159,-0.0125,0.8853,-6.15,7.74,-0.06,21.9
25420,0.2162,-0.0118,0.8879,-6.12,7.76,0.0,21.89
25430,0.2139,-0.0139,0.8867,-6.09,7.77,-0.05,21.89
25440,0.2153,-0.0153,0.8855,-6.09,7.73,-0.06,21.9
25450,0.2133,-0.0159,0.8912,-6.09,7.79,0.02,21.92
25460,0.2147,-0.0172,0.8882,-6.11,7.73,-0.06,21.91
25471,0.217,-0.0133,0.8866,-6.24,7.71,0.03,21.93
25481,0.219,-0.0155,0.8867,-6.17,7.69,-0.03,21.9
25492,0.212,-0.0132,0.8842,-6.11,7.69,0.06,21.91
25502,0.2158,-0.0145,0.8903,-6.06,7.76,-0.02,21.92
25515,0.2175,-0.0117,0.8868,-6.02,7.79,0.02,21.92
25525,0.2169,-0.0133,0.8846,-6.09,7.76,0.05,21.89
25535,0.2151,-0.0122,0.8842,-6.14,7.66,-0.02,21.92
25545,0.2168,-0.014,0.8883,-6.14,7.66,-0.03,21.93
25555,0.2158,-0.0143,0.8901,-6.12,7.66,-0.05,21.93
25565,0.2128,-0.0118,0.887,-6.14,7.65,0.0,21.92
25576,0.2164,-0.0127,0.8834,-6.08,7.71,-0.11,21.89
25586,0.2184,-0.0134,0.8828,-6.08,7.66,0.03,21.91
25596,0.2177,-0.0132,0.8877,-6.11,7.73,-0.06,21.9
25606,0.2163,-0.0142,0.8821,-6.03,7.71,-0.03,21.91
25616,0.2167,-0.0149,0.8892,-6.05,7.73,-0.03,21.88
25626,0.2166,-0.0156,0.8866,-6.09,7.68,-0.09,21.88
25636,0.2167,-0.0167,0.885,-6.03,7.66,-0.06,21.91
25646,0.2157,-0.0128,0.8903,-6.21,7.74,-0.03,21.89
25656,0.2184,-0.014,0.884,-6.14,7.71,-0.09,21.89
25666,0.214,-0.017,0.8857,-6.09,7.66,-0.02,21.9
25676,0.2139,-0.0159,0.8866,-6.05,7.71,-0.03,21.94
25686,0.2152,-0.015,0.8846,-6.12,7.71,-0.03,21.94
25696,0.2166,-0.0153,0.8838,-6.12,7.66,-0.08,21.91
25706,0.2172,-0.0157,0.8848,-6.05,7.65,0.0,21.92
25716,0.215,-0.0144,0.8854,-6.12,7.8,-0.08,21.92
25726,0.2159,-0.0134,0.8883,-6.12,7.74,-0.11,21.92
25736,0.2137,-0.0144,0.8892,-6.12,7.69,0.05,21.94
25746,0.2134,-0.0151,0.8789,-6.12,7.76,0.08,21.89
25756,0.2158,-0.0148,0.89,-6.03,7.68,-0.08,21.92
25766,0.215,-0.0161,0.8904,-6.09,7.65,0.02,21.91
25777,0.2168,-0.0146,0.8837,-6.08,7.68,0.0,21.92
25787,0.2151,-0.0162,0.8882,-6.21,7.82,-0.08,21.9
25797,0.2168,-0.0144,0.8867,-6.08,7.71,0.0,21.92
25807,0.2163,-0.0161,0.8865,-6.08,7.71,-0.02,21.92
25817,0.217,-0.0117,0.8868,-6.21,7.79,0.02,21.91
25827,0.2145,-0.0122,0.8855,-6.06,7.69,-0.06,21.92
25837,0.2147,-0.0142,0.8843,-6.15,7.73,-0.08,21.91
25847,0.2159,-0.0144,0.8854,-6.11,7.71,-0.08,21.89
25857,0.217,-0.0139,0.8866,-6.14,7.71,-0.02,21.92
25867,0.2148,-0.017,0.8853,-6.15,7.63,-0.08,21.89
25877,0.2159,-0.0133,0.8873,-6.08,7.66,-0.05,21.89
25887,0.2177,-0.0126,0.8835,-6.12,7.68,0.02,21.92
25897,0.2134,-0.0149,0.8873,-6.11,7.71,0.02,21.93
25907,0.2173,-0.0129,0.8828,-6.06,7.69,-0.02,21.93
25917,0.2157,-0.0142,0.887,-6.06,7.73,0.02,21.9
25927,0.2185,-0.0148,0.8859,-6.12,7.68,-0.05,21.92
25937,0.2163,-0.0154,0.8864,-6.18,7.63,-0.14,21.91
25947,0.217,-0.0146,0.8883,-6.06,7.74,-0.09,21.89
25957,0.2185,-0.0151,0.8878,-6.06,7.76,0.0,21.9
25967,0.2155,-0.0144,0.8871,-6.12,7.74,-0.03,21.92
25977,0.2145,-0.014,0.8876,-6.12,7.68,-0.03,21.94
25987,0.2184,-0.0104,0.8882,-6.14,7.69,-0.06,21.92
25997,0.2168,-0.0134,0.8868,-6.08,7.71,-0.02,21.92
26007,0.2146,-0.0129,0.8845,-6.12,7.69,-0.02,21.91
26017,0.2144,-0.0139,0.8861,-6.08,7.73,-0.03,21.93
26027,0.2133,-0.0131,0.8826,-6.12,7.74,-0.02,21.92
26037,0.2135,-0.0111,0.8888,-6.05,7.71,-0.03,21.92
26047,0.2166,-0.0133,0.8851,-6.14,7.82,-0.09,21.92
26057,0.2164,-0.0128,0.8832,-5.97,7.71,-0.02,21.91
26067,0.2173,-0.0128,0.8851,-6.14,7.59,-0.08,21.9
26077,0.2175,-0.0155,0.8872,-6.18,7.71,-0.05,21.94
26087,0.2175,-0.0154,0.889,-6.06,7.66,0.02,21.91
26097,0.2175,-0.0166,0.8859,-6.09,7.66,0.06,21.92
26107,0.2158,-0.0164,0.8883,-6.08,7.68,-0.08,21.96
26117,0.2145,-0.0165,0.8896,-6.08,7.77,0.0,21.95
26127,0.2161,-0.0142,0.8853,-6.0,7.71,-0.06,21.94
26137,0.2177,-0.0171,0.8872,-6.08,7.68,-0.02,21.92
26147,0.2145,-0.016,0.8856,-6.12,7.71,0.02,21.92
26157,0.2164,-0.0156,0.8844,-6.14,7.76,-0.09,21.93
26167,0.2162,-0.0143,0.8851,-6.05,7.74,-0.05,21.94
26177,0.218,-0.0145,0.8866,-6.14,7.66,0.0,21.91
26187,0.2146,-0.0156,0.8842,-6.08,7.73,0.05,21.95
26197,0.2159,-0.0156,0.8867,-6.15,7.68,-0.02,21.92
26207,0.2181,-0.0181,0.8901,-6.03,7.77,-0.05,21.9
26217,0.2183,-0.0172,0.8875,-5.91,7.74,0.0,21.94
26227,0.2178,-0.0155,0.8862,-6.08,7.68,-0.11,21.93
26237,0.2181,-0.0106,0.8879,-6.18,7.68,-0.02,21.93
26247,0.2163,-0.0125,0.887,-6.15,7.71,-0.05,21.94
26257,0.2151,-0.0154,0.889,-6.12,7.69,-0.08,21.91
26267,0.2148,-0.0133,0.887,-6.05,7.69,-0.02,21.93
26277,0.2167,-0.0133,0.8811,-6.17,7.69,-0.03,21.91
26287,0.2186,-0.0145,0.8846,-6.0,7.65,0.05,21.92
26297,0.2164,-0.0154,0.882,-6.06,7.74,0.02,21.92
26307,0.2161,-0.0178,0.8876,-6.08,7.68,0.02,21.91
26317,0.2185,-0.0164,0.8895,-6.09,7.65,-0.06,21.94
26327,0.2139,-0.0162,0.8878,-6.08,7.74,-0.05,21.92
26337,0.2153,-0.0114,0.8813,-6.15,7.79,-0.02,21.92
26347,0.2164,-0.016,0.8864,-6.08,7.66,0.05,21.93
26357,0.215,-0.0145,0.8857,-6.17,7.79,-0.12,21.92
26367,0.2178,-0.0145,0.8875,-6.08,7.71,0.05,21.92
26377,0.2168,-0.0128,0.8859,-6.06,7.79,0.02,21.92
26387,0.2158,-0.0128,0.8904,-6.08,7.77,0.02,21.94
26397,0.2157,-0.0153,0.8872,-6.05,7.73,-0.12,21.96
26407,0.2166,-0.016,0.8851,-5.94,7.83,0.02,21.95
26417,0.2162,-0.0159,0.8844,-6.02,7.71,-0.08,21.91
26427,0.2161,-0.0139,0.886,-6.11,7.69,-0.03,21.93
26437,0.2164,-0.0132,0.8889,-6.08,7.74,-0.08,21.94
26447,0.2168,-0.012,0.8859,-6.05,7.68,0.0,21.92
26457,0.2148,-0.0159,0.8859,-6.06,7.73,-0.06,21.91
26467,0.2189,-0.0134,0.8845,-6.06,7.8,0.06,21.89
26477,0.2169,-0.0161,0.8877,-6.08,7.71,-0.08,21.92
26487,0.2161,-0.0138,0.8878,-6.15,7.73,-0.02,21.92
26497,0.213,-0.015,0.8839,-6.14,7.74,-0.02,21.91
26507,0.2159,-0.0145,0.8848,-6.06,7.76,-0.11,21.92
26517,0.2169,-0.0138,0.8871,-6.08,7.73,0.0,21.91
26527,0.2153,-0.0133,0.8862,-6.03,7.73,-0.02,21.92
26537,0.218,-0.0151,0.8875,-6.03,7.8,-0.12,21.91
26547,0.2137,-0.0146,0.8867,-6.17,7.73,-0.06,21.92
26557,0.2157,-0.0168,0.8855,-6.18,7.73,-0.02,21.91
26567,0.2166,-0.0149,0.8853,-6.08,7.69,0.03,21.93
26577,0.2172,-0.0148,0.8876,-6.08,7.63,0.03,21.95
26587,0.2141,-0.017,0.8866,-6.11,7.69,-0.12,21.97
26597,0.2174,-0.0137,0.8884,-6.12,7.71,-0.02,21.94
26607,0.2173,-0.0176,0.8916,-6.12,7.76,-0.05,21.95
26617,0.2178,-0.0167,0.8879,-6.0,7.69,-0.02,21.93
26627,0.2168,-0.0122,0.8826,-6.03,7.74,-0.12,21.92
26637,0.2179,-0.0115,0.8848,-6.05,7.63,-0.08,21.96
26647,0.2194,-0.0137,0.8853,-6.14,7.69,0.02,21.95
26657,0.219,-0.0146,0.887,-6.09,7.66,0.02,21.94
26667,0.2159,-0.0155,0.8851,-6.09,7.8,-0.14,21.92
26677,0.2139,-0.0161,0.8846,-6.11,7.68,0.0,21.9
26687,0.2161,-0.0132,0.889,-6.09,7.74,0.02,21.92
26697,0.2158,-0.0132,0.8846,-6.11,7.73,-0.06,21.96
26707,0.2169,-0.015,0.8851,-6.14,7.63,0.03,21.93
26717,0.2145,-0.0116,0.889,-6.12,7.76,0.03,21.95
26727,0.2162,-0.0154,0.8878,-6.17,7.85,-0.02,21.93
26737,0.2157,-0.015,0.8871,-6.09,7.77,0.06,21.92
26747,0.2157,-0.0151,0.8898,-6.08,7.76,-0.03,21.95
26757,0.2159,-0.0143,0.8889,-6.15,7.66,-0.05,21.93
26767,0.2166,-0.0156,0.8853,-6.17,7.69,-0.06,21.94
26777,0.2169,-0.0133,0.8844,-6.0,7.74,-0.09,21.94
26787,0.218,-0.016,0.886,-6.17,7.77,-0.08,21.92
26797,0.2186,-0.0157,0.8816,-6.15,7.71,0.03,21.94
26807,0.2166,-0.0164,0.8868,-6.06,7.69,-0.03,21.94
26817,0.217,-0.0134,0.8845,-6.08,7.65,-0.06,21.94
26827,0.2159,-0.0156,0.8881,-6.09,7.65,-0.02,21.94
26837,0.2158,-0.0161,0.8867,-6.2,7.68,0.0,21.94
26847,0.2162,-0.0132,0.8885,-6.12,7.73,-0.03,21.94
26857,0.2148,-0.0148,0.8837,-6.12,7.69,0.0,21.95
26867,0.2156,-0.0173,0.8862,-6.06,7.69,-0.05,21.94
26877,0.2181,-0.0176,0.8866,-6.02,7.71,0.05,21.96
26887,0.2175,-0.0139,0.889,-6.15,7.74,0.0,21.93
26897,0.2163,-0.0161,0.8885,-6.15,7.73,0.05,21.95
26907,0.214,-0.0157,0.8873,-6.12,7.74,-0.05,21.93
26917,0.215,-0.0154,0.886,-6.17,7.73,-0.02,21.94
26927,0.2155,-0.0143,0.8864,-6.2,7.77,-0.03,21.91
26937,0.2142,-0.014,0.8889,-6.05,7.77,-0.08,21.94
26947,0.2177,-0.0132,0.8866,-6.2,7.74,-0.08,21.94
26957,0.2164,-0.0129,0.8876,-6.11,7.63,-0.02,21.95
26967,0.2188,-0.0101,0.8906,-6.05,7.73,0.02,21.94
26977,0.2177,-0.0154,0.8914,-6.11,7.66,-0.02,21.95
26987,0.2157,-0.0151,0.8829,-6.12,7.73,0.0,21.95
26997,0.2148,-0.0166,0.8833,-6.14,7.73,-0.02,21.94
27007,0.2177,-0.0162,0.8845,-6.09,7.71,0.0,21.95
27017,0.2146,-0.0172,0.8842,-6.03,7.71,0.0,21.96
27027,0.2174,-0.0129,0.8855,-6.15,7.74,-0.08,21.96
27037,0.2168,-0.0154,0.8828,-6.08,7.74,-0.02,21.93
27047,0.2148,-0.0161,0.8867,-6.03,7.66,-0.05,21.95
27057,0.2131,-0.0157,0.8818,-6.11,7.71,-0.02,21.95
27067,0.2173,-0.0144,0.8864,-6.17,7.73,0.0,21.92
27077,0.2172,-0.0155,0.8864,-6.09,7.69,0.0,21.94
27087,0.2179,-0.0144,0.8883,-6.14,7.68,-0.12,21.93
27097,0.2168,-0.0137,0.8831,-6.2,7.68,-0.09,21.95
27107,0.2162,-0.0144,0.8857,-6.09,7.68,-0.03,21.94
27117,0.2174,-0.0159,0.8851,-6.14,7.74,0.0,21.93
27127,0.2178,-0.0134,0.8859,-6.12,7.74,0.0,21.93
27137,0.2197,-0.0154,0.8853,-6.15,7.71,0.02,21.93
27147,0.2213,-0.0135,0.8861,-6.17,7.77,0.03,21.95
27157,0.2131,-0.0149,0.8853,-6.03,7.73,0.02,21.97
27167,0.2153,-0.0116,0.8842,-6.03,7.73,-0.06,21.94
27177,0.2123,-0.0149,0.8843,-6.06,7.66,0.03,21.93
27187,0.2147,-0.0156,0.884,-6.03,7.76,-0.02,21.93
27197,0.2168,-0.0153,0.8834,-6.08,7.63,-0.06,21.94
27207,0.215,-0.0162,0.8865,-6.11,7.62,-0.08,21.94
27217,0.217,-0.0131,0.8851,-6.09,7.83,-0.08,21.94
27227,0.2179,-0.0132,0.8884,-6.06,7.71,-0.05,21.94
27237,0.2153,-0.0156,0.8872,-6.14,7.76,-0.08,21.95
27247,0.2161,-0.0151,0.885,-6.12,7.76,-0.12,21.93
27257,0.2148,-0.0143,0.8861,-6.08,7.74,-0.05,21.94
27267,0.2174,-0.0166,0.8845,-6.06,7.77,-0.06,21.94
27277,0.2173,-0.0165,0.8851,-6.12,7.73,-0.09,21.95
27287,0.2158,-0.0138,0.887,-6.09,7.83,-0.02,21.94
27297,0.2174,-0.0122,0.8875,-6.06,7.73,0.02,21.95
27307,0.2151,-0.0157,0.8839,-6.11,7.68,-0.09,21.94
27317,0.213,-0.0128,0.889,-6.09,7.73,-0.06,21.95
27327,0.2155,-0.0154,0.8849,-6.14,7.71,0.02,21.94
27337,0.2172,-0.0121,0.8832,-6.12,7.71,-0.06,21.93
27347,0.218,-0.015,0.8895,-6.05,7.73,-0.08,21.96
27357,0.2119,-0.011,0.8875,-6.09,7.66,0.0,21.95
27367,0.2173,-0.0144,0.8855,-6.18,7.65,-0.03,21.96
27377,0.2152,-0.0127,0.8864,-6.17,7.71,-0.05,21.96
27387,0.2179,-0.0145,0.8846,-6.12,7.69,-0.11,21.97
27397,0.214,-0.0148,0.8832,-6.11,7.65,-0.08,21.96
27407,0.2164,-0.0166,0.8831,-6.14,7.8,0.03,21.95
27417,0.2169,-0.0149,0.8861,-6.12,7.73,-0.05,21.95
27427,0.2175,-0.0156,0.8888,-6.09,7.73,0.05,21.96
27437,0.2161,-0.0127,0.8856,-6.12,7.82,-0.02,21.97
27447,0.2136,-0.0116,0.8844,-6.14,7.65,0.0,21.96
27457,0.2159,-0.0131,0.8833,-6.14,7.66,-0.11,21.94
