t_ms,accel_x_g,accel_y_g,accel_z_g,gyro_x_dps,gyro_y_dps,gyro_z_dps,imu_temp_c
3289,0.2157,-0.0331,0.8851,-6.7,7.97,0.03,29.24
3301,0.2141,-0.0311,0.8885,-6.64,7.91,-0.02,29.24
3311,0.2133,-0.0348,0.8885,-6.73,7.98,0.0,29.24
3321,0.2133,-0.032,0.8853,-6.69,7.95,-0.08,29.25
3331,0.2119,-0.0319,0.8864,-6.67,7.97,-0.02,29.28
3341,0.2153,-0.0344,0.8849,-6.73,7.91,-0.09,29.25
3351,0.213,-0.0347,0.8877,-6.7,7.91,-0.02,29.26
3361,0.215,-0.0343,0.8899,-6.7,7.91,-0.09,29.28
3371,0.2164,-0.0369,0.8877,-6.66,7.91,0.06,29.27
3381,0.2124,-0.0363,0.889,-6.63,7.97,-0.05,29.23
3391,0.2164,-0.0361,0.8837,-6.7,7.89,-0.02,29.24
3401,0.2162,-0.0345,0.8855,-6.63,7.89,-0.06,29.25
3411,0.2169,-0.0309,0.8915,-6.61,7.98,-0.05,29.24
3421,0.2153,-0.033,0.8888,-6.66,7.91,-0.12,29.27
3431,0.2178,-0.0311,0.8871,-6.66,7.94,-0.03,29.25
3441,0.215,-0.0344,0.8882,-6.69,8.05,-0.17,29.27
3451,0.2137,-0.0364,0.8846,-6.7,7.94,0.02,29.28
3461,0.2155,-0.0316,0.8826,-6.75,8.02,-0.12,29.24
3471,0.214,-0.033,0.8838,-6.72,7.91,-0.03,29.25
3481,0.2123,-0.0327,0.8873,-6.75,7.94,0.02,29.25
3491,0.2174,-0.032,0.886,-6.69,7.94,-0.02,29.27
3501,0.213,-0.0371,0.8872,-6.67,8.0,-0.05,29.26
3511,0.2168,-0.0331,0.8868,-6.67,8.05,0.05,29.27
3521,0.2157,-0.0323,0.8877,-6.58,7.94,-0.05,29.26
3531,0.214,-0.0336,0.8867,-6.76,7.92,-0.05,29.26
3541,0.2158,-0.0359,0.8859,-6.67,7.92,0.03,29.27
3551,0.2125,-0.0348,0.8821,-6.7,7.94,-0.02,29.28
3561,0.2235,-0.0358,0.8802,-6.63,7.98,0.82,29.28
3571,0.2175,-0.0358,0.8799,-6.69,7.73,0.03,29.27
3581,0.2114,-0.0348,0.8882,-6.73,8.03,-0.05,29.27
3593,0.2134,-0.0342,0.8833,-6.67,7.86,-0.06,29.29
3603,0.2139,-0.0302,0.891,-6.63,7.95,0.02,29.28
3613,0.2151,-0.0309,0.8888,-6.72,8.0,-0.09,29.28
3623,0.2134,-0.0321,0.8915,-6.7,7.92,-0.06,29.25
3633,0.2146,-0.0337,0.8853,-6.67,8.03,0.03,29.27
3643,0.2162,-0.0327,0.8875,-6.7,7.91,-0.09,29.24
3653,0.2145,-0.0365,0.8821,-6.64,7.95,0.02,29.25
3663,0.2125,-0.035,0.8831,-6.66,8.0,-0.11,29.29
3673,0.2133,-0.0363,0.8872,-6.63,7.91,-0.08,29.29
3683,0.2155,-0.0374,0.8893,-6.63,7.94,-0.02,29.27
3693,0.2156,-0.0337,0.8882,-6.67,7.91,-0.05,29.27
3703,0.2186,-0.0302,0.8892,-6.72,7.95,-0.03,29.27
3713,0.2156,-0.0312,0.8917,-6.61,7.88,-0.09,29.27
3723,0.218,-0.0321,0.8859,-6.66,8.0,0.03,29.27
3733,0.2163,-0.0319,0.8903,-6.69,7.95,-0.03,29.28
3743,0.2148,-0.0315,0.8856,-6.66,7.94,-0.03,29.29
3753,0.2161,-0.0319,0.8867,-6.64,7.95,-0.02,29.29
3763,0.2117,-0.0331,0.8867,-6.73,7.94,0.03,29.29
3773,0.2136,-0.0322,0.8876,-6.72,7.97,0.05,29.26
3783,0.2124,-0.0339,0.8867,-6.66,7.88,-0.03,29.27
3793,0.214,-0.0366,0.8873,-6.67,7.91,-0.06,29.27
3803,0.2159,-0.0354,0.8881,-6.67,8.08,0.0,29.29
3813,0.2125,-0.0342,0.8883,-6.64,7.94,-0.06,29.29
3823,0.2153,-0.0361,0.8861,-6.72,7.94,0.0,29.3
3833,0.215,-0.0334,0.8851,-6.7,7.97,0.0,29.28
3843,0.2179,-0.0321,0.8872,-6.63,7.91,-0.05,29.27
3853,0.2196,-0.0287,0.8894,-6.63,8.0,0.06,29.29
3863,0.214,-0.0316,0.8887,-6.58,8.05,-0.08,29.31
3873,0.2096,-0.0315,0.8911,-6.66,7.95,-0.06,29.31
3883,0.212,-0.0317,0.8865,-6.64,7.97,-0.02,29.28
3893,0.2155,-0.0312,0.8849,-6.66,8.06,-0.12,29.28
3903,0.2172,-0.0325,0.8862,-6.72,7.95,-0.05,29.28
3913,0.2125,-0.0347,0.8879,-6.72,7.94,-0.06,29.31
3923,0.2152,-0.0338,0.8867,-6.75,7.91,0.02,29.3
3933,0.2134,-0.036,0.8829,-6.75,7.91,0.05,29.31
3943,0.2161,-0.0363,0.8903,-6.67,7.95,0.05,29.3
3953,0.217,-0.0355,0.8898,-6.61,7.94,0.02,29.29
3963,0.2155,-0.0363,0.8914,-6.73,7.98,-0.06,29.33
3973,0.2159,-0.0336,0.8835,-6.67,7.97,0.0,29.29
3983,0.2163,-0.0361,0.8855,-6.75,7.92,-0.05,29.29
3993,0.214,-0.033,0.8884,-6.69,7.95,-0.08,29.32
4003,0.2172,-0.0297,0.8827,-6.66,7.89,-0.02,29.33
4013,0.2125,-0.0291,0.8865,-6.73,7.94,-0.06,29.3
4023,0.2142,-0.0331,0.8856,-6.67,7.95,-0.03,29.33
4033,0.2148,-0.0323,0.8894,-6.81,7.95,-0.02,29.3
4043,0.2142,-0.0341,0.8877,-6.76,7.97,0.0,29.3
4053,0.2152,-0.0348,0.8846,-6.72,8.0,-0.05,29.28
4063,0.215,-0.0365,0.8872,-6.72,7.98,-0.06,29.32
4073,0.2159,-0.0337,0.8856,-6.7,7.89,-0.05,29.32
4083,0.2153,-0.0364,0.8818,-6.7,7.97,-0.05,29.32
4093,0.2148,-0.033,0.8856,-6.72,7.97,-0.11,29.3
4103,0.212,-0.0331,0.8868,-6.69,8.06,-0.06,29.31
4113,0.2147,-0.0305,0.8877,-6.72,7.94,-0.12,29.31
4123,0.2144,-0.032,0.8872,-6.73,7.97,-0.11,29.31
4133,0.2151,-0.0323,0.8851,-6.72,7.89,-0.03,29.32
4143,0.2156,-0.0333,0.8837,-6.69,7.94,-0.09,29.32
4153,0.2128,-0.0343,0.8889,-6.63,7.98,-0.05,29.29
4163,0.2137,-0.0333,0.8859,-6.72,7.89,0.02,29.33
4173,0.2162,-0.0339,0.8892,-6.64,7.92,-0.12,29.33
4183,0.2168,-0.0321,0.8866,-6.7,8.03,0.02,29.32
4193,0.2135,-0.0358,0.8927,-6.7,7.95,0.02,29.3
4203,0.2146,-0.0359,0.8904,-6.75,7.89,-0.06,29.31
4213,0.2134,-0.035,0.8827,-6.72,7.95,-0.05,29.31
4223,0.2164,-0.0353,0.8837,-6.61,7.95,-0.09,29.32
4233,0.2145,-0.0355,0.8832,-6.76,7.97,0.0,29.31
4243,0.2142,-0.0369,0.8831,-6.66,7.86,0.0,29.34
4253,0.2141,-0.0323,0.8885,-6.73,7.98,0.02,29.32
4263,0.2159,-0.0326,0.8877,-6.73,7.88,0.02,29.31
4273,0.2131,-0.0294,0.891,-6.66,7.95,-0.05,29.31
4283,0.2142,-0.031,0.8887,-6.72,8.02,0.02,29.35
4293,0.2135,-0.0323,0.8894,-6.75,8.0,0.0,29.33
4303,0.2122,-0.0367,0.8904,-6.75,7.97,0.0,29.32
4313,0.2139,-0.037,0.8892,-6.72,8.03,-0.06,29.34
4323,0.2123,-0.0363,0.8871,-6.73,7.94,-0.08,29.32
4333,0.2136,-0.0367,0.8859,-6.73,7.94,-0.05,29.34
4343,0.2141,-0.0352,0.887,-6.67,7.94,-0.08,29.32
4353,0.2139,-0.0331,0.886,-6.67,7.91,-0.08,29.31
4363,0.2139,-0.0323,0.8873,-6.66,7.95,-0.05,29.34
4373,0.2192,-0.0339,0.8896,-6.61,8.0,-0.12,29.33
4383,0.2184,-0.0316,0.8857,-6.58,8.0,-0.05,29.31
4393,0.215,-0.0345,0.8864,-6.7,7.97,0.02,29.32
4403,0.2145,-0.0303,0.8883,-6.64,7.94,-0.02,29.33
4413,0.2166,-0.031,0.8865,-6.61,7.98,-0.02,29.32
4423,0.2158,-0.0317,0.8883,-6.7,8.0,-0.06,29.32
4433,0.2139,-0.0311,0.8873,-6.75,7.97,-0.03,29.32
4443,0.2169,-0.0344,0.8864,-6.67,7.97,-0.08,29.33
4453,0.2139,-0.0367,0.884,-6.64,7.98,-0.05,29.33
4463,0.2117,-0.0391,0.8857,-6.7,7.88,-0.03,29.36
4473,0.2162,-0.0372,0.8826,-6.6,7.88,-0.03,29.36
4483,0.2148,-0.0371,0.8854,-6.69,7.98,-0.14,29.34
4493,0.2139,-0.0385,0.8887,-6.61,7.94,-0.06,29.34
4503,0.2159,-0.0347,0.8842,-6.7,7.92,-0.02,29.33
4513,0.2163,-0.0359,0.8884,-6.64,7.95,-0.03,29.35
4523,0.2151,-0.0332,0.8876,-6.72,7.98,-0.03,29.34
4533,0.2136,-0.0317,0.8875,-6.66,7.92,-0.05,29.35
4543,0.2173,-0.0333,0.8845,-6.7,7.92,-0.08,29.35
4553,0.2147,-0.0309,0.8866,-6.67,7.94,-0.09,29.32
4563,0.2146,-0.0305,0.889,-6.72,8.02,-0.11,29.34
4573,0.2148,-0.0312,0.884,-6.64,7.98,-0.08,29.32
4583,0.2112,-0.0333,0.8861,-6.69,7.94,-0.05,29.33
4593,0.2137,-0.0341,0.8867,-6.7,7.95,-0.02,29.37
4603,0.2139,-0.035,0.8878,-6.75,7.98,-0.05,29.34
4613,0.2155,-0.0374,0.8894,-6.64,7.94,-0.02,29.31
4623,0.2166,-0.036,0.8851,-6.67,7.95,-0.02,29.33
4633,0.2159,-0.036,0.8857,-6.69,7.97,-0.06,29.34
4643,0.2197,-0.0344,0.8947,-6.72,7.94,-0.05,29.35
4653,0.213,-0.0326,0.8855,-6.63,7.95,-0.02,29.34
4663,0.2173,-0.0315,0.8906,-6.63,8.02,-0.06,29.34
4673,0.2129,-0.0293,0.8889,-6.69,7.91,-0.03,29.34
4683,0.215,-0.0327,0.8845,-6.66,8.0,-0.03,29.36
4693,0.2163,-0.033,0.8889,-6.69,7.94,0.0,29.36
4703,0.2152,-0.0297,0.885,-6.67,7.94,-0.03,29.35
4713,0.2141,-0.0315,0.8872,-6.67,7.95,-0.02,29.37
4723,0.2164,-0.0343,0.8898,-6.67,7.94,-0.02,29.38
4733,0.2135,-0.0344,0.8865,-6.75,7.92,0.06,29.38
4743,0.2135,-0.0356,0.8859,-6.66,7.88,-0.05,29.33
4753,0.2162,-0.0348,0.8835,-6.69,7.95,-0.05,29.37
4763,0.2153,-0.0372,0.8859,-6.7,7.92,-0.06,29.36
4773,0.2151,-0.0345,0.8845,-6.67,7.95,0.03,29.36
4783,0.2142,-0.0359,0.8838,-6.58,7.97,-0.03,29.34
4793,0.2111,-0.0359,0.887,-6.69,7.97,0.03,29.35
4803,0.2123,-0.0342,0.8848,-6.67,7.95,-0.05,29.35
4813,0.2159,-0.0302,0.885,-6.69,8.03,-0.14,29.34
4823,0.2152,-0.0309,0.8844,-6.72,7.98,-0.03,29.37
4833,0.2144,-0.031,0.8882,-6.69,7.95,-0.06,29.37
4843,0.2145,-0.0331,0.8894,-6.69,8.0,-0.06,29.35
4853,0.2125,-0.0331,0.8894,-6.7,7.97,-0.02,29.36
4863,0.2168,-0.0345,0.8829,-6.64,7.92,-0.03,29.37
4873,0.2163,-0.0359,0.886,-6.72,7.98,0.02,29.35
4883,0.2114,-0.036,0.8889,-6.72,7.95,-0.02,29.33
4893,0.2142,-0.0364,0.8843,-6.66,8.0,-0.03,29.35
4903,0.2158,-0.0345,0.8883,-6.73,7.92,-0.03,29.36
4913,0.2148,-0.0369,0.889,-6.7,7.97,-0.03,29.35
4923,0.2153,-0.0356,0.8849,-6.7,8.03,-0.08,29.34
4933,0.219,-0.0353,0.8881,-6.58,7.89,-0.08,29.37
4943,0.2135,-0.0331,0.8846,-6.61,7.97,-0.09,29.37
4953,0.2163,-0.0345,0.8875,-6.69,7.98,-0.02,29.34
4963,0.2158,-0.0358,0.8884,-6.76,7.97,-0.06,29.36
4973,0.2151,-0.0316,0.8875,-6.75,7.98,-0.08,29.35
4983,0.2159,-0.035,0.8879,-6.7,7.92,-0.08,29.37
4993,0.2146,-0.0343,0.8864,-6.69,7.92,-0.05,29.37
5003,0.2158,-0.0337,0.8823,-6.73,7.91,-0.14,29.37
5013,0.2147,-0.0359,0.8879,-6.72,7.94,-0.06,29.38
5023,0.2148,-0.0333,0.8861,-6.7,7.91,0.02,29.37
5033,0.2169,-0.0341,0.8824,-6.7,7.92,-0.06,29.39
5043,0.2188,-0.0365,0.8865,-6.67,7.95,0.03,29.39
5053,0.213,-0.0323,0.8878,-6.64,7.92,-0.02,29.36
5063,0.2139,-0.0358,0.886,-6.67,7.89,-0.08,29.38
5073,0.2136,-0.036,0.8898,-6.66,7.92,-0.09,29.37
5083,0.2118,-0.0316,0.8868,-6.7,7.91,-0.05,29.36
5093,0.2169,-0.0333,0.8859,-6.78,7.94,0.02,29.37
5103,0.2142,-0.0358,0.8857,-6.78,8.0,-0.06,29.36
5113,0.2117,-0.0325,0.8872,-6.72,8.0,-0.05,29.37
5123,0.2146,-0.0352,0.8866,-6.66,7.92,-0.02,29.36
5133,0.2167,-0.0339,0.8854,-6.82,7.94,-0.02,29.36
5143,0.2159,-0.0338,0.8883,-6.72,8.0,-0.08,29.38
5153,0.2168,-0.0349,0.8905,-6.7,7.97,0.0,29.36
5163,0.2129,-0.0337,0.887,-6.75,7.98,-0.05,29.36
5173,0.2185,-0.033,0.8865,-6.72,7.92,-0.08,29.38
5183,0.2145,-0.0337,0.8895,-6.7,8.02,-0.08,29.38
5193,0.2133,-0.0354,0.8855,-6.66,7.89,-0.11,29.38
5203,0.2148,-0.0342,0.8893,-6.66,7.94,-0.12,29.39
5213,0.2186,-0.0367,0.8889,-6.67,7.94,-0.02,29.39
5223,0.2158,-0.035,0.8877,-6.69,7.94,-0.03,29.38
5233,0.2152,-0.0358,0.8881,-6.7,7.89,-0.03,29.39
5243,0.2169,-0.036,0.8872,-6.76,8.03,-0.09,29.39
5253,0.217,-0.0339,0.8928,-6.75,7.95,-0.03,29.39
5263,0.2156,-0.0306,0.8866,-6.7,7.97,-0.06,29.38
5273,0.2128,-0.0347,0.8883,-6.75,7.92,-0.09,29.38
5283,0.2158,-0.0339,0.8912,-6.66,7.98,-0.08,29.36
5293,0.214,-0.0306,0.8882,-6.72,7.88,-0.03,29.37
5303,0.2159,-0.033,0.8873,-6.72,7.97,-0.03,29.38
5313,0.2112,-0.0314,0.8833,-6.73,7.92,-0.06,29.37
5323,0.2137,-0.0356,0.8824,-6.7,7.92,-0.06,29.39
5333,0.214,-0.0341,0.8862,-6.76,7.95,0.02,29.36
5343,0.2155,-0.0332,0.8851,-6.72,8.02,-0.05,29.37
5353,0.2179,-0.0315,0.8872,-6.7,7.91,-0.05,29.4
5363,0.2145,-0.0339,0.886,-6.67,7.92,0.0,29.41
5373,0.2144,-0.0325,0.8868,-6.69,7.89,-0.05,29.39
5383,0.214,-0.0339,0.8907,-6.7,7.98,-0.03,29.39
5393,0.2113,-0.0354,0.8867,-6.73,7.98,-0.09,29.39
5403,0.214,-0.0347,0.8878,-6.67,7.91,-0.09,29.39
5413,0.2141,-0.0355,0.8854,-6.67,7.92,-0.02,29.39
5423,0.2147,-0.0355,0.8856,-6.7,8.0,-0.08,29.38
5433,0.2131,-0.0292,0.8856,-6.7,7.91,0.0,29.39
5443,0.213,-0.0333,0.8846,-6.64,7.97,-0.05,29.42
5453,0.2119,-0.0309,0.886,-6.73,7.94,-0.03,29.4
5463,0.2128,-0.0302,0.8911,-6.66,7.98,-0.03,29.38
5473,0.2153,-0.0343,0.8884,-6.67,7.97,-0.02,29.39
5483,0.218,-0.0352,0.8892,-6.75,7.91,0.03,29.39
5493,0.2161,-0.0308,0.8899,-6.66,7.95,-0.03,29.41
5503,0.2181,-0.0305,0.8893,-6.69,7.98,-0.03,29.39
5513,0.2206,-0.0339,0.8917,-6.75,7.97,-0.05,29.39
5523,0.2163,-0.031,0.8857,-6.73,8.06,0.02,29.4
5533,0.2219,-0.0371,0.8842,-6.78,8.05,0.0,29.41
5543,0.2217,-0.0387,0.8817,-6.72,7.92,-0.02,29.41
5553,0.2166,-0.0406,0.8792,-6.76,8.03,0.03,29.4
5563,0.2144,-0.0431,0.8846,-6.69,8.03,-0.02,29.39
5573,0.2109,-0.0422,0.8835,-6.69,7.92,0.03,29.39
5583,0.2058,-0.0391,0.8844,-6.73,7.92,0.06,29.4
5593,0.2051,-0.0383,0.8875,-6.61,7.82,0.06,29.42
5603,0.2047,-0.0337,0.8877,-6.63,7.82,-0.03,29.4
5613,0.2039,-0.0323,0.8898,-6.56,7.82,-0.02,29.43
5623,0.2028,-0.0267,0.8856,-6.58,7.83,-0.14,29.42
5633,0.2046,-0.0284,0.8864,-6.61,7.91,-0.09,29.42
5643,0.204,-0.0256,0.8877,-6.66,7.92,-0.15,29.43
5653,0.2039,-0.0259,0.8834,-6.55,7.92,-0.18,29.41
5663,0.2087,-0.0328,0.8846,-6.64,7.82,-0.18,29.42
5673,0.2152,-0.0347,0.881,-6.63,7.76,-0.26,29.41
5683,0.2134,-0.0355,0.8882,-6.67,7.8,-0.09,29.43
5693,0.2212,-0.0359,0.8885,-6.63,7.86,-0.11,29.42
5703,0.2234,-0.0375,0.8995,-6.58,7.77,-0.06,29.4
5713,0.2233,-0.0483,0.89,-6.69,7.8,-0.12,29.4
5723,0.2278,-0.0332,0.9047,-6.66,7.85,0.02,29.39
5733,0.2344,-0.0299,0.8975,-6.67,7.95,0.05,29.42
5743,0.2297,-0.0287,0.8915,-6.75,7.97,0.0,29.4
5753,0.2222,-0.0273,0.8838,-6.76,7.97,-0.02,29.41
5763,0.2239,-0.0269,0.8761,-6.76,8.06,-0.03,29.4
5773,0.2151,-0.0264,0.8749,-6.7,8.06,-0.15,29.43
5783,0.2104,-0.0424,0.881,-6.73,8.02,-0.08,29.41
5793,0.2112,-0.041,0.8865,-6.76,7.95,-0.11,29.45
5803,0.2095,-0.0443,0.8883,-6.67,7.97,0.02,29.4
5813,0.2089,-0.0399,0.8831,-6.64,7.89,-0.08,29.39
5823,0.2118,-0.0303,0.8896,-6.6,7.89,-0.03,29.43
5833,0.213,-0.0238,0.8905,-6.56,7.89,-0.09,29.42
5843,0.213,-0.0199,0.8934,-6.64,7.88,-0.08,29.43
5853,0.2129,-0.0253,0.8865,-6.73,7.95,-0.08,29.42
5863,0.218,-0.0312,0.8879,-6.69,7.94,-0.06,29.42
5873,0.2156,-0.0363,0.8864,-6.7,7.98,-0.03,29.41
5883,0.2136,-0.0435,0.8834,-6.67,7.91,-0.08,29.42
5893,0.2161,-0.0413,0.8823,-6.78,7.91,-0.05,29.42
5903,0.2173,-0.0359,0.8872,-6.64,7.95,-0.02,29.42
5913,0.2186,-0.0331,0.8862,-6.78,7.89,0.0,29.44
5923,0.2177,-0.033,0.8851,-6.72,7.95,0.06,29.42
5933,0.2188,-0.0328,0.8895,-6.72,7.95,0.02,29.41
5943,0.2183,-0.0336,0.8949,-6.69,7.98,-0.11,29.42
5953,0.2173,-0.0383,0.892,-6.79,8.0,-0.09,29.39
5963,0.2169,-0.0385,0.8885,-6.78,7.94,-0.09,29.42
5973,0.2133,-0.0388,0.88,-6.7,7.97,-0.09,29.42
5983,0.214,-0.035,0.8831,-6.69,7.97,0.02,29.42
5993,0.2142,-0.0299,0.8802,-6.67,7.89,0.03,29.4
6003,0.2162,-0.0273,0.8809,-6.67,7.92,-0.02,29.39
6013,0.2113,-0.0297,0.8822,-6.76,7.91,-0.05,29.41
6023,0.2152,-0.0323,0.8903,-6.73,7.91,-0.03,29.41
6033,0.2172,-0.0331,0.8937,-6.69,7.95,-0.09,29.44
6043,0.2168,-0.0338,0.8921,-6.63,7.97,-0.03,29.4
6053,0.2156,-0.0309,0.8933,-6.73,8.05,-0.03,29.42
6063,0.2096,-0.0297,0.8843,-6.56,7.98,-0.06,29.42
6073,0.2122,-0.0333,0.885,-6.7,7.86,-0.05,29.41
6083,0.2131,-0.0354,0.8782,-6.7,7.94,-0.06,29.43
6093,0.2168,-0.0336,0.8877,-6.7,7.91,-0.03,29.44
6103,0.2135,-0.0358,0.8883,-6.67,7.86,-0.05,29.41
6113,0.2169,-0.0326,0.8895,-6.66,7.86,-0.05,29.43
6123,0.2151,-0.032,0.8885,-6.69,7.97,-0.03,29.41
6133,0.2177,-0.0345,0.8893,-6.64,7.94,0.03,29.39
6143,0.2157,-0.0299,0.8865,-6.7,7.97,-0.03,29.41
6153,0.2162,-0.0314,0.8833,-6.72,7.94,-0.03,29.43
6163,0.213,-0.0345,0.8856,-6.73,7.98,-0.08,29.43
6173,0.214,-0.0344,0.8882,-6.7,8.0,-0.05,29.45
6183,0.2145,-0.0355,0.8889,-6.67,7.97,-0.06,29.44
6193,0.2161,-0.0354,0.8881,-6.69,7.91,-0.11,29.42
6203,0.2157,-0.0333,0.8839,-6.73,7.92,0.0,29.43
6213,0.215,-0.0339,0.8853,-6.76,7.89,-0.03,29.44
6223,0.2183,-0.0343,0.8889,-6.75,7.98,-0.09,29.42
6233,0.2159,-0.0331,0.886,-6.73,7.92,-0.03,29.43
6243,0.2161,-0.0354,0.8859,-6.73,7.95,0.0,29.42
6253,0.215,-0.0363,0.8866,-6.72,7.97,0.05,29.41
6263,0.2159,-0.0365,0.8829,-6.73,7.97,-0.06,29.42
6273,0.2151,-0.0358,0.8868,-6.64,7.97,-0.09,29.43
6283,0.2167,-0.0322,0.8857,-6.76,8.0,-0.05,29.44
6293,0.217,-0.032,0.8884,-6.66,8.0,-0.02,29.44
6303,0.2157,-0.0356,0.8837,-6.7,7.98,-0.02,29.42
6313,0.213,-0.0341,0.8835,-6.73,7.95,-0.09,29.42
6323,0.2129,-0.033,0.8828,-6.72,7.95,-0.08,29.47
6333,0.2158,-0.035,0.8848,-6.69,7.89,0.03,29.42
6343,0.2158,-0.0331,0.8881,-6.63,7.94,-0.09,29.41
6353,0.2153,-0.0341,0.8906,-6.72,7.95,-0.08,29.42
6363,0.215,-0.0349,0.8855,-6.75,8.0,0.02,29.42
6373,0.2156,-0.0337,0.8861,-6.75,7.91,-0.05,29.4
6387,0.2139,-0.035,0.8912,-6.76,7.97,-0.03,29.43
6397,0.214,-0.0331,0.8879,-6.67,7.98,-0.06,29.43
6407,0.215,-0.0381,0.8859,-6.76,7.94,-0.02,29.45
6417,0.2167,-0.0331,0.8838,-6.79,7.89,-0.06,29.43
6427,0.2139,-0.0331,0.8899,-6.72,8.02,-0.12,29.45
6437,0.2158,-0.0305,0.8896,-6.76,8.03,-0.03,29.43
6449,0.2196,-0.0331,0.885,-6.81,7.83,-0.05,29.44
6459,0.2126,-0.0319,0.8889,-6.64,7.98,-0.05,29.42
6469,0.2139,-0.0306,0.885,-6.76,7.94,-0.12,29.43
6479,0.2157,-0.036,0.8872,-6.78,7.97,-0.11,29.43
6489,0.2166,-0.0352,0.8868,-6.67,7.94,-0.06,29.44
6499,0.2126,-0.036,0.8878,-6.75,7.95,-0.08,29.45
6509,0.214,-0.0332,0.8894,-6.73,7.97,-0.06,29.42
6519,0.2137,-0.0356,0.8857,-6.69,8.0,0.02,29.42
6529,0.2122,-0.0344,0.887,-6.67,7.97,0.0,29.44
6539,0.2145,-0.0321,0.8867,-6.7,7.91,-0.02,29.42
6549,0.2142,-0.0338,0.8859,-6.84,8.0,-0.05,29.44
6559,0.2144,-0.0325,0.885,-6.67,7.88,-0.06,29.43
6569,0.2136,-0.0328,0.8882,-6.69,7.97,-0.02,29.43
6579,0.2153,-0.0306,0.8898,-6.63,7.98,-0.06,29.43
6589,0.2162,-0.0306,0.8824,-6.7,7.95,0.0,29.46
6599,0.218,-0.0312,0.8862,-6.73,7.94,-0.05,29.42
6609,0.218,-0.0311,0.8866,-6.67,7.94,-0.03,29.42
6619,0.2141,-0.031,0.8866,-6.66,7.95,-0.06,29.46
6629,0.2166,-0.0341,0.8921,-6.63,7.95,-0.06,29.44
6639,0.2201,-0.0353,0.8892,-6.7,7.88,0.02,29.45
6649,0.214,-0.0369,0.8853,-6.75,7.91,-0.05,29.44
6660,0.2152,-0.036,0.8876,-6.67,7.92,0.03,29.47
6670,0.2156,-0.0358,0.8877,-6.69,7.89,0.0,29.44
6680,0.2162,-0.0305,0.8865,-6.67,7.98,-0.02,29.42
6690,0.215,-0.0294,0.887,-6.67,7.95,-0.05,29.42
6700,0.2146,-0.0317,0.8879,-6.75,7.86,-0.05,29.44
6710,0.2162,-0.031,0.8898,-6.73,7.95,-0.06,29.43
6720,0.2134,-0.033,0.8912,-6.73,7.94,-0.05,29.44
6730,0.2097,-0.0378,0.8856,-6.75,7.94,-0.06,29.46
6740,0.2135,-0.0356,0.8883,-6.69,7.97,-0.06,29.46
6750,0.215,-0.0355,0.8872,-6.69,8.02,-0.02,29.46
6760,0.2147,-0.0376,0.8862,-6.69,7.95,-0.02,29.45
6770,0.2185,-0.0347,0.8838,-6.78,7.95,-0.06,29.44
6780,0.2142,-0.0314,0.889,-6.7,7.89,-0.05,29.45
6790,0.2137,-0.0347,0.8851,-6.66,7.97,-0.12,29.43
6800,0.215,-0.0374,0.889,-6.73,7.92,-0.05,29.45
6810,0.2159,-0.0369,0.8888,-6.79,7.97,-0.03,29.44
6820,0.214,-0.0328,0.8859,-6.75,7.95,-0.09,29.44
6830,0.212,-0.0347,0.8872,-6.64,7.97,-0.08,29.46
6840,0.2151,-0.0332,0.8875,-6.67,7.94,-0.09,29.44
6850,0.2147,-0.0344,0.8918,-6.66,7.95,-0.03,29.45
6860,0.2147,-0.0352,0.8871,-6.6,7.92,-0.02,29.45
6870,0.2158,-0.0314,0.8878,-6.7,7.94,-0.14,29.45
6880,0.2126,-0.0333,0.8904,-6.72,7.89,0.02,29.43
6890,0.2156,-0.033,0.889,-6.79,7.97,-0.03,29.43
6900,0.212,-0.0308,0.8859,-6.72,7.95,-0.08,29.46
6910,0.2161,-0.0336,0.8864,-6.69,7.94,-0.05,29.44
6920,0.2141,-0.0309,0.8844,-6.67,7.94,-0.02,29.46
6930,0.2144,-0.0345,0.8893,-6.67,7.97,-0.02,29.43
6942,0.2162,-0.0344,0.8878,-6.7,7.95,-0.05,29.44
6952,0.2156,-0.0343,0.8871,-6.73,7.98,0.05,29.42
6962,0.2158,-0.0348,0.8901,-6.82,7.97,-0.03,29.44
6972,0.2151,-0.0383,0.8898,-6.63,7.94,-0.06,29.47
6982,0.2156,-0.0341,0.8894,-6.69,7.92,0.0,29.46
6992,0.2158,-0.0328,0.8885,-6.75,7.97,0.05,29.47
7005,0.2144,-0.0327,0.8881,-6.69,7.95,-0.06,29.44
7015,0.2155,-0.0342,0.8873,-6.67,7.98,-0.05,29.44
7025,0.2153,-0.033,0.8881,-6.7,7.94,-0.05,29.47
7035,0.2155,-0.0341,0.8867,-6.72,7.92,-0.17,29.46
7045,0.2159,-0.0349,0.8914,-6.79,8.0,-0.11,29.45
7055,0.2186,-0.0355,0.891,-6.75,8.02,0.02,29.47
7065,0.2167,-0.0354,0.891,-6.64,7.98,-0.02,29.47
7075,0.215,-0.0322,0.8881,-6.69,7.95,0.0,29.46
7085,0.2134,-0.0352,0.8889,-6.72,8.0,0.0,29.45
7095,0.2135,-0.0337,0.8888,-6.73,8.02,0.0,29.47
7105,0.2134,-0.0348,0.8877,-6.69,8.02,0.05,29.44
7115,0.213,-0.0321,0.8872,-6.64,8.02,-0.11,29.47
7125,0.2141,-0.0328,0.8901,-6.78,7.94,-0.03,29.49
7135,0.2141,-0.032,0.8859,-6.75,8.03,-0.11,29.47
7145,0.2155,-0.0319,0.8915,-6.79,8.03,-0.03,29.47
7155,0.2156,-0.0308,0.891,-6.67,8.06,-0.02,29.46
7165,0.2192,-0.0345,0.8894,-6.72,8.02,-0.03,29.46
7175,0.2133,-0.0382,0.8912,-6.76,8.03,-0.08,29.46
7185,0.2159,-0.0426,0.8835,-6.69,7.97,-0.06,29.48
7195,0.2175,-0.0425,0.8838,-6.61,8.03,0.0,29.49
7205,0.215,-0.035,0.8839,-6.67,7.97,0.0,29.46
7215,0.2168,-0.0352,0.8722,-6.64,7.88,-0.03,29.47
7225,0.2141,-0.0333,0.8842,-6.78,8.02,-0.11,29.47
7235,0.2145,-0.0266,0.8802,-6.7,7.85,-0.08,29.49
7245,0.2102,-0.032,0.8871,-6.66,8.02,-0.06,29.47
7255,0.2123,-0.027,0.8892,-6.66,7.94,-0.02,29.48
7265,0.2107,-0.0259,0.8912,-6.7,8.09,-0.09,29.46
7275,0.2174,-0.0336,0.8959,-6.7,8.09,-0.05,29.48
7285,0.2197,-0.0311,0.8966,-6.75,7.85,-0.05,29.47
7298,0.2238,-0.0332,0.8833,-6.84,7.89,0.03,29.46
7308,0.2233,-0.0295,0.8827,-6.7,8.0,0.02,29.45
7318,0.2153,-0.0348,0.8763,-6.75,8.05,0.02,29.47
7328,0.2139,-0.0321,0.8746,-6.66,7.82,0.02,29.47
7338,0.2134,-0.0397,0.8826,-6.76,7.83,-0.02,29.48
7348,0.214,-0.0422,0.8861,-6.69,7.94,-0.08,29.48
7358,0.2079,-0.0443,0.8793,-6.69,7.86,-0.05,29.47
7368,0.2114,-0.038,0.8879,-6.69,7.83,-0.14,29.46
7378,0.2134,-0.0309,0.8922,-6.7,7.88,-0.12,29.49
7388,0.2096,-0.0284,0.8884,-6.64,8.0,-0.05,29.47
7398,0.2137,-0.0206,0.8838,-6.67,7.89,-0.14,29.48
7408,0.2139,-0.0183,0.8865,-6.73,7.97,-0.06,29.49
7418,0.2152,-0.0244,0.8867,-6.81,8.05,-0.08,29.48
7428,0.2147,-0.0312,0.8815,-6.72,7.98,-0.14,29.48
7438,0.2185,-0.0396,0.8848,-6.67,7.94,-0.12,29.48
7448,0.2197,-0.0422,0.8875,-6.78,7.98,-0.05,29.47
7459,0.2231,-0.0402,0.8878,-6.69,7.95,0.02,29.48
7469,0.2223,-0.0393,0.8875,-6.72,7.94,0.05,29.46
7479,0.2216,-0.037,0.8904,-6.61,7.89,0.0,29.46
7489,0.2197,-0.0332,0.8915,-6.69,7.98,-0.02,29.47
7499,0.2172,-0.0355,0.886,-6.73,8.02,0.0,29.47
7509,0.2128,-0.0365,0.8853,-6.73,8.0,-0.02,29.47
7519,0.2098,-0.0352,0.8878,-6.66,8.05,-0.05,29.47
7529,0.2114,-0.0371,0.8822,-6.66,8.02,0.0,29.46
7539,0.2101,-0.0302,0.8893,-6.66,7.98,-0.05,29.46
7549,0.2119,-0.0242,0.886,-6.61,7.95,-0.08,29.47
7559,0.2096,-0.0271,0.8887,-6.7,7.92,-0.06,29.47
7569,0.2122,-0.0259,0.8853,-6.75,7.91,0.02,29.47
7579,0.2161,-0.032,0.8866,-6.76,7.95,-0.03,29.47
7589,0.2198,-0.0361,0.8921,-6.72,7.89,-0.02,29.47
7599,0.2177,-0.0376,0.8889,-6.66,7.91,-0.06,29.47
7609,0.2179,-0.0403,0.8896,-6.72,7.97,-0.09,29.47
7619,0.2195,-0.0426,0.8871,-6.69,8.0,-0.09,29.46
7629,0.2172,-0.0391,0.8876,-6.76,7.97,-0.12,29.48
7639,0.2162,-0.0348,0.8844,-6.75,7.95,-0.06,29.47
7649,0.2167,-0.0331,0.8856,-6.6,7.94,-0.03,29.46
7659,0.2153,-0.0298,0.8853,-6.7,7.95,0.05,29.49
7669,0.2157,-0.0281,0.89,-6.73,7.98,0.0,29.48
7679,0.2152,-0.0291,0.886,-6.7,7.98,-0.08,29.47
7689,0.2126,-0.0298,0.8871,-6.64,8.0,-0.03,29.48
7699,0.2133,-0.0284,0.8881,-6.66,7.95,-0.05,29.49
7709,0.2125,-0.0314,0.8856,-6.73,7.92,-0.11,29.47
7719,0.2152,-0.0328,0.8856,-6.69,7.97,-0.06,29.47
7729,0.2159,-0.0369,0.8839,-6.69,7.83,-0.08,29.47
7739,0.2142,-0.037,0.885,-6.75,7.91,-0.05,29.47
7749,0.2181,-0.0391,0.8893,-6.64,7.85,-0.12,29.5
7759,0.2174,-0.0382,0.8894,-6.67,7.95,-0.06,29.47
7769,0.2177,-0.0341,0.8853,-6.7,7.95,-0.08,29.48
7779,0.219,-0.0306,0.8917,-6.67,7.95,-0.06,29.5
7789,0.217,-0.0302,0.8879,-6.66,7.98,-0.06,29.49
7799,0.2202,-0.0302,0.8849,-6.78,7.92,0.0,29.48
7809,0.2157,-0.032,0.8849,-6.73,7.97,0.0,29.45
7819,0.2173,-0.0314,0.8879,-6.7,7.95,-0.11,29.47
7829,0.2159,-0.0332,0.8877,-6.75,7.98,-0.02,29.47
7839,0.2146,-0.0358,0.8905,-6.79,7.94,0.02,29.48
7849,0.2169,-0.0333,0.8899,-6.72,7.91,-0.11,29.48
7859,0.2177,-0.0288,0.8872,-6.85,7.97,-0.05,29.49
7869,0.2157,-0.0312,0.886,-6.79,7.91,-0.11,29.49
7879,0.2172,-0.0377,0.8916,-6.75,7.97,-0.09,29.48
7889,0.2137,-0.0364,0.887,-6.72,8.03,-0.03,29.49
7899,0.2145,-0.0391,0.8879,-6.7,7.94,-0.14,29.5
7909,0.2119,-0.0371,0.8855,-6.73,7.97,-0.09,29.49
7919,0.2133,-0.033,0.8806,-6.72,7.97,-0.06,29.49
7929,0.2145,-0.032,0.8885,-6.66,8.0,-0.03,29.48
7939,0.218,-0.0284,0.8843,-6.66,7.79,-0.06,29.5
7949,0.2166,-0.0267,0.8859,-6.72,7.8,-0.02,29.48
7959,0.2189,-0.0299,0.8854,-6.76,7.92,-0.03,29.47
7969,0.217,-0.0297,0.8889,-6.75,7.95,-0.05,29.5
7979,0.2136,-0.036,0.8867,-6.75,7.97,-0.08,29.49
7989,0.2159,-0.0396,0.8838,-6.7,7.97,-0.06,29.5
7999,0.2151,-0.0414,0.8867,-6.75,8.02,0.02,29.49
8009,0.2147,-0.04,0.8861,-6.7,7.94,0.0,29.49
8019,0.2162,-0.0354,0.8867,-6.67,7.86,-0.05,29.48
8029,0.2177,-0.0331,0.8928,-6.66,7.91,-0.02,29.49
8039,0.2161,-0.0333,0.8921,-6.67,7.97,-0.03,29.47
8049,0.2163,-0.0341,0.8884,-6.72,8.0,-0.02,29.49
8059,0.215,-0.0315,0.8895,-6.72,7.94,-0.08,29.51
8069,0.2147,-0.0304,0.8881,-6.69,8.03,-0.06,29.47
8079,0.2186,-0.0308,0.8835,-6.7,7.94,-0.03,29.47
8089,0.2152,-0.0322,0.8865,-6.75,7.91,-0.03,29.47
8099,0.219,-0.0297,0.8873,-6.69,7.95,-0.09,29.49
8109,0.2128,-0.0332,0.8867,-6.69,7.97,-0.09,29.47
8119,0.2139,-0.0338,0.8854,-6.7,7.98,-0.05,29.48
8129,0.2178,-0.0364,0.8871,-6.75,7.97,-0.08,29.5
8139,0.2153,-0.0354,0.8864,-6.78,7.95,0.0,29.49
8149,0.213,-0.0405,0.8899,-6.64,7.94,-0.02,29.5
8159,0.2167,-0.0367,0.8864,-6.75,7.97,0.02,29.49
8169,0.2161,-0.0366,0.8846,-6.63,7.92,0.0,29.51
8179,0.2147,-0.0348,0.884,-6.67,7.98,-0.02,29.51
8189,0.2141,-0.0308,0.8843,-6.7,8.05,-0.02,29.49
8199,0.2125,-0.0288,0.8842,-6.69,7.97,-0.05,29.49
8209,0.2142,-0.0319,0.8884,-6.7,7.91,-0.03,29.52
8219,0.2174,-0.0352,0.8854,-6.72,7.89,-0.05,29.5
8229,0.2156,-0.037,0.8907,-6.67,7.97,-0.08,29.5
8239,0.2184,-0.0332,0.8925,-6.78,7.91,-0.05,29.48
8249,0.2162,-0.035,0.887,-6.78,7.97,0.02,29.5
8259,0.2168,-0.0336,0.8893,-6.76,7.97,-0.03,29.51
8269,0.2168,-0.0345,0.8914,-6.76,7.89,-0.03,29.51
8279,0.2167,-0.0332,0.8843,-6.76,8.02,0.02,29.51
8289,0.2156,-0.032,0.8892,-6.7,7.94,0.0,29.51
8299,0.2147,-0.0353,0.8857,-6.69,7.98,-0.11,29.48
8309,0.2125,-0.0328,0.8831,-6.76,7.95,-0.02,29.51
8319,0.2197,-0.0352,0.8827,-6.66,7.94,-0.05,29.5
8329,0.2178,-0.0331,0.8898,-6.7,8.0,0.0,29.47
8339,0.2133,-0.0281,0.8893,-6.7,7.98,0.03,29.48
8349,0.2142,-0.0331,0.8879,-6.64,7.98,-0.06,29.49
8359,0.2092,-0.0336,0.8871,-6.73,8.05,0.02,29.49
8369,0.209,-0.0286,0.8953,-6.78,8.09,0.02,29.52
8379,0.2042,-0.0369,0.8926,-6.63,8.24,-0.03,29.48
8389,0.2075,-0.0364,0.8879,-6.78,7.97,-0.11,29.5
8399,0.2162,-0.0299,0.887,-6.7,7.97,-0.11,29.51
8409,0.2153,-0.0341,0.8872,-6.61,8.03,-0.05,29.5
8419,0.217,-0.0371,0.8788,-6.72,7.89,-0.06,29.52
8429,0.2174,-0.0295,0.8893,-6.69,7.89,-0.02,29.52
8439,0.2158,-0.031,0.8894,-6.73,8.02,-0.15,29.5
8449,0.2087,-0.0372,0.8865,-6.72,8.05,-0.06,29.48
8459,0.2111,-0.0361,0.8824,-6.69,8.0,-0.06,29.48
8469,0.2097,-0.033,0.8887,-6.64,8.0,-0.06,29.48
8479,0.2104,-0.0333,0.8859,-6.72,8.09,0.02,29.51
8489,0.2108,-0.0297,0.8876,-6.66,7.95,-0.05,29.51
8499,0.2148,-0.028,0.8892,-6.76,7.86,-0.06,29.49
8509,0.2103,-0.0298,0.8914,-6.63,7.98,-0.03,29.5
8519,0.2126,-0.037,0.8903,-6.66,8.02,-0.05,29.52
8529,0.2178,-0.0365,0.8905,-6.75,7.91,0.0,29.51
8539,0.2136,-0.0338,0.885,-6.76,7.88,-0.08,29.52
8549,0.217,-0.0344,0.8864,-6.73,7.86,-0.05,29.49
8559,0.2135,-0.0378,0.8872,-6.64,7.77,-0.05,29.5
8569,0.2152,-0.031,0.8914,-6.73,8.0,-0.12,29.5
8579,0.2133,-0.0371,0.8895,-6.66,8.08,-0.2,29.52
8589,0.2117,-0.0354,0.8896,-6.66,7.97,-0.06,29.5
8599,0.2179,-0.0349,0.8923,-6.64,8.02,-0.06,29.51
8609,0.2141,-0.0283,0.8881,-6.72,7.98,-0.05,29.48
8619,0.2183,-0.0304,0.8848,-6.76,8.02,-0.12,29.5
8629,0.2195,-0.0294,0.885,-6.72,7.95,-0.05,29.5
8639,0.2213,-0.0326,0.8881,-6.78,7.97,-0.09,29.5
8649,0.2162,-0.0356,0.8811,-6.82,8.05,-0.06,29.52
8659,0.2166,-0.0366,0.8865,-6.7,7.98,0.05,29.49
8669,0.2134,-0.0343,0.8895,-6.76,7.98,-0.02,29.5
8679,0.2135,-0.0359,0.8898,-6.78,8.09,0.06,29.51
8689,0.2098,-0.0336,0.8849,-6.75,7.94,-0.05,29.5
8699,0.2134,-0.0348,0.8848,-6.7,8.03,-0.03,29.51
8709,0.2124,-0.037,0.8877,-6.73,7.94,-0.03,29.49
8719,0.2126,-0.0303,0.8865,-6.73,7.89,0.0,29.52
8729,0.2133,-0.0342,0.8881,-6.67,7.89,0.05,29.5
8739,0.2135,-0.0309,0.8918,-6.76,8.02,0.02,29.51
8749,0.2137,-0.0305,0.8879,-6.73,7.88,-0.03,29.54
8759,0.2111,-0.0284,0.8873,-6.67,7.97,-0.06,29.5
8769,0.208,-0.0309,0.8853,-6.64,7.92,-0.09,29.49
8779,0.2085,-0.0366,0.8868,-6.63,7.85,-0.06,29.5
8789,0.214,-0.0364,0.8889,-6.79,7.85,-0.03,29.51
8799,0.214,-0.035,0.8878,-6.64,7.89,-0.06,29.5
8809,0.2155,-0.0356,0.8906,-6.69,7.89,-0.08,29.51
8819,0.2192,-0.0341,0.8883,-6.63,7.83,-0.12,29.51
8829,0.22,-0.0286,0.8925,-6.7,7.95,-0.09,29.5
8839,0.2197,-0.031,0.8832,-6.75,8.02,-0.12,29.47
8849,0.217,-0.0333,0.8868,-6.78,7.95,-0.06,29.51
8859,0.2167,-0.0361,0.8881,-6.69,8.0,-0.08,29.5
8869,0.2166,-0.0393,0.8879,-6.78,8.0,-0.11,29.51
8879,0.2169,-0.0374,0.8865,-6.72,7.98,0.03,29.52
8889,0.2163,-0.0336,0.8878,-6.66,8.0,0.06,29.52
8899,0.2145,-0.0303,0.8885,-6.67,8.06,-0.06,29.52
8909,0.2108,-0.0303,0.886,-6.73,7.97,-0.05,29.5
8919,0.2118,-0.0323,0.8849,-6.69,7.97,0.03,29.54
8929,0.2113,-0.0361,0.8904,-6.75,7.95,-0.05,29.51
8939,0.2123,-0.0342,0.8867,-6.64,7.98,-0.05,29.52
8949,0.2112,-0.0344,0.8849,-6.67,7.95,-0.05,29.5
8959,0.2095,-0.0336,0.889,-6.69,7.98,-0.02,29.54
8969,0.2123,-0.0319,0.8876,-6.7,8.0,-0.02,29.51
8979,0.215,-0.0306,0.8851,-6.73,7.98,-0.06,29.52
8989,0.2169,-0.0311,0.889,-6.69,7.97,-0.02,29.53
8999,0.2166,-0.0331,0.8889,-6.72,8.03,-0.05,29.52
9009,0.2174,-0.0338,0.8899,-6.66,7.94,-0.02,29.53
9019,0.2145,-0.0327,0.8855,-6.7,7.92,-0.08,29.52
9029,0.212,-0.0369,0.8854,-6.69,7.91,-0.08,29.55
9039,0.2142,-0.0342,0.8866,-6.66,7.88,-0.05,29.53
9049,0.2136,-0.0332,0.8904,-6.69,8.06,-0.05,29.54
9059,0.2124,-0.0339,0.8879,-6.69,8.03,-0.11,29.53
9069,0.213,-0.031,0.8846,-6.75,7.98,-0.09,29.52
9079,0.2161,-0.0328,0.8894,-6.69,7.91,-0.06,29.52
9089,0.219,-0.0315,0.8881,-6.75,7.98,-0.05,29.49
9099,0.2185,-0.0326,0.8862,-6.61,7.92,-0.02,29.51
9109,0.2166,-0.0342,0.8883,-6.73,7.98,0.03,29.51
9119,0.2208,-0.0327,0.8937,-6.7,8.0,-0.05,29.51
9129,0.2148,-0.0315,0.8925,-6.73,8.03,-0.08,29.51
9139,0.2169,-0.0336,0.8885,-6.73,7.92,0.0,29.52
9149,0.2129,-0.0332,0.8844,-6.75,7.86,-0.03,29.5
9159,0.2139,-0.0367,0.8884,-6.7,8.08,-0.02,29.52
9169,0.2123,-0.0372,0.8865,-6.76,7.95,0.0,29.49
9179,0.2115,-0.0367,0.8857,-6.69,7.92,-0.02,29.51
9189,0.2114,-0.0342,0.8878,-6.7,7.97,-0.05,29.52
9199,0.2152,-0.0295,0.8877,-6.69,8.0,-0.03,29.54
9209,0.218,-0.0319,0.8884,-6.67,8.02,-0.03,29.54
9219,0.2147,-0.0312,0.8887,-6.69,7.97,-0.08,29.51
9229,0.2184,-0.0305,0.884,-6.67,7.88,-0.05,29.51
9239,0.2164,-0.0333,0.8927,-6.76,7.92,0.02,29.54
9249,0.2151,-0.0325,0.8899,-6.73,7.94,-0.09,29.54
9259,0.2136,-0.0333,0.8887,-6.7,7.95,-0.06,29.53
9269,0.2175,-0.0309,0.8868,-6.76,7.91,-0.03,29.54
9279,0.2148,-0.0337,0.887,-6.78,7.97,-0.05,29.52
9289,0.2123,-0.0349,0.881,-6.79,7.98,0.03,29.52
9299,0.2135,-0.0352,0.89,-6.76,7.97,-0.02,29.53
9309,0.2131,-0.0363,0.8868,-6.64,8.02,-0.09,29.56
9319,0.2158,-0.035,0.8885,-6.64,7.97,-0.08,29.51
9329,0.212,-0.0342,0.8868,-6.7,7.98,0.02,29.52
9339,0.2141,-0.0339,0.8845,-6.67,8.02,0.02,29.54
9349,0.2164,-0.033,0.8876,-6.82,8.0,-0.06,29.49
9359,0.2157,-0.0308,0.8899,-6.76,7.91,0.08,29.54
9369,0.2144,-0.0293,0.8835,-6.66,7.91,-0.11,29.53
9379,0.2167,-0.0339,0.8895,-6.76,7.95,-0.08,29.52
9389,0.2151,-0.0353,0.8896,-6.72,7.98,-0.02,29.55
9399,0.2158,-0.0334,0.8873,-6.75,7.98,0.0,29.53
9409,0.2178,-0.0348,0.8876,-6.76,7.92,-0.06,29.55
9419,0.2148,-0.0347,0.8859,-6.7,7.98,-0.05,29.52
9429,0.2145,-0.0333,0.8877,-6.67,8.02,-0.06,29.57
9439,0.2178,-0.0334,0.8871,-6.7,8.02,-0.03,29.53
9449,0.2167,-0.0332,0.8865,-6.72,7.95,-0.03,29.53
9459,0.2172,-0.0326,0.8862,-6.69,8.02,-0.05,29.55
9469,0.2161,-0.0353,0.8835,-6.72,7.95,0.06,29.55
9479,0.2155,-0.031,0.8833,-6.69,7.95,-0.03,29.55
9489,0.213,-0.0297,0.8846,-6.73,8.0,-0.06,29.54
9499,0.2104,-0.0299,0.8834,-6.69,7.97,-0.02,29.53
9509,0.2106,-0.0327,0.8838,-6.67,7.97,-0.02,29.56
9519,0.212,-0.0344,0.8864,-6.66,7.86,-0.03,29.57
9529,0.2102,-0.0333,0.8904,-6.66,7.88,-0.03,29.54
9539,0.2155,-0.0338,0.8862,-6.76,7.91,0.0,29.52
9549,0.2125,-0.0331,0.8879,-6.64,7.88,-0.12,29.54
9559,0.2159,-0.0328,0.8905,-6.7,7.92,-0.11,29.54
9569,0.2147,-0.0292,0.8879,-6.63,7.95,-0.11,29.57
9579,0.2156,-0.0341,0.8904,-6.69,7.94,-0.08,29.54
9589,0.2144,-0.0334,0.8893,-6.66,7.89,-0.09,29.52
9599,0.2144,-0.0334,0.8883,-6.72,7.92,-0.11,29.56
9609,0.2148,-0.0355,0.8881,-6.61,7.92,-0.05,29.55
9619,0.2161,-0.0322,0.8888,-6.78,7.92,-0.11,29.52
9629,0.2162,-0.0314,0.8885,-6.76,7.92,-0.05,29.54
9639,0.2189,-0.0314,0.8878,-6.66,7.95,0.03,29.53
9649,0.2203,-0.0328,0.8884,-6.69,7.91,-0.06,29.54
9659,0.2206,-0.0391,0.8911,-6.67,7.92,-0.06,29.54
9669,0.2166,-0.0369,0.8862,-6.7,7.97,-0.02,29.52
9679,0.218,-0.0364,0.8871,-6.64,7.94,-0.08,29.54
9689,0.213,-0.0363,0.8882,-6.75,7.94,-0.08,29.52
9699,0.2086,-0.035,0.8861,-6.7,7.98,-0.06,29.52
9709,0.2123,-0.0295,0.8806,-6.67,7.98,-0.02,29.54
9719,0.2109,-0.0272,0.885,-6.73,7.91,-0.02,29.54
9729,0.2141,-0.0332,0.8893,-6.72,7.88,-0.09,29.54
9739,0.2151,-0.0306,0.8912,-6.73,7.95,-0.02,29.53
9749,0.2134,-0.0331,0.8898,-6.72,8.0,0.0,29.52
9759,0.2173,-0.0358,0.8878,-6.67,7.88,-0.02,29.54
9769,0.2162,-0.0366,0.8856,-6.7,7.92,-0.06,29.53
9779,0.2203,-0.0321,0.8848,-6.73,7.95,-0.08,29.54
9789,0.2181,-0.0355,0.8845,-6.7,7.98,-0.03,29.56
9799,0.2152,-0.035,0.8888,-6.78,7.94,-0.05,29.54
9809,0.2141,-0.0334,0.8862,-6.7,8.05,-0.05,29.54
9819,0.2158,-0.036,0.8904,-6.73,8.05,0.0,29.53
9829,0.2133,-0.0348,0.8872,-6.64,7.98,-0.05,29.54
9839,0.2134,-0.0326,0.8879,-6.73,8.02,-0.05,29.54
9849,0.2145,-0.0303,0.8909,-6.76,7.91,0.02,29.52
9859,0.2118,-0.0295,0.89,-6.79,7.94,-0.11,29.53
9869,0.2148,-0.0315,0.8892,-6.67,7.97,-0.05,29.52
9879,0.2137,-0.0312,0.8873,-6.76,7.95,-0.11,29.53
9889,0.2144,-0.0364,0.8875,-6.78,7.91,-0.09,29.55
9899,0.2136,-0.0356,0.89,-6.66,8.02,-0.03,29.53
9909,0.2164,-0.0361,0.8889,-6.73,7.91,0.02,29.54
9919,0.2164,-0.0361,0.8892,-6.76,8.03,-0.05,29.54
9929,0.2174,-0.0377,0.886,-6.73,7.95,-0.06,29.54
9939,0.2158,-0.035,0.8851,-6.67,7.97,-0.05,29.55
9949,0.2161,-0.0378,0.8936,-6.73,8.03,-0.08,29.53
9959,0.2145,-0.0366,0.8879,-6.78,7.97,0.03,29.53
9969,0.2133,-0.0342,0.8862,-6.75,7.94,-0.06,29.54
9979,0.2134,-0.0312,0.8866,-6.75,7.94,0.06,29.54
9989,0.2112,-0.0328,0.886,-6.69,7.92,-0.05,29.52
9999,0.2153,-0.0339,0.8866,-6.69,7.91,-0.08,29.54
10009,0.2108,-0.0312,0.8859,-6.73,7.88,-0.03,29.54
10019,0.2155,-0.0323,0.8873,-6.81,7.97,-0.02,29.54
10029,0.2161,-0.0308,0.8921,-6.81,7.88,-0.06,29.54
10039,0.2157,-0.0358,0.8909,-6.72,7.89,-0.08,29.54
10049,0.2145,-0.0338,0.8901,-6.69,7.94,0.0,29.53
10059,0.2159,-0.0347,0.8867,-6.72,7.94,-0.03,29.56
10069,0.2159,-0.0325,0.8864,-6.66,7.91,0.05,29.54
10079,0.213,-0.0349,0.8884,-6.72,8.0,-0.12,29.55
10089,0.2155,-0.0341,0.8893,-6.73,8.0,-0.03,29.54
10099,0.2186,-0.0323,0.8871,-6.75,8.02,-0.05,29.54
10109,0.2161,-0.033,0.8867,-6.73,7.95,-0.09,29.52
10119,0.2139,-0.0358,0.8876,-6.69,7.97,-0.02,29.53
10129,0.2118,-0.0337,0.8866,-6.69,7.98,-0.05,29.53
10139,0.2094,-0.033,0.8844,-6.63,8.0,-0.11,29.55
10149,0.2107,-0.0334,0.8875,-6.73,7.92,-0.08,29.54
10159,0.2135,-0.0297,0.8827,-6.76,7.95,-0.03,29.55
10169,0.2123,-0.0305,0.8868,-6.7,7.94,-0.02,29.54
10179,0.2128,-0.0331,0.8871,-6.73,7.88,-0.03,29.55
10189,0.2139,-0.0319,0.8906,-6.75,7.94,0.0,29.57
10199,0.2162,-0.0322,0.8835,-6.69,7.89,-0.02,29.55
10209,0.2151,-0.0342,0.89,-6.66,7.89,0.0,29.57
10219,0.2211,-0.0343,0.8892,-6.75,7.92,-0.05,29.51
10229,0.2207,-0.0353,0.8885,-6.76,7.91,0.08,29.54
10239,0.2174,-0.036,0.8868,-6.72,7.91,-0.08,29.56
10249,0.2178,-0.0344,0.887,-6.78,7.95,-0.08,29.54
10259,0.2173,-0.0356,0.8881,-6.63,7.98,-0.08,29.54
10269,0.2158,-0.0356,0.8848,-6.63,7.98,-0.05,29.54
10279,0.2139,-0.0339,0.8834,-6.66,8.03,-0.08,29.56
10289,0.2142,-0.0342,0.8839,-6.7,8.0,-0.02,29.55
10299,0.2124,-0.035,0.8901,-6.75,8.0,-0.11,29.54
10309,0.2124,-0.0338,0.8889,-6.7,7.94,-0.06,29.55
10320,0.2106,-0.0328,0.8882,-6.7,7.89,-0.05,29.55
10330,0.2108,-0.0342,0.8877,-6.64,7.95,-0.06,29.56
10340,0.213,-0.0305,0.8851,-6.67,7.89,0.06,29.54
10350,0.2157,-0.0327,0.8895,-6.81,7.92,-0.06,29.54
10360,0.213,-0.0321,0.8885,-6.66,7.94,-0.08,29.54
10370,0.2129,-0.0306,0.8903,-6.67,7.97,-0.09,29.55
10380,0.2136,-0.0316,0.8933,-6.7,7.89,-0.05,29.55
10390,0.2166,-0.0343,0.8824,-6.79,7.92,-0.06,29.54
10400,0.2184,-0.0353,0.8883,-6.79,7.98,0.03,29.55
10410,0.2211,-0.0312,0.8843,-6.72,7.97,-0.05,29.54
10420,0.2214,-0.027,0.8802,-6.73,7.91,-0.05,29.54
10430,0.2185,-0.0377,0.8909,-6.79,7.94,-0.02,29.57
10440,0.2141,-0.043,0.8889,-6.6,8.09,0.0,29.54
10450,0.2128,-0.0396,0.8853,-6.55,7.88,-0.03,29.53
10460,0.2157,-0.0336,0.889,-6.63,7.95,-0.03,29.55
10470,0.2153,-0.0354,0.8867,-6.73,7.95,0.06,29.54
10480,0.2174,-0.0264,0.8811,-6.95,7.97,0.03,29.55
10490,0.2244,-0.0216,0.8884,-6.96,7.91,0.06,29.56
10500,0.2235,-0.0225,0.8937,-6.93,8.09,0.0,29.54
10510,0.217,-0.0292,0.8898,-6.85,8.15,-0.03,29.56
10520,0.2136,-0.0383,0.8779,-6.78,8.02,0.0,29.55
10530,0.2065,-0.0439,0.8778,-6.7,8.02,0.03,29.54
10540,0.2074,-0.0457,0.8823,-6.56,7.97,-0.02,29.55
10550,0.2124,-0.0375,0.8826,-6.75,7.88,-0.09,29.54
10560,0.2168,-0.0427,0.8932,-6.7,7.79,0.02,29.55
10570,0.2238,-0.0453,0.8943,-6.79,7.83,-0.11,29.56
10580,0.2217,-0.0419,0.8986,-6.7,8.08,-0.03,29.56
10590,0.2162,-0.0326,0.8875,-6.55,8.05,-0.06,29.56
10600,0.2146,-0.027,0.8871,-6.55,8.05,-0.12,29.56
10610,0.2123,-0.0167,0.8823,-6.66,8.12,-0.12,29.53
10622,0.2061,-0.0161,0.8748,-6.75,8.02,0.02,29.55
10632,0.2056,-0.0203,0.8749,-6.85,7.91,0.05,29.56
10642,0.2103,-0.0282,0.8828,-6.85,7.89,0.02,29.54
10652,0.2118,-0.0338,0.8911,-6.73,7.86,-0.05,29.54
10662,0.2197,-0.0453,0.9001,-6.82,7.77,-0.03,29.56
10672,0.2166,-0.0446,0.9025,-6.72,7.86,-0.05,29.54
10682,0.2155,-0.049,0.8965,-6.75,7.95,-0.06,29.55
10692,0.2153,-0.0481,0.8925,-6.64,7.97,-0.03,29.54
10702,0.2102,-0.0443,0.8816,-6.66,8.0,-0.05,29.56
10712,0.2045,-0.0359,0.8729,-6.64,8.03,-0.15,29.55
10723,0.2048,-0.0281,0.8685,-6.66,7.91,-0.12,29.53
10733,0.2042,-0.0243,0.8782,-6.6,7.85,-0.14,29.56
10743,0.2148,-0.0222,0.8827,-6.75,7.8,-0.09,29.56
10753,0.2135,-0.0234,0.8936,-6.78,7.74,0.02,29.57
10765,0.2174,-0.0228,0.9036,-6.72,7.82,-0.03,29.55
10775,0.2186,-0.0251,0.8997,-6.69,7.91,-0.03,29.57
10785,0.217,-0.0311,0.9003,-6.75,7.98,-0.02,29.56
10795,0.2194,-0.0354,0.8854,-6.73,7.92,-0.08,29.55
10805,0.218,-0.0452,0.8827,-6.75,7.95,-0.06,29.54
10815,0.2162,-0.0476,0.881,-6.73,8.02,-0.06,29.55
10826,0.2163,-0.0555,0.8783,-6.73,7.98,-0.02,29.54
10836,0.2152,-0.0465,0.8788,-6.7,7.94,-0.05,29.54
10846,0.2147,-0.0436,0.8877,-6.63,7.85,-0.06,29.54
10856,0.2129,-0.0302,0.8898,-6.56,8.03,-0.03,29.55
10866,0.2152,-0.0222,0.8881,-6.64,8.02,-0.05,29.56
10876,0.2151,-0.0157,0.8939,-6.61,8.02,-0.02,29.56
10886,0.2152,-0.0186,0.8951,-6.72,7.94,-0.02,29.56
10896,0.2145,-0.0232,0.895,-6.78,7.95,-0.05,29.56
10906,0.2136,-0.0319,0.89,-6.79,7.88,-0.03,29.56
10916,0.212,-0.0369,0.8881,-6.67,7.91,0.0,29.56
10926,0.2153,-0.0403,0.8832,-6.72,7.92,0.0,29.57
10936,0.2122,-0.0426,0.8828,-6.81,7.98,0.03,29.56
10946,0.2159,-0.0383,0.8845,-6.79,7.83,-0.03,29.57
10956,0.2231,-0.0349,0.8848,-6.73,7.89,-0.09,29.56
10966,0.2192,-0.0371,0.8905,-6.75,8.0,-0.11,29.58
10976,0.2225,-0.0363,0.894,-6.73,8.03,-0.06,29.56
10986,0.2228,-0.0392,0.887,-6.76,8.06,-0.11,29.55
10996,0.2166,-0.0348,0.8861,-6.69,8.08,-0.09,29.57
11006,0.215,-0.0333,0.8857,-6.63,8.06,-0.09,29.57
11016,0.212,-0.0282,0.8864,-6.61,8.14,0.03,29.56
11026,0.2122,-0.0287,0.8839,-6.69,8.05,0.08,29.57
11036,0.2144,-0.0229,0.8917,-6.75,8.02,0.02,29.56
11046,0.2162,-0.0239,0.8885,-6.79,7.95,0.09,29.57
11056,0.2179,-0.0277,0.8884,-6.7,8.08,0.03,29.58
11066,0.217,-0.0304,0.8881,-6.73,8.0,0.05,29.58
11076,0.2205,-0.0319,0.8809,-6.72,8.08,-0.03,29.58
11086,0.2196,-0.0376,0.879,-6.61,8.03,-0.12,29.55
11096,0.2192,-0.0406,0.8818,-6.78,8.03,-0.18,29.57
11106,0.2192,-0.0431,0.8832,-6.76,7.95,-0.11,29.58
11116,0.2208,-0.0453,0.8813,-6.75,7.89,-0.09,29.57
11126,0.2214,-0.0425,0.8921,-6.66,7.92,-0.09,29.57
11136,0.2262,-0.033,0.8948,-6.67,7.89,-0.06,29.58
11146,0.2217,-0.031,0.8901,-6.73,7.98,-0.11,29.58
11156,0.2224,-0.0261,0.8867,-6.66,7.98,-0.05,29.55
11166,0.2205,-0.025,0.8887,-6.75,8.0,-0.03,29.57
11176,0.217,-0.0248,0.8851,-6.72,7.94,-0.06,29.58
11186,0.214,-0.0264,0.8799,-6.7,7.98,-0.03,29.58
11196,0.2161,-0.0275,0.8756,-6.79,7.92,-0.09,29.59
11206,0.2166,-0.0332,0.8811,-6.81,7.92,-0.12,29.57
11216,0.2175,-0.0387,0.8877,-6.84,7.95,-0.09,29.57
11226,0.2189,-0.0428,0.8905,-6.81,7.98,-0.06,29.56
11236,0.2217,-0.0393,0.8936,-6.73,7.97,-0.09,29.58
11246,0.2186,-0.0361,0.8953,-6.7,8.02,-0.08,29.55
11256,0.2206,-0.0338,0.8904,-6.75,8.08,-0.06,29.57
11266,0.2169,-0.0344,0.8855,-6.67,8.05,-0.09,29.59
11276,0.2134,-0.0247,0.8853,-6.7,8.11,-0.08,29.58
11286,0.2108,-0.0256,0.892,-6.72,8.08,-0.06,29.58
11296,0.2115,-0.0282,0.882,-6.73,8.02,-0.09,29.57
11306,0.2119,-0.0278,0.8837,-6.78,8.0,-0.05,29.57
11316,0.21,-0.0349,0.876,-6.81,7.98,-0.09,29.57
11326,0.2212,-0.0317,0.891,-6.7,7.98,-0.06,29.58
11336,0.2179,-0.0361,0.8915,-6.81,7.85,-0.06,29.6
11346,0.2153,-0.0411,0.8926,-6.78,7.95,-0.05,29.58
11356,0.2177,-0.0408,0.903,-6.72,8.02,0.0,29.58
11366,0.21,-0.0466,0.8925,-6.69,8.21,0.06,29.59
11376,0.2079,-0.0403,0.8859,-6.72,7.95,0.02,29.57
11386,0.2031,-0.0343,0.8872,-6.69,7.89,-0.02,29.58
11396,0.2028,-0.0367,0.8867,-6.72,8.14,-0.03,29.58
11406,0.194,-0.0361,0.8815,-6.72,8.05,0.03,29.57
11416,0.2009,-0.0282,0.8853,-6.63,7.89,0.03,29.57
11426,0.2003,-0.026,0.8873,-6.75,7.95,-0.08,29.57
11437,0.1833,-0.0323,0.8958,-6.73,8.38,-0.09,29.59
11447,0.199,-0.0272,0.9005,-6.72,8.2,-0.08,29.59
11457,0.2034,-0.0319,0.8903,-6.81,8.26,-0.15,29.58
11467,0.1923,-0.042,0.8899,-6.67,8.02,-0.08,29.58
11477,0.1923,-0.0377,0.9021,-6.69,8.21,-0.03,29.59
11487,0.2008,-0.0299,0.8954,-6.75,8.24,-0.03,29.58
11497,0.2037,-0.0255,0.8854,-6.67,8.06,-0.03,29.57
11507,0.2152,-0.0253,0.8882,-6.82,7.76,-0.08,29.56
11517,0.2264,-0.0328,0.8977,-6.67,7.83,-0.09,29.6
11527,0.2279,-0.0432,0.8956,-6.73,7.89,-0.12,29.58
11537,0.2186,-0.0441,0.8883,-6.72,7.85,-0.05,29.6
11547,0.2189,-0.0371,0.8904,-6.63,7.88,0.03,29.58
11557,0.2173,-0.0315,0.8789,-6.73,8.06,0.02,29.59
11567,0.2091,-0.0317,0.8761,-6.73,7.95,-0.11,29.57
11577,0.2096,-0.0276,0.8801,-6.76,7.89,-0.05,29.57
11587,0.2072,-0.0302,0.8909,-6.75,8.06,-0.03,29.59
11597,0.2067,-0.0349,0.8907,-6.7,8.03,-0.05,29.58
11607,0.21,-0.0387,0.8888,-6.67,7.83,0.02,29.57
11617,0.2205,-0.0363,0.8945,-6.69,7.74,0.03,29.58
11627,0.2238,-0.0333,0.8888,-6.72,7.94,-0.02,29.6
11637,0.2174,-0.0331,0.8832,-6.72,7.98,-0.06,29.59
11647,0.2148,-0.0342,0.8815,-6.66,7.91,-0.08,29.59
11657,0.2157,-0.0343,0.8896,-6.76,8.02,-0.06,29.59
11667,0.2117,-0.0374,0.8839,-6.78,8.11,-0.05,29.57
11677,0.2083,-0.0378,0.8821,-6.69,7.98,-0.06,29.59
11687,0.2097,-0.0336,0.8899,-6.7,7.91,0.03,29.6
11697,0.212,-0.0311,0.8872,-6.67,7.94,-0.05,29.6
11707,0.2139,-0.0311,0.8862,-6.67,8.0,-0.15,29.57
11717,0.2133,-0.0276,0.8901,-6.63,7.95,0.02,29.57
11727,0.2178,-0.0326,0.8937,-6.73,7.98,-0.12,29.61
11737,0.2146,-0.0325,0.8901,-6.73,7.97,-0.08,29.6
11747,0.2198,-0.035,0.8865,-6.7,7.89,-0.11,29.57
11757,0.2167,-0.0359,0.8914,-6.82,7.91,-0.05,29.58
11767,0.2159,-0.0331,0.8899,-6.72,7.98,-0.03,29.57
11777,0.2156,-0.0364,0.8857,-6.75,7.92,-0.06,29.58
11787,0.2136,-0.0336,0.8829,-6.7,7.92,0.02,29.59
11797,0.2737,-0.1611,0.833,-6.78,5.62,-0.34,29.58
11807,1.097,-0.7363,-0.205,3.3,-47.69,1.36,29.59
11817,0.1301,-0.1149,0.3278,-6.72,8.79,1.42,29.59
11827,0.2583,-0.2013,0.8937,-7.83,15.94,-0.63,29.58
11837,0.25,-0.1561,0.8547,-6.23,9.11,-0.37,29.59
11847,0.4225,-0.0553,0.9052,-6.92,2.63,0.12,29.59
11857,0.2988,-0.037,0.874,-6.67,3.16,0.4,29.59
11867,0.1597,-0.0037,0.8938,-6.52,9.28,-0.21,29.6
11877,0.1318,-0.0178,0.9486,-6.72,10.87,-0.21,29.61
11887,0.2975,-0.0464,0.8048,-6.72,6.78,0.14,29.59
11897,0.2365,-0.064,0.8616,-6.75,7.34,-0.03,29.59
11907,0.2039,-0.0551,0.8834,-6.53,7.94,-0.03,29.61
11917,0.1716,-0.0328,0.9646,-6.7,10.38,-0.15,29.59
11927,0.1965,-0.0531,0.87,-6.63,9.19,-0.21,29.61
11937,0.2037,-0.0258,0.8945,-6.72,7.79,-0.09,29.6
11947,0.2086,-0.0269,0.9115,-6.64,7.62,-0.08,29.6
11957,0.1997,-0.024,0.8967,-6.69,8.18,-0.14,29.6
11967,0.1963,-0.0214,0.8822,-6.5,7.94,-0.2,29.6
11977,0.2152,-0.0177,0.8884,-6.63,7.69,-0.11,29.59
11987,0.2228,-0.0244,0.8895,-6.72,8.0,-0.09,29.6
11997,0.2104,-0.0336,0.8752,-6.76,8.03,-0.08,29.6
12007,0.2128,-0.0273,0.8938,-6.79,7.92,0.0,29.59
12017,0.2103,-0.0385,0.9192,-6.72,8.37,-0.06,29.59
12027,0.2075,-0.0427,0.8926,-6.84,8.32,-0.12,29.61
12037,0.2109,-0.038,0.8804,-6.63,7.98,-0.11,29.61
12047,0.2216,-0.0367,0.8895,-6.7,7.6,-0.03,29.59
12057,0.2213,-0.0397,0.8885,-6.73,8.0,-0.12,29.59
12067,0.2177,-0.0422,0.8806,-6.69,7.79,-0.09,29.59
12077,0.2184,-0.0334,0.8857,-6.66,7.82,0.02,29.59
12087,0.2229,-0.0338,0.8904,-6.58,7.98,0.02,29.6
12097,0.2189,-0.0327,0.8882,-6.72,8.09,0.0,29.61
12107,0.2172,-0.0277,0.8811,-6.64,7.88,-0.05,29.61
12117,0.2161,-0.0277,0.8899,-6.72,7.94,0.03,29.62
12127,0.2114,-0.0272,0.8972,-6.72,8.09,-0.08,29.61
12137,0.2153,-0.0304,0.8832,-6.69,7.95,-0.06,29.58
12147,0.2144,-0.0366,0.8875,-6.67,7.91,-0.14,29.58
12157,0.2137,-0.0437,0.8861,-6.73,7.97,-0.03,29.58
12167,0.212,-0.0433,0.8895,-6.73,8.02,-0.11,29.57
12177,0.2133,-0.0425,0.8861,-6.61,7.92,-0.08,29.59
12187,0.2185,-0.0371,0.8826,-6.61,7.95,-0.08,29.59
12197,0.2159,-0.03,0.8875,-6.67,8.02,-0.09,29.6
12207,0.2203,-0.0319,0.89,-6.64,7.98,-0.06,29.6
12217,0.2177,-0.031,0.8926,-6.67,7.92,0.05,29.59
12227,0.2162,-0.0299,0.8916,-6.73,8.02,0.08,29.6
12237,0.2157,-0.028,0.8888,-6.69,7.97,0.03,29.61
12247,0.2128,-0.03,0.8859,-6.67,7.94,0.06,29.59
12257,0.213,-0.0272,0.8839,-6.69,7.97,0.02,29.59
12267,0.2118,-0.0328,0.8859,-6.75,8.03,0.0,29.6
12277,0.2129,-0.03,0.8812,-6.79,7.85,-0.12,29.6
12287,0.2142,-0.0332,0.8837,-6.76,7.86,-0.05,29.6
12297,0.2123,-0.038,0.8873,-6.81,7.88,-0.05,29.62
12307,0.2107,-0.0398,0.8848,-6.75,7.94,-0.03,29.6
12317,0.2174,-0.0392,0.8945,-6.66,7.91,-0.08,29.6
12327,0.2153,-0.0378,0.8925,-6.73,7.97,-0.06,29.6
12337,0.2189,-0.0361,0.889,-6.76,7.98,-0.06,29.63
12347,0.219,-0.0328,0.8879,-6.66,8.05,-0.03,29.6
12357,0.2181,-0.0288,0.884,-6.66,7.91,-0.02,29.6
12367,0.217,-0.0317,0.8857,-6.7,7.94,-0.05,29.59
12377,0.2148,-0.0293,0.8871,-6.63,7.92,-0.03,29.62
12387,0.2177,-0.0304,0.8912,-6.7,7.98,-0.11,29.62
12397,0.2159,-0.0325,0.8848,-6.7,7.94,-0.05,29.64
12407,0.2155,-0.0359,0.885,-6.79,7.97,-0.02,29.62
12417,0.2162,-0.0363,0.8867,-6.73,7.89,0.02,29.6
12427,0.2166,-0.037,0.8846,-6.75,8.0,-0.05,29.6
12437,0.2144,-0.0378,0.8867,-6.79,7.92,-0.03,29.59
12447,0.2172,-0.036,0.8846,-6.73,7.95,-0.08,29.62
12458,0.2146,-0.0365,0.8907,-6.73,7.98,-0.08,29.6
12468,0.213,-0.0334,0.8877,-6.75,8.05,-0.03,29.58
12478,0.2135,-0.0309,0.8894,-6.79,7.98,-0.02,29.58
12488,0.2136,-0.0293,0.8855,-6.78,7.98,-0.05,29.61
12498,0.205,-0.0233,0.9109,-6.78,8.32,0.02,29.61
12508,0.2144,-0.0248,0.8929,-6.84,7.98,-0.02,29.62
12518,0.2064,-0.0322,0.8759,-6.67,7.97,0.02,29.61
12528,0.2089,-0.0331,0.9006,-6.84,7.92,-0.08,29.62
12538,0.2128,-0.0258,0.8843,-6.9,7.79,0.0,29.62
12548,0.2023,-0.0261,0.8972,-6.75,8.12,0.02,29.61
12559,0.2321,-0.0334,0.8788,-6.84,7.69,0.03,29.61
12569,0.2277,-0.0402,0.8839,-6.7,7.91,0.02,29.6
12579,0.2222,-0.0428,0.8776,-6.89,8.0,-0.03,29.64
12589,0.2142,-0.0374,0.8826,-6.72,8.06,-0.06,29.6
12599,0.2122,-0.0266,0.8956,-6.81,8.11,0.0,29.59
12609,0.214,-0.0316,0.8878,-6.7,8.2,-0.11,29.6
12619,0.208,-0.0367,0.8831,-6.82,8.24,0.0,29.6
12629,0.2124,-0.0396,0.8796,-6.84,7.95,-0.02,29.62
12639,0.2079,-0.037,0.8901,-6.67,7.98,-0.08,29.62
12649,0.2101,-0.0334,0.8894,-6.66,8.09,-0.05,29.62
12659,0.2113,-0.0345,0.8885,-6.73,8.03,0.02,29.61
12669,0.2195,-0.0281,0.8904,-6.72,7.95,-0.06,29.62
12679,0.2179,-0.0295,0.8834,-6.82,7.98,0.0,29.6
12689,0.2146,-0.0328,0.8801,-6.78,8.05,-0.06,29.59
12699,0.2164,-0.0366,0.8817,-6.79,7.91,-0.08,29.62
12709,0.2142,-0.0359,0.8883,-6.73,8.05,-0.08,29.61
12719,0.2134,-0.0388,0.8837,-6.7,8.06,-0.02,29.6
12729,0.209,-0.0431,0.8832,-6.64,8.02,0.02,29.6
12739,0.2089,-0.0424,0.8849,-6.69,7.95,0.05,29.62
12749,0.2153,-0.0356,0.8864,-6.69,7.95,-0.05,29.61
12759,0.2134,-0.0293,0.8884,-6.73,7.98,-0.02,29.62
12769,0.217,-0.0298,0.8855,-6.73,7.94,0.02,29.61
12779,0.2167,-0.0269,0.8899,-6.7,8.05,-0.06,29.62
12789,0.2153,-0.0321,0.884,-6.69,8.09,0.0,29.63
12799,0.2148,-0.0344,0.8798,-6.7,8.05,-0.05,29.62
12809,0.2156,-0.036,0.886,-6.81,7.98,-0.09,29.62
12819,0.2135,-0.0348,0.8885,-6.69,7.98,0.02,29.6
12829,0.2145,-0.0339,0.8885,-6.81,7.94,-0.09,29.61
12839,0.2135,-0.0358,0.8866,-6.64,7.98,-0.08,29.64
12849,0.214,-0.0353,0.8862,-6.72,8.06,-0.03,29.61
12859,0.2142,-0.0353,0.8864,-6.73,8.02,-0.02,29.63
12869,0.2174,-0.0343,0.8911,-6.73,8.02,-0.09,29.62
12879,0.2191,-0.0326,0.8885,-6.78,8.02,-0.03,29.62
12889,0.2205,-0.0319,0.8848,-6.69,8.09,-0.06,29.61
12899,0.2164,-0.0386,0.8826,-6.7,8.02,-0.09,29.62
12909,0.2078,-0.033,0.8871,-6.76,8.15,-0.02,29.61
12919,0.2092,-0.0309,0.8918,-6.69,8.24,0.06,29.62
12929,0.2089,-0.0328,0.8866,-6.72,8.11,0.05,29.64
12939,0.2108,-0.0364,0.8882,-6.76,7.94,0.12,29.61
12949,0.2179,-0.0371,0.8922,-6.79,7.83,0.05,29.61
12959,0.2195,-0.0398,0.8838,-6.7,7.71,-0.05,29.62
12969,0.2201,-0.0416,0.8887,-6.72,7.68,-0.05,29.62
12979,0.2206,-0.0383,0.8824,-6.73,7.54,0.0,29.61
12989,0.2137,-0.0332,0.8865,-6.72,7.82,-0.03,29.62
12999,0.2114,-0.0326,0.8873,-6.67,8.02,-0.03,29.6
13009,0.2072,-0.0295,0.891,-6.72,8.2,-0.05,29.63
13019,0.2078,-0.0273,0.8923,-6.72,8.4,-0.11,29.64
13029,0.2056,-0.0322,0.8921,-6.7,8.41,-0.08,29.63
13039,0.2059,-0.0347,0.889,-6.75,8.38,-0.06,29.6
13049,0.1989,-0.0299,0.8907,-6.79,8.35,0.02,29.62
13059,0.175,-0.027,0.8317,-6.81,8.21,-0.02,29.62
13070,0.2054,-0.0348,0.8955,-6.64,7.37,-0.03,29.61
13080,0.2321,-0.0254,0.9419,-6.81,7.98,-0.06,29.62
13090,0.2264,-0.0404,0.9088,-6.63,8.29,-0.11,29.63
13100,0.2183,-0.0402,0.8827,-6.52,7.65,-0.06,29.62
13110,0.2269,-0.0363,0.9039,-6.73,7.8,-0.06,29.62
13120,0.2135,-0.0391,0.8855,-6.79,8.34,-0.08,29.62
13130,0.2006,-0.0363,0.8479,-6.78,8.09,-0.08,29.62
13140,0.2043,-0.0306,0.8685,-6.6,7.77,-0.03,29.63
13150,0.2006,-0.0206,0.8682,-6.96,8.37,-0.09,29.62
13160,0.2273,-0.0465,0.8483,-6.52,7.48,0.03,29.61
13170,0.2314,-0.0305,0.8662,-6.76,7.21,-0.03,29.61
13180,0.2239,-0.0292,0.9178,-6.46,8.35,-0.17,29.61
13190,0.2258,-0.0359,0.9039,-7.08,8.29,0.03,29.62
13200,0.2096,-0.0283,0.9022,-6.75,8.29,-0.02,29.62
13210,0.1991,-0.0219,0.9266,-6.78,8.08,-0.11,29.61
13220,0.2175,-0.0402,0.9083,-6.56,8.11,-0.05,29.63
13230,0.2058,-0.032,0.8931,-6.75,8.12,-0.08,29.61
13240,0.2158,-0.0308,0.8829,-6.73,7.83,-0.14,29.62
13250,0.2076,-0.0349,0.8822,-6.7,8.03,0.02,29.62
13260,0.2118,-0.0396,0.8645,-6.81,7.94,-0.06,29.64
13270,0.2085,-0.049,0.8588,-6.67,7.95,-0.08,29.61
13280,0.2135,-0.031,0.8761,-6.75,7.95,-0.08,29.6
13290,0.1992,-0.0286,0.8954,-6.72,8.23,-0.09,29.64
13300,0.2172,-0.0333,0.8882,-6.66,7.82,-0.03,29.64
13310,0.2261,-0.0269,0.905,-6.7,8.02,-0.09,29.63
13320,0.214,-0.0312,0.9076,-6.73,8.15,-0.08,29.64
13330,0.2185,-0.0269,0.9006,-6.79,8.12,-0.05,29.6
13340,0.2177,-0.0327,0.8922,-6.75,8.03,-0.02,29.62
13350,0.1936,-0.0548,0.8828,-6.6,8.02,-0.05,29.64
13360,0.2222,-0.0448,0.8555,-6.95,7.57,-0.06,29.61
13370,0.2074,-0.0248,0.8977,-6.73,7.76,0.0,29.62
13380,0.2002,-0.0107,0.8976,-6.63,8.63,-0.11,29.62
13390,0.2156,-0.0518,0.8689,-6.61,8.0,-0.08,29.62
13400,0.2172,-0.0404,0.8718,-6.84,7.53,-0.14,29.61
13410,0.2084,-0.0334,0.894,-6.69,7.86,-0.08,29.62
13420,0.2115,-0.0278,0.9025,-6.69,7.79,-0.08,29.61
13430,0.2164,-0.0332,0.9019,-6.44,8.2,-0.08,29.56
13440,0.215,-0.0266,0.8927,-6.75,7.97,-0.05,29.63
13450,0.2236,-0.0334,0.8879,-6.66,8.02,-0.09,29.61
13460,0.2131,-0.0314,0.8937,-6.76,7.89,-0.08,29.61
13470,0.2162,-0.0277,0.8876,-6.69,7.88,-0.05,29.62
13480,0.2062,-0.0331,0.8882,-6.67,7.94,0.02,29.61
13490,0.2113,-0.0367,0.8783,-6.72,7.88,0.05,29.61
13500,0.2104,-0.0343,0.8788,-6.7,8.05,-0.05,29.63
13510,0.2135,-0.0321,0.8805,-6.76,7.88,0.02,29.61
13520,0.2123,-0.033,0.8864,-6.73,8.0,0.0,29.62
13530,0.2192,-0.0365,0.8848,-6.7,7.85,-0.08,29.62
13540,0.2191,-0.0397,0.8958,-6.72,7.85,-0.11,29.62
13550,0.2177,-0.0375,0.8928,-6.66,8.09,-0.02,29.64
13560,0.2173,-0.0375,0.8868,-6.67,7.94,-0.11,29.64
13570,0.2091,-0.038,0.8899,-6.56,8.03,-0.15,29.65
13580,0.2046,-0.0311,0.8932,-6.7,8.27,-0.14,29.63
13590,0.2061,-0.0293,0.8929,-6.66,8.03,-0.03,29.63
13600,0.2113,-0.0326,0.8829,-6.76,7.94,-0.14,29.6
13610,0.2111,-0.0331,0.8838,-6.64,8.0,-0.06,29.63
13620,0.1962,-0.0234,0.8894,-6.72,8.0,-0.02,29.63
13630,0.1783,-0.0261,0.9396,-6.79,9.28,-0.15,29.62
13640,0.212,-0.028,0.8778,-6.69,7.95,-0.09,29.61
13650,0.2136,-0.0343,0.9032,-6.63,7.73,-0.09,29.63
13660,0.229,-0.0444,0.8776,-6.63,7.44,-0.08,29.62
13670,0.2231,-0.0398,0.8873,-6.7,7.79,-0.08,29.63
13680,0.2203,-0.0312,0.885,-6.73,8.05,-0.11,29.64
13690,0.219,-0.038,0.8821,-6.61,7.98,0.05,29.64
13700,0.2136,-0.0349,0.8979,-6.75,8.14,-0.03,29.63
13710,0.2025,-0.0354,0.9,-6.64,8.47,-0.06,29.64
13720,0.2017,-0.0312,0.8929,-6.72,8.27,-0.14,29.64
13730,0.2025,-0.0336,0.895,-6.76,8.27,-0.06,29.63
13740,0.2063,-0.0276,0.8912,-6.72,8.08,-0.02,29.65
13750,0.208,-0.0316,0.8885,-6.67,8.0,-0.08,29.63
13760,0.212,-0.0369,0.8805,-6.61,8.05,-0.06,29.61
13770,0.2124,-0.0323,0.894,-6.66,7.95,-0.06,29.62
13780,0.215,-0.0352,0.8893,-6.61,7.83,-0.08,29.61
13790,0.2164,-0.0302,0.8829,-6.73,7.92,-0.11,29.62
13800,0.2159,-0.0308,0.8907,-6.73,7.91,-0.05,29.62
13810,0.2202,-0.0325,0.8889,-6.76,7.89,-0.06,29.62
13820,0.2166,-0.0365,0.8868,-6.73,7.94,-0.06,29.62
13830,0.2157,-0.0389,0.8844,-6.6,7.91,-0.05,29.62
13840,0.2085,-0.0319,0.8925,-6.64,8.0,-0.08,29.62
13850,0.21,-0.0323,0.8865,-6.73,8.0,-0.06,29.62
13860,0.2108,-0.0321,0.8875,-6.7,7.98,-0.06,29.64
13870,0.2125,-0.03,0.8866,-6.7,7.88,-0.09,29.61
13880,0.2192,-0.0288,0.8857,-6.67,7.95,-0.08,29.63
13890,0.2157,-0.0299,0.8862,-6.73,7.92,-0.06,29.62
13900,0.2173,-0.0319,0.8835,-6.72,7.91,-0.06,29.62
13910,0.2147,-0.0377,0.886,-6.72,7.95,-0.09,29.61
13920,0.2148,-0.0363,0.8856,-6.7,7.95,0.0,29.62
13930,0.2151,-0.0394,0.8928,-6.7,8.03,0.02,29.64
13940,0.2173,-0.037,0.8845,-6.67,7.94,-0.12,29.63
13950,0.2172,-0.0336,0.8888,-6.66,8.03,-0.11,29.65
13960,0.2157,-0.0376,0.8848,-6.7,7.95,0.03,29.62
13970,0.2151,-0.0337,0.8889,-6.7,8.0,0.05,29.64
13981,0.2126,-0.0325,0.8857,-6.67,8.08,-0.09,29.63
13991,0.2129,-0.0347,0.8835,-6.66,8.0,-0.06,29.63
14001,0.2101,-0.0308,0.8833,-6.66,7.86,-0.11,29.64
14011,0.2125,-0.0291,0.8906,-6.7,7.98,-0.02,29.64
14021,0.2161,-0.0298,0.8922,-6.73,8.0,0.0,29.62
14031,0.2098,-0.0325,0.887,-6.76,7.91,0.0,29.63
14041,0.215,-0.0398,0.8923,-6.72,7.92,-0.05,29.64
14051,0.2153,-0.0378,0.8928,-6.75,8.11,-0.05,29.6
14061,0.2142,-0.0388,0.8787,-6.72,7.95,0.02,29.62
14071,0.2172,-0.0363,0.8875,-6.75,7.91,-0.02,29.64
14081,0.2162,-0.0363,0.8937,-6.78,7.97,0.0,29.63
14091,0.2103,-0.0343,0.8881,-6.73,8.15,-0.03,29.62
14101,0.2158,-0.0292,0.8822,-6.67,7.89,0.0,29.63
14111,0.2168,-0.0282,0.8969,-6.69,7.88,-0.08,29.65
14121,0.2107,-0.0331,0.8922,-6.78,8.15,-0.03,29.63
14131,0.2101,-0.0302,0.8784,-6.66,7.97,-0.03,29.64
14141,0.2145,-0.0358,0.8828,-6.69,7.82,0.0,29.62
14151,0.217,-0.0237,0.8945,-6.84,7.95,0.0,29.63
14161,0.2024,-0.0376,0.8835,-6.7,8.23,0.0,29.61
14171,0.2019,-0.0396,0.8789,-6.69,7.92,-0.09,29.64
14181,0.2109,-0.0347,0.9032,-6.66,7.95,-0.02,29.64
14191,0.2272,-0.0338,0.8912,-6.85,8.0,-0.06,29.61
14201,0.2191,-0.0461,0.8671,-6.7,7.54,-0.08,29.64
14211,0.2229,-0.0364,0.8898,-6.69,7.62,-0.09,29.61
14221,0.2244,-0.0287,0.9015,-6.75,8.05,-0.06,29.66
14231,0.2181,-0.0341,0.8829,-6.78,8.15,-0.03,29.63
14241,0.2164,-0.036,0.8813,-6.76,7.8,-0.09,29.61
14251,0.218,-0.0322,0.8871,-6.67,7.79,-0.12,29.64
14261,0.2128,-0.0299,0.8948,-6.7,8.26,-0.05,29.64
14271,0.2131,-0.0354,0.8778,-6.67,8.05,0.03,29.64
14281,0.2185,-0.0332,0.8738,-6.67,7.62,-0.06,29.61
14292,0.215,-0.0375,0.8871,-6.7,7.73,-0.02,29.66
14302,0.2107,-0.0264,0.8909,-6.81,7.95,-0.05,29.67
14312,0.2136,-0.0299,0.8831,-6.76,7.91,-0.05,29.62
14324,0.2344,-0.0316,0.8726,-6.75,7.44,-0.06,29.64
14334,0.2264,-0.0299,0.8862,-6.69,7.62,-0.11,29.62
14344,0.2198,-0.0338,0.8883,-6.63,7.79,-0.03,29.63
14354,0.2157,-0.0419,0.8882,-6.67,8.09,-0.08,29.65
14364,0.2125,-0.0371,0.8728,-6.69,7.94,-0.02,29.67
14374,0.2098,-0.0283,0.8871,-6.66,7.94,-0.11,29.67
14384,0.2124,-0.0299,0.8964,-6.76,8.11,-0.06,29.66
14394,0.2083,-0.032,0.8909,-6.69,8.26,0.0,29.65
14405,0.2129,-0.0319,0.895,-6.72,7.88,-0.05,29.63
14415,0.2172,-0.0317,0.8849,-6.7,7.86,-0.06,29.64
14427,0.2101,-0.0294,0.8988,-6.72,8.02,-0.05,29.65
14437,0.2054,-0.0341,0.8939,-6.78,8.26,-0.09,29.68
14447,0.2081,-0.0359,0.8831,-6.75,8.0,0.0,29.65
14457,0.2069,-0.0381,0.8883,-6.7,8.0,-0.03,29.64
14467,0.2067,-0.037,0.8817,-6.82,7.92,-0.05,29.64
14477,0.2148,-0.0387,0.8798,-6.67,7.8,-0.05,29.66
14487,0.2166,-0.0331,0.8954,-6.84,7.77,-0.05,29.66
14497,0.2188,-0.0311,0.8949,-6.73,7.83,-0.06,29.65
14507,0.2164,-0.0353,0.8892,-6.7,7.86,-0.11,29.63
14517,0.2168,-0.0314,0.8871,-6.75,7.86,-0.11,29.64
14527,0.2184,-0.032,0.8884,-6.64,7.86,-0.09,29.63
14537,0.2173,-0.0278,0.8818,-6.7,8.06,-0.08,29.64
14547,0.2134,-0.0343,0.8822,-6.69,7.94,-0.09,29.66
14557,0.2168,-0.0358,0.8845,-6.69,7.89,-0.05,29.64
14567,0.2162,-0.0375,0.8876,-6.61,7.89,-0.11,29.65
14577,0.2133,-0.0382,0.8917,-6.76,7.92,-0.03,29.64
14587,0.2179,-0.0361,0.889,-6.72,7.88,0.0,29.65
14597,0.2156,-0.035,0.8898,-6.66,7.92,-0.06,29.67
14607,0.2118,-0.0338,0.8884,-6.72,7.95,0.0,29.67
14617,0.2134,-0.0339,0.8822,-6.64,7.97,-0.05,29.66
14627,0.2156,-0.0314,0.8884,-6.7,7.98,-0.02,29.65
14637,0.2126,-0.0319,0.8854,-6.72,8.02,-0.08,29.64
14647,0.2133,-0.0369,0.8851,-6.66,7.95,-0.05,29.67
14657,0.2175,-0.0327,0.8856,-6.76,7.91,-0.09,29.65
14667,0.2145,-0.0276,0.885,-6.7,7.94,0.02,29.63
14677,0.2141,-0.0398,0.8856,-6.67,8.0,-0.03,29.64
14687,0.207,-0.0333,0.8873,-6.69,8.02,-0.02,29.65
14697,0.2111,-0.0303,0.8925,-6.7,8.03,0.0,29.65
14707,0.2119,-0.036,0.8862,-6.78,8.0,-0.05,29.67
14717,0.2119,-0.0415,0.8882,-6.66,7.91,-0.02,29.65
14727,0.2122,-0.0369,0.8926,-6.78,7.89,-0.03,29.63
14737,0.2174,-0.0337,0.8925,-6.7,7.97,-0.11,29.65
14747,0.2178,-0.0397,0.8843,-6.64,7.91,-0.12,29.64
14757,0.2191,-0.0292,0.8857,-6.7,7.86,-0.08,29.64
14767,0.2213,-0.0275,0.8884,-6.69,8.02,-0.14,29.67
14777,0.2167,-0.0325,0.8877,-6.81,8.0,-0.12,29.65
14787,0.2153,-0.0356,0.8881,-6.7,7.95,-0.09,29.67
14797,0.2172,-0.0308,0.8911,-6.81,8.0,0.0,29.65
14807,0.214,-0.0354,0.8937,-6.73,8.06,-0.02,29.65
14817,0.2118,-0.0376,0.8829,-6.7,7.98,-0.06,29.65
14827,0.2124,-0.0344,0.8933,-6.75,7.98,-0.06,29.67
14837,0.2123,-0.0332,0.8905,-6.76,8.0,0.0,29.66
14847,0.2122,-0.0361,0.8873,-6.7,7.94,-0.05,29.66
14857,0.2091,-0.0371,0.8878,-6.75,7.91,-0.11,29.65
14867,0.215,-0.0344,0.8894,-6.69,7.95,-0.03,29.67
14877,0.2135,-0.0353,0.8868,-6.69,8.03,-0.08,29.65
14887,0.2147,-0.0355,0.8824,-6.72,7.97,-0.02,29.65
14897,0.2147,-0.0343,0.8895,-6.63,7.95,-0.05,29.68
14907,0.2125,-0.0323,0.8838,-6.69,8.02,0.03,29.66
14917,0.2124,-0.033,0.8837,-6.67,8.0,-0.02,29.67
14927,0.2139,-0.0344,0.8876,-6.72,8.0,0.05,29.67
14937,0.2162,-0.031,0.891,-6.84,7.91,-0.09,29.68
14947,0.2137,-0.0306,0.8901,-6.79,7.97,-0.08,29.66
14957,0.2158,-0.0309,0.8862,-6.7,8.02,-0.02,29.67
14968,0.2164,-0.0339,0.8888,-6.76,8.0,-0.09,29.67
14978,0.2159,-0.0359,0.8865,-6.78,8.03,-0.06,29.66
14988,0.2152,-0.0356,0.8838,-6.78,8.03,0.0,29.69
14998,0.2128,-0.0367,0.8879,-6.66,7.97,-0.02,29.65
15008,0.2125,-0.0341,0.8892,-6.67,7.95,-0.03,29.67
15018,0.2109,-0.0355,0.887,-6.81,7.92,-0.03,29.67
15028,0.2148,-0.0382,0.8901,-6.7,8.02,-0.09,29.66
15038,0.2117,-0.0321,0.8909,-6.64,7.97,-0.06,29.67
15049,0.2092,-0.0342,0.8884,-6.75,8.05,-0.09,29.67
15059,0.2155,-0.0382,0.8904,-6.79,7.85,-0.09,29.68
15069,0.2148,-0.037,0.8912,-6.67,7.98,-0.08,29.67
15079,0.2183,-0.0387,0.8944,-6.72,8.0,0.08,29.66
15089,0.2141,-0.0364,0.8868,-6.63,8.05,-0.05,29.69
15099,0.2158,-0.0331,0.8843,-6.67,8.03,-0.03,29.67
15109,0.2141,-0.0249,0.8794,-6.66,8.06,0.0,29.67
15119,0.2052,-0.0277,0.88,-6.64,7.98,-0.06,29.68
15129,0.2129,-0.025,0.8838,-6.82,7.92,0.03,29.69
15139,0.2147,-0.0267,0.8823,-6.76,7.97,-0.03,29.67
15149,0.2123,-0.0336,0.8881,-6.82,7.95,0.0,29.66
15159,0.2155,-0.0415,0.8839,-6.89,7.91,-0.05,29.68
15169,0.219,-0.0305,0.8895,-6.92,8.03,-0.02,29.66
15179,0.2126,-0.0389,0.8889,-6.76,8.15,-0.05,29.66
15189,0.2174,-0.0398,0.8893,-6.75,7.92,0.02,29.68
15199,0.2139,-0.0413,0.8939,-6.81,8.06,-0.03,29.65
15211,0.2169,-0.0446,0.8894,-6.63,7.98,0.02,29.65
15221,0.2109,-0.0385,0.889,-6.63,7.92,-0.03,29.66
15231,0.2098,-0.0222,0.8894,-6.72,7.98,-0.02,29.65
15241,0.2134,-0.022,0.8855,-6.92,7.92,-0.05,29.67
15251,0.2119,-0.0417,0.8834,-6.85,8.02,-0.02,29.66
15261,0.214,-0.0433,0.881,-6.67,7.98,-0.09,29.66
15271,0.2168,-0.0284,0.884,-6.46,7.97,-0.11,29.67
15281,0.2118,-0.028,0.8821,-6.56,8.05,-0.12,29.65
15291,0.2125,-0.0333,0.8837,-6.78,7.85,-0.06,29.67
15301,0.2155,-0.0347,0.8802,-7.02,7.91,0.0,29.68
15311,0.2115,-0.0413,0.8954,-6.72,8.17,-0.06,29.66
15321,0.2186,-0.0361,0.8961,-6.43,7.85,-0.09,29.66
15331,0.2262,-0.0293,0.9038,-6.5,8.03,0.06,29.67
15341,0.2239,-0.0333,0.8989,-6.89,8.0,0.0,29.69
15351,0.225,-0.0386,0.879,-6.89,7.86,0.03,29.69
15361,0.2129,-0.0311,0.8903,-6.75,7.98,0.03,29.67
15371,0.212,-0.0277,0.8809,-6.72,8.08,-0.11,29.65
15381,0.2059,-0.0375,0.8745,-6.6,8.09,-0.02,29.67
15391,0.2031,-0.0359,0.8789,-6.78,7.74,-0.03,29.67
15401,0.2004,-0.0298,0.9187,-6.76,8.32,-0.02,29.68
15411,0.2252,-0.0399,0.8864,-6.66,8.15,0.02,29.69
15421,0.2103,-0.045,0.8838,-6.64,7.79,-0.08,29.71
15431,0.2115,-0.0312,0.907,-6.63,7.85,-0.08,29.68
15441,0.2197,-0.0338,0.9028,-6.69,8.27,-0.08,29.69
15451,0.214,-0.0397,0.8822,-6.73,8.03,-0.12,29.67
15461,0.2162,-0.0321,0.8875,-6.61,7.71,-0.11,29.69
15471,0.2166,-0.0264,0.9027,-6.78,7.89,0.0,29.67
15481,0.2168,-0.0306,0.8784,-6.87,7.95,-0.05,29.69
15491,0.2018,-0.0342,0.8853,-6.69,7.98,-0.03,29.7
15501,0.2035,-0.0387,0.8875,-6.67,7.83,0.02,29.69
15511,0.2103,-0.0331,0.8881,-6.64,8.11,-0.06,29.67
15521,0.209,-0.0331,0.8728,-6.73,7.86,-0.06,29.67
15531,0.2144,-0.0303,0.8895,-6.73,7.79,-0.05,29.68
15541,0.2179,-0.0341,0.8918,-6.82,7.98,-0.11,29.68
15551,0.2125,-0.0361,0.8861,-6.76,8.02,-0.06,29.69
15561,0.2142,-0.0381,0.885,-6.7,7.82,-0.08,29.67
15571,0.2159,-0.0365,0.897,-6.53,7.83,-0.06,29.69
15581,0.2148,-0.037,0.8938,-6.66,8.02,-0.12,29.67
15591,0.2107,-0.0347,0.8857,-6.64,7.86,-0.06,29.67
15601,0.2087,-0.0297,0.8859,-6.75,7.82,-0.05,29.68
15611,0.2072,-0.0269,0.8861,-6.66,7.88,-0.05,29.66
15621,0.2075,-0.0319,0.879,-6.73,7.89,-0.02,29.66
15631,0.2108,-0.0321,0.8837,-6.7,7.77,-0.09,29.67
15641,0.2155,-0.03,0.8928,-6.73,7.8,-0.09,29.67
15651,0.2202,-0.0308,0.8944,-6.78,7.92,-0.09,29.67
15661,0.2211,-0.0374,0.8904,-6.7,7.79,-0.09,29.68
15671,0.2211,-0.0386,0.8868,-6.66,7.88,0.0,29.68
15681,0.2217,-0.0374,0.8873,-6.72,7.94,-0.11,29.69
15691,0.2153,-0.0345,0.8833,-6.64,8.02,-0.12,29.68
15701,0.2136,-0.0353,0.8883,-6.66,7.89,0.02,29.67
15711,0.217,-0.0281,0.8899,-6.69,7.89,0.02,29.69
15721,0.2152,-0.0328,0.8907,-6.75,8.06,-0.03,29.69
15731,0.2123,-0.0323,0.8849,-6.76,7.92,-0.02,29.69
15741,0.2102,-0.0366,0.8812,-6.78,7.89,-0.12,29.69
15751,0.2141,-0.0349,0.8905,-6.72,7.91,-0.08,29.71
15761,0.2137,-0.0355,0.8872,-6.67,7.97,-0.06,29.68
15771,0.2129,-0.0345,0.8894,-6.7,7.91,-0.02,29.67
15781,0.2178,-0.0372,0.8883,-6.73,7.88,-0.06,29.69
15791,0.2178,-0.0388,0.8943,-6.64,8.0,-0.06,29.68
15801,0.2177,-0.0359,0.8876,-6.79,8.0,-0.06,29.69
15811,0.2198,-0.036,0.8906,-6.67,7.95,-0.03,29.69
15821,0.2164,-0.0298,0.8931,-6.73,7.92,-0.09,29.69
15831,0.2129,-0.0312,0.8875,-6.75,7.98,-0.03,29.68
15841,0.2102,-0.0341,0.881,-6.69,7.94,0.0,29.7
15851,0.2089,-0.0364,0.8854,-6.73,7.94,-0.06,29.69
15861,0.2108,-0.031,0.8832,-6.76,8.02,0.05,29.68
15871,0.2117,-0.0283,0.8871,-6.76,8.03,0.03,29.68
15881,0.2169,-0.0299,0.889,-6.82,7.94,-0.02,29.69
15891,0.2148,-0.0311,0.8873,-6.79,8.02,-0.05,29.67
15901,0.2174,-0.0344,0.8853,-6.76,7.98,-0.03,29.69
15911,0.2169,-0.036,0.8842,-6.7,7.97,-0.05,29.66
15921,0.2173,-0.0361,0.8903,-6.73,7.97,-0.03,29.68
15931,0.2157,-0.0359,0.8824,-6.75,7.98,-0.02,29.69
15941,0.212,-0.0352,0.8818,-6.75,8.0,0.03,29.69
15951,0.212,-0.0311,0.8892,-6.75,7.95,-0.08,29.7
15961,0.2157,-0.0293,0.8878,-6.82,8.02,0.03,29.68
15971,0.2124,-0.0309,0.89,-6.78,7.98,-0.03,29.65
15981,0.2133,-0.0347,0.8857,-6.76,7.94,-0.02,29.69
15991,0.2148,-0.0312,0.8896,-6.76,7.95,-0.03,29.7
16001,0.2161,-0.0312,0.8912,-6.79,8.11,-0.06,29.7
16011,0.2152,-0.0349,0.8872,-6.9,8.11,-0.03,29.69
16021,0.2153,-0.0339,0.8896,-6.72,8.08,-0.02,29.67
16031,0.2183,-0.0349,0.8882,-6.7,8.03,0.03,29.69
16041,0.2141,-0.0359,0.8904,-6.82,8.14,-0.02,29.7
16051,0.2129,-0.0406,0.8862,-6.79,8.09,0.03,29.71
16061,0.2117,-0.0375,0.8843,-6.75,8.08,-0.05,29.68
16071,0.208,-0.0331,0.8844,-6.73,8.08,-0.05,29.72
16081,0.207,-0.0304,0.8824,-6.72,8.2,-0.03,29.69
16091,0.2064,-0.0273,0.8864,-6.73,7.98,-0.02,29.69
16101,0.198,-0.0312,0.8947,-6.79,8.38,-0.02,29.7
16111,0.204,-0.0356,0.8883,-6.66,8.21,-0.11,29.71
16121,0.2081,-0.0361,0.8883,-6.72,7.85,-0.03,29.68
16131,0.2194,-0.0317,0.89,-6.73,7.68,-0.05,29.69
16141,0.2048,-0.0355,0.879,-6.69,7.89,-0.08,29.66
16151,0.2338,-0.0328,0.8937,-6.75,7.68,-0.09,29.68
16161,0.2166,-0.0299,0.8788,-6.76,7.53,0.02,29.7
16171,0.2366,-0.0317,0.8696,-6.66,7.34,-0.02,29.72
16181,0.2218,-0.0465,0.8722,-6.56,7.63,-0.06,29.69
16191,0.2338,-0.0385,0.8732,-6.72,7.36,0.02,29.69
16201,0.231,-0.0311,0.8804,-6.78,8.11,-0.02,29.69
16211,0.2234,-0.0288,0.8711,-6.69,7.86,-0.03,29.69
16221,0.2236,-0.022,0.8842,-6.79,8.0,0.0,29.68
16231,0.2021,-0.0272,0.8875,-6.69,8.63,-0.12,29.68
16241,0.2053,-0.0348,0.8788,-6.73,7.91,-0.11,29.69
16251,0.2078,-0.0294,0.8986,-6.69,8.0,-0.05,29.67
16261,0.2159,-0.0275,0.8997,-6.81,8.27,-0.05,29.69
16271,0.2064,-0.0371,0.8711,-6.79,7.98,0.0,29.7
16281,0.2046,-0.0342,0.886,-6.64,7.77,-0.09,29.69
16291,0.2166,-0.0317,0.8945,-6.73,7.89,-0.03,29.66
16301,0.2122,-0.0387,0.8834,-6.73,7.94,-0.09,29.69
16311,0.2211,-0.0381,0.8844,-6.72,7.77,-0.05,29.68
16321,0.224,-0.0338,0.8911,-6.75,7.94,-0.03,29.7
16331,0.2144,-0.0336,0.8828,-6.72,7.98,-0.06,29.69
16341,0.2146,-0.0344,0.8884,-6.64,7.94,-0.06,29.68
16351,0.2173,-0.0322,0.8862,-6.72,7.95,-0.06,29.69
16361,0.2139,-0.0325,0.8806,-6.7,7.98,-0.05,29.68
16371,0.2152,-0.0319,0.8866,-6.72,8.08,-0.02,29.69
16381,0.2123,-0.0283,0.8871,-6.72,8.03,-0.03,29.69
16391,0.2095,-0.0321,0.8829,-6.69,7.95,-0.08,29.71
16401,0.2166,-0.0359,0.8943,-6.66,7.88,-0.06,29.7
16411,0.2135,-0.0358,0.8868,-6.75,7.86,-0.08,29.7
16421,0.2153,-0.0402,0.8877,-6.7,7.95,-0.06,29.7
16431,0.2162,-0.036,0.8885,-6.73,7.89,-0.02,29.69
16441,0.2158,-0.03,0.8894,-6.76,7.98,-0.03,29.69
16451,0.2125,-0.037,0.8817,-6.66,7.88,-0.09,29.68
16461,0.2164,-0.0359,0.8906,-6.63,7.89,0.0,29.7
16471,0.2152,-0.0353,0.8839,-6.69,7.92,-0.08,29.71
16481,0.2104,-0.038,0.8812,-6.63,7.92,-0.09,29.7
16491,0.2169,-0.0283,0.8944,-6.67,7.89,-0.05,29.69
16501,0.2124,-0.0253,0.8884,-6.66,8.02,-0.06,29.69
16511,0.213,-0.0321,0.8884,-6.7,7.97,-0.08,29.73
16521,0.2142,-0.0339,0.8962,-6.66,7.88,-0.08,29.67
16531,0.2151,-0.0299,0.8921,-6.67,8.02,-0.06,29.69
16541,0.2148,-0.0375,0.8875,-6.75,7.97,-0.08,29.71
16551,0.2133,-0.0374,0.8889,-6.76,7.94,-0.05,29.68
16561,0.2159,-0.0353,0.8812,-6.7,7.98,0.0,29.69
16571,0.2147,-0.0363,0.8855,-6.69,7.92,-0.03,29.69
16581,0.2146,-0.0394,0.8861,-6.72,7.88,-0.02,29.69
16591,0.2102,-0.0327,0.8876,-6.7,7.98,-0.06,29.68
16601,0.2089,-0.0371,0.8809,-6.72,7.92,-0.03,29.69
16611,0.2113,-0.0361,0.8813,-6.69,7.86,-0.03,29.7
16621,0.2102,-0.032,0.8879,-6.66,7.92,-0.02,29.69
16631,0.2134,-0.0336,0.887,-6.67,7.86,-0.05,29.73
16641,0.2135,-0.0321,0.8882,-6.61,7.92,-0.05,29.71
16651,0.2148,-0.0311,0.8895,-6.72,7.85,-0.08,29.7
16661,0.2151,-0.0336,0.8915,-6.7,7.86,-0.15,29.68
16671,0.2217,-0.0303,0.892,-6.72,7.95,-0.02,29.69
16681,0.2177,-0.032,0.8906,-6.79,7.95,-0.08,29.72
16691,0.2161,-0.0378,0.8845,-6.7,7.98,-0.03,29.71
16701,0.2175,-0.0385,0.8845,-6.72,8.0,-0.03,29.71
16711,0.2097,-0.0364,0.8857,-6.75,8.0,-0.05,29.7
16721,0.205,-0.0374,0.8822,-6.69,7.92,-0.03,29.7
16731,0.2075,-0.0371,0.8843,-6.72,7.88,-0.05,29.71
16741,0.2113,-0.0358,0.8864,-6.73,7.85,-0.05,29.72
16751,0.2131,-0.0316,0.8903,-6.66,7.89,-0.12,29.7
16761,0.2175,-0.027,0.89,-6.67,7.89,-0.03,29.69
16771,0.2214,-0.0295,0.8901,-6.7,7.94,-0.09,29.71
16781,0.2247,-0.0273,0.8905,-6.79,7.91,-0.08,29.71
16791,0.219,-0.0272,0.8904,-6.75,7.97,-0.09,29.72
16801,0.2168,-0.0322,0.8827,-6.72,7.97,-0.11,29.7
16811,0.2137,-0.0344,0.8815,-6.7,7.97,0.06,29.73
16821,0.2137,-0.0393,0.8845,-6.7,7.91,0.05,29.69
16831,0.2097,-0.04,0.8893,-6.79,8.02,-0.05,29.7
16841,0.2102,-0.0413,0.8942,-6.81,7.89,0.03,29.74
16851,0.2119,-0.0372,0.8914,-6.79,7.91,-0.06,29.71
16861,0.2146,-0.0355,0.8878,-6.79,8.0,0.02,29.71
16871,0.2137,-0.035,0.891,-6.78,8.05,0.0,29.73
16881,0.2145,-0.0339,0.8823,-6.63,8.0,-0.05,29.73
16891,0.2128,-0.0378,0.8864,-6.69,8.0,-0.09,29.7
16901,0.2148,-0.0376,0.8832,-6.79,7.88,-0.09,29.7
16911,0.2152,-0.0326,0.8845,-6.69,8.02,-0.08,29.7
16921,0.2153,-0.0286,0.8861,-6.7,7.97,-0.08,29.72
16931,0.2163,-0.0305,0.8894,-6.76,7.97,-0.02,29.7
16941,0.2151,-0.027,0.8927,-6.78,7.92,-0.06,29.72
16951,0.2125,-0.0267,0.8896,-6.75,7.91,-0.09,29.69
16961,0.213,-0.0319,0.8833,-6.73,7.89,-0.09,29.72
16971,0.2126,-0.0374,0.8846,-6.85,7.94,-0.03,29.71
16981,0.2153,-0.0378,0.8868,-6.69,7.92,-0.09,29.7
16991,0.2129,-0.0421,0.8871,-6.78,7.91,0.03,29.72
17001,0.2152,-0.0372,0.8898,-6.75,7.97,0.02,29.7
17011,0.2168,-0.0349,0.8901,-6.63,7.98,-0.05,29.7
17021,0.2241,-0.0352,0.8896,-6.64,7.97,-0.06,29.7
17031,0.2217,-0.0339,0.891,-6.73,8.05,-0.09,29.73
17041,0.2185,-0.0305,0.8857,-6.72,8.14,-0.06,29.7
17051,0.2142,-0.0325,0.8853,-6.76,8.05,-0.05,29.73
17061,0.2106,-0.0302,0.8865,-6.7,8.11,0.0,29.72
17071,0.2073,-0.0303,0.8785,-6.7,8.08,0.0,29.71
17081,0.2046,-0.0303,0.8828,-6.75,7.88,0.0,29.72
17091,0.202,-0.0298,0.8868,-6.84,7.95,0.03,29.72
17101,0.205,-0.0308,0.8889,-6.79,7.89,0.0,29.73
17111,0.2118,-0.033,0.8914,-6.73,7.97,0.03,29.71
17121,0.2148,-0.0319,0.8873,-6.73,7.95,-0.06,29.71
17131,0.2192,-0.0322,0.8865,-6.66,7.95,-0.08,29.7
17141,0.2212,-0.0372,0.8855,-6.78,8.0,-0.03,29.72
17151,0.2207,-0.0365,0.8823,-6.75,8.08,-0.05,29.73
17161,0.2175,-0.0413,0.8773,-6.58,8.06,-0.06,29.72
17171,0.2161,-0.0389,0.8826,-6.63,8.03,-0.05,29.71
17181,0.2129,-0.0349,0.8884,-6.67,8.0,-0.03,29.73
17191,0.2134,-0.0341,0.8926,-6.78,7.97,0.0,29.71
17201,0.213,-0.0271,0.8926,-6.73,7.98,0.0,29.75
17211,0.2114,-0.0255,0.8914,-6.78,8.0,-0.05,29.72
17221,0.212,-0.0272,0.8879,-6.73,7.95,-0.08,29.73
17231,0.214,-0.035,0.8866,-6.78,7.95,-0.05,29.72
17241,0.2126,-0.0352,0.8835,-6.72,7.94,-0.06,29.72
17251,0.2094,-0.0394,0.881,-6.67,7.89,-0.06,29.74
17261,0.2101,-0.0424,0.8778,-6.79,7.98,-0.12,29.72
17271,0.2124,-0.0393,0.8862,-6.75,7.95,-0.02,29.73
17281,0.2148,-0.0353,0.8833,-6.66,7.91,-0.05,29.72
17292,0.2035,-0.0389,0.8823,-6.58,7.92,-0.03,29.72
17302,0.2173,-0.0259,0.8971,-6.58,7.89,0.02,29.7
17312,0.2134,-0.0267,0.9069,-6.61,8.29,-0.06,29.7
17325,0.2234,-0.0321,0.8907,-6.84,7.91,-0.08,29.71
17335,0.2134,-0.03,0.8914,-6.73,7.97,-0.08,29.73
17345,0.2183,-0.0314,0.9017,-6.78,7.95,-0.05,29.71
17355,0.22,-0.0345,0.8895,-6.76,8.03,-0.11,29.7
17365,0.2094,-0.0392,0.868,-6.69,7.89,-0.05,29.72
17375,0.2096,-0.0361,0.873,-6.72,7.76,-0.02,29.72
17385,0.2126,-0.0331,0.8872,-6.73,7.94,0.03,29.73
17395,0.2133,-0.0284,0.8827,-6.82,8.11,0.0,29.75
17405,0.2131,-0.0393,0.8928,-6.75,7.95,-0.02,29.73
17415,0.2244,-0.0377,0.8992,-6.75,7.8,-0.09,29.74
17425,0.2214,-0.0403,0.9015,-6.61,8.17,-0.02,29.72
17435,0.2191,-0.0334,0.8936,-6.73,8.14,-0.03,29.71
17445,0.2219,-0.0345,0.886,-6.7,7.89,-0.06,29.73
17455,0.2145,-0.035,0.8914,-6.87,8.05,-0.02,29.7
17465,0.2067,-0.0332,0.8844,-6.78,8.02,-0.06,29.72
17475,0.2042,-0.0286,0.8815,-6.78,8.06,-0.05,29.71
17488,0.2097,-0.0319,0.8755,-6.72,7.74,-0.05,29.73
17498,0.2085,-0.0339,0.8833,-6.7,7.89,-0.08,29.73
17508,0.2155,-0.0333,0.8755,-6.72,7.89,-0.14,29.72
17518,0.2153,-0.0371,0.8812,-6.69,7.98,-0.06,29.72
17528,0.222,-0.0386,0.8885,-6.7,7.82,-0.06,29.71
17538,0.2231,-0.0396,0.8989,-6.79,7.83,0.0,29.74
17548,0.2196,-0.0298,0.9023,-6.73,8.08,-0.02,29.72
17558,0.2205,-0.0326,0.8966,-6.67,7.92,-0.08,29.72
17568,0.2159,-0.0365,0.899,-6.72,8.03,-0.02,29.72
17578,0.2163,-0.0328,0.8896,-6.75,8.0,-0.09,29.75
17588,0.212,-0.0323,0.8864,-6.73,7.89,-0.03,29.73
17598,0.204,-0.0305,0.8831,-6.76,8.08,-0.05,29.73
17608,0.207,-0.035,0.8857,-6.76,7.97,0.03,29.71
17618,0.2047,-0.0341,0.8818,-6.78,8.05,-0.08,29.72
17628,0.208,-0.037,0.8813,-6.73,8.05,-0.05,29.7
17638,0.2156,-0.0306,0.8809,-6.78,7.71,0.02,29.73
17648,0.225,-0.0319,0.8816,-6.69,7.74,0.02,29.71
17658,0.2218,-0.0336,0.8914,-6.79,7.94,-0.05,29.71
17668,0.2128,-0.0388,0.8939,-6.69,8.05,-0.08,29.72
17678,0.2219,-0.0396,0.8884,-6.78,7.89,-0.08,29.72
17688,0.2146,-0.0345,0.8915,-6.66,8.09,-0.02,29.71
17698,0.2097,-0.0292,0.884,-6.76,7.97,-0.05,29.72
17708,0.1992,-0.0347,0.8977,-6.7,8.27,-0.06,29.74
17718,0.2457,-0.0389,0.8638,-6.64,7.11,0.06,29.73
17728,0.2078,-0.032,0.874,-6.66,8.12,-0.06,29.73
17738,0.2198,-0.0278,0.8845,-6.73,8.0,-0.05,29.74
17748,0.2139,-0.0331,0.8818,-6.96,7.74,-0.12,29.73
17758,0.2183,-0.0149,0.8684,-6.76,7.94,-0.08,29.72
17768,0.1761,-0.0414,0.9343,-6.44,8.89,-0.08,29.75
17778,0.22,-0.0605,0.8734,-6.61,8.02,-0.09,29.72
17788,0.2301,-0.03,0.8942,-6.72,7.85,-0.03,29.73
17798,0.2057,-0.0217,0.8953,-6.76,7.97,0.02,29.73
17808,0.2141,-0.0275,0.8931,-6.73,7.88,-0.11,29.74
17818,0.213,-0.0321,0.8922,-6.79,8.17,-0.15,29.7
17828,0.213,-0.032,0.8895,-6.73,7.94,-0.03,29.7
17838,0.2131,-0.0312,0.8873,-6.76,8.09,-0.05,29.73
17848,0.2089,-0.0297,0.8876,-6.73,8.02,0.0,29.72
17858,0.2201,-0.0229,0.8849,-6.79,8.0,-0.06,29.71
17868,0.2161,-0.0302,0.8867,-6.76,8.18,0.03,29.76
17878,0.2192,-0.0404,0.8783,-6.75,7.76,-0.03,29.74
17888,0.215,-0.0345,0.8942,-6.81,8.06,-0.03,29.74
17898,0.2178,-0.0363,0.8903,-6.75,8.02,-0.09,29.72
17908,0.2028,-0.0414,0.9075,-6.7,8.23,-0.12,29.74
17918,0.1865,-0.0216,0.932,-6.55,8.56,0.0,29.75
17928,0.2053,-0.0059,0.9181,-6.55,8.0,-0.05,29.72
17938,0.2113,-0.0261,0.8795,-6.96,7.92,-0.14,29.74
17948,0.2039,-0.0408,0.8733,-6.89,7.59,-0.09,29.74
17959,0.2173,-0.0454,0.8649,-6.75,7.6,-0.11,29.73
17969,0.215,-0.037,0.8967,-6.75,8.06,-0.03,29.74
17979,0.2109,-0.0337,0.8918,-6.69,8.17,0.06,29.73
17989,0.2091,-0.0364,0.8856,-6.66,8.02,-0.05,29.73
17999,0.2175,-0.0355,0.8921,-6.6,7.76,-0.08,29.73
18009,0.2202,-0.0353,0.8918,-6.79,7.91,-0.06,29.73
18019,0.2188,-0.0364,0.8806,-6.75,7.97,0.02,29.74
18029,0.217,-0.0366,0.8795,-6.69,7.71,-0.05,29.72
18039,0.2211,-0.0342,0.8922,-6.67,7.79,-0.11,29.73
18049,0.2172,-0.0342,0.8893,-6.61,8.06,0.02,29.74
18059,0.2126,-0.0372,0.8829,-6.64,8.09,-0.03,29.74
18069,0.2108,-0.0342,0.8815,-6.76,7.91,-0.05,29.76
18079,0.2115,-0.0304,0.8965,-6.72,8.02,-0.09,29.75
18089,0.2135,-0.0308,0.8904,-6.64,8.02,-0.09,29.73
18099,0.2111,-0.0364,0.8851,-6.69,7.97,-0.03,29.75
18109,0.2124,-0.0347,0.8881,-6.73,7.92,-0.03,29.76
18119,0.2151,-0.0358,0.8906,-6.72,7.97,-0.05,29.75
18129,0.2139,-0.0317,0.8781,-6.75,7.98,-0.05,29.76
18139,0.2157,-0.0348,0.8839,-6.73,7.89,-0.08,29.74
18149,0.2148,-0.0338,0.8885,-6.75,7.95,-0.02,29.72
18159,0.2153,-0.0355,0.8862,-6.72,7.92,-0.03,29.72
18169,0.2139,-0.0331,0.8867,-6.7,7.91,-0.06,29.75
18179,0.2144,-0.0287,0.8893,-6.73,7.92,-0.12,29.74
18189,0.2123,-0.0348,0.8868,-6.84,7.98,-0.08,29.76
18199,0.2148,-0.0297,0.8827,-6.82,7.86,-0.02,29.74
18209,0.2172,-0.0366,0.889,-6.64,7.95,-0.09,29.76
18219,0.2152,-0.0349,0.89,-6.78,7.85,-0.11,29.73
18229,0.2141,-0.0367,0.8911,-6.72,8.0,-0.11,29.77
18239,0.2125,-0.0321,0.8883,-6.7,7.95,-0.03,29.75
18249,0.2139,-0.0366,0.8864,-6.76,7.98,0.0,29.74
18259,0.2153,-0.0366,0.8879,-6.79,7.91,-0.06,29.75
18269,0.219,-0.0352,0.8821,-6.69,7.91,-0.09,29.74
18279,0.2136,-0.0326,0.8851,-6.7,7.92,-0.09,29.73
18289,0.214,-0.0317,0.8861,-6.7,7.98,-0.11,29.74
18299,0.2122,-0.0342,0.8888,-6.76,7.98,0.02,29.75
18309,0.2125,-0.0358,0.8822,-6.76,7.98,-0.02,29.74
18319,0.2098,-0.0365,0.891,-6.73,7.88,-0.06,29.74
18329,0.2136,-0.0348,0.8907,-6.75,7.91,-0.11,29.74
18339,0.2166,-0.0315,0.8972,-6.7,7.94,-0.05,29.72
18349,0.2157,-0.037,0.8893,-6.79,7.89,-0.06,29.77
18359,0.219,-0.0342,0.8864,-6.72,7.91,-0.05,29.76
18369,0.2128,-0.0303,0.8829,-6.66,7.92,0.02,29.73
18379,0.2141,-0.0316,0.8799,-6.72,8.02,0.02,29.74
18389,0.2126,-0.0352,0.8851,-6.76,8.0,0.06,29.73
18399,0.213,-0.033,0.8804,-6.69,7.85,0.03,29.75
18409,0.2131,-0.037,0.8854,-6.69,7.92,0.0,29.73
18419,0.2111,-0.0326,0.884,-6.63,7.89,-0.03,29.73
18429,0.2166,-0.0288,0.8893,-6.66,7.89,-0.05,29.75
18439,0.2177,-0.0325,0.8911,-6.69,7.85,0.0,29.74
18449,0.2186,-0.036,0.8925,-6.79,7.94,0.0,29.75
18459,0.2153,-0.0361,0.89,-6.7,7.92,-0.05,29.75
18469,0.2098,-0.0343,0.8927,-6.67,7.92,-0.06,29.72
18479,0.212,-0.0375,0.8901,-6.76,8.0,-0.09,29.75
18489,0.2113,-0.0349,0.8854,-6.7,7.94,-0.09,29.76
18499,0.2162,-0.0314,0.886,-6.73,7.92,-0.11,29.76
18509,0.2194,-0.0359,0.8837,-6.72,7.89,-0.05,29.76
18519,0.2167,-0.0323,0.8855,-6.82,7.92,-0.08,29.76
18529,0.2173,-0.0303,0.8893,-6.73,7.95,-0.02,29.75
18539,0.2145,-0.0326,0.8888,-6.7,8.0,0.03,29.76
18549,0.215,-0.0352,0.8848,-6.73,7.97,-0.06,29.75
18559,0.218,-0.0339,0.8899,-6.66,7.89,-0.03,29.78
18569,0.2133,-0.0348,0.8943,-6.78,8.02,-0.03,29.77
18579,0.2155,-0.0305,0.8931,-6.82,7.95,-0.03,29.75
18589,0.2139,-0.0323,0.8895,-6.76,7.98,-0.06,29.75
18599,0.2137,-0.0354,0.8896,-6.75,7.97,-0.06,29.78
18609,0.2139,-0.0325,0.8881,-6.7,8.06,-0.12,29.78
18619,0.2126,-0.038,0.8868,-6.82,8.0,-0.11,29.76
18629,0.2159,-0.0366,0.8893,-6.76,7.92,-0.02,29.77
18639,0.2186,-0.0349,0.8811,-6.72,7.98,-0.09,29.75
18649,0.214,-0.0336,0.8785,-6.7,8.0,-0.06,29.75
18659,0.2126,-0.0337,0.8864,-6.7,7.92,0.0,29.74
18669,0.2122,-0.0332,0.8859,-6.7,7.98,-0.06,29.75
18679,0.2112,-0.033,0.8805,-6.66,7.98,0.02,29.77
18689,0.2147,-0.0344,0.8835,-6.75,7.95,-0.03,29.76
18699,0.2122,-0.0334,0.8889,-6.67,7.97,-0.03,29.76
18709,0.2142,-0.0348,0.8898,-6.81,7.98,-0.08,29.77
18719,0.2148,-0.0349,0.892,-6.75,7.95,0.03,29.77
18729,0.2164,-0.0349,0.8914,-6.75,7.98,-0.03,29.75
18739,0.2194,-0.0339,0.8846,-6.7,7.91,-0.12,29.79
18749,0.2177,-0.033,0.8906,-6.72,8.05,-0.12,29.77
18759,0.2142,-0.0342,0.885,-6.64,7.92,-0.03,29.74
18769,0.2157,-0.0332,0.8872,-6.72,7.95,-0.03,29.74
18779,0.2141,-0.035,0.8849,-6.75,7.97,-0.05,29.77
18789,0.2144,-0.0323,0.8885,-6.75,7.95,-0.02,29.74
18799,0.2098,-0.0326,0.8896,-6.75,7.97,-0.06,29.74
18809,0.213,-0.0316,0.8838,-6.73,7.92,-0.05,29.77
18819,0.2094,-0.0312,0.8873,-6.73,7.97,-0.03,29.74
18829,0.2177,-0.0355,0.8813,-6.64,7.88,-0.02,29.74
18839,0.2141,-0.0354,0.886,-6.69,7.94,-0.08,29.75
18849,0.2153,-0.0349,0.8914,-6.78,7.89,0.0,29.74
18859,0.2155,-0.0344,0.8876,-6.78,7.86,-0.05,29.75
18869,0.2148,-0.0359,0.8872,-6.67,8.0,0.03,29.78
18879,0.2184,-0.0283,0.8781,-6.73,7.91,-0.03,29.77
18889,0.2142,-0.0311,0.8878,-6.72,7.88,-0.11,29.75
18899,0.2137,-0.0333,0.8833,-6.79,8.0,-0.09,29.75
18909,0.2148,-0.0355,0.8854,-6.69,7.95,-0.06,29.75
18919,0.2117,-0.0327,0.8888,-6.72,7.86,-0.02,29.74
18929,0.2159,-0.0295,0.887,-6.75,7.94,-0.03,29.74
18939,0.2146,-0.0353,0.8864,-6.76,7.94,-0.08,29.77
18949,0.2158,-0.0345,0.8899,-6.73,7.85,-0.06,29.76
18959,0.2168,-0.0338,0.8917,-6.82,7.94,-0.06,29.76
18969,0.2174,-0.0342,0.8865,-6.72,7.98,-0.02,29.75
18979,0.2151,-0.0399,0.8845,-6.78,7.92,0.0,29.74
18989,0.2147,-0.0374,0.8866,-6.7,7.98,-0.03,29.76
18999,0.2186,-0.0372,0.8854,-6.78,7.98,0.0,29.74
19009,0.2157,-0.0387,0.8839,-6.73,7.95,-0.05,29.75
19019,0.2109,-0.0336,0.8849,-6.69,7.94,-0.02,29.77
19029,0.2159,-0.0287,0.8853,-6.66,7.97,0.0,29.77
19039,0.2086,-0.0348,0.8872,-6.72,7.97,-0.08,29.76
19049,0.2125,-0.0288,0.8914,-6.79,8.06,-0.12,29.75
19059,0.213,-0.0349,0.8925,-6.66,8.17,-0.05,29.75
19069,0.2152,-0.0304,0.8827,-6.85,7.95,-0.02,29.76
19079,0.1606,0.0056,0.9673,-6.84,9.77,-0.14,29.75
19089,0.1902,-0.0227,0.8846,-6.66,7.42,0.03,29.77
19099,0.1517,-0.0437,0.9492,-6.67,10.05,-0.12,29.76
19109,0.1823,-0.0529,0.9103,-7.13,7.51,-0.02,29.74
19119,0.1729,-0.0481,0.9054,-6.53,8.08,0.03,29.75
19129,0.1527,-0.0365,0.9476,-6.61,8.67,-0.06,29.74
19139,0.1987,-0.0449,0.8851,-6.56,8.0,0.02,29.76
19149,0.1903,-0.0197,0.8884,-6.93,8.15,-0.11,29.73
19159,0.1848,-0.0189,0.897,-6.79,8.09,-0.06,29.76
19169,0.1993,-0.0278,0.906,-6.73,8.02,-0.11,29.76
19179,0.2148,-0.036,0.8962,-6.73,7.92,-0.08,29.74
19189,0.2179,-0.0303,0.8904,-6.64,7.62,-0.17,29.77
19199,0.2137,-0.0225,0.8885,-6.7,7.77,0.05,29.74
19209,0.213,-0.0341,0.885,-6.66,7.92,-0.06,29.77
19219,0.2206,-0.0336,0.8835,-6.76,7.77,-0.09,29.76
19229,0.2179,-0.0349,0.8818,-6.78,7.97,-0.03,29.71
19239,0.2135,-0.0387,0.8864,-6.76,7.88,0.03,29.75
19249,0.2133,-0.0352,0.8894,-6.69,7.98,-0.06,29.74
19259,0.2141,-0.0332,0.8857,-6.67,8.12,-0.05,29.73
19269,0.2152,-0.0365,0.886,-6.73,8.02,0.03,29.75
19279,0.2101,-0.0341,0.8932,-6.69,7.92,-0.08,29.77
19290,0.2142,-0.0316,0.8865,-6.67,7.97,-0.08,29.76
19300,0.2142,-0.0345,0.8934,-6.72,7.95,-0.09,29.76
19310,0.2151,-0.0355,0.8905,-6.76,7.92,-0.09,29.77
19320,0.2123,-0.0308,0.8887,-6.75,7.97,0.0,29.77
19330,0.2147,-0.0321,0.8842,-6.67,7.95,-0.05,29.74
19340,0.2146,-0.0344,0.8832,-6.76,7.94,-0.02,29.78
19350,0.212,-0.0321,0.8883,-6.81,7.95,-0.02,29.76
19360,0.2126,-0.0315,0.8909,-6.67,7.95,-0.08,29.74
19370,0.2142,-0.0365,0.8867,-6.72,7.92,-0.08,29.76
19380,0.2135,-0.0352,0.8844,-6.72,7.88,-0.03,29.78
19391,0.2174,-0.0342,0.8911,-6.76,7.97,-0.12,29.78
19401,0.2159,-0.0366,0.889,-6.7,8.03,0.02,29.75
19411,0.2169,-0.0365,0.8905,-6.72,7.92,0.0,29.75
19421,0.2139,-0.035,0.8905,-6.73,7.95,-0.06,29.75
19431,0.2156,-0.0333,0.8848,-6.75,7.88,-0.05,29.74
19441,0.2139,-0.0333,0.8889,-6.84,7.95,-0.03,29.76
19451,0.2155,-0.0309,0.8833,-6.73,7.91,-0.05,29.75
19461,0.2189,-0.0275,0.8713,-6.73,7.73,0.0,29.78
19471,0.2145,-0.0332,0.8877,-6.64,7.98,-0.05,29.77
19481,0.2168,-0.0375,0.8873,-6.79,7.92,-0.08,29.74
19491,0.2157,-0.038,0.8873,-6.69,8.14,-0.11,29.76
19501,0.2173,-0.0369,0.8904,-6.72,7.97,-0.02,29.77
19511,0.2064,-0.0398,0.8903,-6.76,8.11,0.02,29.73
19521,0.2136,-0.0394,0.8842,-6.76,7.97,-0.02,29.76
19531,0.2094,-0.0372,0.8953,-6.76,8.12,-0.08,29.77
19541,0.2117,-0.0247,0.8864,-6.73,7.92,-0.11,29.79
19551,0.2097,-0.0353,0.8883,-6.61,7.85,-0.08,29.79
19561,0.2126,-0.0385,0.8923,-6.7,7.82,0.03,29.77
19571,0.2169,-0.0338,0.8848,-6.72,7.86,-0.03,29.77
19581,0.2156,-0.025,0.8781,-6.72,7.89,-0.03,29.76
19591,0.2186,-0.0297,0.8809,-6.78,7.83,-0.06,29.77
19601,0.217,-0.0278,0.8939,-6.79,7.98,-0.05,29.77
19611,0.2201,-0.0332,0.8861,-6.82,7.97,0.06,29.77
19621,0.2194,-0.0337,0.8889,-6.85,7.94,-0.02,29.74
19631,0.2157,-0.0341,0.8921,-6.76,7.97,-0.05,29.76
19641,0.2122,-0.0341,0.8905,-6.81,8.02,0.06,29.77
19651,0.2083,-0.0333,0.8856,-6.7,8.05,-0.08,29.78
19661,0.2131,-0.0388,0.8853,-6.78,7.85,-0.06,29.77
19671,0.2156,-0.0328,0.8864,-6.7,7.95,-0.05,29.74
19681,0.2159,-0.0343,0.8855,-6.67,8.0,-0.09,29.75
19691,0.2162,-0.0298,0.8834,-6.69,7.94,-0.03,29.75
19701,0.215,-0.0293,0.8899,-6.73,8.03,-0.06,29.77
19711,0.2131,-0.0283,0.8885,-6.73,8.02,-0.03,29.75
19721,0.2177,-0.0309,0.8887,-6.78,7.94,0.0,29.78
19731,0.2152,-0.0309,0.8892,-6.81,7.94,-0.06,29.76
19741,0.2157,-0.0347,0.8895,-6.82,7.95,-0.08,29.77
19751,0.2166,-0.0319,0.8861,-6.82,8.02,-0.06,29.77
19761,0.2124,-0.0344,0.8898,-6.85,7.95,0.02,29.76
19771,0.2164,-0.0325,0.89,-6.85,7.94,0.02,29.8
19781,0.2146,-0.0386,0.8884,-6.85,7.94,0.0,29.77
19791,0.2118,-0.0393,0.8866,-6.73,7.97,-0.08,29.75
19801,0.2114,-0.0406,0.8882,-6.75,7.94,-0.11,29.75
19811,0.2123,-0.0398,0.8849,-6.72,7.97,-0.09,29.75
19821,0.215,-0.0347,0.8862,-6.66,7.92,-0.02,29.72
19831,0.213,-0.032,0.8889,-6.66,7.98,-0.05,29.77
19841,0.2136,-0.0317,0.8866,-6.73,8.05,-0.06,29.77
19851,0.2153,-0.0309,0.891,-6.75,8.11,-0.05,29.77
19861,0.2151,-0.0264,0.891,-6.73,8.02,-0.08,29.77
19871,0.2152,-0.0278,0.8904,-6.7,8.02,0.02,29.77
19881,0.2167,-0.0212,0.8879,-6.85,7.97,0.02,29.79
19891,0.2103,-0.0333,0.8916,-6.84,8.18,-0.03,29.75
19901,0.2139,-0.0289,0.8798,-6.87,7.92,0.02,29.77
19911,0.2119,-0.0333,0.8831,-6.85,8.02,-0.02,29.77
19921,0.2175,-0.0328,0.8866,-6.93,7.94,-0.06,29.76
19931,0.2133,-0.0432,0.8823,-6.82,8.03,-0.06,29.79
19941,0.2195,-0.0442,0.8767,-6.84,7.76,0.02,29.75
19951,0.2195,-0.0432,0.8842,-6.79,7.88,-0.08,29.74
19961,0.2136,-0.0439,0.8892,-6.82,8.08,-0.03,29.76
19971,0.2157,-0.0481,0.889,-6.67,7.98,-0.05,29.74
19981,0.2203,-0.038,0.8983,-6.76,7.89,-0.02,29.76
19991,0.2177,-0.0314,0.8899,-6.81,7.97,-0.05,29.74
20001,0.2113,-0.0331,0.882,-6.73,8.15,-0.11,29.78
20011,0.2112,-0.03,0.8944,-6.7,7.98,-0.11,29.78
20021,0.2214,-0.0319,0.8839,-6.7,7.86,-0.09,29.78
20031,0.2123,-0.0331,0.8865,-6.75,7.92,-0.02,29.78
20041,0.2131,-0.0328,0.8866,-6.75,7.94,-0.09,29.77
20051,0.2207,-0.0304,0.8843,-6.64,7.92,0.02,29.77
20061,0.2162,-0.0309,0.8904,-6.73,8.24,-0.09,29.78
20071,0.2136,-0.0413,0.8789,-6.67,8.02,-0.08,29.77
20081,0.2074,-0.0382,0.885,-6.73,8.03,-0.06,29.76
20091,0.2104,-0.035,0.891,-6.64,7.94,0.0,29.78
20101,0.2086,-0.0356,0.8927,-6.78,8.12,-0.05,29.77
20111,0.2153,-0.0391,0.8776,-6.72,7.85,-0.08,29.77
20121,0.2094,-0.035,0.8956,-6.73,8.03,-0.09,29.78
20131,0.2225,-0.0339,0.892,-6.76,7.92,-0.11,29.75
20141,0.2156,-0.036,0.8832,-6.75,7.98,-0.11,29.76
20151,0.2083,-0.0269,0.8794,-6.67,7.86,0.0,29.77
20161,0.2131,-0.0221,0.8937,-6.75,8.09,-0.05,29.79
20171,0.2133,-0.0188,0.8933,-6.78,8.08,-0.12,29.77
20181,0.2124,-0.0277,0.8816,-6.75,7.95,-0.11,29.78
20191,0.2196,-0.0372,0.8851,-6.79,7.68,-0.12,29.78
20201,0.2205,-0.0367,0.8885,-6.75,7.92,0.0,29.77
20211,0.2167,-0.0339,0.8851,-6.72,8.06,0.05,29.77
20221,0.2155,-0.0331,0.8811,-6.76,7.97,-0.05,29.82
20231,0.2146,-0.0337,0.8907,-6.61,7.95,0.0,29.78
20241,0.2125,-0.0374,0.8875,-6.81,8.06,-0.09,29.79
20251,0.2139,-0.0355,0.8833,-6.76,8.03,0.0,29.78
20261,0.2151,-0.0356,0.8872,-6.72,7.86,-0.09,29.79
20271,0.2135,-0.0345,0.894,-6.7,8.05,-0.05,29.78
20281,0.2151,-0.0292,0.8905,-6.72,8.06,-0.06,29.77
20291,0.2126,-0.0331,0.8844,-6.67,8.0,-0.09,29.78
20301,0.2155,-0.0316,0.8898,-6.67,7.88,-0.06,29.8
20311,0.2147,-0.0297,0.8884,-6.75,7.95,-0.06,29.77
20321,0.2139,-0.0322,0.8888,-6.72,7.92,-0.09,29.78
20331,0.2145,-0.032,0.8888,-6.72,7.97,-0.08,29.79
20341,0.2152,-0.0302,0.8865,-6.76,8.0,-0.08,29.79
20351,0.2134,-0.036,0.885,-6.72,8.05,-0.06,29.8
20361,0.2141,-0.0372,0.8866,-6.76,7.95,-0.05,29.78
20371,0.2161,-0.0364,0.8831,-6.75,7.91,-0.03,29.8
20381,0.2126,-0.0383,0.887,-6.72,8.02,-0.05,29.81
20391,0.2134,-0.0372,0.8939,-6.66,7.97,0.02,29.77
20401,0.2186,-0.0339,0.8875,-6.79,7.91,-0.03,29.81
20411,0.2178,-0.0323,0.8923,-6.75,8.03,-0.02,29.79
20421,0.2155,-0.0327,0.8909,-6.75,8.03,-0.02,29.78
20431,0.2107,-0.0311,0.887,-6.72,7.91,-0.15,29.78
20441,0.2134,-0.0326,0.8898,-6.66,7.92,-0.02,29.8
20451,0.2128,-0.0347,0.8882,-6.75,8.0,-0.05,29.78
20461,0.2152,-0.0338,0.8875,-6.76,7.98,-0.11,29.78
20471,0.2184,-0.0331,0.9003,-6.75,7.94,-0.05,29.77
20481,0.2828,-0.0389,0.8341,-6.66,5.88,0.08,29.78
20491,0.2764,-0.0521,0.8099,-6.49,5.91,0.03,29.77
20501,0.2373,-0.0376,0.8983,-6.69,6.79,0.06,29.79
20511,0.2314,-0.0273,0.8643,-6.75,7.45,0.0,29.8
20521,0.2341,-0.0282,0.871,-6.52,7.63,-0.09,29.79
20531,0.2267,-0.0327,0.873,-6.87,7.57,-0.09,29.8
20541,0.235,-0.0277,0.8853,-6.78,7.86,-0.08,29.79
20551,0.2134,-0.0398,0.8859,-6.81,7.98,-0.05,29.79
20561,0.2164,-0.0292,0.8877,-6.72,7.91,-0.05,29.8
20571,0.2145,-0.0258,0.9017,-6.84,8.03,0.03,29.79
20581,0.2141,-0.0342,0.8871,-6.79,8.14,0.0,29.79
20591,0.2104,-0.0336,0.8812,-6.78,7.97,-0.02,29.79
20601,0.218,-0.0299,0.8938,-6.7,7.83,-0.02,29.79
20611,0.217,-0.0311,0.8998,-6.7,8.02,-0.06,29.77
20621,0.2057,-0.0376,0.8879,-6.75,8.14,-0.02,29.78
20631,0.21,-0.0365,0.8849,-6.7,7.86,0.03,29.78
20641,0.214,-0.0363,0.8918,-6.73,7.83,-0.02,29.81
20651,0.2177,-0.03,0.8857,-6.78,7.94,-0.05,29.79
20661,0.2152,-0.0314,0.8807,-6.72,7.92,0.03,29.79
20671,0.2168,-0.0302,0.8875,-6.73,7.77,-0.02,29.77
20681,0.2173,-0.0314,0.89,-6.75,7.97,-0.05,29.78
20691,0.2137,-0.0365,0.8777,-6.76,7.98,0.03,29.79
20701,0.2141,-0.0356,0.8838,-6.73,7.89,-0.03,29.79
20711,0.2185,-0.0332,0.8937,-6.76,7.95,0.02,29.8
20721,0.2145,-0.0322,0.8845,-6.7,7.97,0.0,29.81
20731,0.2129,-0.0356,0.879,-6.67,7.85,-0.03,29.83
20741,0.2181,-0.032,0.892,-6.75,7.92,-0.09,29.78
20751,0.2245,-0.0342,0.8881,-6.67,7.8,-0.08,29.79
20761,0.2034,-0.0378,0.902,-6.67,8.11,-0.03,29.78
20771,0.2073,-0.0358,0.8977,-6.73,8.24,-0.09,29.79
20781,0.2148,-0.0316,0.8973,-6.67,8.05,-0.05,29.81
20791,0.2129,-0.0327,0.8865,-6.78,7.91,-0.08,29.81
20801,0.2107,-0.0331,0.8818,-6.81,7.8,0.05,29.81
20811,0.2162,-0.0372,0.8827,-6.73,7.86,0.02,29.8
20821,0.2184,-0.0332,0.88,-6.73,7.91,-0.06,29.79
20831,0.2108,-0.0352,0.8815,-6.78,7.91,-0.08,29.81
20841,0.2124,-0.0353,0.8867,-6.63,8.03,-0.06,29.8
20851,0.212,-0.0326,0.8926,-6.79,7.97,-0.03,29.8
20861,0.2125,-0.0319,0.8955,-6.81,8.03,0.0,29.8
20871,0.2167,-0.0293,0.8973,-6.75,8.02,0.02,29.8
20881,0.217,-0.0332,0.8962,-6.81,8.05,-0.11,29.8
20891,0.2136,-0.0322,0.8945,-6.82,8.06,-0.06,29.81
20901,0.2128,-0.0348,0.8947,-6.7,8.2,-0.06,29.8
20911,0.2081,-0.0347,0.8861,-6.75,8.06,-0.05,29.79
20921,0.2089,-0.0325,0.8896,-6.75,7.98,-0.05,29.77
20931,0.2102,-0.0328,0.8857,-6.75,7.95,-0.02,29.79
20941,0.2119,-0.0327,0.8817,-6.69,7.94,-0.06,29.79
20951,0.2103,-0.0344,0.8851,-6.75,7.95,0.03,29.79
20961,0.2098,-0.0297,0.8861,-6.82,7.94,-0.03,29.76
20971,0.2137,-0.0341,0.8907,-6.75,8.0,0.0,29.8
20981,0.2169,-0.0361,0.889,-6.78,7.94,-0.14,29.79
20991,0.2164,-0.032,0.8912,-6.7,7.91,0.02,29.79
21001,0.2159,-0.0338,0.8918,-6.69,7.95,-0.11,29.78
21011,0.2109,-0.0371,0.8868,-6.7,7.98,-0.03,29.81
21021,0.2136,-0.0342,0.8856,-6.79,7.89,-0.05,29.78
21031,0.2166,-0.0314,0.8868,-6.66,7.97,0.02,29.79
21041,0.2168,-0.0341,0.8838,-6.61,7.95,-0.06,29.79
21051,0.2124,-0.0327,0.886,-6.7,7.95,0.03,29.79
21061,0.2113,-0.0314,0.8827,-6.78,7.92,-0.11,29.79
21071,0.2142,-0.0333,0.8848,-6.67,8.0,-0.05,29.81
21081,0.2156,-0.0366,0.88,-6.84,7.98,-0.06,29.78
21091,0.2141,-0.0367,0.8862,-6.75,7.97,-0.03,29.8
21101,0.2175,-0.0325,0.892,-6.76,7.97,-0.03,29.79
21111,0.2158,-0.032,0.8911,-6.76,7.91,0.0,29.77
21121,0.217,-0.0317,0.8892,-6.79,7.95,-0.02,29.81
21131,0.2145,-0.0349,0.8854,-6.73,7.97,-0.05,29.78
21141,0.2153,-0.0339,0.8861,-6.72,7.91,-0.09,29.81
21151,0.2118,-0.0356,0.8823,-6.73,7.92,-0.09,29.79
21161,0.2119,-0.0382,0.887,-6.78,7.98,0.0,29.78
21171,0.2148,-0.0343,0.8842,-6.72,7.92,-0.02,29.78
21181,0.2136,-0.0334,0.8872,-6.7,7.94,-0.08,29.77
21191,0.2158,-0.0321,0.8855,-6.72,7.98,0.0,29.78
21201,0.2164,-0.0327,0.8884,-6.75,7.95,-0.03,29.81
21211,0.215,-0.0322,0.887,-6.76,8.02,-0.05,29.8
21221,0.213,-0.0326,0.8879,-6.66,7.92,-0.11,29.79
21231,0.2142,-0.0353,0.8872,-6.67,7.92,-0.02,29.79
21241,0.2148,-0.0325,0.8848,-6.81,7.94,-0.09,29.8
21251,0.2134,-0.0349,0.8862,-6.7,7.95,-0.05,29.79
21261,0.2123,-0.0345,0.8867,-6.75,7.97,-0.08,29.81
21271,0.2114,-0.0342,0.8853,-6.75,8.02,-0.05,29.8
21281,0.2085,-0.0332,0.8859,-6.67,7.98,-0.05,29.83
21294,0.2141,-0.0347,0.8855,-6.75,8.05,0.0,29.77
21304,0.2113,-0.0352,0.8854,-6.7,7.92,0.03,29.79
21314,0.2152,-0.04,0.8906,-6.69,8.0,-0.03,29.81
21324,0.2151,-0.0332,0.8909,-6.69,7.85,-0.14,29.8
21334,0.2164,-0.0323,0.8895,-6.72,7.89,-0.05,29.81
21344,0.2152,-0.0299,0.8879,-6.75,8.08,-0.12,29.8
21354,0.2156,-0.0327,0.887,-6.69,7.98,-0.06,29.79
21364,0.215,-0.0293,0.8839,-6.76,7.95,-0.03,29.8
21374,0.2146,-0.032,0.8857,-6.72,7.95,-0.03,29.79
21384,0.2141,-0.0352,0.8838,-6.73,7.95,-0.05,29.82
21394,0.2095,-0.036,0.8839,-6.73,8.0,0.02,29.81
21404,0.2133,-0.0352,0.8872,-6.66,7.92,-0.03,29.8
21414,0.2144,-0.0358,0.8821,-6.73,7.95,0.0,29.8
21424,0.2156,-0.0371,0.8871,-6.7,7.89,0.06,29.8
21434,0.2133,-0.0369,0.8884,-6.72,7.97,-0.02,29.79
21444,0.2172,-0.0337,0.89,-6.64,8.02,-0.05,29.8
21454,0.2162,-0.0314,0.89,-6.75,7.89,-0.05,29.81
21465,0.2186,-0.0332,0.8888,-6.69,7.97,-0.08,29.8
21475,0.2136,-0.0342,0.8888,-6.73,7.95,-0.06,29.8
21485,0.2129,-0.0343,0.8871,-6.72,8.03,-0.08,29.81
21495,0.2115,-0.03,0.885,-6.67,7.97,-0.06,29.8
21505,0.2134,-0.0354,0.8861,-6.72,7.92,-0.03,29.81
21515,0.2102,-0.0308,0.8828,-6.76,7.91,-0.03,29.79
21526,0.2148,-0.036,0.8804,-6.81,7.91,-0.03,29.8
21536,0.2186,-0.0354,0.8905,-6.72,7.95,-0.05,29.82
21546,0.2146,-0.0352,0.8906,-6.72,7.94,-0.08,29.81
21556,0.2175,-0.0356,0.8918,-6.7,7.86,-0.11,29.83
21566,0.2186,-0.0356,0.8899,-6.75,7.92,-0.09,29.83
21576,0.2148,-0.0343,0.8872,-6.78,8.0,-0.06,29.8
21586,0.2131,-0.0363,0.8883,-6.67,8.0,-0.03,29.8
21596,0.21,-0.0336,0.8855,-6.69,7.92,-0.03,29.81
21606,0.2109,-0.0287,0.8873,-6.75,8.0,-0.11,29.78
21616,0.2118,-0.0312,0.8889,-6.79,7.94,-0.05,29.82
21626,0.2135,-0.0297,0.8826,-6.78,7.91,0.02,29.79
21636,0.2102,-0.0309,0.8873,-6.79,7.95,0.0,29.82
21646,0.2141,-0.0336,0.8846,-6.72,7.92,-0.03,29.82
21656,0.218,-0.0326,0.8857,-6.78,7.92,-0.08,29.81
21666,0.2161,-0.0344,0.8872,-6.79,7.98,-0.02,29.81
21676,0.217,-0.033,0.8921,-6.7,7.94,0.08,29.84
21686,0.2157,-0.0316,0.8899,-6.7,8.05,-0.02,29.8
21696,0.2139,-0.0323,0.8892,-6.82,7.97,-0.03,29.82
21706,0.2136,-0.0369,0.887,-6.67,8.05,-0.08,29.81
21716,0.2128,-0.0326,0.8871,-6.66,8.03,-0.12,29.82
21726,0.215,-0.0327,0.8875,-6.69,7.98,-0.05,29.81
21736,0.2113,-0.036,0.8806,-6.72,7.94,0.03,29.81
21746,0.2168,-0.0333,0.8889,-6.75,7.86,-0.02,29.81
21756,0.2128,-0.0344,0.8854,-6.75,7.88,-0.03,29.8
21766,0.2157,-0.0321,0.8868,-6.75,7.97,0.0,29.81
21776,0.2087,-0.0354,0.8917,-6.7,8.06,-0.06,29.79
21786,0.2117,-0.0331,0.8901,-6.79,7.97,-0.09,29.8
21796,0.2123,-0.033,0.8878,-6.7,7.94,0.0,29.83
21806,0.2129,-0.0349,0.8922,-6.78,7.97,-0.05,29.81
21816,0.2151,-0.0349,0.8839,-6.81,7.89,-0.09,29.8
21827,0.2146,-0.0343,0.8859,-6.78,8.02,-0.11,29.81
21837,0.2139,-0.0377,0.8856,-6.69,7.92,-0.06,29.82
21847,0.2135,-0.032,0.8899,-6.73,8.08,-0.08,29.83
21857,0.214,-0.0333,0.889,-6.67,7.95,-0.11,29.83
21867,0.2158,-0.0361,0.8854,-6.7,7.97,-0.06,29.8
21877,0.2142,-0.033,0.8844,-6.76,7.98,0.0,29.83
21887,0.2152,-0.0337,0.8914,-6.67,7.91,-0.15,29.81
21897,0.2137,-0.0319,0.8867,-6.73,7.94,-0.09,29.8
21907,0.2135,-0.0316,0.8888,-6.7,7.83,0.0,29.81
21917,0.2084,-0.0304,0.8857,-6.7,8.0,-0.05,29.8
21927,0.2047,-0.0312,0.8601,-6.6,7.54,-0.06,29.82
21937,0.2086,-0.0271,0.8862,-6.81,8.18,-0.09,29.84
21947,0.2242,-0.0404,0.8855,-6.85,8.03,-0.06,29.81
21957,0.2496,-0.0422,0.9041,-7.02,7.85,-0.17,29.8
21967,0.2352,-0.0402,0.9077,-6.72,7.8,-0.12,29.84
21977,0.2412,-0.0409,0.9034,-6.79,8.23,-0.06,29.78
21987,0.2238,-0.0464,0.8849,-6.72,8.31,0.0,29.82
21997,0.2079,-0.0432,0.8762,-6.64,8.14,0.02,29.82
22007,0.2002,-0.0306,0.8818,-6.66,8.05,-0.02,29.8
22017,0.1917,-0.0334,0.8739,-6.64,8.15,-0.03,29.8
22027,0.1965,-0.0295,0.8744,-6.73,8.18,0.0,29.82
22037,0.199,-0.0267,0.8793,-6.84,7.74,-0.05,29.82
22047,0.2122,-0.0215,0.8788,-6.67,7.71,-0.06,29.81
22057,0.2145,-0.0312,0.8867,-6.75,7.76,-0.06,29.81
22067,0.2196,-0.0278,0.8866,-6.75,7.82,-0.17,29.81
22077,0.2231,-0.032,0.889,-6.78,7.92,-0.11,29.78
22087,0.2211,-0.0378,0.8918,-6.66,8.05,0.02,29.81
22097,0.2191,-0.0444,0.8899,-6.72,7.97,-0.02,29.8
22107,0.2188,-0.041,0.8934,-6.73,7.89,0.0,29.79
22117,0.2064,-0.0336,0.8964,-6.66,7.89,-0.05,29.81
22127,0.1964,-0.012,0.8916,-6.87,7.97,-0.11,29.81
22137,0.2036,-0.0201,0.8849,-6.87,7.83,-0.06,29.83
22147,0.2073,-0.0496,0.8855,-6.67,7.94,-0.08,29.83
22157,0.223,-0.0443,0.8823,-6.76,7.92,-0.17,29.82
22167,0.2277,-0.0475,0.8817,-6.49,8.09,-0.06,29.81
22177,0.2086,-0.0184,0.8878,-6.82,8.09,-0.06,29.83
22187,0.2303,-0.0177,0.8898,-6.96,8.46,0.05,29.82
22197,0.2086,-0.0825,0.8796,-6.69,7.88,0.09,29.83
22207,0.2316,-0.0145,0.8903,-6.7,7.74,-0.12,29.82
22217,0.2186,-0.0206,0.8972,-6.63,8.17,-0.02,29.82
22227,0.2148,-0.0358,0.8973,-6.73,7.88,0.17,29.82
22237,0.2216,-0.0331,0.9015,-6.79,7.94,-0.11,29.82
22247,0.2209,-0.021,0.896,-6.82,7.92,0.05,29.84
22257,0.2059,-0.0358,0.8943,-6.79,8.15,0.11,29.81
22267,0.203,-0.0378,0.89,-6.78,8.02,-0.09,29.82
22277,0.2007,-0.0214,0.8834,-6.73,8.02,-0.02,29.84
22287,0.2024,-0.0269,0.8711,-6.79,8.11,-0.05,29.82
22297,0.1978,-0.0409,0.8695,-6.67,7.88,0.0,29.82
22307,0.2028,-0.024,0.8748,-6.82,7.83,-0.18,29.82
22317,0.2158,-0.0404,0.8816,-6.75,7.89,-0.03,29.82
22327,0.2194,-0.0511,0.8892,-6.78,7.86,-0.05,29.79
22337,0.2228,-0.0402,0.9,-6.76,7.8,-0.11,29.82
22347,0.2301,-0.0299,0.9047,-6.84,8.0,-0.08,29.81
22357,0.2266,-0.0358,0.8977,-6.66,8.02,0.02,29.81
22367,0.2211,-0.0363,0.8907,-6.75,7.98,-0.05,29.84
22377,0.2229,-0.0245,0.8893,-6.67,8.03,-0.12,29.83
22387,0.2146,-0.0422,0.88,-6.69,8.05,-0.06,29.81
22397,0.2112,-0.0415,0.8792,-6.69,8.05,0.09,29.83
22407,0.2106,-0.0386,0.8728,-6.78,7.76,-0.02,29.82
22417,0.2148,-0.03,0.8839,-6.81,7.89,0.05,29.8
22427,0.2086,-0.0311,0.8873,-6.72,8.0,0.05,29.82
22437,0.2058,-0.0232,0.8824,-6.7,8.0,-0.09,29.82
22447,0.2069,-0.0253,0.8881,-6.76,8.0,-0.09,29.82
22457,0.2231,-0.0448,0.8781,-6.73,7.92,-0.06,29.83
22467,0.2294,-0.0396,0.8783,-6.85,7.57,-0.12,29.82
22477,0.2188,-0.0375,0.8799,-6.64,7.91,-0.14,29.82
22487,0.2209,-0.048,0.8959,-6.64,8.0,-0.05,29.82
22497,0.2292,-0.0364,0.8868,-6.73,7.98,-0.03,29.83
22507,0.2212,-0.0259,0.8885,-6.63,8.11,-0.08,29.82
22517,0.2131,-0.0281,0.8896,-6.67,8.15,-0.06,29.82
22527,0.2119,-0.0287,0.8875,-6.79,8.14,-0.09,29.84
22537,0.208,-0.0311,0.8893,-6.85,8.18,-0.11,29.8
22547,0.2112,-0.0333,0.882,-6.82,7.91,-0.02,29.85
22557,0.2073,-0.0322,0.889,-6.79,7.94,-0.09,29.82
22567,0.2104,-0.0325,0.8898,-6.73,8.0,-0.03,29.82
22577,0.2135,-0.0367,0.8916,-6.76,8.08,-0.08,29.82
22587,0.214,-0.0369,0.89,-6.67,7.89,-0.06,29.84
22597,0.2184,-0.0417,0.8939,-6.76,7.86,-0.02,29.83
22607,0.2202,-0.0385,0.894,-6.76,8.0,-0.08,29.84
22617,0.2184,-0.0376,0.8899,-6.75,7.97,-0.06,29.84
22627,0.214,-0.035,0.8861,-6.7,7.97,-0.03,29.84
22637,0.2125,-0.0317,0.8851,-6.75,8.0,-0.09,29.81
22647,0.2098,-0.0302,0.885,-6.76,8.11,-0.03,29.85
22657,0.2104,-0.0323,0.8778,-6.76,8.0,0.03,29.82
22667,0.2108,-0.0325,0.8823,-6.79,8.0,0.03,29.82
22677,0.2102,-0.035,0.887,-6.73,7.98,-0.02,29.84
22687,0.2117,-0.0305,0.8878,-6.69,7.92,-0.05,29.81
22697,0.2117,-0.0339,0.8865,-6.82,8.0,-0.06,29.82
22707,0.2161,-0.036,0.8916,-6.76,8.02,-0.06,29.82
22717,0.2174,-0.0343,0.8923,-6.7,7.83,-0.11,29.84
22727,0.2186,-0.0387,0.8878,-6.69,7.97,-0.12,29.82
22737,0.2205,-0.0354,0.8938,-6.87,7.89,-0.14,29.86
22747,0.2213,-0.0416,0.8912,-6.75,8.09,-0.03,29.83
22757,0.2159,-0.0382,0.8881,-6.7,8.03,-0.08,29.83
22767,0.2169,-0.0334,0.8915,-6.66,7.97,-0.03,29.82
22777,0.2148,-0.0317,0.8856,-6.72,7.94,-0.02,29.84
22787,0.1937,-0.0269,0.8942,-6.73,8.26,-0.09,29.82
22797,0.1926,-0.0262,0.8955,-6.76,8.32,-0.11,29.84
22807,0.2073,-0.0255,0.8835,-6.67,7.82,-0.09,29.85
22817,0.2092,-0.028,0.8796,-6.7,7.42,-0.08,29.84
22827,0.1992,-0.0356,0.8922,-6.75,7.98,0.02,29.83
22837,0.2181,-0.0369,0.8855,-6.79,7.74,-0.06,29.82
22847,0.2181,-0.0345,0.8951,-6.75,8.06,-0.05,29.85
22857,0.2266,-0.0342,0.8878,-6.72,7.86,-0.05,29.84
22867,0.2256,-0.0338,0.8861,-6.76,7.95,-0.03,29.84
22877,0.2201,-0.0375,0.8916,-6.75,7.94,-0.11,29.82
22887,0.2184,-0.041,0.8862,-6.69,8.09,-0.11,29.82
22897,0.2117,-0.0339,0.8898,-6.76,8.14,-0.02,29.82
22907,0.2078,-0.0325,0.8855,-6.7,8.09,-0.08,29.83
22917,0.2095,-0.0283,0.8842,-6.72,7.97,-0.02,29.82
22927,0.2081,-0.0282,0.8831,-6.7,8.02,-0.06,29.84
22937,0.2101,-0.0336,0.8821,-6.78,7.98,0.03,29.81
22947,0.2107,-0.0304,0.884,-6.78,7.97,-0.11,29.83
22957,0.2179,-0.0291,0.8922,-6.76,7.88,-0.02,29.84
22967,0.2197,-0.0316,0.8905,-6.79,7.98,-0.08,29.84
22977,0.2224,-0.0369,0.892,-6.82,7.98,0.02,29.84
22987,0.2194,-0.0378,0.8899,-6.75,8.05,-0.06,29.84
22997,0.217,-0.0424,0.8866,-6.78,7.97,0.0,29.84
23007,0.2158,-0.0378,0.8905,-6.73,8.0,-0.05,29.84
23017,0.2155,-0.0253,0.8866,-6.69,8.05,-0.06,29.83
23027,0.2147,-0.0125,0.8813,-6.73,8.0,-0.12,29.86
23037,0.2153,-0.0242,0.8951,-6.69,7.97,-0.15,29.84
23047,0.2007,-0.046,0.8722,-6.69,8.0,-0.21,29.84
23057,0.1841,-0.0645,0.9346,-7.04,8.32,-0.09,29.86
23067,0.1931,-0.071,0.8777,-6.98,8.11,0.15,29.84
23077,0.1821,-0.0659,0.8903,-6.6,8.43,0.09,29.85
23087,0.1992,-0.0322,0.8752,-6.61,7.63,0.03,29.82
23097,0.2172,-0.0056,0.8917,-6.37,7.83,0.14,29.83
23107,0.2246,-0.0059,0.873,-6.82,7.28,0.03,29.86
23117,0.217,-0.015,0.8949,-6.82,7.97,-0.17,29.85
23127,0.2262,-0.0305,0.892,-6.98,7.62,-0.12,29.85
23137,0.233,-0.036,0.8915,-6.78,7.91,-0.14,29.84
23147,0.2207,-0.0393,0.8848,-6.73,8.34,-0.17,29.86
23158,0.2108,-0.0446,0.8682,-6.7,8.06,-0.17,29.82
23168,0.2159,-0.0408,0.8801,-6.69,7.77,-0.09,29.83
23178,0.2195,-0.0349,0.8893,-6.76,7.89,0.02,29.84
23188,0.2155,-0.0337,0.8846,-6.95,8.11,0.05,29.8
23198,0.2124,-0.0275,0.8844,-6.78,7.8,-0.06,29.83
23208,0.226,-0.025,0.9028,-6.7,7.62,0.08,29.84
23218,0.2324,-0.0311,0.9047,-6.79,8.06,-0.11,29.83
23228,0.2179,-0.0419,0.8898,-6.72,8.24,-0.09,29.82
23238,0.2068,-0.0364,0.8942,-6.64,7.94,-0.05,29.84
23248,0.224,-0.0382,0.8773,-6.76,7.73,0.03,29.83
23258,0.1943,-0.0516,0.8445,-6.75,7.86,0.09,29.86
23268,0.1921,-0.0431,0.8761,-6.9,8.26,0.0,29.85
23278,0.1986,-0.0436,0.8656,-6.55,8.2,0.03,29.82
23288,0.2117,-0.0201,0.8906,-6.85,7.74,-0.05,29.83
23299,0.2284,-0.0233,0.8984,-6.7,7.63,-0.15,29.84
23309,0.2329,-0.0197,0.9109,-6.81,7.63,-0.05,29.85
23319,0.23,-0.028,0.9005,-6.76,7.8,-0.15,29.86
23329,0.2383,-0.0326,0.8999,-6.84,7.74,-0.05,29.86
23339,0.2128,-0.0382,0.8618,-6.78,8.09,-0.17,29.85
23349,0.1886,-0.0508,0.8921,-6.7,8.66,-0.11,29.82
23359,0.2117,-0.0441,0.8691,-6.92,6.99,-0.06,29.85
23369,0.1687,-0.0114,0.9547,-6.6,7.25,0.05,29.84
23379,0.1135,-0.0375,0.9419,-6.99,7.8,-0.03,29.82
23389,0.1603,-0.0137,0.9607,-6.63,8.26,0.03,29.83
23399,0.2206,-0.0127,0.8994,-6.93,6.29,0.17,29.83
23409,0.1862,-0.0265,0.9062,-6.63,8.18,0.0,29.84
23419,0.2053,-0.0361,0.8741,-6.78,7.68,-0.09,29.85
23429,0.2106,-0.0386,0.8861,-6.79,7.98,-0.15,29.84
23439,0.2087,-0.0345,0.8881,-6.92,8.17,-0.03,29.87
23449,0.2095,-0.0461,0.8615,-6.87,7.77,-0.06,29.87
23459,0.2184,-0.0479,0.87,-6.85,7.45,0.0,29.85
23469,0.2188,-0.0369,0.8861,-6.72,7.89,0.06,29.85
23479,0.2191,-0.0317,0.87,-6.67,7.69,0.0,29.83
23489,0.2196,-0.0284,0.8871,-6.78,7.68,0.0,29.85
23499,0.2244,-0.0272,0.8878,-6.79,7.56,-0.08,29.83
23509,0.1798,-0.0222,0.9316,-6.87,8.73,-0.15,29.84
23519,0.2078,-0.0463,0.8843,-6.84,8.02,-0.12,29.84
23529,0.2136,-0.0479,0.8818,-6.66,8.4,-0.11,29.84
23539,0.22,-0.0325,0.8951,-6.69,7.92,-0.05,29.85
23549,0.2263,-0.0332,0.8713,-6.87,8.05,-0.03,29.85
23559,0.2091,-0.0338,0.8864,-6.76,8.11,0.02,29.86
23569,0.2041,-0.0281,0.8922,-6.72,8.27,-0.03,29.87
23579,0.2111,-0.0262,0.9015,-6.72,8.27,-0.02,29.83
23589,0.2067,-0.035,0.8954,-6.79,8.24,-0.06,29.87
23599,0.2122,-0.031,0.8875,-6.7,7.94,-0.02,29.86
23609,0.2115,-0.0352,0.8942,-6.78,7.92,0.0,29.86
23619,0.2109,-0.0352,0.8907,-6.85,8.08,0.02,29.87
23629,0.2075,-0.0297,0.8827,-6.78,7.94,-0.05,29.86
23639,0.2083,-0.0392,0.8859,-6.75,8.03,-0.09,29.85
23649,0.1902,-0.0338,0.8823,-6.69,8.23,0.0,29.86
23659,0.2084,-0.0306,0.9161,-6.87,8.05,-0.08,29.86
23669,0.1978,-0.032,0.9158,-6.81,8.27,-0.09,29.86
23679,0.1969,-0.0345,0.9109,-6.67,8.26,-0.11,29.86
23689,0.2098,-0.0283,0.9012,-6.63,8.0,-0.06,29.83
23699,0.2107,-0.0275,0.9084,-6.87,8.26,-0.05,29.86
23709,0.2311,-0.0356,0.8732,-6.79,7.69,-0.05,29.86
23719,0.2297,-0.0334,0.8779,-6.79,7.59,-0.09,29.84
23729,0.2286,-0.0382,0.8844,-6.73,7.79,-0.05,29.84
23739,0.2206,-0.0437,0.8799,-6.76,7.98,-0.03,29.85
23749,0.2139,-0.0419,0.8813,-6.66,7.95,0.05,29.83
23759,0.2109,-0.0333,0.8905,-6.67,8.0,0.06,29.85
23770,0.2109,-0.0302,0.8958,-6.61,8.09,0.02,29.86
23780,0.2107,-0.0289,0.8828,-6.7,7.92,-0.06,29.87
23790,0.2198,-0.0333,0.8868,-6.63,7.8,-0.03,29.86
23800,0.215,-0.035,0.8942,-6.76,7.94,-0.21,29.85
23810,0.2148,-0.0432,0.8857,-6.69,8.02,-0.05,29.86
23820,0.2159,-0.0417,0.8877,-6.72,7.88,-0.08,29.86
23830,0.2152,-0.0393,0.8845,-6.66,7.92,0.0,29.86
23840,0.218,-0.0387,0.8912,-6.75,7.95,0.0,29.85
23850,0.2091,-0.0292,0.8832,-6.76,7.88,0.03,29.84
23860,0.2131,-0.0197,0.8855,-6.69,7.94,-0.08,29.82
23870,0.219,-0.0267,0.8861,-6.67,7.74,-0.03,29.85
23880,0.2209,-0.0304,0.8928,-6.76,7.86,-0.08,29.86
23890,0.2137,-0.037,0.889,-6.72,8.12,-0.12,29.86
23900,0.2189,-0.0413,0.8833,-6.75,7.86,-0.09,29.87
23910,0.2234,-0.0387,0.8889,-6.69,7.89,-0.05,29.85
23920,0.2401,-0.0393,0.8787,-6.72,7.31,0.11,29.85
23930,0.2386,-0.048,0.8385,-6.56,7.47,0.05,29.84
23940,0.229,-0.0413,0.8868,-6.89,7.68,-0.08,29.85
23950,0.218,-0.0364,0.8665,-6.76,8.06,-0.08,29.87
23960,0.2177,-0.0225,0.8999,-6.7,7.62,0.03,29.83
23971,0.1984,-0.0297,0.9053,-6.64,8.17,-0.11,29.85
23981,0.2024,-0.0333,0.8873,-6.67,8.15,-0.05,29.86
23991,0.2084,-0.0292,0.8937,-6.75,7.95,-0.02,29.85
24001,0.2125,-0.033,0.8859,-6.72,7.88,-0.02,29.86
24011,0.2103,-0.0392,0.8772,-6.78,7.85,-0.03,29.87
24021,0.1956,-0.0381,0.8723,-6.67,7.51,-0.21,29.85
24031,0.2108,-0.0394,0.9026,-6.73,8.06,-0.11,29.86
24041,0.226,-0.0723,0.9196,-6.78,8.35,0.02,29.83
24051,0.2312,-0.0151,0.8842,-6.85,8.4,0.12,29.85
24061,0.2234,-0.0133,0.8661,-6.84,8.21,-0.08,29.84
24071,0.2251,-0.0326,0.8838,-6.78,7.68,0.05,29.85
24081,0.2267,-0.045,0.8986,-6.67,8.0,-0.15,29.85
24091,0.2178,-0.0128,0.8978,-6.63,8.17,-0.03,29.85
24101,0.215,-0.0184,0.892,-6.81,8.34,-0.11,29.86
24111,0.2067,-0.0334,0.877,-6.75,8.09,-0.05,29.87
24121,0.197,-0.0526,0.8699,-6.92,7.83,0.02,29.85
24131,0.2086,-0.0343,0.8754,-6.78,7.63,0.09,29.86
24141,0.2107,-0.0309,0.894,-6.72,7.94,0.0,29.88
24151,0.2094,-0.0255,0.8871,-6.67,8.11,-0.11,29.88
24161,0.2145,-0.0416,0.8884,-6.61,7.82,-0.2,29.88
24171,0.2318,-0.0234,0.9,-6.63,7.79,-0.2,29.88
24181,0.2197,-0.0369,0.8967,-6.75,8.15,-0.08,29.85
24191,0.2141,-0.0503,0.8845,-6.85,8.06,-0.11,29.84
24201,0.2148,-0.0287,0.8752,-6.76,7.86,-0.06,29.85
24211,0.2094,-0.0396,0.8754,-6.64,8.08,0.05,29.85
24221,0.2103,-0.0377,0.8815,-6.61,7.94,-0.06,29.87
24231,0.213,-0.0256,0.8893,-6.75,7.95,-0.05,29.87
24241,0.2146,-0.0159,0.8967,-6.76,7.89,0.02,29.88
24251,0.2144,-0.0349,0.8959,-6.75,7.98,0.02,29.86
24261,0.214,-0.0319,0.8949,-6.82,8.02,-0.09,29.87
24271,0.2155,-0.0363,0.8853,-6.72,7.86,0.0,29.85
24281,0.2156,-0.0387,0.8882,-6.78,7.98,-0.03,29.84
24293,0.2158,-0.0433,0.8829,-6.78,8.0,-0.08,29.87
24303,0.2158,-0.0331,0.8821,-6.81,7.59,0.05,29.87
24313,0.207,-0.0417,0.8993,-6.67,8.34,-0.02,29.87
24323,0.1282,-0.0333,0.9308,-6.99,11.19,-0.34,29.88
24333,0.2133,-0.0385,0.8956,-6.89,7.48,-0.09,29.87
24344,0.24,-0.0275,0.8737,-6.56,7.44,-0.09,29.85
24354,0.2308,-0.042,0.8899,-6.7,7.74,-0.03,29.83
24365,0.2158,-0.0309,0.8918,-6.89,8.32,-0.09,29.87
24375,0.2218,-0.0369,0.8788,-6.67,7.51,-0.05,29.87
24385,0.2202,-0.0381,0.8895,-6.67,7.73,-0.06,29.84
24395,0.2183,-0.0315,0.884,-6.7,8.03,0.0,29.87
24405,0.2124,-0.0302,0.8816,-6.76,7.97,0.0,29.87
24415,0.2181,-0.0317,0.8859,-6.75,7.94,0.0,29.89
24425,0.2145,-0.0273,0.8979,-6.76,7.94,-0.06,29.88
24435,0.2148,-0.0294,0.879,-6.73,7.95,-0.05,29.88
24445,0.2106,-0.0383,0.8822,-6.78,7.8,-0.12,29.87
24455,0.2125,-0.0389,0.8844,-6.69,7.82,-0.06,29.87
24465,0.2103,-0.0325,0.8901,-6.76,8.08,-0.06,29.87
24475,0.2103,-0.0359,0.8763,-6.75,7.97,0.08,29.88
24485,0.2168,-0.0322,0.89,-6.73,7.69,-0.06,29.84
24495,0.2212,-0.0275,0.8992,-6.84,7.91,-0.06,29.87
24505,0.2173,-0.0338,0.8942,-6.82,8.02,-0.14,29.87
24515,0.2161,-0.0334,0.8878,-6.75,7.91,-0.08,29.87
24526,0.2201,-0.0358,0.8937,-6.7,7.88,0.0,29.86
24536,0.2184,-0.0349,0.8928,-6.85,8.05,-0.09,29.86
24546,0.2147,-0.0396,0.8815,-6.79,7.92,-0.05,29.88
24556,0.2173,-0.037,0.8823,-6.75,7.91,-0.05,29.87
24566,0.2175,-0.0305,0.8903,-6.75,7.94,0.0,29.86
24576,0.212,-0.0298,0.8865,-6.75,8.08,-0.08,29.88
24587,0.2142,-0.0316,0.8843,-6.79,8.02,-0.03,29.88
24597,0.2168,-0.0309,0.8888,-6.82,7.97,-0.06,29.86
24607,0.2152,-0.0244,0.8823,-6.75,7.91,-0.02,29.89
24617,0.3724,-0.0344,0.8026,-6.76,5.69,0.23,29.87
24627,0.3646,-0.0734,0.7179,-6.35,3.79,0.38,29.88
24637,0.2495,-0.0806,0.837,-6.76,7.34,-0.02,29.85
24647,0.2117,-0.0707,0.8441,-7.27,7.92,-0.11,29.87
24657,0.2545,-0.0154,0.873,-6.98,7.33,0.0,29.86
24667,0.2035,-0.0065,0.9078,-6.76,8.55,-0.06,29.85
24677,0.1996,-0.0315,0.8783,-6.64,7.94,-0.02,29.84
24687,0.1891,-0.0404,0.896,-6.7,8.5,-0.09,29.88
24697,0.2108,-0.0398,0.8821,-6.7,8.11,-0.03,29.85
24707,0.2278,-0.0355,0.871,-6.82,7.88,0.03,29.87
24717,0.213,-0.0369,0.8845,-6.73,7.69,0.03,29.87
24727,0.2239,-0.0417,0.8861,-6.69,7.71,0.0,29.87
24737,0.1881,-0.0923,0.8436,-6.81,8.08,0.06,29.87
24747,0.1871,-0.1359,0.8339,-6.78,7.18,0.46,29.87
24757,0.2292,-0.0649,0.9023,-6.6,7.37,0.34,29.87
24767,0.245,0.0774,0.9714,-6.14,8.21,0.08,29.87
24777,0.244,0.0929,0.9404,-6.08,8.34,-0.14,29.87
24787,0.2258,0.0704,0.932,-6.47,8.03,-0.46,29.89
24797,0.2285,0.0547,0.9124,-7.1,8.2,-0.75,29.89
24807,0.2124,-0.0195,0.8604,-7.31,8.38,-0.63,29.9
24817,0.1964,-0.1169,0.8271,-7.3,8.26,-0.37,29.86
24827,0.1963,-0.1333,0.8291,-6.92,7.68,-0.26,29.88
24837,0.2072,-0.1075,0.8467,-6.92,7.56,0.32,29.87
24847,0.217,-0.082,0.863,-6.78,7.73,0.58,29.87
24857,0.2269,-0.0582,0.8829,-6.69,7.57,0.49,29.9
24867,0.2396,-0.0159,0.8972,-6.81,7.56,0.38,29.87
24877,0.2399,-0.0049,0.9127,-6.58,7.89,0.09,29.88
24887,0.2318,-0.0159,0.9196,-6.69,8.17,-0.32,29.89
24897,0.2272,-0.0161,0.908,-6.5,8.27,-0.52,29.84
24907,0.2168,-0.0289,0.9071,-6.38,8.27,-0.4,29.87
24917,0.2013,-0.0466,0.8934,-6.63,8.34,-0.27,29.88
24927,0.1898,-0.0447,0.8708,-6.7,8.14,-0.12,29.89
24937,0.189,-0.0297,0.8594,-6.84,7.86,0.2,29.88
24947,0.1937,-0.022,0.8593,-6.73,7.79,0.31,29.87
24957,0.2048,-0.0093,0.8678,-6.85,7.6,0.23,29.87
24967,0.2117,0.0006,0.8888,-6.79,7.71,0.14,29.89
24977,0.2344,-0.0135,0.8972,-6.89,7.47,0.11,29.89
24987,0.2261,-0.0377,0.908,-7.05,8.11,-0.09,29.87
24997,0.2335,-0.0674,0.8956,-6.85,8.06,-0.2,29.87
25007,0.215,-0.0801,0.8954,-6.81,8.2,-0.23,29.87
25017,0.2167,-0.0758,0.8834,-6.6,8.17,-0.18,29.89
25027,0.217,-0.0603,0.8726,-6.49,7.82,-0.08,29.91
25037,0.2059,-0.0405,0.8744,-6.53,8.0,-0.03,29.89
25047,0.2133,-0.0204,0.8778,-6.67,7.83,-0.02,29.89
25057,0.2214,-0.0055,0.8862,-6.64,7.83,0.0,29.89
25067,0.2218,-0.0001,0.9003,-6.75,7.86,0.03,29.88
25077,0.2196,-0.0067,0.903,-6.75,8.09,0.08,29.89
25087,0.2286,-0.0106,0.9011,-6.87,7.51,0.02,29.89
25097,0.2234,-0.0243,0.8815,-6.95,7.94,-0.11,29.88
25107,0.2194,-0.04,0.8831,-6.93,7.92,0.05,29.89
25117,0.2058,-0.053,0.8788,-6.92,8.24,0.0,29.88
25127,0.2089,-0.0586,0.8667,-6.84,7.91,-0.08,29.89
25137,0.2029,-0.0563,0.8884,-6.79,8.14,-0.06,29.89
25147,0.2117,-0.0537,0.8754,-6.67,6.92,-0.05,29.89
25157,0.1615,-0.0452,0.9368,-6.5,9.13,-0.14,29.89
25167,0.2208,-0.0299,0.907,-6.58,7.6,-0.02,29.88
25177,0.2228,-0.0092,0.8938,-6.7,7.71,-0.09,29.89
25187,0.2426,-0.0103,0.8647,-6.76,7.33,-0.06,29.9
25197,0.2379,-0.0182,0.8737,-6.72,7.44,-0.11,29.91
25207,0.2242,-0.0266,0.8807,-6.76,7.79,-0.05,29.88
25217,0.2188,-0.032,0.8695,-6.78,7.94,-0.03,29.91
25227,0.2094,-0.0392,0.8762,-6.79,8.14,0.02,29.89
25237,0.204,-0.0463,0.8922,-6.87,8.2,0.03,29.89
25247,0.2084,-0.0477,0.8956,-6.85,8.11,0.03,29.9
25257,0.2134,-0.0453,0.8911,-6.84,7.95,-0.05,29.88
25267,0.2158,-0.0444,0.8969,-6.66,7.94,0.0,29.9
25277,0.2155,-0.0415,0.8922,-6.75,7.95,-0.08,29.88
25287,0.2163,-0.0378,0.8894,-6.67,7.94,-0.12,29.91
25297,0.2177,-0.0339,0.8834,-6.61,7.92,-0.05,29.88
25307,0.213,-0.0337,0.8809,-6.67,8.02,-0.09,29.91
25317,0.2128,-0.028,0.8799,-6.61,7.97,-0.03,29.88
25327,0.2101,-0.0238,0.8826,-6.66,7.98,-0.14,29.89
25337,0.2104,-0.021,0.885,-6.7,7.91,-0.03,29.9
25347,0.2117,-0.0216,0.8892,-6.81,7.85,0.0,29.89
25357,0.2148,-0.0234,0.891,-6.85,7.94,-0.05,29.9
25367,0.2158,-0.0282,0.8949,-6.9,7.92,0.0,29.92
25377,0.2173,-0.0366,0.892,-6.84,7.91,-0.03,29.89
25387,0.2175,-0.0471,0.8883,-6.78,7.98,-0.03,29.91
25397,0.2141,-0.0471,0.8898,-6.75,7.92,-0.12,29.88
25407,0.2134,-0.0498,0.8792,-6.78,7.92,-0.03,29.89
25417,0.2145,-0.0447,0.8832,-6.6,7.98,-0.08,29.89
25427,0.2139,-0.0378,0.8833,-6.7,7.92,-0.05,29.87
25437,0.2109,-0.0267,0.8767,-6.75,7.62,-0.11,29.89
25447,0.1862,-0.0115,0.9271,-6.69,7.31,-0.06,29.87
25457,0.1838,-0.0092,0.92,-6.69,8.63,-0.12,29.89
25467,0.1688,-0.0121,0.9065,-6.81,8.49,-0.09,29.89
25477,0.1821,-0.0222,0.9115,-6.63,8.06,-0.06,29.89
25487,0.202,-0.0332,0.8951,-6.82,7.89,-0.05,29.89
25497,0.2151,-0.0206,0.899,-6.9,8.2,-0.05,29.86
25507,0.1775,0.0172,0.8541,-7.07,8.17,0.21,29.88
25517,0.1726,-0.042,0.8103,-7.53,7.62,0.31,29.88
25527,0.1769,-0.0613,0.8534,-7.73,7.69,0.12,29.91
25537,0.2008,-0.0439,0.8832,-7.24,7.62,0.02,29.91
25547,0.2123,-0.0629,0.9352,-6.7,7.62,0.06,29.88
25557,0.2374,-0.057,0.9651,-6.52,7.56,-0.06,29.88
25567,0.2455,-0.0282,0.9648,-6.6,8.06,-0.15,29.89
25577,0.2416,-0.0195,0.934,-6.81,8.03,-0.09,29.89
25587,0.2262,-0.0557,0.9014,-6.7,7.97,-0.12,29.88
25597,0.218,-0.0426,0.8781,-6.69,8.11,-0.27,29.89
25607,0.2126,-0.0347,0.8503,-6.61,8.06,-0.23,29.88
25617,0.2081,-0.049,0.8475,-6.64,7.86,0.02,29.89
25627,0.2147,-0.0349,0.8629,-6.75,7.79,0.02,29.88
25637,0.2188,-0.0171,0.8708,-6.85,7.91,0.12,29.91
25647,0.2167,-0.0127,0.8755,-7.01,7.83,0.24,29.88
25657,0.2139,-0.0111,0.8828,-7.07,7.85,0.41,29.89
25667,0.214,0.0004,0.8903,-7.02,7.95,0.17,29.9
25677,0.2,-0.0077,0.8851,-7.1,7.92,0.03,29.9
25687,0.1941,-0.0236,0.8899,-7.04,7.91,-0.03,29.89
25697,0.1958,-0.0385,0.8938,-7.15,7.85,-0.06,29.89
25707,0.2029,-0.0547,0.8947,-7.16,7.77,-0.03,29.89
25717,0.2062,-0.0734,0.8958,-7.19,7.63,-0.06,29.9
25727,0.2125,-0.0696,0.8914,-7.02,7.6,-0.11,29.9
25737,0.2203,-0.0525,0.895,-6.87,7.79,-0.11,29.91
25747,0.2236,-0.0402,0.899,-6.79,7.77,-0.09,29.88
25757,0.2268,-0.0305,0.8927,-6.84,7.8,0.0,29.89
25767,0.2273,-0.0269,0.8871,-6.79,7.76,-0.11,29.87
25777,0.2252,-0.024,0.8877,-6.78,7.91,-0.12,29.87
25787,0.2241,-0.0289,0.8821,-6.73,7.94,-0.14,29.91
25797,0.2212,-0.0363,0.8827,-6.66,7.86,-0.11,29.9
25808,0.2213,-0.0452,0.8834,-6.76,7.91,0.02,29.87
25818,0.2181,-0.0459,0.895,-6.73,7.82,-0.02,29.89
25828,0.2195,-0.0427,0.8928,-6.76,7.85,0.06,29.88
25838,0.2194,-0.0319,0.8954,-6.76,7.82,0.02,29.89
25848,0.2216,-0.0311,0.8911,-6.79,7.97,0.08,29.89
25858,0.2203,-0.0281,0.8922,-6.76,8.09,0.0,29.9
25868,0.2163,-0.0271,0.8875,-6.79,8.03,-0.03,29.88
25878,0.2145,-0.026,0.8872,-6.73,8.08,-0.09,29.89
25888,0.2109,-0.0345,0.8826,-6.81,8.03,-0.09,29.9
25898,0.2065,-0.0415,0.8838,-6.78,8.06,-0.08,29.88
25909,0.2019,-0.04,0.8829,-6.76,8.08,0.02,29.88
25919,0.2018,-0.0374,0.8818,-6.73,7.92,-0.02,29.91
25929,0.2064,-0.0272,0.8783,-6.67,7.85,0.02,29.9
25939,0.2104,-0.027,0.8851,-6.7,7.86,-0.14,29.89
25949,0.2164,-0.0299,0.8932,-6.78,7.89,-0.06,29.89
25959,0.2178,-0.0426,0.9006,-6.7,7.86,-0.11,29.89
25969,0.22,-0.0417,0.9034,-6.7,7.95,-0.12,29.89
25979,0.2206,-0.0389,0.8926,-6.69,7.88,-0.05,29.88
25989,0.2188,-0.0365,0.8873,-6.72,7.91,-0.14,29.92
25999,0.2179,-0.0356,0.8773,-6.79,7.98,-0.09,29.91
26009,0.2173,-0.0316,0.8789,-6.7,7.98,-0.09,29.9
26019,0.2173,-0.035,0.8789,-6.6,8.0,-0.08,29.89
26029,0.2163,-0.0397,0.8826,-6.63,7.95,-0.12,29.89
26039,0.2145,-0.0377,0.892,-6.67,7.95,-0.08,29.9
26049,0.2146,-0.0382,0.8944,-6.79,7.97,-0.03,29.9
26059,0.2156,-0.0344,0.8915,-6.63,8.0,-0.02,29.89
26069,0.2142,-0.0321,0.8882,-6.66,7.94,0.0,29.9
26079,0.2107,-0.027,0.8857,-6.69,7.92,-0.05,29.92
26089,0.2117,-0.0338,0.886,-6.67,7.89,-0.12,29.9
26099,0.2135,-0.0393,0.8815,-6.73,7.91,-0.12,29.91
26109,0.2124,-0.036,0.8871,-6.6,7.94,-0.11,29.92
26119,0.2135,-0.0361,0.8876,-6.6,8.03,-0.08,29.89
26129,0.2133,-0.032,0.8867,-6.56,7.94,-0.03,29.88
26139,0.2159,-0.03,0.8829,-6.61,7.94,-0.09,29.91
26149,0.2156,-0.03,0.8883,-6.64,7.92,-0.12,29.92
26159,0.2179,-0.0295,0.8901,-6.66,7.86,-0.11,29.94
26169,0.2191,-0.0341,0.8966,-6.58,7.92,-0.09,29.9
26179,0.2236,-0.0316,0.8901,-6.64,7.97,-0.09,29.92
26189,0.2231,-0.033,0.8911,-6.69,8.11,-0.11,29.9
26199,0.2175,-0.036,0.8932,-6.75,8.12,-0.08,29.89
26209,0.2195,-0.0353,0.8883,-6.75,8.15,-0.05,29.9
26219,0.2122,-0.0328,0.8842,-6.61,8.09,-0.06,29.91
26229,0.2111,-0.0365,0.8844,-6.63,8.08,0.02,29.89
26239,0.2139,-0.0343,0.8854,-6.78,8.06,0.03,29.9
26249,0.2101,-0.0336,0.8871,-6.75,7.95,0.0,29.91
26259,0.212,-0.0312,0.8843,-6.64,7.91,-0.02,29.89
26269,0.2097,-0.0283,0.8907,-6.7,7.86,-0.03,29.91
26279,0.2098,-0.0245,0.8867,-6.78,7.97,-0.02,29.92
26289,0.2109,-0.0255,0.8931,-6.78,7.89,-0.05,29.91
26299,0.2115,-0.0295,0.8898,-6.84,7.98,-0.11,29.9
26309,0.2113,-0.0358,0.887,-6.75,7.91,-0.03,29.92
26319,0.2134,-0.0398,0.8885,-6.75,7.91,-0.14,29.9
26329,0.2167,-0.0374,0.8872,-6.75,8.02,-0.06,29.89
26339,0.2198,-0.0352,0.8829,-6.72,8.02,-0.09,29.92
26349,0.2189,-0.0334,0.8882,-6.76,8.02,-0.06,29.93
26359,0.2206,-0.0366,0.8882,-6.67,7.98,-0.03,29.92
26369,0.2209,-0.0383,0.8877,-6.78,8.0,-0.06,29.93
26379,0.2188,-0.0363,0.8905,-6.73,8.02,-0.03,29.9
26389,0.2174,-0.0367,0.8892,-6.7,8.06,0.02,29.9
26399,0.2179,-0.0372,0.8917,-6.7,7.95,0.06,29.91
26409,0.2156,-0.0363,0.8882,-6.76,7.98,-0.03,29.92
26420,0.2163,-0.0348,0.8867,-6.76,8.03,-0.06,29.9
26430,0.2144,-0.0308,0.8875,-6.72,7.98,0.03,29.9
26440,0.2108,-0.0312,0.889,-6.73,7.94,-0.09,29.89
26450,0.2123,-0.0294,0.8873,-6.76,8.06,-0.02,29.94
26460,0.2094,-0.0288,0.8889,-6.82,8.02,-0.02,29.94
26470,0.2114,-0.0331,0.8855,-6.82,7.95,0.06,29.91
26480,0.2123,-0.0353,0.8865,-6.79,8.0,-0.06,29.93
26490,0.2147,-0.0363,0.8828,-6.7,8.05,-0.03,29.9
26500,0.2133,-0.0327,0.8867,-6.79,8.02,0.02,29.9
26510,0.2148,-0.0332,0.889,-6.89,8.0,0.06,29.92
26520,0.2131,-0.0345,0.8834,-6.79,8.0,-0.05,29.94
26530,0.2169,-0.0303,0.8817,-6.76,7.92,-0.05,29.91
26540,0.2073,-0.0345,0.8767,-6.72,7.97,-0.08,29.92
26550,0.2134,-0.0367,0.8895,-6.87,7.88,-0.09,29.89
26560,0.2161,-0.0356,0.8898,-6.76,8.0,-0.03,29.9
26570,0.2114,-0.0292,0.8943,-6.92,7.94,0.06,29.91
26580,0.214,-0.0243,0.8962,-6.93,7.79,0.02,29.88
26590,0.215,-0.0232,0.9056,-6.85,8.15,-0.03,29.87
26600,0.2194,-0.0287,0.8754,-6.84,7.71,-0.02,29.9
26610,0.213,-0.0308,0.877,-6.75,7.92,-0.09,29.91
26620,0.2202,-0.0352,0.8795,-6.87,7.71,-0.14,29.91
26630,0.2161,-0.046,0.891,-6.85,8.05,-0.05,29.91
26640,0.2203,-0.0513,0.8857,-6.9,7.86,0.0,29.87
26650,0.2295,-0.0568,0.8882,-6.82,7.65,0.03,29.91
26660,0.2233,-0.0475,0.8865,-6.78,7.92,-0.08,29.92
26670,0.2112,-0.0479,0.885,-6.78,8.12,-0.03,29.89
26680,0.2175,-0.0391,0.8848,-6.69,7.88,-0.03,29.93
26690,0.2196,-0.0288,0.8967,-6.69,7.98,-0.02,29.91
26700,0.212,-0.0337,0.8872,-6.76,7.91,-0.06,29.92
26710,0.2086,-0.0309,0.8845,-6.64,7.89,-0.05,29.93
26720,0.2151,-0.0258,0.8851,-6.6,7.79,-0.02,29.9
26730,0.2117,-0.0312,0.8838,-6.7,7.97,-0.14,29.91
26740,0.2152,-0.0303,0.8772,-6.78,7.8,-0.02,29.92
26750,0.2218,-0.0308,0.8829,-6.73,7.88,-0.03,29.93
26760,0.2137,-0.022,0.8881,-6.82,7.94,-0.05,29.92
26770,0.2095,-0.0319,0.884,-6.72,8.03,-0.15,29.91
26780,0.2096,-0.0431,0.8848,-6.73,7.91,-0.14,29.9
26790,0.2148,-0.0507,0.8921,-6.69,7.89,-0.15,29.92
26800,0.2139,-0.0511,0.8884,-6.73,8.11,-0.09,29.89
26810,0.2225,-0.0547,0.8777,-6.67,7.85,0.02,29.93
26820,0.2235,-0.0441,0.8861,-6.67,7.89,-0.03,29.92
26830,0.2158,-0.0295,0.8942,-6.7,8.05,-0.02,29.91
26840,0.2152,-0.0261,0.8882,-6.53,8.05,-0.06,29.92
26850,0.2158,-0.0231,0.886,-6.69,7.85,0.05,29.91
26860,0.2128,-0.0225,0.8921,-6.7,8.08,-0.06,29.92
26870,0.2068,-0.0214,0.8823,-6.73,7.98,-0.06,29.92
26880,0.1987,-0.0298,0.8922,-6.67,7.88,-0.09,29.9
26890,0.2073,-0.0188,0.8918,-6.73,7.85,-0.02,29.92
26900,0.2163,-0.0236,0.8972,-6.76,8.18,-0.03,29.92
26910,0.2152,-0.0298,0.8928,-6.87,8.2,-0.12,29.89
26920,0.2155,-0.0508,0.8861,-6.84,7.66,-0.05,29.91
26930,0.224,-0.0498,0.8939,-6.82,7.82,-0.09,29.92
26940,0.2223,-0.0436,0.8939,-6.73,8.02,-0.06,29.91
26950,0.2162,-0.0393,0.8822,-6.66,8.0,-0.08,29.93
26960,0.22,-0.037,0.8912,-6.69,7.83,-0.05,29.92
26970,0.2222,-0.0358,0.8975,-6.78,8.2,-0.12,29.94
26980,0.2155,-0.0385,0.8783,-6.73,8.05,-0.09,29.92
26990,0.2156,-0.0323,0.8838,-6.7,7.91,0.03,29.93
27000,0.2164,-0.0289,0.8904,-6.63,7.92,0.0,29.93
27010,0.2145,-0.0266,0.8838,-6.69,8.11,-0.06,29.94
27020,0.2109,-0.0286,0.887,-6.73,7.89,-0.02,29.93
27030,0.2122,-0.0304,0.8906,-6.73,7.86,0.03,29.92
27040,0.2146,-0.032,0.89,-6.78,8.03,-0.03,29.93
27050,0.2107,-0.0408,0.889,-6.78,7.94,-0.02,29.93
27060,0.2134,-0.0389,0.8845,-6.76,7.86,-0.08,29.92
27070,0.2174,-0.0388,0.8878,-6.76,7.94,-0.05,29.95
27080,0.2122,-0.037,0.8856,-6.78,8.0,-0.05,29.94
27090,0.2162,-0.0398,0.8823,-6.79,7.89,0.02,29.89
27100,0.2159,-0.0353,0.8853,-6.79,7.92,-0.05,29.93
27110,0.2173,-0.0345,0.8895,-6.72,8.05,-0.05,29.92
27120,0.2139,-0.0371,0.8871,-6.75,8.02,0.02,29.91
27131,0.2147,-0.035,0.8861,-6.7,7.94,-0.03,29.9
27141,0.2161,-0.0302,0.8925,-6.72,8.08,-0.08,29.9
27151,0.217,-0.0308,0.8881,-6.79,7.95,-0.05,29.93
27161,0.2142,-0.0352,0.8793,-6.69,7.91,-0.08,29.92
27171,0.2139,-0.035,0.9006,-6.58,8.38,0.03,29.92
27181,0.2169,-0.0283,0.8806,-6.84,7.79,-0.02,29.94
27191,0.1919,-0.0387,0.8954,-6.84,8.06,-0.14,29.92
27201,0.2124,-0.0376,0.8889,-6.78,8.29,-0.08,29.93
27211,0.2015,-0.0183,0.8872,-6.82,8.02,0.0,29.91
27221,0.2321,-0.0502,0.8522,-6.61,8.43,-0.08,29.93
27231,0.2035,-0.0397,0.9149,-6.76,8.46,-0.14,29.93
27241,0.2075,-0.0281,0.9049,-6.96,8.2,-0.08,29.92
27251,0.2025,-0.0197,0.9048,-6.66,8.49,-0.03,29.92
27261,0.1947,-0.0449,0.9117,-6.9,8.61,-0.08,29.91
27271,0.2223,-0.049,0.8765,-6.7,8.09,-0.05,29.91
27281,0.2047,-0.0397,0.8975,-6.75,8.24,-0.14,29.91
27293,0.2079,-0.0314,0.8903,-6.61,8.21,-0.14,29.92
27303,0.2233,-0.0391,0.8773,-6.78,7.56,-0.05,29.89
27313,0.2153,-0.0352,0.8951,-6.66,7.98,0.03,29.91
27324,0.2218,-0.0303,0.8889,-6.76,7.95,-0.12,29.91
27334,0.2161,-0.0249,0.8809,-6.72,8.03,-0.11,29.92
27345,0.2173,-0.0269,0.8875,-6.78,7.89,-0.02,29.92
27355,0.2156,-0.0292,0.8945,-6.75,8.0,-0.05,29.92
27365,0.2117,-0.0354,0.8873,-6.75,8.06,-0.06,29.95
27375,0.208,-0.0354,0.8856,-6.79,7.97,0.02,29.94
27385,0.2111,-0.0383,0.8939,-6.81,8.0,-0.02,29.9
27395,0.2185,-0.0342,0.8956,-6.93,7.98,-0.05,29.91
27405,0.215,-0.0366,0.8832,-6.76,7.95,0.02,29.92
27415,0.213,-0.0396,0.8821,-6.75,7.89,-0.05,29.94
27425,0.2142,-0.0381,0.89,-6.72,7.86,-0.12,29.94
27435,0.2135,-0.0366,0.8824,-6.69,8.0,-0.08,29.92
