t_ms,accel_x_g,accel_y_g,accel_z_g,gyro_x_dps,gyro_y_dps,gyro_z_dps,imu_temp_c
3286,0.3336,-0.0205,0.8628,-6.53,7.88,-0.06,26.02
3297,0.3325,-0.0319,0.8604,-6.52,7.82,-0.05,26.02
3307,0.3345,-0.0255,0.8652,-6.34,7.85,0.02,26.01
3317,0.3331,-0.0223,0.8676,-6.46,7.88,-0.02,26.01
3327,0.3329,-0.022,0.864,-6.46,7.8,-0.02,26.04
3337,0.3295,-0.0272,0.8632,-6.52,7.85,0.0,26.04
3347,0.3363,-0.0234,0.8645,-6.44,7.85,0.0,26.05
3357,0.3372,-0.0195,0.8617,-6.41,7.82,-0.08,26.02
3367,0.3333,-0.0231,0.8665,-6.47,7.83,-0.02,26.02
3377,0.3362,-0.0229,0.8617,-6.41,7.85,-0.03,26.03
3388,0.3356,-0.0236,0.8625,-6.47,7.89,-0.11,26.04
3398,0.3368,-0.0227,0.8635,-6.52,7.82,-0.05,26.05
3408,0.3324,-0.0247,0.8694,-6.44,7.86,-0.06,26.05
3418,0.3352,-0.0243,0.8689,-6.41,7.86,-0.02,26.05
3428,0.3314,-0.0222,0.8632,-6.4,7.74,0.02,26.04
3438,0.3314,-0.0236,0.8606,-6.43,7.82,-0.02,26.02
3448,0.3292,-0.0255,0.8617,-6.52,7.82,-0.03,26.02
3458,0.3311,-0.0223,0.858,-6.52,7.86,-0.11,26.06
3468,0.3344,-0.0249,0.8649,-6.53,7.76,-0.08,26.05
3478,0.3329,-0.0242,0.8656,-6.47,7.83,-0.09,26.05
3488,0.3384,-0.0176,0.8643,-6.49,7.85,-0.02,26.03
3498,0.3367,-0.0227,0.865,-6.47,7.85,-0.05,26.06
3508,0.3356,-0.0253,0.8634,-6.47,7.89,0.0,26.05
3518,0.3364,-0.0201,0.8671,-6.44,7.88,-0.06,26.07
3529,0.3354,-0.0227,0.8622,-6.43,7.83,0.02,26.02
3539,0.3323,-0.0256,0.8617,-6.41,7.83,0.0,26.05
3549,0.3317,-0.024,0.8621,-6.44,7.8,-0.03,26.03
3559,0.3344,-0.0214,0.8656,-6.41,7.8,-0.03,26.04
3569,0.3348,-0.0251,0.8634,-6.58,7.82,-0.14,26.03
3579,0.333,-0.0244,0.8658,-6.47,7.85,-0.05,26.05
3589,0.338,-0.0211,0.866,-6.44,7.86,-0.09,26.07
3600,0.333,-0.022,0.8641,-6.47,7.83,-0.03,26.09
3610,0.3351,-0.0254,0.8639,-6.49,7.86,-0.08,26.07
3620,0.3339,-0.0199,0.8628,-6.37,7.85,-0.05,26.03
3630,0.3357,-0.0227,0.8597,-6.49,7.88,0.02,26.04
3640,0.3323,-0.0221,0.8606,-6.43,7.83,-0.08,26.06
3650,0.3346,-0.0229,0.8623,-6.44,7.8,-0.12,26.07
3660,0.3331,-0.0223,0.8641,-6.4,7.86,-0.06,26.05
3670,0.3361,-0.0227,0.8667,-6.41,7.82,-0.03,26.07
3680,0.3292,-0.0253,0.8649,-6.44,7.88,-0.05,26.07
3690,0.3376,-0.0229,0.8683,-6.47,7.85,0.0,26.05
3700,0.3347,-0.0201,0.8649,-6.46,7.85,-0.03,26.04
3710,0.3324,-0.0228,0.8651,-6.47,7.82,-0.05,26.04
3720,0.3336,-0.0231,0.8616,-6.47,7.89,-0.06,26.06
3730,0.3329,-0.0233,0.8616,-6.47,7.86,0.02,26.05
3740,0.3375,-0.0197,0.8623,-6.46,7.86,-0.08,26.05
3750,0.3334,-0.0238,0.8651,-6.47,7.86,-0.03,26.05
3760,0.3324,-0.0258,0.8645,-6.41,7.85,-0.03,26.07
3770,0.337,-0.0229,0.8669,-6.43,7.88,-0.03,26.06
3780,0.3358,-0.026,0.8652,-6.43,7.86,0.0,26.07
3790,0.3337,-0.0256,0.8699,-6.43,7.89,-0.05,26.07
3800,0.3345,-0.0236,0.8658,-6.46,7.85,-0.06,26.06
3810,0.3335,-0.0232,0.8629,-6.5,7.85,-0.09,26.08
3820,0.334,-0.0225,0.8635,-6.44,7.83,-0.05,26.09
3830,0.334,-0.0221,0.8674,-6.43,7.89,-0.06,26.09
3840,0.3323,-0.0233,0.8638,-6.35,7.85,-0.06,26.07
3850,0.3336,-0.0219,0.8656,-6.53,7.85,-0.02,26.11
3860,0.3309,-0.0238,0.8647,-6.41,7.82,0.02,26.09
3870,0.3358,-0.02,0.8613,-6.38,7.88,-0.03,26.08
3880,0.3353,-0.0232,0.8604,-6.44,7.88,-0.03,26.08
3890,0.3346,-0.0258,0.8646,-6.37,7.86,-0.03,26.09
3900,0.3357,-0.0239,0.8632,-6.47,7.86,-0.06,26.08
3910,0.3318,-0.0206,0.8623,-6.44,7.85,-0.03,26.09
3920,0.3344,-0.0217,0.8615,-6.4,7.85,-0.03,26.08
3930,0.3309,-0.0216,0.8616,-6.44,7.83,-0.11,26.05
3940,0.3339,-0.0256,0.863,-6.47,7.83,-0.08,26.09
3950,0.3333,-0.025,0.864,-6.52,7.83,-0.05,26.11
3961,0.3348,-0.0254,0.8658,-6.47,7.86,-0.02,26.08
3971,0.3333,-0.0226,0.86,-6.49,7.88,0.05,26.07
3981,0.3361,-0.02,0.8632,-6.47,7.86,-0.02,26.09
3991,0.3364,-0.0209,0.8619,-6.52,7.88,-0.06,26.07
4001,0.3329,-0.0234,0.8705,-6.44,7.8,-0.06,26.1
4011,0.3341,-0.0237,0.8645,-6.47,7.88,-0.02,26.09
4021,0.3367,-0.0232,0.86,-6.41,7.86,-0.11,26.09
4031,0.3351,-0.0223,0.8649,-6.49,7.8,-0.05,26.09
4041,0.3317,-0.0233,0.864,-6.43,7.94,0.0,26.09
4051,0.3354,-0.0222,0.8628,-6.47,7.85,-0.08,26.08
4061,0.3353,-0.027,0.8594,-6.5,7.85,-0.03,26.09
4071,0.3356,-0.0234,0.864,-6.55,7.85,0.03,26.1
4081,0.3358,-0.0221,0.8633,-6.43,7.85,0.0,26.08
4091,0.3353,-0.0227,0.8615,-6.43,7.83,-0.06,26.07
4101,0.3326,-0.022,0.8655,-6.46,7.85,-0.06,26.09
4111,0.3331,-0.0203,0.8685,-6.44,7.83,0.0,26.1
4121,0.334,-0.0199,0.863,-6.44,7.83,0.0,26.09
4131,0.3353,-0.0212,0.8655,-6.61,7.86,0.02,26.1
4141,0.3348,-0.0223,0.8638,-6.43,7.79,-0.05,26.08
4151,0.3341,-0.0209,0.8643,-6.46,7.79,0.0,26.1
4161,0.3345,-0.0214,0.8667,-6.41,7.82,0.03,26.09
4171,0.3322,-0.0239,0.8657,-6.5,7.85,-0.08,26.12
4181,0.3341,-0.0233,0.8643,-6.44,7.83,-0.02,26.09
4191,0.3351,-0.025,0.8643,-6.41,7.86,-0.05,26.09
4201,0.3333,-0.0227,0.8627,-6.47,7.83,-0.05,26.09
4211,0.3354,-0.0234,0.8601,-6.47,7.82,0.03,26.08
4221,0.3334,-0.025,0.8624,-6.5,7.8,0.0,26.07
4231,0.333,-0.0244,0.8613,-6.43,7.85,-0.03,26.09
4241,0.3357,-0.0203,0.8633,-6.37,7.8,-0.11,26.11
4251,0.3335,-0.0214,0.8627,-6.52,7.86,-0.05,26.1
4261,0.3313,-0.0194,0.8646,-6.43,7.83,0.0,26.11
4271,0.3345,-0.0214,0.8651,-6.47,7.79,-0.06,26.11
4281,0.3368,-0.0226,0.864,-6.46,7.79,-0.14,26.12
4291,0.3347,-0.0256,0.8655,-6.49,7.83,-0.08,26.11
4301,0.3353,-0.0239,0.8651,-6.52,7.86,-0.06,26.11
4311,0.3323,-0.0214,0.8636,-6.46,7.88,-0.03,26.09
4321,0.3325,-0.0229,0.8641,-6.52,7.85,0.08,26.12
4331,0.3351,-0.0209,0.8613,-6.46,7.82,-0.09,26.12
4341,0.3334,-0.0219,0.8661,-6.44,7.85,-0.08,26.1
4351,0.3304,-0.0209,0.8658,-6.46,7.91,-0.11,26.12
4361,0.3293,-0.0262,0.8694,-6.58,8.02,0.17,26.12
4371,0.3322,-0.0214,0.865,-6.44,7.94,-0.08,26.15
4381,0.3354,-0.0245,0.8647,-6.49,7.77,0.02,26.11
4391,0.3347,-0.0226,0.8678,-6.43,7.74,0.0,26.11
4401,0.3364,-0.0227,0.8621,-6.46,7.8,-0.09,26.11
4411,0.3361,-0.0253,0.863,-6.32,7.89,-0.05,26.11
4421,0.3293,-0.0239,0.8622,-6.44,7.82,-0.11,26.13
4431,0.332,-0.0217,0.8633,-6.49,7.82,-0.02,26.12
4441,0.3335,-0.0227,0.8658,-6.46,7.89,0.0,26.1
4451,0.3329,-0.0208,0.8654,-6.44,7.82,-0.08,26.12
4461,0.3347,-0.0215,0.8658,-6.44,7.82,-0.06,26.12
4471,0.3347,-0.025,0.8627,-6.5,7.82,-0.03,26.11
4481,0.3357,-0.0259,0.8615,-6.43,7.83,-0.02,26.14
4491,0.3324,-0.0259,0.8647,-6.53,7.82,-0.06,26.14
4501,0.333,-0.0229,0.866,-6.43,7.85,-0.06,26.12
4511,0.3331,-0.0212,0.8619,-6.44,7.89,0.05,26.13
4521,0.3353,-0.0245,0.8633,-6.47,7.85,-0.02,26.14
4531,0.3336,-0.0222,0.8638,-6.38,7.86,-0.05,26.12
4541,0.3341,-0.0217,0.8615,-6.44,7.83,-0.06,26.12
4551,0.3357,-0.0226,0.8628,-6.41,7.79,-0.09,26.14
4561,0.3317,-0.0223,0.8615,-6.46,7.89,-0.05,26.14
4571,0.3344,-0.0231,0.8611,-6.46,7.89,-0.06,26.14
4581,0.3345,-0.0233,0.8619,-6.46,7.86,-0.11,26.12
4591,0.3342,-0.025,0.8613,-6.53,7.86,0.0,26.12
4601,0.3341,-0.0208,0.8668,-6.37,7.8,-0.02,26.13
4611,0.3356,-0.0239,0.8645,-6.43,7.88,-0.05,26.11
4621,0.3365,-0.0214,0.864,-6.47,7.85,0.09,26.13
4631,0.3381,-0.0221,0.8628,-6.5,7.83,0.02,26.11
4641,0.3313,-0.0229,0.8638,-6.44,7.8,-0.02,26.14
4651,0.3325,-0.0244,0.8639,-6.5,7.82,-0.03,26.14
4661,0.3313,-0.0242,0.8623,-6.46,7.85,-0.08,26.14
4671,0.334,-0.0231,0.8629,-6.4,7.88,0.0,26.15
4681,0.3309,-0.0217,0.8608,-6.41,7.82,-0.03,26.13
4691,0.3337,-0.0233,0.864,-6.4,7.83,-0.03,26.13
4701,0.3334,-0.0201,0.859,-6.38,7.82,-0.03,26.13
4712,0.3322,-0.0204,0.8628,-6.53,7.8,0.02,26.13
4722,0.3334,-0.02,0.8665,-6.53,7.77,-0.03,26.12
4732,0.3324,-0.0242,0.8654,-6.43,7.83,-0.08,26.12
4742,0.3323,-0.0229,0.8608,-6.46,7.85,0.0,26.12
4752,0.3353,-0.0248,0.8625,-6.43,7.79,0.0,26.14
4762,0.3333,-0.0239,0.8657,-6.4,7.82,-0.03,26.14
4772,0.3342,-0.0245,0.8616,-6.49,7.8,-0.03,26.13
4782,0.3344,-0.0242,0.8639,-6.5,7.77,-0.02,26.14
4792,0.3363,-0.0253,0.8634,-6.41,7.79,-0.14,26.14
4802,0.3344,-0.0233,0.864,-6.46,7.8,-0.03,26.12
4812,0.3342,-0.0239,0.863,-6.47,7.83,-0.02,26.14
4822,0.3341,-0.025,0.8667,-6.46,7.83,-0.03,26.14
4832,0.3367,-0.0209,0.8633,-6.47,7.82,0.0,26.14
4842,0.3339,-0.0232,0.8645,-6.52,7.88,-0.05,26.14
4852,0.3308,-0.0234,0.8638,-6.46,7.83,0.0,26.12
4862,0.3334,-0.0256,0.8618,-6.49,7.89,-0.09,26.12
4872,0.3337,-0.0254,0.865,-6.49,7.86,-0.02,26.14
4882,0.3342,-0.0245,0.8646,-6.53,7.83,-0.05,26.12
4892,0.3364,-0.0219,0.8668,-6.47,7.73,-0.03,26.14
4902,0.3345,-0.0215,0.8641,-6.43,7.85,0.0,26.15
4912,0.333,-0.0232,0.8624,-6.5,7.88,-0.09,26.14
4922,0.3337,-0.0221,0.8629,-6.46,7.85,0.0,26.14
4932,0.3315,-0.0231,0.8636,-6.53,7.86,-0.09,26.13
4942,0.3325,-0.0236,0.8619,-6.5,7.83,-0.05,26.1
4952,0.3348,-0.0249,0.8624,-6.41,7.8,-0.05,26.15
4962,0.3344,-0.0234,0.8661,-6.44,7.86,0.02,26.12
4972,0.3346,-0.0272,0.8568,-6.47,7.85,-0.06,26.16
4982,0.3341,-0.0231,0.8627,-6.44,7.85,-0.02,26.16
4992,0.3337,-0.0243,0.8672,-6.38,7.8,0.0,26.14
5002,0.3345,-0.0231,0.86,-6.49,7.86,-0.03,26.15
5012,0.3325,-0.0221,0.8641,-6.46,7.89,-0.08,26.14
5022,0.3335,-0.0227,0.8618,-6.56,7.89,-0.02,26.13
5032,0.3359,-0.0212,0.8604,-6.43,7.88,-0.08,26.15
5042,0.3334,-0.0208,0.8608,-6.43,7.91,-0.05,26.16
5052,0.3379,-0.0264,0.8685,-6.38,7.86,-0.02,26.14
5062,0.3354,-0.0226,0.8673,-6.47,7.69,-0.08,26.17
5072,0.3386,-0.025,0.8625,-6.43,7.86,0.06,26.15
5082,0.3302,-0.0343,0.8652,-6.47,7.82,0.0,26.15
5092,0.3311,-0.0282,0.8628,-6.38,7.86,-0.06,26.14
5102,0.3363,-0.0165,0.8656,-6.35,7.82,0.02,26.16
5112,0.3353,-0.0149,0.8666,-6.47,7.88,0.03,26.16
5122,0.3308,-0.0269,0.861,-6.55,7.82,-0.05,26.13
5132,0.3323,-0.0277,0.8597,-6.46,7.86,-0.11,26.16
5142,0.3354,-0.0212,0.8632,-6.32,7.89,0.02,26.15
5152,0.3334,-0.0211,0.8657,-6.43,7.85,-0.03,26.17
5162,0.328,-0.0259,0.8632,-6.4,7.85,0.06,26.15
5172,0.3348,-0.0187,0.8652,-6.46,7.77,-0.09,26.17
5182,0.3339,-0.0162,0.8665,-6.5,7.86,-0.11,26.16
5192,0.3354,-0.0234,0.8668,-6.44,7.88,-0.06,26.14
5202,0.3357,-0.0259,0.86,-6.43,7.86,0.05,26.14
5212,0.3374,-0.0219,0.8635,-6.38,7.85,-0.08,26.14
5222,0.332,-0.0251,0.8619,-6.43,7.94,-0.08,26.13
5232,0.3326,-0.0248,0.8641,-6.37,7.85,-0.08,26.12
5242,0.3346,-0.0201,0.8677,-6.56,7.85,-0.05,26.14
5252,0.3347,-0.0232,0.8643,-6.46,7.83,-0.06,26.16
5262,0.3296,-0.0273,0.8634,-6.44,7.89,-0.03,26.15
5272,0.3322,-0.0244,0.8639,-6.44,7.8,-0.03,26.15
5282,0.3381,-0.0172,0.863,-6.44,7.85,0.03,26.16
5292,0.3346,-0.0233,0.8654,-6.43,7.85,-0.09,26.17
5302,0.3324,-0.0253,0.866,-6.44,7.86,-0.09,26.13
5312,0.3357,-0.0209,0.864,-6.44,7.79,0.0,26.15
5322,0.3302,-0.0225,0.8595,-6.4,7.86,-0.03,26.16
5332,0.3345,-0.0262,0.8623,-6.44,7.86,-0.03,26.14
5342,0.333,-0.0222,0.8621,-6.44,7.79,0.0,26.17
5352,0.3347,-0.0175,0.8649,-6.49,7.88,-0.06,26.19
5362,0.3342,-0.0236,0.8645,-6.56,7.86,0.02,26.14
5372,0.3323,-0.028,0.865,-6.37,7.88,-0.08,26.15
5382,0.333,-0.0231,0.8634,-6.46,7.83,0.0,26.14
5392,0.3368,-0.025,0.8633,-6.49,7.83,-0.02,26.15
5402,0.3325,-0.0276,0.864,-6.53,7.89,-0.02,26.15
5412,0.3325,-0.0276,0.8622,-6.37,7.89,-0.08,26.18
5422,0.3345,-0.0208,0.864,-6.41,7.89,-0.02,26.18
5432,0.3319,-0.024,0.8635,-6.47,7.92,-0.02,26.17
5442,0.334,-0.0266,0.8618,-6.53,7.82,-0.05,26.15
5452,0.3353,-0.0189,0.8615,-6.44,7.91,-0.06,26.17
5462,0.3362,-0.0161,0.8624,-6.5,7.88,-0.08,26.17
5472,0.3351,-0.025,0.8649,-6.44,7.89,-0.03,26.17
5482,0.3353,-0.0205,0.865,-6.47,7.85,-0.11,26.18
5492,0.3342,-0.0236,0.864,-6.47,7.91,-0.02,26.14
5502,0.3312,-0.0238,0.8661,-6.44,7.83,0.02,26.17
5512,0.3336,-0.0238,0.8636,-6.46,7.82,-0.03,26.19
5522,0.3333,-0.0234,0.8667,-6.47,7.83,-0.05,26.15
5532,0.3326,-0.0231,0.8625,-6.46,7.83,-0.05,26.18
5542,0.3313,-0.0281,0.8623,-6.5,7.85,-0.06,26.18
5552,0.3329,-0.0239,0.8658,-6.5,7.88,-0.08,26.17
5562,0.3376,-0.0206,0.863,-6.5,7.82,-0.03,26.17
5572,0.3329,-0.0233,0.8625,-6.47,7.85,-0.06,26.17
5582,0.335,-0.0236,0.8682,-6.46,7.85,-0.05,26.18
5592,0.3369,-0.0209,0.8649,-6.41,7.88,-0.08,26.16
5602,0.3346,-0.0234,0.8611,-6.41,7.83,-0.05,26.17
5612,0.3333,-0.0238,0.8629,-6.4,7.77,-0.08,26.15
5622,0.3342,-0.0222,0.8621,-6.44,7.86,-0.02,26.18
5632,0.3318,-0.0228,0.8678,-6.43,7.86,0.0,26.19
5642,0.3319,-0.0256,0.8624,-6.47,7.85,-0.05,26.17
5652,0.3342,-0.0233,0.8618,-6.49,7.82,-0.11,26.19
5662,0.3331,-0.0216,0.8634,-6.43,7.82,-0.03,26.17
5672,0.3333,-0.0215,0.8633,-6.44,7.86,-0.14,26.17
5682,0.3331,-0.0222,0.8638,-6.47,7.85,-0.09,26.18
5692,0.3334,-0.021,0.8687,-6.47,7.85,-0.11,26.17
5702,0.3362,-0.0217,0.8657,-6.44,7.88,-0.08,26.18
5713,0.3346,-0.0227,0.8639,-6.49,7.89,-0.05,26.19
5723,0.3331,-0.0278,0.863,-6.49,7.88,-0.03,26.17
5733,0.3342,-0.0225,0.8616,-6.46,7.86,-0.03,26.13
5743,0.3312,-0.0205,0.8607,-6.46,7.91,-0.03,26.19
5753,0.3319,-0.0255,0.8634,-6.5,7.77,-0.02,26.18
5763,0.3334,-0.0208,0.8646,-6.55,7.85,-0.05,26.17
5773,0.3348,-0.0216,0.8655,-6.43,7.88,-0.11,26.17
5783,0.3318,-0.0228,0.8639,-6.38,7.83,-0.02,26.18
5793,0.3322,-0.028,0.864,-6.47,7.86,-0.02,26.19
5803,0.3344,-0.0232,0.8649,-6.46,7.83,-0.09,26.17
5813,0.3344,-0.0249,0.8621,-6.47,7.83,-0.11,26.18
5823,0.335,-0.0228,0.8656,-6.52,7.86,-0.09,26.19
5833,0.3337,-0.0225,0.8639,-6.46,7.83,-0.09,26.17
5843,0.3336,-0.0203,0.8632,-6.49,7.89,-0.06,26.16
5853,0.334,-0.0216,0.8636,-6.5,7.79,-0.12,26.17
5863,0.3341,-0.0239,0.8634,-6.5,7.8,-0.06,26.17
5873,0.3339,-0.0229,0.8608,-6.44,7.89,0.02,26.17
5883,0.3336,-0.0237,0.8655,-6.41,7.91,0.02,26.19
5893,0.333,-0.021,0.8657,-6.46,7.83,-0.08,26.19
5903,0.3325,-0.0227,0.8613,-6.43,7.85,-0.03,26.18
5913,0.3333,-0.0254,0.8623,-6.47,7.83,-0.02,26.18
5923,0.3314,-0.0244,0.8646,-6.44,7.86,-0.06,26.19
5933,0.3329,-0.0225,0.8635,-6.34,7.88,-0.08,26.19
5943,0.3336,-0.0206,0.8663,-6.49,7.79,-0.02,26.2
5953,0.3319,-0.0236,0.8649,-6.49,7.82,-0.06,26.21
5963,0.3342,-0.0275,0.8667,-6.41,7.76,-0.03,26.16
5973,0.335,-0.022,0.8628,-6.53,7.8,0.03,26.19
5983,0.3363,-0.0219,0.8649,-6.46,7.89,-0.02,26.17
5993,0.335,-0.0254,0.8655,-6.47,7.86,-0.03,26.19
6003,0.335,-0.0233,0.863,-6.44,7.88,0.02,26.18
6013,0.3328,-0.0216,0.8625,-6.38,7.86,-0.03,26.18
6023,0.3317,-0.0222,0.8647,-6.5,7.86,-0.03,26.19
6033,0.3302,-0.0211,0.8628,-6.53,7.83,-0.02,26.21
6043,0.3333,-0.0228,0.8636,-6.38,7.8,-0.05,26.19
6053,0.3334,-0.022,0.8624,-6.46,7.82,-0.06,26.19
6063,0.3356,-0.021,0.8646,-6.49,7.86,-0.02,26.19
6073,0.335,-0.0212,0.8649,-6.53,7.82,-0.05,26.22
6083,0.3363,-0.0211,0.8649,-6.37,7.86,-0.02,26.18
6093,0.3342,-0.0237,0.8658,-6.44,7.83,-0.03,26.19
6103,0.3339,-0.0242,0.8644,-6.43,7.85,-0.06,26.17
6113,0.3312,-0.0247,0.8679,-6.44,7.91,-0.02,26.18
6123,0.3325,-0.0244,0.8633,-6.52,7.85,-0.03,26.17
6133,0.3342,-0.0229,0.8628,-6.49,7.82,0.02,26.19
6143,0.3325,-0.0256,0.8635,-6.47,7.86,-0.08,26.19
6153,0.3335,-0.027,0.8662,-6.46,7.86,-0.09,26.19
6163,0.3334,-0.0254,0.8662,-6.37,7.82,-0.02,26.19
6173,0.3365,-0.0193,0.8654,-6.5,7.85,0.0,26.21
6183,0.337,-0.0225,0.8629,-6.47,7.83,0.05,26.19
6193,0.3324,-0.0234,0.8643,-6.44,7.89,-0.08,26.2
6203,0.3364,-0.0189,0.8666,-6.38,7.88,-0.05,26.22
6213,0.3331,-0.0229,0.8643,-6.49,7.94,-0.11,26.2
6223,0.3325,-0.0239,0.8649,-6.47,7.82,-0.03,26.2
6233,0.3331,-0.0234,0.8629,-6.47,7.89,-0.02,26.21
6243,0.3323,-0.0245,0.8588,-6.47,7.88,-0.06,26.22
6253,0.3313,-0.0238,0.8629,-6.52,7.83,-0.05,26.22
6263,0.3353,-0.0222,0.8666,-6.46,7.88,-0.03,26.22
6273,0.3324,-0.0219,0.8616,-6.55,7.89,-0.03,26.19
6283,0.3341,-0.0229,0.8646,-6.44,7.91,-0.05,26.2
6293,0.3339,-0.0231,0.8655,-6.5,7.83,-0.06,26.2
6303,0.3333,-0.0212,0.8679,-6.35,7.89,0.03,26.18
6313,0.3322,-0.0234,0.8661,-6.46,7.8,-0.05,26.19
6323,0.3363,-0.0238,0.8668,-6.55,7.85,-0.05,26.18
6333,0.3341,-0.021,0.8641,-6.5,7.8,-0.14,26.19
6343,0.3329,-0.0214,0.8612,-6.49,7.91,-0.02,26.21
6353,0.332,-0.0245,0.8599,-6.55,7.83,-0.09,26.2
6363,0.333,-0.0244,0.8617,-6.52,7.88,-0.02,26.2
6373,0.3331,-0.0219,0.8639,-6.44,7.82,-0.02,26.19
6383,0.3337,-0.0262,0.8633,-6.49,7.79,-0.03,26.19
6393,0.3363,-0.026,0.8632,-6.46,7.8,0.05,26.19
6403,0.3335,-0.0291,0.8687,-6.37,7.77,-0.09,26.2
6413,0.3362,-0.0254,0.8673,-6.44,7.89,-0.03,26.19
6423,0.3339,-0.022,0.8668,-6.44,7.86,-0.03,26.22
6433,0.3344,-0.0201,0.8671,-6.46,7.8,0.02,26.2
6450,0.3365,-0.0204,0.8572,-6.43,7.79,-0.06,26.19
6460,0.3362,-0.0225,0.8616,-6.47,7.8,-0.08,26.2
6470,0.334,-0.0212,0.8638,-6.49,7.83,-0.03,26.21
6480,0.3336,-0.0254,0.8617,-6.53,7.83,-0.03,26.19
6490,0.3346,-0.0245,0.8649,-6.47,7.91,-0.11,26.19
6500,0.3345,-0.0222,0.8669,-6.43,7.85,-0.05,26.21
6510,0.3344,-0.0245,0.8621,-6.52,7.8,-0.05,26.19
6520,0.3347,-0.0225,0.8632,-6.5,7.89,-0.11,26.2
6530,0.3335,-0.0221,0.8618,-6.47,7.89,0.0,26.19
6541,0.3331,-0.0242,0.8597,-6.46,7.86,-0.05,26.22
6551,0.3335,-0.0236,0.8604,-6.41,7.91,-0.11,26.2
6561,0.3319,-0.0247,0.8649,-6.49,7.89,-0.05,26.21
6571,0.3345,-0.0215,0.8624,-6.41,7.92,0.05,26.2
6581,0.334,-0.025,0.864,-6.44,7.89,-0.09,26.21
6591,0.3339,-0.0217,0.8625,-6.44,7.89,0.0,26.22
6601,0.3329,-0.0222,0.8629,-6.52,7.88,-0.05,26.19
6611,0.333,-0.0223,0.8604,-6.56,7.82,0.02,26.21
6621,0.3342,-0.0234,0.8641,-6.46,7.88,0.02,26.19
6631,0.3333,-0.0232,0.8638,-6.47,7.83,-0.02,26.19
6641,0.3334,-0.0228,0.8656,-6.44,7.86,0.0,26.18
6651,0.3352,-0.0221,0.8646,-6.44,7.88,0.0,26.22
6661,0.3344,-0.0212,0.8632,-6.43,7.79,-0.06,26.2
6671,0.3336,-0.0255,0.8661,-6.41,7.88,-0.14,26.24
6681,0.3329,-0.0232,0.8636,-6.4,7.86,-0.08,26.21
6691,0.3356,-0.0225,0.8676,-6.46,7.82,-0.03,26.23
6701,0.3348,-0.022,0.8654,-6.46,7.86,-0.06,26.19
6711,0.3337,-0.0221,0.8641,-6.53,7.8,0.02,26.22
6721,0.3335,-0.0225,0.865,-6.49,7.89,0.0,26.22
6731,0.3318,-0.0211,0.8618,-6.47,7.85,-0.08,26.2
6741,0.334,-0.0214,0.8666,-6.41,7.86,-0.05,26.22
6751,0.3323,-0.0231,0.8627,-6.41,7.88,-0.05,26.2
6761,0.3361,-0.0236,0.864,-6.47,7.83,-0.02,26.22
6771,0.333,-0.0228,0.8629,-6.44,7.86,0.03,26.22
6781,0.329,-0.0243,0.8617,-6.5,7.85,-0.06,26.2
6791,0.3354,-0.0233,0.8632,-6.44,7.83,-0.03,26.2
6801,0.3341,-0.0222,0.8684,-6.46,7.8,-0.08,26.21
6811,0.3346,-0.0245,0.8646,-6.44,7.89,-0.08,26.22
6821,0.3353,-0.0253,0.8613,-6.46,7.88,-0.08,26.23
6831,0.3341,-0.0221,0.8639,-6.47,7.86,-0.09,26.22
6841,0.3344,-0.0222,0.8677,-6.46,7.89,-0.06,26.19
6851,0.3347,-0.0212,0.8644,-6.5,7.86,-0.02,26.2
6861,0.3352,-0.0229,0.8644,-6.56,7.82,-0.11,26.22
6871,0.3339,-0.0234,0.8639,-6.52,7.88,-0.05,26.19
6881,0.3335,-0.0258,0.8628,-6.46,7.86,-0.05,26.2
6891,0.3335,-0.0262,0.8608,-6.44,7.86,-0.06,26.22
6901,0.3344,-0.0238,0.8638,-6.44,7.88,-0.08,26.22
6911,0.3339,-0.0254,0.8615,-6.44,7.91,-0.03,26.22
6921,0.3335,-0.0239,0.8672,-6.52,7.76,-0.09,26.18
6931,0.3373,-0.0222,0.8608,-6.47,7.83,0.0,26.21
6942,0.3358,-0.0204,0.8617,-6.44,7.85,0.0,26.22
6952,0.3348,-0.0217,0.8602,-6.49,7.86,-0.12,26.23
6962,0.3336,-0.0234,0.8628,-6.47,7.8,0.0,26.21
6972,0.3339,-0.0236,0.8661,-6.49,7.89,-0.09,26.23
6982,0.3328,-0.0272,0.8629,-6.44,7.89,-0.11,26.22
6992,0.3345,-0.0247,0.8617,-6.46,7.88,0.0,26.21
7002,0.3341,-0.0249,0.8669,-6.43,7.88,-0.05,26.23
7012,0.3312,-0.024,0.8593,-6.46,7.77,-0.05,26.2
7022,0.333,-0.024,0.8649,-6.47,7.79,-0.06,26.2
7032,0.3336,-0.0228,0.8649,-6.43,7.83,-0.05,26.22
7042,0.3331,-0.0228,0.863,-6.52,7.88,-0.08,26.23
7052,0.3363,-0.0209,0.8651,-6.49,7.79,0.0,26.21
7062,0.3336,-0.0226,0.8663,-6.46,7.82,-0.02,26.22
7072,0.3342,-0.0229,0.8632,-6.5,7.89,0.02,26.24
7082,0.332,-0.0232,0.861,-6.4,7.82,-0.08,26.23
7092,0.3329,-0.0247,0.865,-6.49,7.83,-0.11,26.22
7102,0.3368,-0.0225,0.8654,-6.41,7.86,-0.09,26.21
7112,0.3341,-0.0206,0.8663,-6.44,7.88,-0.17,26.2
7122,0.3326,-0.0204,0.8636,-6.5,7.83,-0.08,26.2
7132,0.3345,-0.0256,0.8622,-6.46,7.85,-0.03,26.21
7142,0.3348,-0.0251,0.8658,-6.46,7.77,-0.02,26.22
7152,0.3346,-0.0219,0.8647,-6.47,7.85,-0.06,26.25
7162,0.3336,-0.0239,0.8619,-6.44,7.88,-0.08,26.24
7172,0.3324,-0.0253,0.8651,-6.46,7.85,0.02,26.22
7182,0.332,-0.0251,0.8636,-6.49,7.89,-0.09,26.24
7192,0.3351,-0.0201,0.8656,-6.5,7.85,-0.12,26.24
7202,0.332,-0.0215,0.865,-6.52,7.85,-0.03,26.24
7212,0.3336,-0.024,0.8627,-6.47,7.8,-0.03,26.21
7222,0.3334,-0.024,0.8619,-6.43,7.85,0.0,26.22
7232,0.3334,-0.0259,0.8647,-6.46,7.88,-0.11,26.22
7242,0.3344,-0.0237,0.8654,-6.46,7.89,-0.03,26.22
7252,0.3329,-0.0228,0.8604,-6.35,7.88,-0.05,26.22
7262,0.3331,-0.0206,0.864,-6.53,7.85,-0.03,26.23
7272,0.3326,-0.0221,0.8649,-6.46,7.85,-0.09,26.22
7282,0.335,-0.025,0.8628,-6.41,7.88,0.02,26.22
7292,0.3328,-0.0206,0.864,-6.55,7.85,0.03,26.21
7302,0.3329,-0.022,0.8621,-6.52,7.89,-0.03,26.23
7312,0.3341,-0.0239,0.8636,-6.49,7.85,-0.03,26.22
7322,0.3345,-0.0245,0.8665,-6.41,7.82,-0.05,26.25
7332,0.3326,-0.0209,0.8673,-6.46,7.89,-0.05,26.23
7342,0.3344,-0.0231,0.8647,-6.52,7.88,-0.08,26.24
7352,0.3357,-0.0223,0.8657,-6.41,7.88,-0.03,26.23
7362,0.3348,-0.0217,0.8658,-6.37,7.85,0.02,26.22
7372,0.3336,-0.022,0.8645,-6.5,7.85,0.02,26.22
7382,0.3324,-0.0228,0.8607,-6.5,7.83,-0.05,26.23
7392,0.3304,-0.0221,0.8604,-6.46,7.83,-0.05,26.24
7402,0.3336,-0.0243,0.8645,-6.5,7.88,-0.09,26.23
7412,0.3352,-0.0217,0.8656,-6.52,7.86,-0.11,26.21
7423,0.3331,-0.0228,0.865,-6.44,7.92,-0.08,26.23
7433,0.3317,-0.0231,0.8627,-6.38,7.91,-0.06,26.23
7443,0.3345,-0.025,0.8647,-6.52,7.86,-0.05,26.22
7453,0.3323,-0.024,0.864,-6.43,7.85,-0.05,26.22
7463,0.332,-0.025,0.8662,-6.47,7.86,0.0,26.22
7473,0.3331,-0.0248,0.8632,-6.5,7.83,-0.05,26.22
7483,0.3326,-0.0225,0.865,-6.4,7.94,-0.06,26.22
7493,0.3328,-0.0199,0.8579,-6.5,7.82,-0.09,26.24
7503,0.3345,-0.0212,0.861,-6.53,7.83,-0.02,26.25
7513,0.337,-0.0208,0.8655,-6.47,7.82,-0.12,26.25
7523,0.3364,-0.0243,0.8701,-6.44,7.82,-0.11,26.26
7533,0.3378,-0.0237,0.8668,-6.49,7.82,-0.02,26.25
7543,0.3367,-0.0231,0.8673,-6.43,7.82,-0.06,26.26
7553,0.3375,-0.0214,0.8658,-6.44,7.79,-0.08,26.24
7563,0.3373,-0.0236,0.8635,-6.47,7.82,-0.05,26.24
7573,0.3315,-0.024,0.8618,-6.37,7.89,0.03,26.23
7583,0.3306,-0.0232,0.8604,-6.52,7.89,0.05,26.24
7593,0.3306,-0.0253,0.8606,-6.34,7.85,-0.02,26.24
7603,0.3308,-0.0211,0.861,-6.4,7.85,0.02,26.23
7613,0.3329,-0.0244,0.8617,-6.46,7.88,0.02,26.23
7623,0.3339,-0.0254,0.8638,-6.38,7.92,-0.08,26.23
7633,0.3306,-0.022,0.8668,-6.44,7.89,0.0,26.22
7643,0.3339,-0.0253,0.8652,-6.46,7.86,-0.08,26.27
7653,0.335,-0.021,0.8678,-6.52,7.8,-0.02,26.25
7663,0.3361,-0.0217,0.8644,-6.47,7.91,-0.05,26.23
7674,0.3344,-0.0237,0.8617,-6.47,7.79,-0.03,26.25
7684,0.3333,-0.0231,0.8604,-6.43,7.97,-0.03,26.22
7694,0.332,-0.0239,0.8605,-6.44,7.92,-0.03,26.23
7704,0.3326,-0.0234,0.8602,-6.4,7.85,-0.11,26.27
7714,0.3293,-0.0219,0.8628,-6.41,7.83,-0.06,26.26
7724,0.3314,-0.0197,0.8668,-6.46,7.88,-0.11,26.24
7734,0.3385,-0.0195,0.8655,-6.41,7.83,-0.05,26.25
7744,0.3357,-0.0233,0.8649,-6.47,7.73,-0.02,26.24
7754,0.3323,-0.025,0.868,-6.49,7.94,-0.12,26.25
7764,0.3318,-0.0238,0.8668,-6.47,7.92,-0.08,26.25
7774,0.3325,-0.0262,0.8661,-6.52,7.85,-0.02,26.25
7784,0.335,-0.0254,0.8589,-6.53,7.69,-0.05,26.25
7794,0.3324,-0.0222,0.8635,-6.47,7.92,-0.05,26.26
7804,0.3324,-0.0229,0.8618,-6.38,7.91,-0.09,26.25
7814,0.33,-0.0208,0.8647,-6.52,7.88,-0.06,26.23
7824,0.328,-0.0208,0.8671,-6.56,7.91,-0.08,26.24
7834,0.335,-0.0222,0.8677,-6.43,7.83,-0.03,26.24
7844,0.3389,-0.022,0.8634,-6.47,7.83,-0.02,26.25
7854,0.3379,-0.0231,0.8693,-6.44,7.8,-0.06,26.23
7864,0.3364,-0.0264,0.8658,-6.46,7.88,-0.02,26.22
7874,0.3323,-0.025,0.8624,-6.4,7.91,-0.05,26.25
7884,0.335,-0.0237,0.8623,-6.43,7.88,-0.06,26.23
7894,0.3307,-0.0216,0.8645,-6.43,7.86,-0.03,26.24
7904,0.3312,-0.0232,0.8621,-6.49,7.88,-0.09,26.25
7914,0.3315,-0.0211,0.8646,-6.47,7.85,-0.02,26.25
7924,0.3331,-0.0249,0.8661,-6.46,7.77,-0.05,26.23
7934,0.3314,-0.0287,0.8628,-6.41,7.83,-0.05,26.24
7944,0.3361,-0.0238,0.8617,-6.47,7.95,-0.05,26.24
7954,0.3351,-0.0265,0.8632,-6.47,7.94,-0.09,26.24
7964,0.3335,-0.0242,0.8644,-6.37,7.85,-0.03,26.24
7974,0.3374,-0.0219,0.8621,-6.46,7.79,-0.03,26.24
7984,0.3353,-0.0226,0.8607,-6.47,7.89,-0.03,26.25
7994,0.334,-0.0231,0.8616,-6.44,7.82,0.0,26.24
8004,0.3336,-0.0222,0.8589,-6.47,7.86,-0.05,26.23
8014,0.3368,-0.0229,0.8633,-6.37,7.88,-0.02,26.26
8024,0.3354,-0.0244,0.8628,-6.49,7.85,0.0,26.23
8034,0.3369,-0.0225,0.866,-6.5,7.83,-0.05,26.27
8044,0.3344,-0.0249,0.8654,-6.5,7.88,-0.08,26.22
8054,0.3346,-0.0229,0.8646,-6.47,7.88,-0.08,26.26
8064,0.3297,-0.0236,0.8617,-6.46,7.82,-0.02,26.26
8074,0.3337,-0.0199,0.8608,-6.49,7.83,-0.03,26.24
8084,0.3341,-0.0244,0.861,-6.47,7.86,-0.03,26.25
8094,0.3303,-0.0247,0.8615,-6.47,7.86,-0.05,26.24
8104,0.3325,-0.0239,0.861,-6.49,7.85,-0.11,26.28
8114,0.3309,-0.0253,0.8651,-6.47,7.82,-0.02,26.25
8124,0.3344,-0.0217,0.8662,-6.5,7.88,-0.06,26.25
8134,0.3346,-0.0226,0.8635,-6.52,7.8,-0.09,26.27
8144,0.3342,-0.0198,0.8654,-6.47,7.82,0.05,26.24
8154,0.3358,-0.0212,0.8649,-6.53,7.82,-0.09,26.24
8164,0.333,-0.0234,0.8619,-6.52,7.85,-0.02,26.24
8174,0.3335,-0.0255,0.8586,-6.6,7.83,0.05,26.26
8184,0.3318,-0.0297,0.8651,-6.43,7.88,-0.03,26.28
8194,0.3323,-0.0249,0.8646,-6.43,7.82,-0.03,26.25
8204,0.3323,-0.024,0.8612,-6.47,7.85,-0.06,26.26
8214,0.333,-0.0239,0.8669,-6.47,7.86,-0.06,26.24
8224,0.332,-0.0231,0.8706,-6.43,7.86,-0.09,26.25
8234,0.3328,-0.0228,0.8602,-6.47,7.89,-0.03,26.26
8244,0.3344,-0.0237,0.8607,-6.43,7.83,-0.03,26.23
8254,0.3324,-0.0237,0.8658,-6.5,7.85,-0.05,26.26
8264,0.3373,-0.0245,0.8647,-6.43,7.92,-0.03,26.27
8274,0.3322,-0.0233,0.8639,-6.44,7.85,0.03,26.25
8284,0.3336,-0.0229,0.8641,-6.46,7.98,-0.06,26.27
8294,0.3333,-0.0209,0.8618,-6.46,7.86,-0.05,26.28
8304,0.3328,-0.0216,0.8639,-6.53,7.86,-0.06,26.28
8314,0.3313,-0.0238,0.8665,-6.5,7.88,-0.06,26.29
8324,0.3329,-0.0219,0.8613,-6.44,7.92,-0.11,26.27
8334,0.3319,-0.0265,0.8662,-6.53,7.86,-0.02,26.26
8344,0.3353,-0.0238,0.8647,-6.53,7.8,-0.09,26.25
8354,0.3364,-0.0237,0.8634,-6.5,7.83,0.05,26.28
8364,0.3351,-0.0269,0.8646,-6.52,7.88,-0.03,26.28
8374,0.3339,-0.0249,0.8644,-6.44,7.85,-0.05,26.24
8384,0.3317,-0.0223,0.8645,-6.41,7.85,-0.02,26.28
8395,0.3326,-0.0209,0.8625,-6.49,7.88,-0.05,26.27
8405,0.3354,-0.0236,0.863,-6.47,7.88,0.02,26.26
8415,0.334,-0.0229,0.8636,-6.5,7.89,-0.03,26.24
8425,0.3354,-0.0244,0.8684,-6.41,7.86,-0.09,26.26
8435,0.3351,-0.0222,0.8635,-6.44,7.82,-0.02,26.29
8445,0.3348,-0.0244,0.8657,-6.44,7.83,0.0,26.29
8455,0.3352,-0.0239,0.8589,-6.46,7.82,-0.03,26.27
8465,0.3348,-0.0225,0.864,-6.49,7.82,-0.09,26.27
8475,0.3356,-0.0225,0.8652,-6.52,7.82,-0.02,26.28
8485,0.3361,-0.0244,0.8652,-6.5,7.91,0.0,26.28
8495,0.3331,-0.0265,0.8627,-6.44,7.83,-0.05,26.27
8505,0.3356,-0.0243,0.8616,-6.43,7.91,0.03,26.29
8515,0.3342,-0.026,0.8661,-6.44,7.88,0.02,26.3
8525,0.3345,-0.0243,0.8651,-6.41,7.86,-0.03,26.29
8535,0.3339,-0.0248,0.8635,-6.49,7.85,-0.09,26.29
8545,0.3357,-0.0232,0.8684,-6.35,7.91,-0.09,26.29
8555,0.3341,-0.0238,0.8698,-6.35,7.85,-0.02,26.3
8565,0.3325,-0.0211,0.864,-6.37,7.89,0.02,26.29
8575,0.3334,-0.0225,0.8658,-6.43,7.88,0.0,26.28
8585,0.3352,-0.0251,0.8611,-6.41,7.88,-0.08,26.28
8595,0.3317,-0.0219,0.8636,-6.47,7.83,-0.06,26.27
8605,0.3328,-0.0233,0.8641,-6.53,7.86,-0.06,26.28
8615,0.3333,-0.0237,0.8629,-6.47,7.88,0.0,26.28
8625,0.3334,-0.0216,0.8622,-6.44,7.86,-0.02,26.28
8635,0.3312,-0.0258,0.8649,-6.5,7.83,-0.05,26.28
8645,0.3346,-0.0236,0.8623,-6.46,7.85,0.0,26.28
8655,0.3364,-0.0245,0.8639,-6.49,7.91,0.0,26.29
8665,0.3359,-0.028,0.8669,-6.4,7.83,-0.03,26.27
8675,0.3356,-0.0244,0.8635,-6.44,7.86,-0.05,26.27
8685,0.334,-0.0248,0.8645,-6.43,7.83,-0.03,26.29
8695,0.3333,-0.0231,0.8635,-6.49,7.86,0.0,26.28
8705,0.3334,-0.0227,0.8627,-6.44,7.82,-0.06,26.26
8715,0.333,-0.0216,0.8632,-6.41,7.85,-0.06,26.3
8725,0.3348,-0.0199,0.8677,-6.49,7.94,0.02,26.29
8735,0.3373,-0.019,0.8629,-6.46,7.83,-0.03,26.28
8745,0.3335,-0.0222,0.8643,-6.49,7.95,-0.03,26.27
8755,0.3326,-0.0236,0.8679,-6.34,7.88,-0.06,26.3
8765,0.3358,-0.024,0.8636,-6.44,7.83,-0.03,26.3
8775,0.3333,-0.0284,0.8672,-6.44,7.86,-0.12,26.29
8785,0.3331,-0.0295,0.865,-6.47,7.82,-0.08,26.28
8795,0.3304,-0.0256,0.8629,-6.46,7.85,-0.06,26.25
8805,0.3295,-0.0248,0.8619,-6.4,7.82,-0.06,26.3
8815,0.3333,-0.0211,0.8599,-6.41,7.95,-0.12,26.29
8825,0.3345,-0.022,0.8628,-6.52,7.85,0.02,26.27
8835,0.3346,-0.0227,0.8627,-6.44,7.83,-0.08,26.28
8845,0.3359,-0.0223,0.8606,-6.46,7.89,0.03,26.28
8855,0.3356,-0.0221,0.8618,-6.46,7.82,0.0,26.29
8865,0.3359,-0.0217,0.8638,-6.46,7.85,-0.08,26.29
8875,0.3379,-0.0245,0.8628,-6.43,7.76,-0.06,26.27
8885,0.3362,-0.0223,0.8612,-6.49,7.85,-0.05,26.29
8895,0.3333,-0.0205,0.8621,-6.55,7.91,-0.05,26.27
8905,0.3311,-0.024,0.8625,-6.53,7.86,-0.14,26.28
8915,0.3302,-0.0204,0.8615,-6.53,7.85,-0.06,26.29
8925,0.3298,-0.0249,0.8585,-6.63,7.86,-0.05,26.28
8935,0.3313,-0.0217,0.8638,-6.53,7.85,0.05,26.29
8945,0.3352,-0.0372,0.8867,-6.34,8.09,0.08,26.28
8955,0.381,-0.0138,0.8192,-6.7,8.55,-0.06,26.28
8965,0.3154,0.009,0.8635,-6.52,9.07,-0.11,26.29
8975,0.2845,-0.0553,0.9014,-6.29,8.43,-0.03,26.26
8985,0.3451,-0.0205,0.8975,-6.35,7.59,0.14,26.26
8995,0.3351,0.0074,0.8158,-6.76,7.74,-0.14,26.29
9005,0.2965,-0.0416,0.864,-6.43,8.09,-0.08,26.28
9015,0.3196,-0.0276,0.9043,-6.46,8.03,0.06,26.28
9025,0.3267,-0.0106,0.8932,-6.52,8.38,-0.08,26.28
9035,0.3252,-0.0312,0.8312,-6.43,7.33,-0.17,26.29
9045,0.3512,-0.0289,0.8745,-6.31,7.07,-0.08,26.28
9055,0.3502,-0.005,0.8911,-6.69,8.38,-0.08,26.27
9065,0.3231,-0.0286,0.8322,-6.55,8.2,-0.06,26.27
9075,0.3309,-0.0292,0.8501,-6.34,7.45,-0.11,26.3
9085,0.3469,-0.0146,0.885,-6.44,8.0,-0.12,26.28
9095,0.3284,-0.0206,0.8573,-6.6,8.23,-0.06,26.28
9105,0.3285,-0.0339,0.8489,-6.44,7.53,0.03,26.29
9115,0.342,-0.0193,0.8823,-6.55,7.66,0.06,26.3
9125,0.3336,-0.0211,0.87,-6.5,8.12,0.0,26.3
9135,0.3295,-0.0292,0.8491,-6.44,7.82,-0.02,26.29
9145,0.3347,-0.0233,0.8647,-6.5,7.68,0.0,26.28
9155,0.334,-0.0198,0.8715,-6.52,7.97,-0.06,26.28
9165,0.3304,-0.0278,0.8627,-6.52,7.98,-0.09,26.31
9175,0.3335,-0.0225,0.8571,-6.46,7.77,-0.09,26.28
9185,0.3357,-0.0192,0.8608,-6.47,7.86,-0.03,26.29
9195,0.3329,-0.0212,0.8613,-6.46,7.92,-0.12,26.3
9205,0.3324,-0.0206,0.8593,-6.5,7.92,-0.03,26.28
9215,0.3378,-0.0221,0.8571,-6.47,7.73,0.02,26.29
9225,0.3373,-0.0236,0.8665,-6.52,7.83,-0.06,26.29
9235,0.3347,-0.0247,0.8666,-6.5,7.86,-0.02,26.29
9245,0.3358,-0.0227,0.8632,-6.5,7.88,0.0,26.3
9255,0.3372,-0.025,0.8698,-6.44,7.85,-0.05,26.31
9265,0.3303,-0.0299,0.8632,-6.44,7.88,0.02,26.3
9275,0.3269,-0.0278,0.8608,-6.47,7.82,-0.02,26.29
9285,0.3306,-0.025,0.86,-6.49,7.82,-0.06,26.3
9316,0.3342,-0.0215,0.864,-6.49,7.82,0.05,26.31
9326,0.3342,-0.0197,0.8645,-6.55,7.79,0.03,26.29
9336,0.3317,-0.0215,0.8665,-6.46,7.86,-0.08,26.27
9346,0.3337,-0.0226,0.8665,-6.5,7.79,-0.08,26.29
9356,0.3364,-0.021,0.8658,-6.55,7.8,0.0,26.29
9366,0.3384,-0.0242,0.8643,-6.47,7.77,-0.05,26.28
9376,0.3351,-0.0253,0.8616,-6.5,7.82,-0.02,26.29
9386,0.334,-0.0269,0.8687,-6.5,7.95,-0.09,26.3
9396,0.334,-0.0289,0.8652,-6.41,7.82,-0.15,26.28
9406,0.3364,-0.0272,0.8689,-6.43,7.86,-0.09,26.29
9416,0.3324,-0.0269,0.8702,-6.44,7.85,-0.09,26.29
9426,0.3323,-0.0234,0.8666,-6.49,7.94,-0.06,26.27
9436,0.3301,-0.0221,0.8688,-6.41,7.88,-0.09,26.3
9446,0.3271,-0.0205,0.864,-6.49,7.88,-0.11,26.28
9456,0.3276,-0.0155,0.8645,-6.52,7.91,-0.09,26.28
9466,0.3295,-0.0161,0.8619,-6.55,7.92,-0.2,26.28
9476,0.3314,-0.0148,0.8634,-6.47,7.91,-0.18,26.31
9486,0.3329,-0.0151,0.8574,-6.49,7.88,-0.21,26.3
9496,0.3342,-0.0154,0.8634,-6.53,7.89,-0.21,26.3
9506,0.3428,-0.0249,0.8588,-6.49,7.8,-0.15,26.31
9516,0.3427,-0.0276,0.8652,-6.46,7.86,-0.18,26.29
9526,0.3448,-0.03,0.8652,-6.53,7.86,-0.14,26.32
9536,0.3448,-0.0294,0.8651,-6.5,7.91,-0.05,26.29
9546,0.3473,-0.0273,0.8572,-6.53,7.91,0.02,26.3
9556,0.3429,-0.0269,0.8572,-6.44,7.92,0.06,26.31
9566,0.3401,-0.0219,0.8589,-6.47,7.88,0.0,26.29
9576,0.3381,-0.0164,0.8623,-6.41,7.89,0.09,26.29
9586,0.3396,-0.017,0.8597,-6.5,7.85,0.05,26.32
9596,0.335,-0.0204,0.8624,-6.52,7.89,0.06,26.29
9606,0.3323,-0.0244,0.8647,-6.43,7.85,0.0,26.32
9616,0.3339,-0.0251,0.8674,-6.41,7.77,0.24,26.3
9626,0.3304,-0.0312,0.8649,-6.41,7.85,0.18,26.29
9636,0.3265,-0.0344,0.8691,-6.4,7.89,0.2,26.3
9646,0.3219,-0.0333,0.864,-6.43,7.88,0.06,26.3
9656,0.3191,-0.0316,0.8724,-6.49,7.86,0.0,26.31
9666,0.3197,-0.0287,0.8684,-6.38,7.83,-0.03,26.3
9676,0.3181,-0.0249,0.8657,-6.4,7.85,-0.08,26.31
9686,0.3215,-0.0168,0.8596,-6.46,7.83,-0.09,26.29
9696,0.3275,-0.01,0.8652,-6.5,7.94,-0.17,26.28
9706,0.3262,-0.0121,0.8665,-6.43,8.0,-0.24,26.29
9716,0.3322,-0.0121,0.8721,-6.46,7.95,-0.2,26.3
9726,0.3372,-0.015,0.8715,-6.47,7.91,-0.32,26.31
9736,0.3391,-0.0255,0.8688,-6.47,7.89,-0.29,26.33
9746,0.3387,-0.0336,0.8676,-6.44,7.98,-0.24,26.3
9756,0.342,-0.0327,0.8646,-6.47,7.94,-0.26,26.31
9766,0.3438,-0.0289,0.8568,-6.46,7.94,-0.23,26.31
9776,0.343,-0.0303,0.8545,-6.46,7.92,-0.17,26.28
9786,0.3407,-0.0212,0.8567,-6.47,7.86,-0.05,26.31
9796,0.3416,-0.0171,0.8574,-6.46,7.89,0.0,26.31
9806,0.3455,-0.009,0.8617,-6.5,7.85,0.08,26.32
9816,0.3452,-0.0117,0.8655,-6.49,7.92,0.06,26.29
9826,0.3419,-0.0157,0.8622,-6.46,7.94,0.02,26.3
9836,0.3439,-0.0181,0.8639,-6.5,7.83,0.08,26.32
9846,0.3436,-0.0255,0.8608,-6.5,7.83,0.15,26.32
9856,0.3438,-0.0342,0.8586,-6.58,7.85,0.12,26.29
9866,0.34,-0.0385,0.8591,-6.47,7.89,0.14,26.3
9876,0.3331,-0.0389,0.8577,-6.44,7.83,0.21,26.27
9886,0.3301,-0.0278,0.8625,-6.55,7.85,0.23,26.29
9896,0.3254,-0.0222,0.8624,-6.46,7.76,0.24,26.31
9906,0.3243,-0.0166,0.871,-6.44,7.83,0.21,26.32
9916,0.3187,-0.0161,0.8718,-6.43,7.88,0.18,26.31
9926,0.325,-0.0125,0.8674,-6.55,7.82,0.06,26.31
9936,0.3241,-0.0177,0.87,-6.47,7.86,0.05,26.3
9946,0.3246,-0.0273,0.871,-6.4,7.88,-0.08,26.31
9956,0.3245,-0.0264,0.8608,-6.41,7.82,-0.09,26.3
9966,0.3246,-0.0356,0.8595,-6.4,7.82,-0.15,26.29
9976,0.3273,-0.0303,0.8595,-6.5,7.89,-0.11,26.29
9986,0.3318,-0.0288,0.8636,-6.55,7.85,-0.15,26.32
9996,0.3352,-0.0215,0.8636,-6.44,7.83,-0.08,26.28
10006,0.3363,-0.0178,0.8645,-6.46,7.79,-0.08,26.3
10016,0.337,-0.0154,0.8635,-6.4,7.82,-0.12,26.29
10026,0.3414,-0.0153,0.87,-6.61,7.8,-0.11,26.28
10036,0.3375,-0.0183,0.8713,-6.46,7.91,-0.03,26.31
10046,0.3363,-0.0211,0.8611,-6.56,7.88,-0.11,26.3
10056,0.3406,-0.0258,0.8595,-6.56,7.89,-0.11,26.31
10066,0.3389,-0.0287,0.861,-6.6,7.88,0.0,26.31
10076,0.3351,-0.026,0.8636,-6.56,7.89,-0.05,26.32
10086,0.3373,-0.0286,0.8625,-6.49,7.77,-0.06,26.3
10096,0.3342,-0.0236,0.8627,-6.47,7.77,0.03,26.3
10106,0.3317,-0.0219,0.8646,-6.47,7.8,0.0,26.31
10116,0.3339,-0.0195,0.8644,-6.53,7.85,-0.02,26.31
10126,0.3265,-0.0175,0.8668,-6.46,7.82,-0.06,26.29
10136,0.3312,-0.0199,0.8666,-6.49,7.83,-0.02,26.32
10146,0.3312,-0.0238,0.8652,-6.47,7.86,-0.09,26.32
10156,0.3342,-0.0238,0.8625,-6.52,7.86,-0.15,26.33
10166,0.3345,-0.0249,0.8643,-6.44,7.92,-0.09,26.3
10176,0.335,-0.0271,0.8633,-6.44,7.92,-0.11,26.31
10186,0.3352,-0.0271,0.8625,-6.43,7.88,-0.06,26.32
10196,0.3365,-0.0223,0.8611,-6.43,7.85,-0.03,26.32
10206,0.3383,-0.0199,0.8651,-6.52,7.89,-0.08,26.32
10216,0.337,-0.0214,0.8612,-6.52,7.88,0.02,26.31
10226,0.3347,-0.0211,0.8649,-6.46,7.83,0.0,26.32
10236,0.3348,-0.0226,0.8669,-6.5,7.91,0.0,26.33
10246,0.3334,-0.0212,0.8643,-6.5,7.88,-0.06,26.31
10256,0.3289,-0.0261,0.8586,-6.44,7.83,-0.06,26.33
10266,0.3309,-0.0248,0.8629,-6.44,7.86,-0.02,26.32
10276,0.3335,-0.0249,0.8595,-6.5,7.88,-0.06,26.3
10286,0.333,-0.024,0.8673,-6.47,7.86,-0.08,26.31
10296,0.3351,-0.0251,0.8658,-6.41,7.79,-0.15,26.34
10306,0.332,-0.0234,0.8677,-6.49,7.86,0.02,26.32
10316,0.3369,-0.0192,0.8669,-6.44,7.88,-0.02,26.32
10326,0.3347,-0.0217,0.8674,-6.53,7.91,0.0,26.3
10336,0.3389,-0.0237,0.8622,-6.46,7.91,-0.06,26.31
10346,0.3367,-0.0225,0.8658,-6.34,7.83,-0.06,26.29
10356,0.3353,-0.0248,0.8597,-6.5,7.88,-0.05,26.31
10366,0.3336,-0.0223,0.8622,-6.47,7.88,-0.08,26.32
10376,0.3335,-0.0253,0.8663,-6.49,7.86,0.06,26.3
10386,0.3341,-0.0237,0.8621,-6.47,7.92,-0.03,26.3
10396,0.3292,-0.0221,0.8678,-6.52,7.88,0.02,26.32
10406,0.3335,-0.022,0.8661,-6.46,7.88,-0.08,26.29
10417,0.333,-0.0233,0.8661,-6.4,7.86,-0.11,26.32
10427,0.3336,-0.0244,0.8651,-6.46,7.85,-0.02,26.3
10437,0.3385,-0.0221,0.8657,-6.49,7.86,-0.05,26.31
10447,0.337,-0.0227,0.8589,-6.37,7.83,-0.11,26.33
10457,0.3361,-0.0231,0.8607,-6.47,7.86,-0.03,26.34
10467,0.3364,-0.0215,0.8652,-6.47,7.85,-0.03,26.33
10477,0.3374,-0.0236,0.8645,-6.47,7.8,0.0,26.32
10487,0.3357,-0.0221,0.8627,-6.44,7.85,-0.08,26.32
10497,0.334,-0.0233,0.863,-6.47,7.94,0.0,26.31
10507,0.332,-0.0269,0.8604,-6.4,7.85,-0.06,26.33
10517,0.3329,-0.0267,0.8618,-6.47,7.88,-0.06,26.33
10527,0.335,-0.0239,0.8632,-6.5,7.82,-0.08,26.33
10537,0.3326,-0.0249,0.8633,-6.47,7.86,-0.02,26.31
10547,0.3337,-0.0244,0.8612,-6.55,7.86,-0.03,26.31
10557,0.3334,-0.0206,0.864,-6.52,7.91,-0.11,26.33
10567,0.3351,-0.0222,0.8606,-6.44,7.83,-0.03,26.32
10577,0.3348,-0.0203,0.8638,-6.41,7.86,-0.09,26.32
10587,0.3341,-0.0227,0.8673,-6.47,7.85,-0.03,26.32
10597,0.3352,-0.0238,0.8643,-6.46,7.89,-0.02,26.34
10607,0.3323,-0.0227,0.8636,-6.52,7.92,-0.03,26.31
10617,0.3344,-0.0236,0.8641,-6.47,7.86,-0.08,26.34
10627,0.3325,-0.0248,0.8652,-6.49,7.85,-0.09,26.32
10637,0.3348,-0.0256,0.8612,-6.46,7.88,-0.12,26.31
10647,0.3318,-0.0244,0.8595,-6.53,7.86,-0.03,26.33
10657,0.3304,-0.0254,0.8628,-6.43,7.88,-0.03,26.35
10667,0.3304,-0.0237,0.8643,-6.43,7.86,-0.05,26.31
10677,0.3334,-0.0244,0.8588,-6.4,7.91,-0.05,26.32
10687,0.3363,-0.0269,0.8641,-6.49,7.86,0.02,26.33
10697,0.3342,-0.0233,0.8639,-6.44,7.89,-0.06,26.32
10707,0.3336,-0.0237,0.8638,-6.4,7.83,-0.12,26.34
10717,0.3342,-0.0219,0.8669,-6.37,7.8,-0.09,26.34
10727,0.3342,-0.0253,0.8668,-6.44,7.83,-0.06,26.34
10737,0.3353,-0.0227,0.8662,-6.46,7.85,-0.02,26.32
10747,0.3335,-0.0248,0.8654,-6.49,7.91,-0.03,26.34
10757,0.3326,-0.025,0.8652,-6.55,7.86,-0.06,26.32
10767,0.334,-0.0255,0.8636,-6.47,7.92,-0.02,26.32
10777,0.3339,-0.0253,0.8658,-6.52,7.88,-0.02,26.31
10787,0.3313,-0.0216,0.8651,-6.47,7.85,-0.05,26.34
10797,0.3313,-0.0233,0.8667,-6.49,7.82,0.05,26.31
10807,0.3334,-0.0227,0.8691,-6.49,7.86,-0.09,26.34
10817,0.3373,-0.0211,0.8632,-6.44,7.91,-0.02,26.32
10827,0.3342,-0.0216,0.8632,-6.46,7.85,-0.03,26.33
10837,0.337,-0.0203,0.8657,-6.47,7.82,-0.12,26.32
10847,0.3362,-0.0259,0.8625,-6.6,7.85,-0.06,26.32
10857,0.3351,-0.0226,0.8636,-6.43,7.92,-0.08,26.31
10867,0.3329,-0.0254,0.8684,-6.49,7.94,0.02,26.36
10877,0.3339,-0.0253,0.8656,-6.5,7.88,-0.06,26.32
10887,0.3346,-0.025,0.8643,-6.53,7.88,-0.02,26.34
10897,0.3312,-0.0251,0.8662,-6.58,7.86,-0.11,26.29
10907,0.3308,-0.024,0.8638,-6.43,7.91,-0.05,26.32
10917,0.3309,-0.0226,0.8617,-6.47,7.83,-0.05,26.33
10927,0.3303,-0.022,0.8602,-6.55,7.91,-0.06,26.34
10937,0.3329,-0.019,0.8619,-6.53,7.82,-0.03,26.32
10947,0.3357,-0.0223,0.8608,-6.47,7.85,-0.05,26.31
10957,0.3358,-0.0203,0.8649,-6.47,7.86,-0.11,26.32
10967,0.3378,-0.0206,0.8639,-6.46,7.86,-0.15,26.31
10977,0.3361,-0.0199,0.8617,-6.52,7.89,-0.02,26.32
10987,0.3381,-0.0266,0.87,-6.56,7.88,0.03,26.32
10997,0.3345,-0.0245,0.866,-6.47,7.88,0.03,26.31
11007,0.3323,-0.0242,0.8615,-6.52,7.85,0.02,26.32
11017,0.3325,-0.024,0.8651,-6.49,7.89,0.03,26.33
11027,0.3282,-0.0215,0.8655,-6.53,7.94,-0.03,26.34
11037,0.3334,-0.0234,0.8596,-6.46,7.8,-0.05,26.33
11047,0.3308,-0.0222,0.8646,-6.43,7.82,-0.03,26.32
11057,0.3323,-0.0205,0.8654,-6.46,7.79,-0.05,26.32
11067,0.3315,-0.0238,0.8654,-6.47,7.85,-0.05,26.32
11077,0.3323,-0.0226,0.8674,-6.49,7.86,-0.06,26.33
11087,0.3402,-0.0233,0.8633,-6.53,7.82,0.0,26.35
11097,0.3376,-0.022,0.8669,-6.38,7.8,0.0,26.34
11107,0.3374,-0.0232,0.8704,-6.52,7.91,-0.06,26.33
11117,0.3342,-0.0198,0.866,-6.49,7.92,0.02,26.34
11127,0.3358,-0.0211,0.8635,-6.47,7.85,0.0,26.34
11137,0.3347,-0.0198,0.8643,-6.49,7.86,-0.15,26.32
11147,0.3334,-0.021,0.863,-6.46,7.86,-0.11,26.32
11157,0.3314,-0.0223,0.8666,-6.52,7.92,-0.06,26.32
11167,0.3333,-0.0273,0.8618,-6.5,7.8,-0.03,26.34
11177,0.3339,-0.0243,0.8617,-6.44,7.86,0.02,26.34
11187,0.3309,-0.0251,0.8661,-6.53,7.83,-0.03,26.32
11197,0.3326,-0.0229,0.8665,-6.46,7.91,-0.08,26.34
11207,0.3328,-0.0204,0.8646,-6.5,7.94,-0.03,26.35
11217,0.3362,-0.0232,0.8625,-6.52,7.83,-0.06,26.34
11227,0.3346,-0.0217,0.8616,-6.44,7.88,-0.15,26.34
11238,0.3357,-0.0226,0.8652,-6.52,7.88,-0.03,26.35
11248,0.3375,-0.021,0.8647,-6.5,7.83,-0.06,26.33
11258,0.3351,-0.0212,0.8612,-6.46,7.82,-0.03,26.32
11268,0.3361,-0.0239,0.866,-6.49,7.92,-0.05,26.32
11278,0.3335,-0.0242,0.8665,-6.47,7.86,0.0,26.32
11288,0.3333,-0.0253,0.87,-6.49,7.91,-0.08,26.34
11298,0.3336,-0.0243,0.866,-6.47,7.88,-0.02,26.34
11308,0.3304,-0.0236,0.8608,-6.52,7.85,-0.05,26.32
11318,0.3298,-0.019,0.8582,-6.41,7.89,-0.11,26.34
11328,0.3346,-0.0212,0.8632,-6.37,7.86,-0.08,26.34
11338,0.3347,-0.0228,0.8641,-6.5,7.94,-0.02,26.34
11348,0.3352,-0.0215,0.8644,-6.46,7.85,-0.02,26.35
11358,0.3362,-0.0233,0.8638,-6.49,7.85,-0.05,26.34
11368,0.3363,-0.0266,0.8658,-6.41,7.83,-0.03,26.35
11378,0.3384,-0.0211,0.8665,-6.41,7.82,-0.09,26.34
11388,0.3373,-0.0234,0.8669,-6.5,7.8,0.0,26.34
11398,0.3345,-0.025,0.8613,-6.52,7.8,-0.05,26.37
11408,0.3342,-0.0219,0.8665,-6.46,7.91,-0.15,26.32
11418,0.3333,-0.0233,0.8608,-6.53,7.85,-0.03,26.35
11428,0.3351,-0.0247,0.8584,-6.38,7.8,-0.02,26.34
11438,0.3362,-0.0276,0.8584,-6.41,7.8,0.0,26.32
11448,0.3396,-0.032,0.8644,-6.41,7.79,-0.03,26.32
11458,0.3403,-0.0197,0.868,-6.46,7.8,0.09,26.35
11468,0.3398,-0.0232,0.868,-6.49,7.86,0.12,26.34
11478,0.3362,-0.0194,0.8701,-6.47,7.89,0.11,26.33
11488,0.3375,-0.0083,0.8684,-6.5,7.97,0.03,26.34
11498,0.3308,-0.0117,0.8612,-6.47,7.97,0.06,26.33
11508,0.327,-0.0199,0.8613,-6.5,7.94,0.08,26.35
11518,0.3217,-0.0212,0.8578,-6.52,7.91,-0.02,26.35
11528,0.3245,-0.0237,0.8583,-6.5,7.83,-0.05,26.36
11538,0.3229,-0.0275,0.863,-6.46,7.85,-0.14,26.34
11548,0.3257,-0.0366,0.8627,-6.49,7.88,-0.06,26.33
11558,0.3265,-0.0344,0.8658,-6.43,7.77,-0.11,26.34
11568,0.3329,-0.0251,0.8704,-6.44,7.83,-0.08,26.33
11578,0.3357,-0.022,0.8673,-6.5,7.88,-0.11,26.36
11588,0.3352,-0.0195,0.8694,-6.53,7.92,-0.09,26.31
11598,0.339,-0.0186,0.8688,-6.5,7.86,-0.09,26.35
11608,0.3346,-0.0171,0.8678,-6.49,7.91,-0.2,26.32
11618,0.3317,-0.0166,0.8635,-6.58,7.86,-0.15,26.34
11628,0.3345,-0.022,0.8616,-6.47,7.91,-0.15,26.33
11638,0.3395,-0.0273,0.8561,-6.47,7.77,-0.02,26.34
11648,0.34,-0.028,0.859,-6.47,7.89,-0.08,26.36
11658,0.34,-0.0303,0.8629,-6.44,7.86,-0.06,26.35
11668,0.3387,-0.0233,0.8713,-6.46,7.88,0.0,26.34
11678,0.3376,-0.0244,0.864,-6.46,7.89,0.02,26.36
11688,0.3361,-0.022,0.8691,-6.52,7.8,0.02,26.34
11698,0.3312,-0.0209,0.8634,-6.44,7.85,-0.02,26.33
11708,0.3309,-0.0183,0.8629,-6.47,7.85,-0.02,26.37
11718,0.3323,-0.0198,0.8613,-6.52,7.82,-0.03,26.37
11728,0.3297,-0.0251,0.8604,-6.52,7.92,-0.08,26.33
11738,0.3314,-0.027,0.8593,-6.49,7.92,-0.08,26.35
11748,0.3297,-0.0275,0.8618,-6.58,7.79,-0.05,26.32
11758,0.3358,-0.0297,0.858,-6.55,7.8,-0.02,26.34
11768,0.3334,-0.025,0.8591,-6.46,7.88,-0.05,26.34
11778,0.335,-0.0179,0.8641,-6.5,7.85,-0.14,26.33
11788,0.3389,-0.0184,0.8662,-6.46,7.89,-0.05,26.35
11798,0.3364,-0.0188,0.8641,-6.47,7.89,-0.02,26.37
11808,0.3326,-0.0217,0.8632,-6.52,7.89,-0.11,26.33
11818,0.3342,-0.0239,0.8629,-6.53,7.88,-0.11,26.34
11828,0.3348,-0.0275,0.8622,-6.53,7.8,-0.09,26.33
11838,0.3345,-0.028,0.8641,-6.38,7.85,-0.03,26.37
11848,0.3354,-0.0261,0.8607,-6.46,7.88,0.02,26.34
11858,0.3342,-0.0238,0.8632,-6.61,7.89,-0.05,26.35
11868,0.3326,-0.0223,0.8639,-6.5,7.88,0.03,26.36
11878,0.3339,-0.0221,0.8674,-6.5,7.83,0.0,26.34
11888,0.3317,-0.0206,0.8663,-6.52,7.74,-0.03,26.34
11898,0.3334,-0.0184,0.8643,-6.43,7.89,-0.08,26.35
11908,0.3325,-0.0214,0.8628,-6.52,7.86,-0.02,26.38
11918,0.3345,-0.027,0.8628,-6.52,7.92,-0.06,26.36
11928,0.3368,-0.0221,0.8655,-6.5,7.83,-0.08,26.36
11938,0.334,-0.025,0.8656,-6.46,7.83,-0.03,26.34
11948,0.334,-0.0255,0.8638,-6.46,7.79,-0.05,26.32
11958,0.3372,-0.0242,0.8662,-6.44,7.88,-0.06,26.33
11968,0.334,-0.0217,0.8676,-6.52,7.89,-0.08,26.36
11978,0.3364,-0.0173,0.866,-6.55,7.86,0.0,26.34
11988,0.3334,-0.0197,0.8633,-6.44,7.85,-0.05,26.34
11998,0.3308,-0.0206,0.8596,-6.44,7.86,-0.02,26.37
12008,0.3319,-0.0223,0.8629,-6.49,7.92,-0.03,26.35
12019,0.3335,-0.0248,0.8639,-6.46,7.85,0.0,26.36
12029,0.3304,-0.025,0.8627,-6.47,7.8,0.0,26.35
12039,0.3319,-0.026,0.8663,-6.38,7.83,-0.11,26.34
12049,0.3341,-0.0251,0.8646,-6.49,7.8,0.0,26.34
12059,0.3397,-0.0249,0.8652,-6.44,7.8,-0.03,26.37
12069,0.3387,-0.0237,0.8673,-6.43,7.86,-0.05,26.36
12079,0.3358,-0.0221,0.8704,-6.46,7.83,-0.02,26.34
12089,0.3334,-0.021,0.8624,-6.49,7.89,-0.03,26.33
12099,0.3353,-0.0248,0.8627,-6.47,7.88,0.03,26.35
12109,0.3346,-0.0203,0.8611,-6.4,7.85,-0.06,26.36
12119,0.3336,-0.0259,0.8599,-6.44,7.85,0.0,26.34
12129,0.3309,-0.0261,0.8608,-6.5,7.89,-0.03,26.34
12139,0.3328,-0.0264,0.8607,-6.53,7.86,0.02,26.35
12149,0.3313,-0.0222,0.8622,-6.52,7.82,-0.05,26.34
12159,0.3304,-0.0237,0.8656,-6.47,7.82,0.02,26.36
12169,0.335,-0.0234,0.8705,-6.43,7.82,-0.02,26.37
12179,0.3364,-0.0228,0.8684,-6.5,7.95,-0.11,26.35
12189,0.3375,-0.0226,0.8715,-6.5,7.88,-0.11,26.36
12199,0.3352,-0.0188,0.8615,-6.44,7.88,-0.02,26.34
12209,0.3341,-0.0223,0.8595,-6.52,7.94,0.0,26.36
12219,0.3337,-0.0245,0.86,-6.53,7.82,0.02,26.37
12229,0.334,-0.0228,0.858,-6.43,7.82,-0.02,26.36
12239,0.3304,-0.0261,0.8584,-6.46,7.82,0.02,26.36
12249,0.3341,-0.0251,0.8561,-6.5,7.82,-0.05,26.35
12259,0.3325,-0.0251,0.864,-6.49,7.86,-0.08,26.35
12269,0.3362,-0.024,0.8647,-6.53,7.89,-0.12,26.37
12279,0.3341,-0.0234,0.8682,-6.47,7.88,-0.03,26.37
12289,0.3337,-0.0233,0.8674,-6.52,7.92,-0.08,26.34
12299,0.3298,-0.0258,0.865,-6.53,7.88,-0.03,26.34
12310,0.3324,-0.0223,0.8658,-6.46,7.89,-0.09,26.35
12320,0.3375,-0.0217,0.8611,-6.53,7.88,-0.02,26.36
12330,0.3339,-0.0243,0.8665,-6.5,7.97,-0.05,26.35
12340,0.3336,-0.0248,0.8632,-6.47,7.8,-0.03,26.34
12350,0.3359,-0.0227,0.8665,-6.53,7.85,-0.08,26.33
12360,0.3363,-0.0229,0.8676,-6.49,7.85,0.12,26.35
12370,0.333,-0.0259,0.8657,-6.41,7.85,-0.03,26.37
12380,0.3331,-0.0217,0.865,-6.44,7.88,-0.08,26.35
12390,0.3309,-0.02,0.8634,-6.41,7.85,0.02,26.36
12400,0.3301,-0.0198,0.8661,-6.43,7.85,-0.06,26.34
12410,0.3336,-0.0251,0.8597,-6.44,7.85,-0.09,26.36
12420,0.3322,-0.026,0.8602,-6.52,7.88,-0.02,26.33
12430,0.3326,-0.0233,0.8619,-6.49,7.83,-0.06,26.38
12440,0.3375,-0.028,0.8615,-6.44,7.86,-0.06,26.36
12450,0.3326,-0.0238,0.865,-6.49,7.83,-0.11,26.37
12460,0.337,-0.0228,0.8644,-6.47,7.86,0.03,26.34
12470,0.3364,-0.0236,0.8678,-6.44,7.85,0.03,26.36
12480,0.3346,-0.0205,0.8656,-6.55,7.88,-0.02,26.36
12490,0.333,-0.0226,0.8658,-6.46,7.91,-0.05,26.35
12500,0.3296,-0.0214,0.865,-6.47,7.79,0.02,26.38
12510,0.3285,-0.0253,0.8617,-6.52,7.86,0.0,26.34
12520,0.3304,-0.027,0.8613,-6.49,7.88,0.03,26.34
12530,0.3265,-0.0239,0.8612,-6.53,7.89,0.0,26.38
12540,0.3311,-0.0237,0.8621,-6.43,7.83,-0.03,26.37
12550,0.3329,-0.0195,0.864,-6.47,7.8,-0.14,26.35
12560,0.3352,-0.0203,0.8656,-6.47,7.85,-0.06,26.35
12570,0.3351,-0.0206,0.866,-6.53,7.82,-0.02,26.36
12580,0.3325,-0.0229,0.8661,-6.43,7.92,-0.03,26.37
12590,0.334,-0.0227,0.8645,-6.49,7.89,-0.08,26.36
12600,0.334,-0.0226,0.8639,-6.55,7.88,-0.05,26.38
12610,0.3353,-0.0247,0.8622,-6.46,7.89,-0.06,26.36
12620,0.3354,-0.0239,0.8635,-6.53,7.85,-0.05,26.35
12630,0.332,-0.0215,0.8666,-6.4,7.82,-0.02,26.36
12640,0.3357,-0.0229,0.8635,-6.41,7.88,0.02,26.36
12650,0.3341,-0.0234,0.8635,-6.53,7.89,-0.02,26.35
12660,0.3333,-0.0225,0.8627,-6.5,7.88,-0.02,26.38
12670,0.3359,-0.0232,0.8666,-6.5,7.77,-0.08,26.35
12680,0.3336,-0.0253,0.8694,-6.47,7.86,-0.05,26.37
12690,0.3347,-0.0223,0.8643,-6.52,7.86,0.0,26.37
12700,0.3333,-0.0222,0.8617,-6.46,7.83,-0.02,26.38
12710,0.3348,-0.0239,0.8644,-6.52,7.88,0.02,26.37
12720,0.3291,-0.0271,0.8646,-6.47,7.91,-0.03,26.35
12730,0.3324,-0.0266,0.8588,-6.53,7.91,-0.09,26.37
12740,0.3337,-0.0245,0.8591,-6.46,7.92,-0.08,26.36
12750,0.3365,-0.0234,0.8654,-6.47,7.86,-0.05,26.37
12760,0.3367,-0.0247,0.866,-6.5,7.88,-0.09,26.37
12770,0.3352,-0.0197,0.8633,-6.47,7.83,-0.03,26.39
12780,0.3361,-0.0234,0.8669,-6.44,7.86,-0.09,26.38
12790,0.3348,-0.0249,0.8647,-6.5,7.94,-0.05,26.39
12800,0.332,-0.0249,0.8624,-6.49,7.83,-0.05,26.37
12810,0.3361,-0.0228,0.8617,-6.43,7.85,-0.03,26.37
12820,0.3322,-0.0229,0.8635,-6.47,7.88,-0.06,26.37
12830,0.3309,-0.0258,0.863,-6.56,7.86,0.0,26.37
12840,0.3301,-0.026,0.8651,-6.41,7.8,0.05,26.34
12850,0.334,-0.0242,0.8635,-6.44,7.85,0.02,26.37
12860,0.3335,-0.0256,0.8628,-6.41,7.79,-0.08,26.37
12870,0.335,-0.0217,0.8654,-6.49,7.89,-0.02,26.35
12880,0.3336,-0.0254,0.8685,-6.5,7.86,-0.02,26.36
12890,0.3334,-0.0229,0.8633,-6.52,7.8,0.03,26.36
12900,0.3319,-0.0226,0.8643,-6.53,7.83,-0.02,26.36
12910,0.3335,-0.0232,0.8655,-6.5,7.88,-0.02,26.38
12920,0.3351,-0.0233,0.861,-6.49,7.91,0.02,26.37
12930,0.3325,-0.0228,0.8612,-6.58,7.88,-0.02,26.36
12940,0.3309,-0.0227,0.8601,-6.4,7.85,-0.05,26.39
12950,0.3333,-0.0237,0.8635,-6.53,7.85,-0.02,26.37
12960,0.332,-0.0243,0.863,-6.5,7.86,-0.02,26.38
12970,0.3339,-0.0242,0.8654,-6.38,7.91,-0.06,26.37
12980,0.3333,-0.0222,0.8677,-6.47,7.92,-0.09,26.39
12990,0.3351,-0.0206,0.8652,-6.46,7.88,0.05,26.36
13000,0.335,-0.0215,0.8672,-6.49,7.82,-0.08,26.39
13010,0.332,-0.0232,0.8638,-6.44,7.94,-0.05,26.37
13020,0.3345,-0.0245,0.8627,-6.5,7.85,-0.09,26.38
13030,0.3335,-0.0238,0.8656,-6.47,7.82,0.0,26.36
13040,0.3341,-0.0231,0.8638,-6.49,7.89,-0.03,26.38
13050,0.3341,-0.0251,0.8623,-6.49,7.86,0.02,26.38
13060,0.3352,-0.0229,0.861,-6.5,7.85,0.02,26.38
13070,0.3341,-0.0244,0.8683,-6.5,7.8,-0.02,26.36
13080,0.3335,-0.0227,0.8706,-6.53,7.89,0.03,26.36
13090,0.3307,-0.024,0.8658,-6.47,7.85,-0.06,26.37
13100,0.3326,-0.0222,0.8657,-6.43,7.86,-0.06,26.38
13110,0.3346,-0.0245,0.8625,-6.35,7.92,-0.02,26.38
13120,0.335,-0.0229,0.8615,-6.49,7.89,-0.06,26.37
13130,0.3369,-0.0225,0.8634,-6.53,7.85,-0.02,26.37
13140,0.3335,-0.0221,0.8647,-6.5,7.89,-0.09,26.38
13150,0.3373,-0.022,0.8641,-6.49,7.8,-0.08,26.39
13160,0.3317,-0.0243,0.8616,-6.5,7.82,-0.08,26.37
13170,0.3344,-0.0227,0.8617,-6.5,7.86,-0.06,26.37
13180,0.3351,-0.0249,0.8629,-6.43,7.83,0.02,26.36
13190,0.3334,-0.0199,0.8628,-6.53,7.74,-0.08,26.38
13200,0.3362,-0.0227,0.8629,-6.47,7.88,0.0,26.36
13210,0.3352,-0.0208,0.8629,-6.49,7.95,-0.08,26.35
13220,0.3315,-0.0238,0.8655,-6.53,7.94,-0.03,26.35
13230,0.3324,-0.0256,0.8657,-6.47,7.92,0.02,26.39
13240,0.3351,-0.0237,0.8634,-6.41,7.83,-0.02,26.39
13250,0.3334,-0.0254,0.8645,-6.47,7.86,-0.02,26.37
13260,0.3312,-0.0232,0.8606,-6.46,7.8,-0.02,26.35
13270,0.3344,-0.0237,0.8643,-6.49,7.86,-0.08,26.38
13280,0.3358,-0.025,0.8682,-6.52,7.8,-0.02,26.39
13290,0.3346,-0.0222,0.8651,-6.55,7.91,-0.06,26.36
13300,0.3324,-0.0249,0.8636,-6.6,7.88,0.02,26.37
13310,0.3326,-0.024,0.8645,-6.46,7.89,-0.02,26.37
13320,0.3341,-0.0219,0.8616,-6.47,7.88,-0.09,26.38
13330,0.3329,-0.024,0.8607,-6.46,7.85,-0.09,26.37
13340,0.3326,-0.0261,0.8638,-6.55,7.89,0.02,26.37
13350,0.3331,-0.0244,0.8619,-6.37,7.82,-0.02,26.36
13360,0.335,-0.0233,0.8636,-6.44,7.86,-0.06,26.35
13370,0.3328,-0.0228,0.8632,-6.5,7.79,-0.02,26.36
13380,0.3333,-0.0249,0.8636,-6.55,7.79,0.03,26.39
13390,0.3329,-0.0249,0.8655,-6.46,7.89,0.05,26.39
13400,0.3314,-0.0217,0.8634,-6.5,7.82,-0.03,26.39
13410,0.3324,-0.0228,0.8632,-6.52,7.86,-0.03,26.38
13420,0.334,-0.0231,0.8628,-6.4,7.79,-0.09,26.38
13430,0.3336,-0.0219,0.8627,-6.52,7.85,-0.06,26.37
13440,0.3364,-0.0228,0.8596,-6.53,7.88,-0.06,26.39
13450,0.3336,-0.0266,0.8636,-6.49,7.91,-0.03,26.37
13460,0.3348,-0.0232,0.8621,-6.5,7.79,-0.06,26.39
13470,0.3328,-0.0238,0.8624,-6.55,7.83,-0.06,26.39
13480,0.333,-0.0226,0.8633,-6.58,7.86,-0.06,26.39
13490,0.3348,-0.0216,0.8643,-6.44,7.86,-0.05,26.38
13501,0.3322,-0.0193,0.8695,-6.47,7.89,-0.02,26.37
13511,0.3342,-0.0237,0.8629,-6.49,7.88,-0.02,26.38
13521,0.3347,-0.0238,0.868,-6.52,7.89,-0.03,26.38
13531,0.3362,-0.0226,0.8649,-6.47,7.86,0.02,26.39
13541,0.3319,-0.0239,0.8668,-6.44,7.89,0.02,26.38
13551,0.3313,-0.0234,0.865,-6.44,7.79,-0.08,26.38
13561,0.3372,-0.0243,0.8619,-6.5,7.83,-0.03,26.37
13571,0.3348,-0.0237,0.8673,-6.49,7.88,-0.08,26.38
13581,0.3333,-0.0189,0.8627,-6.52,7.85,-0.06,26.39
13591,0.3314,-0.0215,0.8632,-6.46,7.89,-0.05,26.39
13601,0.3317,-0.0223,0.8616,-6.38,7.85,-0.09,26.38
13611,0.3303,-0.021,0.8621,-6.44,7.83,-0.05,26.38
13621,0.3353,-0.0222,0.8646,-6.43,7.88,0.02,26.38
13631,0.3333,-0.025,0.8669,-6.52,7.86,0.02,26.37
13641,0.335,-0.0244,0.8628,-6.55,7.89,-0.08,26.37
13651,0.3358,-0.0242,0.8613,-6.5,7.82,-0.08,26.39
13661,0.3341,-0.0243,0.8621,-6.46,7.83,0.0,26.39
13671,0.3354,-0.0223,0.8602,-6.47,7.86,-0.03,26.37
13681,0.3342,-0.0242,0.8634,-6.49,7.85,-0.02,26.4
13691,0.3337,-0.0243,0.8636,-6.55,7.85,-0.05,26.38
13701,0.3325,-0.0253,0.8644,-6.44,7.98,0.0,26.37
13711,0.3362,-0.0242,0.8616,-6.47,7.83,-0.11,26.39
13721,0.3345,-0.0251,0.8612,-6.5,7.88,-0.03,26.39
13731,0.3314,-0.0254,0.8636,-6.41,7.86,-0.09,26.39
13741,0.3358,-0.0208,0.8689,-6.46,7.91,-0.03,26.41
13751,0.3372,-0.0253,0.8641,-6.53,7.83,0.0,26.39
13761,0.333,-0.0221,0.8608,-6.55,7.89,-0.03,26.4
13771,0.335,-0.0237,0.8649,-6.46,7.86,-0.05,26.38
13781,0.3348,-0.0228,0.8645,-6.44,7.89,-0.06,26.39
13791,0.332,-0.0245,0.8602,-6.47,7.85,-0.12,26.38
13801,0.3357,-0.0238,0.8646,-6.49,7.85,-0.14,26.38
13811,0.3325,-0.0256,0.8623,-6.5,7.79,-0.06,26.39
13821,0.3318,-0.02,0.8676,-6.46,7.89,-0.05,26.4
13831,0.337,-0.0238,0.8656,-6.41,7.82,-0.08,26.39
13841,0.3353,-0.0232,0.8652,-6.44,7.91,-0.08,26.4
13851,0.3339,-0.0237,0.8621,-6.47,7.86,-0.05,26.38
13861,0.3356,-0.0228,0.8683,-6.52,7.85,-0.09,26.41
13871,0.3347,-0.0243,0.8639,-6.43,7.82,0.0,26.42
13881,0.3311,-0.0249,0.8647,-6.52,7.85,-0.09,26.38
13891,0.332,-0.0254,0.8646,-6.46,7.83,-0.05,26.38
13901,0.3344,-0.0225,0.8685,-6.43,7.82,-0.03,26.39
13911,0.3345,-0.0236,0.8618,-6.47,7.86,-0.03,26.4
13921,0.3318,-0.0249,0.8646,-6.52,7.91,-0.03,26.39
13931,0.3301,-0.0234,0.8656,-6.43,7.88,-0.08,26.4
13941,0.3304,-0.0204,0.8627,-6.46,7.89,-0.06,26.38
13951,0.3309,-0.0248,0.8572,-6.58,7.86,-0.09,26.4
13961,0.333,-0.0282,0.8588,-6.46,7.8,-0.05,26.42
13971,0.3282,-0.0249,0.8633,-6.4,7.85,-0.08,26.41
13981,0.3279,-0.0251,0.8596,-6.53,7.91,-0.02,26.39
13991,0.3281,-0.0242,0.8595,-6.44,7.76,-0.09,26.39
14001,0.3323,-0.0208,0.8711,-6.49,7.85,-0.12,26.4
14011,0.3357,-0.0253,0.8726,-6.43,7.85,-0.05,26.42
14021,0.3379,-0.0238,0.8746,-6.52,7.83,-0.12,26.4
14031,0.3398,-0.0231,0.8743,-6.52,7.88,-0.09,26.39
14041,0.3405,-0.0211,0.8671,-6.5,7.88,-0.08,26.39
14051,0.3359,-0.0228,0.8651,-6.44,7.89,-0.03,26.41
14061,0.333,-0.0243,0.8591,-6.49,7.94,-0.08,26.39
14071,0.3344,-0.0219,0.8573,-6.52,7.82,0.05,26.39
14082,0.3322,-0.0247,0.8561,-6.52,7.85,-0.02,26.39
14092,0.3323,-0.0236,0.861,-6.5,7.85,0.05,26.39
14102,0.332,-0.0211,0.8647,-6.5,7.83,0.05,26.38
14113,0.333,-0.0197,0.8672,-6.46,7.79,-0.08,26.38
14123,0.3335,-0.0223,0.8719,-6.5,7.89,-0.08,26.38
14133,0.3318,-0.0237,0.8712,-6.53,7.83,-0.03,26.4
14143,0.3334,-0.0226,0.8607,-6.53,7.85,-0.06,26.41
14153,0.3318,-0.025,0.8575,-6.46,7.91,-0.02,26.4
14163,0.3314,-0.0254,0.8607,-6.41,7.91,-0.05,26.4
14173,0.33,-0.0204,0.8572,-6.41,7.76,-0.11,26.39
14183,0.334,-0.0217,0.8601,-6.52,7.85,-0.08,26.39
14193,0.3386,-0.0229,0.8619,-6.5,7.85,-0.05,26.4
14203,0.3364,-0.0199,0.8687,-6.46,7.83,-0.05,26.41
14213,0.3372,-0.0204,0.8701,-6.43,7.8,-0.06,26.41
14223,0.337,-0.0205,0.8688,-6.38,7.88,-0.08,26.41
14233,0.3351,-0.0223,0.8639,-6.47,7.86,-0.09,26.39
14243,0.3344,-0.0259,0.8654,-6.44,7.88,-0.03,26.37
14253,0.332,-0.0234,0.8652,-6.41,7.92,-0.06,26.39
14263,0.3309,-0.0248,0.8582,-6.46,7.91,-0.05,26.38
14273,0.3295,-0.0231,0.8574,-6.4,7.82,-0.05,26.39
14283,0.3326,-0.0214,0.8593,-6.44,7.85,-0.05,26.42
14293,0.3336,-0.0221,0.8617,-6.49,7.88,-0.02,26.41
14303,0.3304,-0.0216,0.8649,-6.53,7.88,0.05,26.41
14313,0.3335,-0.0233,0.8671,-6.5,7.88,0.02,26.38
14323,0.3362,-0.0227,0.8685,-6.4,7.8,0.0,26.41
14333,0.3359,-0.024,0.869,-6.5,7.89,-0.03,26.39
14343,0.3372,-0.0275,0.8646,-6.49,7.8,-0.08,26.41
14353,0.3362,-0.0236,0.8594,-6.53,7.85,-0.05,26.4
14363,0.3313,-0.0245,0.8601,-6.52,7.94,-0.06,26.41
14373,0.3301,-0.0237,0.861,-6.55,7.85,-0.05,26.4
14383,0.3315,-0.0231,0.8593,-6.58,7.86,-0.05,26.43
14393,0.3334,-0.0229,0.8606,-6.46,7.83,-0.05,26.39
14403,0.3324,-0.0248,0.8652,-6.47,7.86,0.02,26.39
14413,0.3328,-0.0216,0.866,-6.38,7.8,-0.09,26.42
14423,0.3312,-0.0219,0.8682,-6.46,7.88,-0.09,26.41
14433,0.3342,-0.0265,0.8647,-6.4,7.85,-0.06,26.41
14443,0.3335,-0.0239,0.8638,-6.5,7.88,0.0,26.41
14453,0.3341,-0.0214,0.858,-6.44,7.91,0.02,26.41
14463,0.334,-0.0239,0.8635,-6.46,7.86,-0.03,26.4
14473,0.3356,-0.0216,0.8588,-6.44,7.94,-0.03,26.39
14483,0.334,-0.0228,0.8617,-6.41,7.89,-0.06,26.39
14493,0.3335,-0.0225,0.8651,-6.46,7.82,-0.02,26.44
14503,0.335,-0.0258,0.865,-6.46,7.85,-0.06,26.4
14513,0.3362,-0.0243,0.8654,-6.49,7.86,-0.09,26.39
14523,0.3347,-0.0229,0.8639,-6.46,7.85,-0.05,26.43
14533,0.3333,-0.0225,0.868,-6.46,7.91,-0.08,26.4
14543,0.3322,-0.0261,0.8627,-6.47,7.88,-0.11,26.41
14553,0.3345,-0.0237,0.8619,-6.44,7.85,-0.08,26.41
14563,0.3323,-0.0195,0.86,-6.49,7.79,-0.02,26.4
14573,0.3331,-0.0227,0.8622,-6.46,7.85,-0.08,26.39
14583,0.3314,-0.0212,0.8638,-6.41,7.83,-0.03,26.39
14593,0.3383,-0.0225,0.861,-6.46,7.88,-0.02,26.4
14603,0.3364,-0.0228,0.8613,-6.46,7.88,0.0,26.41
14613,0.3354,-0.0231,0.8673,-6.46,7.88,0.02,26.39
14623,0.3339,-0.0267,0.8668,-6.47,7.95,-0.06,26.39
14633,0.335,-0.0237,0.8672,-6.49,7.89,-0.03,26.38
14643,0.3298,-0.0222,0.8635,-6.44,7.85,-0.02,26.41
14653,0.3322,-0.0264,0.8651,-6.49,7.94,-0.08,26.4
14663,0.3339,-0.0253,0.859,-6.53,7.89,-0.05,26.4
14673,0.3362,-0.0229,0.8594,-6.49,7.88,-0.05,26.39
14683,0.3344,-0.0239,0.8646,-6.46,7.88,0.0,26.41
14693,0.3307,-0.021,0.8636,-6.5,7.88,-0.05,26.42
14703,0.3345,-0.0238,0.8634,-6.52,7.89,-0.06,26.39
14713,0.3348,-0.025,0.8661,-6.5,7.82,-0.06,26.38
14723,0.3329,-0.0223,0.8613,-6.47,7.91,-0.05,26.41
14733,0.3359,-0.0236,0.8618,-6.52,7.89,-0.06,26.41
14743,0.3354,-0.0243,0.8668,-6.52,7.89,0.02,26.41
14753,0.329,-0.0211,0.861,-6.47,7.77,0.05,26.41
14763,0.3322,-0.0217,0.865,-6.44,7.86,0.05,26.39
14773,0.3364,-0.0258,0.8607,-6.43,7.83,-0.11,26.39
14783,0.3328,-0.0237,0.8636,-6.43,7.88,-0.08,26.42
14793,0.335,-0.0238,0.8595,-6.49,7.92,-0.06,26.39
14803,0.3358,-0.0229,0.8644,-6.4,7.8,-0.05,26.43
14813,0.3353,-0.0253,0.8682,-6.46,7.88,-0.05,26.4
14823,0.333,-0.0212,0.8644,-6.4,7.88,-0.06,26.43
14833,0.3317,-0.0256,0.8657,-6.47,7.86,-0.06,26.4
14843,0.3311,-0.0245,0.8623,-6.44,7.88,-0.06,26.4
14853,0.334,-0.0223,0.8647,-6.43,7.83,-0.08,26.42
14863,0.3319,-0.0212,0.8649,-6.49,7.79,-0.06,26.42
14873,0.3334,-0.0215,0.8608,-6.47,7.85,-0.02,26.41
14883,0.3328,-0.0256,0.8633,-6.52,7.89,-0.12,26.4
14893,0.3341,-0.0234,0.8666,-6.52,7.89,-0.05,26.41
14903,0.3324,-0.0286,0.865,-6.55,7.83,0.02,26.38
14913,0.3336,-0.0222,0.8662,-6.53,7.88,-0.02,26.42
14923,0.3346,-0.0243,0.8602,-6.5,7.86,-0.09,26.42
14933,0.3322,-0.0248,0.8641,-6.56,7.91,-0.06,26.39
14943,0.3318,-0.0232,0.8635,-6.41,7.89,-0.05,26.39
14953,0.3348,-0.0229,0.8569,-6.46,7.83,-0.02,26.39
14963,0.3328,-0.0256,0.8673,-6.49,7.88,-0.05,26.39
14973,0.3328,-0.025,0.8663,-6.46,7.83,-0.03,26.43
14983,0.3331,-0.0228,0.8651,-6.47,7.83,-0.03,26.4
14993,0.332,-0.0223,0.8663,-6.46,7.83,-0.06,26.39
15003,0.3324,-0.0249,0.8623,-6.49,7.83,-0.02,26.44
15013,0.3339,-0.0244,0.866,-6.4,7.85,0.05,26.4
15023,0.333,-0.0243,0.8605,-6.47,7.91,-0.02,26.4
15033,0.3361,-0.0232,0.8657,-6.43,7.88,-0.09,26.41
15043,0.3341,-0.0233,0.8627,-6.47,7.89,-0.06,26.39
15053,0.3302,-0.024,0.8632,-6.44,7.89,-0.05,26.39
15063,0.33,-0.0243,0.8612,-6.49,7.85,-0.05,26.41
15073,0.3306,-0.024,0.8584,-6.49,7.88,-0.06,26.39
15083,0.3342,-0.0236,0.8638,-6.41,7.8,-0.05,26.4
15093,0.3359,-0.0215,0.8635,-6.41,7.77,-0.03,26.42
15103,0.3347,-0.0231,0.8652,-6.47,7.85,-0.06,26.4
15113,0.3356,-0.024,0.8691,-6.47,7.83,-0.03,26.42
15123,0.3334,-0.0234,0.8654,-6.47,7.83,-0.05,26.4
15133,0.3335,-0.0232,0.8622,-6.44,7.88,-0.08,26.41
15143,0.3319,-0.0219,0.8647,-6.44,7.94,-0.05,26.42
15153,0.3325,-0.02,0.864,-6.46,7.88,-0.06,26.39
15163,0.3336,-0.0214,0.8633,-6.47,7.86,-0.02,26.42
15173,0.3322,-0.0233,0.8625,-6.37,7.88,-0.03,26.41
15183,0.3339,-0.0231,0.8612,-6.52,7.86,-0.06,26.39
15193,0.3337,-0.0281,0.8663,-6.52,7.83,-0.02,26.39
15203,0.3353,-0.0234,0.8632,-6.47,7.86,-0.03,26.42
15213,0.3342,-0.0233,0.8652,-6.52,7.98,-0.03,26.41
15223,0.3352,-0.0242,0.8651,-6.5,7.83,-0.06,26.41
15233,0.3341,-0.0212,0.8654,-6.53,7.85,0.0,26.39
15243,0.3345,-0.0225,0.8625,-6.56,7.86,-0.08,26.42
15253,0.3357,-0.0232,0.8639,-6.38,7.89,-0.02,26.42
15263,0.332,-0.0254,0.8623,-6.53,7.85,0.08,26.41
15273,0.3341,-0.0215,0.8635,-6.46,7.85,-0.05,26.41
15283,0.3329,-0.0264,0.8596,-6.47,7.79,0.0,26.41
15293,0.3348,-0.0234,0.8636,-6.44,7.89,-0.03,26.41
15303,0.3324,-0.0238,0.865,-6.44,7.86,-0.09,26.4
15313,0.3363,-0.0225,0.8696,-6.47,7.91,-0.03,26.41
15323,0.3346,-0.024,0.8645,-6.47,7.85,-0.08,26.4
15333,0.3344,-0.0226,0.8662,-6.5,7.83,0.0,26.39
15343,0.3353,-0.0212,0.8654,-6.44,7.89,-0.02,26.38
15353,0.3339,-0.0236,0.8627,-6.5,7.83,-0.02,26.4
15363,0.3325,-0.0251,0.8639,-6.47,7.82,-0.03,26.39
15373,0.3313,-0.0222,0.8671,-6.53,7.89,0.03,26.42
15383,0.3341,-0.0237,0.8632,-6.47,7.89,-0.08,26.38
15393,0.3344,-0.0232,0.8629,-6.5,7.85,-0.06,26.4
15403,0.3337,-0.0247,0.8608,-6.44,7.85,-0.02,26.41
15413,0.3323,-0.0221,0.8599,-6.47,7.94,0.0,26.43
15423,0.3323,-0.0219,0.8616,-6.49,7.83,-0.08,26.42
15433,0.3329,-0.0222,0.8671,-6.43,7.86,-0.05,26.43
15443,0.3346,-0.0204,0.8643,-6.49,7.86,-0.02,26.43
15453,0.3318,-0.0228,0.8627,-6.5,7.82,0.0,26.44
15463,0.3351,-0.0234,0.8629,-6.46,7.88,-0.03,26.4
15473,0.3361,-0.0231,0.8672,-6.56,7.88,-0.06,26.43
15483,0.3333,-0.0203,0.8643,-6.53,7.77,-0.05,26.39
15493,0.3322,-0.0204,0.8668,-6.41,7.83,0.02,26.42
15503,0.3324,-0.0237,0.8615,-6.47,7.8,-0.02,26.43
15513,0.3333,-0.0227,0.8652,-6.5,7.88,0.0,26.42
15523,0.3325,-0.0211,0.8625,-6.49,7.89,0.0,26.4
15533,0.3341,-0.0225,0.8665,-6.52,7.91,-0.08,26.4
15543,0.3317,-0.0226,0.8635,-6.55,7.89,-0.06,26.39
15553,0.3331,-0.0243,0.8617,-6.47,7.85,-0.08,26.41
15563,0.3322,-0.0238,0.8636,-6.49,7.85,-0.05,26.41
15573,0.3339,-0.0269,0.8606,-6.52,7.82,-0.02,26.42
15583,0.3356,-0.0215,0.8662,-6.43,7.89,0.02,26.42
15593,0.3347,-0.0231,0.865,-6.41,7.85,0.0,26.39
15603,0.3334,-0.0234,0.868,-6.44,7.85,-0.09,26.42
15613,0.3345,-0.0229,0.8683,-6.52,7.83,-0.06,26.42
15623,0.3322,-0.0217,0.8661,-6.49,7.89,-0.06,26.43
15633,0.335,-0.0253,0.8628,-6.49,7.79,-0.08,26.41
15643,0.3318,-0.0222,0.8615,-6.53,7.85,-0.02,26.42
15653,0.3329,-0.0212,0.8643,-6.46,7.88,-0.09,26.41
15663,0.3311,-0.0248,0.8624,-6.49,7.86,-0.05,26.42
15673,0.3352,-0.0262,0.8679,-6.47,7.86,0.0,26.42
15683,0.3341,-0.0232,0.8651,-6.47,7.88,-0.06,26.42
15693,0.3322,-0.0227,0.861,-6.5,7.86,-0.03,26.44
15703,0.3346,-0.0249,0.8639,-6.53,7.82,0.0,26.42
15713,0.3374,-0.0247,0.8601,-6.49,7.83,-0.09,26.4
15723,0.3326,-0.0225,0.8658,-6.52,7.86,-0.05,26.42
15733,0.3309,-0.0223,0.8646,-6.53,7.91,0.02,26.43
15743,0.3318,-0.019,0.861,-6.49,7.89,0.03,26.43
15753,0.3324,-0.0243,0.8649,-6.44,7.88,-0.11,26.42
15763,0.3351,-0.0233,0.8646,-6.47,7.85,-0.02,26.39
15773,0.3348,-0.0226,0.8641,-6.49,7.85,-0.05,26.4
15783,0.3309,-0.022,0.8628,-6.47,7.8,-0.06,26.41
15793,0.3368,-0.0254,0.8607,-6.44,7.85,-0.11,26.41
15803,0.3325,-0.0242,0.8663,-6.52,7.88,0.03,26.42
15813,0.3341,-0.0227,0.8641,-6.5,7.83,0.02,26.42
15823,0.334,-0.0243,0.8669,-6.43,7.83,-0.09,26.42
15833,0.3348,-0.0208,0.8629,-6.47,7.88,-0.02,26.43
15843,0.3364,-0.0223,0.8638,-6.47,7.86,-0.05,26.42
15853,0.3352,-0.0258,0.863,-6.53,7.83,0.02,26.43
15863,0.3315,-0.0247,0.8652,-6.5,7.79,-0.05,26.41
15873,0.3323,-0.0211,0.8638,-6.5,7.86,-0.06,26.41
15883,0.3318,-0.0228,0.8632,-6.52,7.85,-0.06,26.42
15893,0.3331,-0.0215,0.8629,-6.5,7.82,-0.03,26.4
15903,0.3347,-0.0201,0.8643,-6.52,7.8,-0.06,26.42
15913,0.3306,-0.0222,0.8606,-6.44,7.83,-0.02,26.4
15923,0.3315,-0.0216,0.8602,-6.49,7.79,-0.02,26.43
15933,0.3317,-0.0229,0.8651,-6.41,7.89,-0.02,26.42
15943,0.3324,-0.0229,0.8625,-6.46,7.88,-0.02,26.42
15953,0.3329,-0.025,0.8639,-6.43,7.86,-0.11,26.42
15963,0.333,-0.0212,0.865,-6.58,7.86,-0.06,26.43
15973,0.3361,-0.0216,0.8662,-6.43,7.89,0.02,26.4
15983,0.3325,-0.0231,0.8617,-6.47,7.89,-0.02,26.43
15993,0.3351,-0.0237,0.8612,-6.47,7.89,0.0,26.41
16003,0.3348,-0.022,0.8647,-6.49,7.83,0.0,26.43
16013,0.3329,-0.0227,0.8638,-6.49,7.83,-0.06,26.43
16023,0.3347,-0.0249,0.8606,-6.47,7.91,0.05,26.4
16033,0.3339,-0.0287,0.8624,-6.41,7.82,-0.09,26.42
16043,0.3333,-0.0216,0.8628,-6.47,7.86,-0.11,26.44
16053,0.3351,-0.0206,0.8617,-6.41,7.82,-0.02,26.42
16063,0.3357,-0.0237,0.8632,-6.5,7.85,-0.03,26.4
16073,0.335,-0.0222,0.8658,-6.53,7.88,-0.03,26.4
16083,0.3334,-0.0225,0.8671,-6.4,7.79,-0.02,26.41
16093,0.3348,-0.0266,0.8616,-6.52,7.86,-0.06,26.42
16103,0.3339,-0.0231,0.8672,-6.53,7.86,-0.06,26.43
16113,0.3329,-0.0209,0.8645,-6.47,7.94,-0.03,26.43
16123,0.3315,-0.0233,0.8693,-6.46,7.85,-0.08,26.44
16133,0.3302,-0.0234,0.8665,-6.46,7.97,-0.06,26.43
16143,0.332,-0.0261,0.8591,-6.46,7.85,-0.12,26.42
16153,0.3322,-0.0215,0.8638,-6.46,7.82,-0.06,26.42
16163,0.3337,-0.0238,0.8638,-6.52,7.8,-0.08,26.43
16173,0.3342,-0.0214,0.8641,-6.49,7.86,-0.11,26.43
16183,0.3331,-0.0217,0.8625,-6.49,7.85,-0.08,26.45
16193,0.3335,-0.0226,0.8655,-6.46,7.86,-0.02,26.42
16203,0.3335,-0.0227,0.8612,-6.43,7.85,-0.06,26.43
16213,0.3333,-0.0227,0.8635,-6.43,7.86,-0.09,26.44
16223,0.335,-0.0253,0.8622,-6.44,7.86,-0.02,26.46
16233,0.3319,-0.0226,0.8636,-6.47,7.91,-0.06,26.42
16243,0.3324,-0.021,0.8615,-6.47,7.94,-0.03,26.47
16253,0.3312,-0.0229,0.8651,-6.44,7.86,-0.11,26.44
16263,0.3345,-0.0233,0.8641,-6.58,7.89,-0.03,26.42
16273,0.3335,-0.0227,0.8647,-6.5,7.86,-0.05,26.42
16283,0.3334,-0.0251,0.8629,-6.43,7.82,-0.03,26.44
16293,0.3344,-0.0209,0.8643,-6.4,7.85,-0.02,26.43
16303,0.3357,-0.0221,0.8604,-6.44,7.86,-0.06,26.44
16313,0.3354,-0.0214,0.8645,-6.43,7.86,0.02,26.44
16323,0.3367,-0.021,0.8629,-6.55,7.79,0.0,26.43
16333,0.3353,-0.0238,0.8596,-6.5,7.86,-0.08,26.42
16343,0.3344,-0.0236,0.8636,-6.43,7.89,-0.08,26.44
16353,0.3335,-0.0214,0.8643,-6.49,7.88,-0.08,26.42
16363,0.3322,-0.0221,0.866,-6.56,7.88,-0.06,26.44
16373,0.3339,-0.022,0.8652,-6.49,7.94,-0.05,26.43
16383,0.3337,-0.0259,0.8676,-6.46,7.88,-0.02,26.41
16393,0.3345,-0.0272,0.8687,-6.43,7.83,-0.05,26.43
16403,0.3341,-0.0227,0.8684,-6.49,7.85,-0.03,26.45
16413,0.334,-0.0216,0.8673,-6.52,7.91,-0.02,26.44
16423,0.3347,-0.021,0.8677,-6.47,7.91,-0.08,26.44
16433,0.3353,-0.024,0.8624,-6.5,7.91,-0.05,26.47
16443,0.3356,-0.0228,0.8665,-6.56,7.8,0.03,26.42
16453,0.3324,-0.0237,0.8632,-6.56,7.89,-0.02,26.42
16463,0.3347,-0.0233,0.8649,-6.6,7.85,-0.03,26.42
16473,0.332,-0.0236,0.8618,-6.43,7.86,-0.06,26.45
16483,0.3322,-0.0247,0.8599,-6.46,7.86,-0.06,26.42
16493,0.3369,-0.0254,0.8595,-6.56,7.83,-0.06,26.44
16503,0.3318,-0.0234,0.8589,-6.44,7.86,-0.02,26.46
16513,0.3358,-0.0243,0.8656,-6.56,7.83,-0.06,26.43
16523,0.3328,-0.0211,0.8615,-6.52,7.89,-0.08,26.44
16533,0.3339,-0.0251,0.8655,-6.47,7.82,-0.08,26.43
16543,0.3336,-0.0228,0.8643,-6.61,7.89,-0.03,26.45
16553,0.3345,-0.0247,0.8672,-6.53,7.82,0.03,26.41
16563,0.3344,-0.0233,0.8611,-6.47,7.85,-0.02,26.44
16573,0.3309,-0.0236,0.8623,-6.46,7.88,-0.06,26.45
16583,0.3322,-0.0244,0.863,-6.46,7.86,-0.08,26.44
16593,0.3319,-0.0232,0.8633,-6.55,7.85,-0.12,26.44
16603,0.3336,-0.0247,0.8636,-6.43,7.8,-0.06,26.45
16613,0.3331,-0.0249,0.8628,-6.47,7.85,-0.05,26.45
16623,0.3335,-0.0219,0.8672,-6.37,7.79,-0.06,26.44
16633,0.3348,-0.0232,0.8616,-6.53,7.92,-0.06,26.43
16644,0.333,-0.0209,0.8641,-6.53,7.82,-0.03,26.42
16654,0.3333,-0.0232,0.8641,-6.47,7.8,-0.05,26.43
16664,0.3356,-0.0238,0.8635,-6.46,7.86,0.0,26.45
16674,0.3336,-0.0205,0.8652,-6.52,7.82,-0.03,26.46
16684,0.3346,-0.0209,0.8649,-6.46,7.77,-0.03,26.43
16694,0.3348,-0.022,0.8632,-6.56,7.88,-0.02,26.44
16704,0.3329,-0.02,0.8638,-6.43,7.89,-0.02,26.45
16714,0.3345,-0.025,0.865,-6.49,7.79,-0.11,26.42
16724,0.3346,-0.0247,0.8651,-6.49,7.88,-0.06,26.42
16734,0.3336,-0.0231,0.8585,-6.5,7.91,-0.09,26.44
16744,0.3339,-0.0223,0.8622,-6.44,7.85,-0.08,26.42
16754,0.3341,-0.0237,0.8618,-6.5,7.86,-0.06,26.43
16764,0.3341,-0.0233,0.8649,-6.49,7.88,-0.08,26.42
16774,0.3361,-0.0237,0.864,-6.44,7.89,0.0,26.43
16784,0.3342,-0.0244,0.8607,-6.49,7.82,-0.03,26.44
16794,0.3308,-0.0225,0.8654,-6.46,7.86,-0.08,26.42
16804,0.3356,-0.0267,0.8634,-6.52,7.82,-0.08,26.43
16814,0.3292,-0.0238,0.8593,-6.5,7.89,0.02,26.43
16824,0.3333,-0.022,0.8636,-6.47,7.88,-0.08,26.44
16834,0.3363,-0.0214,0.8652,-6.46,7.8,-0.06,26.44
16844,0.3357,-0.022,0.8669,-6.46,7.82,-0.02,26.44
16854,0.3344,-0.0232,0.8633,-6.44,7.92,-0.06,26.46
16864,0.3318,-0.0234,0.8632,-6.49,7.86,-0.03,26.43
16874,0.335,-0.0265,0.8636,-6.43,7.85,-0.08,26.43
16885,0.3328,-0.0253,0.8638,-6.44,7.82,-0.02,26.42
16895,0.3344,-0.0232,0.8602,-6.43,7.85,-0.08,26.4
16905,0.3336,-0.0225,0.8639,-6.47,7.88,-0.03,26.44
16915,0.3346,-0.0229,0.86,-6.49,7.92,-0.08,26.44
16925,0.3339,-0.022,0.8645,-6.5,7.95,-0.14,26.44
16935,0.332,-0.0215,0.8654,-6.53,7.85,-0.05,26.43
16945,0.3333,-0.0256,0.8624,-6.41,7.89,-0.11,26.44
16955,0.3348,-0.0247,0.8658,-6.52,7.85,-0.09,26.42
16965,0.3345,-0.0234,0.8628,-6.58,7.82,-0.06,26.42
16975,0.3318,-0.0264,0.8641,-6.47,7.89,-0.05,26.44
16985,0.3333,-0.0244,0.8661,-6.49,7.8,-0.11,26.43
16995,0.3319,-0.0239,0.8641,-6.47,7.83,-0.09,26.44
17005,0.3317,-0.0229,0.8606,-6.52,7.85,-0.02,26.44
17015,0.3328,-0.0227,0.8636,-6.5,7.83,0.03,26.44
17025,0.3339,-0.0221,0.8639,-6.49,7.83,0.05,26.45
17035,0.3306,-0.0238,0.8649,-6.49,7.85,-0.08,26.44
17045,0.3339,-0.0236,0.8654,-6.61,7.82,0.02,26.44
17055,0.3319,-0.0229,0.8668,-6.5,7.92,-0.08,26.45
17065,0.3331,-0.0243,0.8624,-6.41,7.83,0.03,26.47
17075,0.3362,-0.0242,0.8657,-6.46,7.88,-0.02,26.43
17085,0.3347,-0.0254,0.8584,-6.47,7.85,-0.02,26.44
17095,0.3353,-0.0225,0.8671,-6.5,7.85,-0.02,26.44
17105,0.333,-0.0222,0.8628,-6.44,7.92,-0.02,26.46
17115,0.3313,-0.0212,0.8676,-6.49,7.85,0.02,26.45
17125,0.3328,-0.0229,0.8674,-6.47,7.83,-0.11,26.45
17135,0.334,-0.0214,0.8679,-6.38,7.83,-0.02,26.46
17145,0.3359,-0.022,0.8612,-6.4,7.82,-0.05,26.44
17155,0.3322,-0.0231,0.8639,-6.46,7.83,-0.06,26.44
17165,0.3318,-0.0227,0.8612,-6.5,7.86,-0.05,26.46
17175,0.3346,-0.0223,0.8662,-6.44,7.91,-0.08,26.45
17185,0.3307,-0.0223,0.8608,-6.43,7.86,0.05,26.46
17195,0.3345,-0.0248,0.864,-6.44,7.85,0.0,26.46
17205,0.3318,-0.0233,0.8656,-6.4,7.83,-0.05,26.45
17215,0.3344,-0.0223,0.8655,-6.46,7.8,-0.03,26.47
17225,0.3323,-0.0216,0.8684,-6.5,7.86,-0.03,26.42
17235,0.3363,-0.0208,0.8628,-6.38,7.82,-0.03,26.44
17245,0.333,-0.0239,0.8652,-6.49,7.85,0.0,26.45
17255,0.3333,-0.0231,0.8674,-6.49,7.85,-0.08,26.44
17265,0.333,-0.0215,0.8677,-6.35,7.86,-0.08,26.44
17275,0.3334,-0.0206,0.8618,-6.47,7.91,0.0,26.45
17285,0.3335,-0.0237,0.8601,-6.47,7.91,-0.03,26.44
17295,0.335,-0.0229,0.8646,-6.47,7.83,0.02,26.45
17305,0.335,-0.0232,0.8621,-6.5,7.86,-0.09,26.46
17315,0.3339,-0.0234,0.8654,-6.44,7.83,-0.02,26.45
17325,0.3348,-0.0232,0.8677,-6.5,7.85,-0.06,26.47
17335,0.3322,-0.0229,0.8622,-6.47,7.89,0.02,26.45
17345,0.3354,-0.0243,0.8627,-6.53,7.82,-0.11,26.44
17355,0.3359,-0.0229,0.8656,-6.44,7.83,-0.06,26.44
17365,0.3322,-0.0264,0.8654,-6.44,7.85,-0.03,26.44
17375,0.335,-0.0237,0.8647,-6.44,7.89,-0.09,26.45
17385,0.3346,-0.0245,0.8656,-6.49,7.83,-0.02,26.46
17395,0.3345,-0.024,0.8639,-6.52,7.82,-0.03,26.45
17405,0.3353,-0.0234,0.8643,-6.47,7.86,-0.08,26.45
17415,0.3314,-0.0234,0.8656,-6.43,7.85,-0.08,26.46
17425,0.3326,-0.0225,0.8656,-6.49,7.89,0.02,26.43
17435,0.3328,-0.0231,0.8657,-6.38,7.83,0.09,26.44
17445,0.3344,-0.0242,0.8683,-6.47,7.86,-0.08,26.44
17455,0.335,-0.0242,0.8657,-6.43,7.83,-0.02,26.45
17465,0.3347,-0.0234,0.8645,-6.49,7.82,0.02,26.46
17475,0.3334,-0.0233,0.8628,-6.5,7.86,0.02,26.46
17485,0.333,-0.0221,0.8627,-6.46,7.83,0.02,26.44
17495,0.3335,-0.0247,0.8625,-6.49,7.79,0.0,26.46
17505,0.3357,-0.0249,0.8662,-6.47,7.89,-0.03,26.42
17515,0.3375,-0.022,0.8623,-6.46,7.83,-0.05,26.45
17525,0.3361,-0.0233,0.8602,-6.46,7.82,-0.02,26.43
17535,0.3359,-0.0247,0.8652,-6.46,7.82,-0.05,26.44
17545,0.3313,-0.0237,0.8644,-6.55,7.85,-0.11,26.45
17555,0.3333,-0.0266,0.8628,-6.47,7.83,-0.14,26.43
17565,0.3339,-0.0238,0.8646,-6.47,7.86,-0.05,26.46
17575,0.3323,-0.0237,0.8662,-6.47,7.85,0.02,26.43
17585,0.3341,-0.0249,0.8673,-6.46,7.86,-0.02,26.45
17595,0.3317,-0.0232,0.8623,-6.53,7.86,-0.03,26.43
17605,0.3359,-0.0234,0.8622,-6.52,7.82,-0.02,26.43
17615,0.3356,-0.0227,0.8607,-6.46,7.88,-0.05,26.44
17625,0.3291,-0.0234,0.8669,-6.49,7.89,-0.05,26.45
17635,0.3346,-0.0247,0.8646,-6.49,7.86,0.0,26.47
17645,0.3372,-0.0188,0.8655,-6.47,7.77,0.0,26.45
17655,0.334,-0.0228,0.8655,-6.47,7.88,-0.02,26.43
17665,0.3312,-0.0237,0.866,-6.46,7.83,-0.02,26.46
17675,0.3351,-0.0244,0.8645,-6.44,7.88,-0.08,26.45
17685,0.3319,-0.0245,0.8663,-6.53,7.83,0.02,26.44
17695,0.3326,-0.0221,0.8666,-6.52,7.85,-0.06,26.46
17705,0.334,-0.0211,0.8663,-6.47,7.89,-0.05,26.46
17715,0.3331,-0.0255,0.8623,-6.5,7.86,-0.11,26.46
17725,0.3307,-0.022,0.8662,-6.5,7.79,-0.03,26.45
17735,0.3339,-0.0228,0.8666,-6.4,7.88,-0.09,26.43
17745,0.3317,-0.0175,0.8622,-6.47,7.8,-0.05,26.42
17755,0.3356,-0.0221,0.8627,-6.56,7.82,-0.02,26.44
17765,0.3325,-0.0233,0.861,-6.56,7.89,-0.09,26.47
17775,0.3337,-0.0204,0.8668,-6.43,7.89,-0.11,26.45
17785,0.3342,-0.0217,0.8646,-6.43,7.91,0.02,26.45
17795,0.3326,-0.0223,0.8619,-6.43,7.83,-0.05,26.44
17805,0.3335,-0.0244,0.8654,-6.52,7.88,-0.02,26.44
17815,0.3333,-0.0226,0.8654,-6.47,7.92,0.02,26.44
17825,0.3341,-0.022,0.8621,-6.52,7.8,-0.11,26.45
17835,0.3353,-0.0229,0.865,-6.46,7.86,-0.06,26.44
17845,0.3329,-0.0242,0.8654,-6.49,7.85,-0.06,26.44
17855,0.3342,-0.0236,0.8615,-6.43,7.83,-0.08,26.43
17865,0.3345,-0.0249,0.8636,-6.52,7.88,-0.05,26.43
17875,0.3317,-0.0233,0.8644,-6.53,7.85,-0.02,26.44
17885,0.3325,-0.0223,0.8676,-6.47,7.8,-0.08,26.45
17895,0.333,-0.0223,0.8672,-6.5,7.95,0.02,26.46
17905,0.334,-0.0223,0.8658,-6.44,7.88,-0.03,26.45
17915,0.332,-0.0233,0.8646,-6.61,7.82,-0.06,26.47
17925,0.3307,-0.0221,0.8699,-6.5,7.89,0.0,26.46
17935,0.3341,-0.0212,0.8635,-6.53,7.91,0.0,26.46
17945,0.3323,-0.0227,0.8628,-6.5,7.88,-0.05,26.45
17955,0.3359,-0.0249,0.8654,-6.46,7.86,-0.03,26.46
17965,0.333,-0.0258,0.8628,-6.46,7.92,-0.02,26.44
17975,0.3344,-0.0238,0.8636,-6.47,7.89,-0.03,26.46
17985,0.3339,-0.0226,0.8657,-6.46,7.89,-0.06,26.46
17995,0.3342,-0.0203,0.8628,-6.46,7.83,-0.11,26.44
18005,0.3356,-0.0233,0.8652,-6.52,7.86,-0.02,26.44
18015,0.3354,-0.0234,0.8646,-6.44,7.86,0.0,26.45
18025,0.3326,-0.0247,0.8624,-6.56,7.88,-0.06,26.44
18035,0.3322,-0.0243,0.8658,-6.49,7.91,-0.03,26.48
18045,0.3352,-0.0225,0.8655,-6.47,7.86,0.02,26.48
18055,0.3346,-0.0215,0.8655,-6.49,7.88,0.03,26.47
18065,0.3314,-0.0223,0.8643,-6.46,7.86,-0.08,26.45
18075,0.3319,-0.022,0.8643,-6.47,7.86,-0.12,26.48
18085,0.3328,-0.0237,0.8588,-6.43,7.85,-0.08,26.49
18095,0.3334,-0.0248,0.8635,-6.5,7.86,-0.08,26.45
18105,0.3328,-0.0221,0.8616,-6.52,7.79,0.0,26.45
18115,0.3333,-0.0247,0.8625,-6.43,7.85,-0.06,26.44
18125,0.332,-0.0225,0.8635,-6.49,7.85,-0.05,26.44
18135,0.3357,-0.0211,0.863,-6.46,7.88,-0.09,26.45
18145,0.3362,-0.025,0.8611,-6.43,7.8,-0.02,26.45
18155,0.3341,-0.0199,0.8645,-6.44,7.91,-0.11,26.44
18165,0.3345,-0.0238,0.8629,-6.47,7.85,-0.03,26.45
18175,0.3339,-0.0211,0.8654,-6.49,7.85,-0.03,26.48
18185,0.3354,-0.025,0.8633,-6.5,7.79,-0.08,26.47
18195,0.3354,-0.0215,0.8641,-6.44,7.8,0.02,26.44
18205,0.3359,-0.0222,0.8663,-6.5,7.85,0.02,26.43
18215,0.3346,-0.0227,0.8647,-6.49,7.86,-0.09,26.44
18225,0.3329,-0.0231,0.8621,-6.47,7.82,-0.05,26.47
18235,0.3322,-0.026,0.8634,-6.56,7.89,-0.02,26.45
18245,0.3329,-0.0239,0.8643,-6.47,7.91,-0.05,26.44
18255,0.3334,-0.0245,0.8641,-6.5,7.82,0.02,26.44
18265,0.3313,-0.022,0.8695,-6.49,7.91,-0.09,26.42
18275,0.333,-0.0243,0.8672,-6.52,7.85,-0.02,26.47
18285,0.3347,-0.0259,0.8627,-6.52,7.85,-0.08,26.44
18295,0.3341,-0.0238,0.8655,-6.44,7.86,-0.03,26.46
18305,0.335,-0.0204,0.8632,-6.53,7.82,-0.05,26.44
18315,0.3344,-0.022,0.8662,-6.41,7.94,-0.06,26.46
18325,0.3309,-0.0214,0.8636,-6.49,7.92,-0.05,26.44
18335,0.3363,-0.0212,0.8616,-6.49,7.91,-0.05,26.45
18345,0.3325,-0.0212,0.8622,-6.46,7.92,-0.03,26.45
18355,0.3311,-0.0259,0.8634,-6.53,7.88,0.0,26.44
18365,0.3367,-0.0228,0.8608,-6.52,7.85,-0.06,26.45
18375,0.3312,-0.0211,0.8612,-6.49,7.83,-0.05,26.47
18385,0.3325,-0.024,0.8633,-6.47,7.89,-0.12,26.46
18395,0.3359,-0.0238,0.8645,-6.49,7.85,-0.05,26.43
18405,0.3353,-0.0216,0.8593,-6.52,7.79,-0.11,26.46
18415,0.3362,-0.0249,0.8638,-6.46,7.83,-0.05,26.44
18425,0.3339,-0.0225,0.8666,-6.5,7.85,-0.02,26.43
18435,0.3353,-0.0212,0.8657,-6.43,7.76,-0.02,26.46
18445,0.3342,-0.0233,0.8646,-6.52,7.85,-0.14,26.44
18455,0.334,-0.0253,0.865,-6.44,7.8,-0.02,26.42
18465,0.3325,-0.0239,0.8621,-6.44,7.88,-0.06,26.45
18475,0.333,-0.0219,0.861,-6.47,7.92,0.0,26.44
18485,0.3347,-0.0211,0.8661,-6.52,7.86,-0.05,26.47
18495,0.3335,-0.0245,0.8665,-6.44,7.92,-0.02,26.45
18505,0.3344,-0.024,0.8621,-6.4,7.85,-0.09,26.44
18515,0.3325,-0.0227,0.8645,-6.47,7.91,0.0,26.44
18525,0.3331,-0.0232,0.8671,-6.55,7.82,-0.05,26.45
18535,0.3322,-0.025,0.8655,-6.37,7.92,-0.09,26.45
18545,0.3341,-0.0214,0.8656,-6.49,7.91,-0.02,26.45
18555,0.3344,-0.0237,0.865,-6.41,7.85,0.02,26.44
18565,0.3314,-0.0244,0.8658,-6.49,7.83,-0.11,26.45
18575,0.3326,-0.0223,0.8646,-6.44,7.89,-0.02,26.44
18585,0.3335,-0.0231,0.8636,-6.52,7.83,-0.11,26.44
18595,0.3353,-0.0225,0.8641,-6.47,7.89,-0.05,26.48
18605,0.3324,-0.0236,0.8661,-6.44,7.85,0.02,26.44
18615,0.3353,-0.0238,0.8627,-6.52,7.86,-0.09,26.46
18625,0.3334,-0.0245,0.8633,-6.49,7.85,-0.02,26.47
18635,0.335,-0.0242,0.8646,-6.44,7.77,-0.09,26.46
18645,0.3314,-0.0232,0.8624,-6.46,7.88,-0.03,26.47
18655,0.3352,-0.0222,0.8635,-6.46,7.86,-0.09,26.46
18665,0.333,-0.0231,0.86,-6.55,7.86,-0.02,26.44
18675,0.332,-0.0247,0.8645,-6.53,7.85,-0.06,26.46
18685,0.3336,-0.0243,0.8641,-6.52,7.89,-0.03,26.47
18695,0.3324,-0.0239,0.8623,-6.53,7.89,-0.08,26.48
18705,0.3346,-0.0233,0.8594,-6.53,7.83,-0.02,26.46
18715,0.3326,-0.0211,0.8627,-6.55,7.91,-0.06,26.48
18725,0.3348,-0.0221,0.8657,-6.52,7.82,-0.03,26.44
18735,0.3298,-0.0221,0.8629,-6.52,7.83,-0.11,26.46
18745,0.3351,-0.0209,0.8622,-6.52,7.86,-0.02,26.46
18755,0.334,-0.0222,0.8641,-6.55,7.82,0.0,26.45
18765,0.3353,-0.0244,0.8673,-6.41,7.86,-0.08,26.46
18775,0.3362,-0.0231,0.8643,-6.53,7.85,0.0,26.45
18785,0.3312,-0.0259,0.8615,-6.5,7.85,-0.02,26.44
18795,0.3345,-0.0244,0.8629,-6.46,7.92,-0.03,26.42
18805,0.3333,-0.0232,0.8643,-6.53,7.83,-0.08,26.46
18815,0.3354,-0.0254,0.8629,-6.5,7.85,-0.08,26.44
18825,0.3335,-0.0242,0.865,-6.44,7.89,-0.03,26.44
18835,0.335,-0.0256,0.8649,-6.43,7.88,-0.02,26.45
18845,0.3352,-0.0242,0.8618,-6.5,7.82,0.0,26.45
18855,0.3352,-0.0249,0.8619,-6.5,7.85,-0.06,26.48
18865,0.3336,-0.0249,0.8649,-6.55,7.76,-0.11,26.47
18875,0.335,-0.0206,0.8663,-6.46,7.89,-0.08,26.44
18885,0.3324,-0.0231,0.8656,-6.55,7.88,0.03,26.46
18895,0.335,-0.0219,0.8651,-6.4,7.94,-0.05,26.44
18905,0.3356,-0.0237,0.8616,-6.49,7.88,-0.05,26.45
18915,0.3336,-0.022,0.863,-6.5,7.82,0.0,26.47
18925,0.3312,-0.0219,0.8638,-6.47,7.88,-0.02,26.46
18935,0.3356,-0.0234,0.8629,-6.47,7.82,0.0,26.46
18945,0.3356,-0.0209,0.8651,-6.53,7.86,0.06,26.44
18955,0.334,-0.0259,0.8633,-6.49,7.8,-0.05,26.47
18965,0.3342,-0.0245,0.8656,-6.52,7.85,-0.02,26.44
18975,0.3341,-0.0228,0.8636,-6.44,7.82,-0.03,26.44
18985,0.3318,-0.0229,0.8651,-6.47,7.82,-0.02,26.46
18995,0.3344,-0.0247,0.8651,-6.52,7.82,-0.06,26.44
19005,0.3345,-0.0232,0.864,-6.55,7.8,-0.06,26.46
19015,0.3312,-0.0209,0.8619,-6.53,7.91,0.05,26.47
19025,0.3322,-0.0198,0.8627,-6.52,7.95,0.0,26.46
19035,0.3346,-0.0226,0.8621,-6.49,7.88,-0.06,26.46
19045,0.3319,-0.024,0.8595,-6.49,7.86,0.03,26.47
19055,0.3356,-0.0264,0.8607,-6.5,7.88,-0.14,26.45
19065,0.3359,-0.0239,0.8623,-6.52,7.86,-0.05,26.47
19075,0.334,-0.0258,0.8656,-6.49,7.82,0.0,26.45
19085,0.3356,-0.0251,0.8629,-6.46,7.8,-0.02,26.44
19095,0.3323,-0.0231,0.8628,-6.47,7.82,-0.11,26.43
19105,0.3359,-0.0212,0.8593,-6.52,7.89,0.02,26.44
19115,0.3314,-0.0223,0.8632,-6.52,7.85,-0.06,26.43
19125,0.3331,-0.0214,0.8602,-6.5,7.88,-0.09,26.46
19135,0.3328,-0.0236,0.8665,-6.47,7.92,0.0,26.46
19145,0.3331,-0.0231,0.8661,-6.52,7.91,-0.02,26.47
19155,0.3312,-0.0242,0.8628,-6.41,7.86,-0.03,26.49
19165,0.3364,-0.0242,0.864,-6.5,7.82,0.02,26.49
19175,0.3351,-0.0264,0.8654,-6.49,7.88,-0.05,26.46
19185,0.3341,-0.022,0.8645,-6.5,7.85,-0.05,26.47
19195,0.334,-0.0214,0.8652,-6.49,7.83,-0.02,26.45
19205,0.3339,-0.024,0.8624,-6.46,7.91,0.03,26.47
19215,0.3317,-0.0251,0.8654,-6.47,7.86,-0.08,26.47
19225,0.3324,-0.0232,0.8667,-6.55,7.94,-0.06,26.47
19235,0.3336,-0.0222,0.8661,-6.53,7.79,0.0,26.5
19245,0.3328,-0.024,0.8625,-6.49,7.86,-0.08,26.47
19255,0.3329,-0.0258,0.8616,-6.53,7.83,-0.05,26.5
19265,0.3346,-0.0237,0.8627,-6.49,7.83,0.0,26.48
19275,0.3352,-0.0244,0.8628,-6.43,7.88,-0.05,26.48
19285,0.3339,-0.0236,0.8634,-6.49,7.86,-0.03,26.48
19296,0.3353,-0.0244,0.865,-6.46,7.94,0.03,26.49
19306,0.3335,-0.0243,0.8611,-6.44,7.83,-0.05,26.49
19316,0.3325,-0.0272,0.8604,-6.49,7.86,-0.11,26.47
19326,0.3357,-0.0239,0.864,-6.55,7.82,-0.2,26.48
19336,0.3339,-0.0243,0.8682,-6.5,7.82,-0.03,26.45
19346,0.3389,-0.0243,0.8644,-6.53,7.82,-0.03,26.49
19356,0.3331,-0.0198,0.8665,-6.47,7.83,-0.03,26.47
19366,0.3353,-0.0221,0.8605,-6.46,7.77,-0.08,26.49
19376,0.335,-0.0242,0.863,-6.47,7.82,-0.09,26.47
19386,0.3319,-0.0215,0.8629,-6.5,7.91,0.06,26.48
19396,0.3335,-0.022,0.8622,-6.56,7.8,0.02,26.47
19406,0.3328,-0.021,0.8665,-6.46,7.79,-0.06,26.49
19416,0.3309,-0.021,0.8624,-6.52,7.91,0.0,26.47
19426,0.3312,-0.0243,0.8644,-6.55,7.86,0.05,26.48
19436,0.3324,-0.0261,0.8657,-6.55,7.83,0.08,26.48
19446,0.3325,-0.022,0.8651,-6.5,7.79,-0.06,26.48
19456,0.3307,-0.0233,0.8651,-6.49,7.91,-0.05,26.48
19466,0.3362,-0.0227,0.864,-6.53,7.86,-0.02,26.46
19476,0.3315,-0.0245,0.8638,-6.49,7.91,-0.12,26.49
19486,0.3346,-0.0228,0.8661,-6.46,7.88,-0.03,26.48
19496,0.3359,-0.0247,0.8644,-6.43,7.86,-0.02,26.47
19506,0.3341,-0.0238,0.869,-6.49,7.83,-0.06,26.47
19516,0.3335,-0.0205,0.8668,-6.49,7.83,0.02,26.49
19526,0.335,-0.0222,0.8621,-6.61,7.92,-0.03,26.49
19536,0.3331,-0.0222,0.8633,-6.49,7.92,0.05,26.49
19546,0.33,-0.0255,0.8633,-6.53,7.92,-0.02,26.48
19556,0.3329,-0.0243,0.8645,-6.53,7.86,-0.08,26.47
19566,0.3358,-0.0239,0.8634,-6.44,7.88,-0.05,26.48
19576,0.333,-0.0238,0.8638,-6.55,7.85,-0.05,26.48
19586,0.3328,-0.02,0.8627,-6.44,7.88,-0.09,26.49
19596,0.3362,-0.0229,0.8615,-6.49,7.86,-0.11,26.47
19606,0.3331,-0.0232,0.8617,-6.49,7.89,0.03,26.49
19616,0.3318,-0.0239,0.8671,-6.44,7.89,0.0,26.5
19626,0.3344,-0.0228,0.8641,-6.47,7.79,-0.06,26.47
19636,0.3359,-0.0232,0.866,-6.46,7.76,-0.11,26.48
19646,0.3347,-0.0247,0.8636,-6.6,7.88,-0.02,26.48
19656,0.3334,-0.0227,0.8647,-6.63,7.88,0.0,26.49
19666,0.334,-0.0222,0.8621,-6.52,7.88,-0.05,26.47
19676,0.3324,-0.0214,0.8633,-6.44,7.83,-0.08,26.5
19686,0.3346,-0.0223,0.8676,-6.43,7.83,-0.14,26.48
19696,0.3356,-0.0269,0.8685,-6.46,7.86,0.0,26.47
19706,0.338,-0.0239,0.8682,-6.58,7.76,-0.03,26.48
19716,0.3356,-0.0239,0.8654,-6.58,7.85,-0.03,26.49
19726,0.3352,-0.021,0.8619,-6.46,7.82,0.02,26.48
19736,0.3358,-0.0231,0.8628,-6.49,7.88,-0.06,26.49
19747,0.3367,-0.0201,0.863,-6.47,7.89,-0.02,26.48
19757,0.3345,-0.0231,0.8654,-6.53,7.86,-0.08,26.49
19767,0.335,-0.0239,0.8641,-6.49,7.91,-0.03,26.48
19777,0.3359,-0.0199,0.8662,-6.53,7.82,-0.06,26.49
19787,0.3326,-0.0255,0.8671,-6.46,7.83,-0.06,26.48
19797,0.3329,-0.0225,0.8618,-6.47,7.8,-0.05,26.51
19807,0.3346,-0.0226,0.8622,-6.5,7.79,-0.05,26.51
19817,0.337,-0.0209,0.8622,-6.5,7.88,0.0,26.47
19827,0.3359,-0.0217,0.8658,-6.44,7.91,0.0,26.49
19837,0.3336,-0.0243,0.8656,-6.47,7.79,-0.08,26.48
19847,0.3345,-0.0211,0.8669,-6.44,7.8,-0.02,26.47
19857,0.335,-0.0236,0.8612,-6.53,7.83,0.0,26.47
19867,0.3331,-0.0214,0.8643,-6.46,7.86,-0.08,26.49
19877,0.3337,-0.0216,0.8633,-6.49,7.83,-0.03,26.49
19887,0.3344,-0.0236,0.8652,-6.56,7.89,-0.03,26.49
19897,0.3318,-0.0248,0.8673,-6.49,7.86,-0.08,26.48
19907,0.3315,-0.0226,0.865,-6.38,7.89,-0.03,26.49
19917,0.3326,-0.0225,0.8636,-6.55,7.86,-0.08,26.47
19927,0.3337,-0.0233,0.8611,-6.55,7.8,-0.09,26.49
19937,0.3363,-0.0212,0.8622,-6.46,7.89,-0.08,26.47
19947,0.3359,-0.0212,0.8649,-6.49,7.82,-0.06,26.47
19957,0.3337,-0.0238,0.8663,-6.49,7.8,-0.06,26.47
19967,0.3315,-0.0227,0.8621,-6.43,7.94,-0.09,26.48
19977,0.3335,-0.0215,0.8657,-6.53,7.86,-0.08,26.48
19987,0.332,-0.025,0.8629,-6.44,7.8,-0.08,26.49
19997,0.3339,-0.0234,0.8654,-6.53,7.8,0.0,26.49
20007,0.3313,-0.021,0.8663,-6.49,7.83,-0.08,26.49
20017,0.3324,-0.0234,0.8612,-6.41,7.85,-0.02,26.5
20027,0.3328,-0.0239,0.8622,-6.52,7.89,-0.02,26.45
20037,0.3348,-0.0227,0.8665,-6.49,7.86,0.0,26.47
20047,0.3322,-0.0225,0.8633,-6.5,7.86,-0.08,26.47
20057,0.3363,-0.022,0.8635,-6.41,7.82,-0.03,26.48
20067,0.3339,-0.0228,0.864,-6.52,7.91,-0.06,26.51
20077,0.3315,-0.0231,0.8633,-6.46,7.86,-0.05,26.5
20087,0.3347,-0.0215,0.8647,-6.5,7.91,-0.06,26.47
20097,0.3333,-0.0215,0.8651,-6.47,7.79,-0.02,26.49
20107,0.3336,-0.0231,0.8617,-6.47,7.88,-0.05,26.48
20117,0.3336,-0.0251,0.8645,-6.47,7.88,-0.06,26.45
20127,0.3354,-0.0245,0.8639,-6.47,7.91,-0.06,26.47
20137,0.3353,-0.0238,0.8628,-6.5,7.83,-0.08,26.48
20147,0.3345,-0.021,0.8591,-6.5,7.79,-0.09,26.48
20157,0.3326,-0.0248,0.8621,-6.46,7.94,-0.05,26.49
20167,0.3348,-0.0231,0.8615,-6.52,7.89,-0.05,26.5
20177,0.3331,-0.0233,0.8663,-6.49,7.88,-0.03,26.5
20187,0.3331,-0.0217,0.8645,-6.56,7.91,-0.03,26.48
20197,0.3342,-0.0267,0.8656,-6.49,7.82,-0.02,26.49
20207,0.3358,-0.0238,0.8656,-6.46,7.88,-0.08,26.48
20217,0.3344,-0.0242,0.8645,-6.49,7.77,-0.02,26.52
20227,0.3337,-0.0251,0.8634,-6.55,7.86,-0.11,26.47
20237,0.332,-0.0245,0.8683,-6.49,7.89,-0.02,26.5
20247,0.3344,-0.0228,0.8647,-6.44,7.83,0.06,26.48
20257,0.3337,-0.0232,0.8651,-6.46,7.83,-0.02,26.47
20267,0.3346,-0.0256,0.8641,-6.49,7.85,-0.05,26.5
20277,0.3368,-0.0239,0.8652,-6.46,7.86,-0.05,26.48
20289,0.3358,-0.0243,0.865,-6.53,7.83,-0.08,26.49
20300,0.3318,-0.0212,0.8618,-6.44,7.86,-0.02,26.48
20310,0.3315,-0.0225,0.8655,-6.49,7.86,-0.03,26.47
20320,0.332,-0.0226,0.8651,-6.47,7.89,-0.09,26.48
20330,0.3313,-0.0233,0.87,-6.5,7.85,-0.03,26.49
20340,0.3323,-0.024,0.8644,-6.49,7.88,-0.05,26.47
20350,0.3333,-0.0233,0.8629,-6.47,7.86,-0.03,26.5
20360,0.3358,-0.0193,0.8633,-6.43,7.82,-0.11,26.5
20371,0.3344,-0.0237,0.8652,-6.55,7.85,-0.02,26.51
20381,0.333,-0.0203,0.8658,-6.5,7.91,-0.08,26.5
20391,0.333,-0.0233,0.863,-6.44,7.83,-0.03,26.48
20401,0.3331,-0.0214,0.8655,-6.52,7.85,-0.08,26.49
20411,0.3367,-0.022,0.8624,-6.43,7.85,-0.05,26.49
20421,0.3335,-0.0237,0.8647,-6.5,7.85,-0.05,26.5
20431,0.3315,-0.0244,0.864,-6.5,7.83,-0.05,26.48
20441,0.3348,-0.0239,0.8621,-6.41,7.88,-0.11,26.49
20451,0.3368,-0.0223,0.8657,-6.49,7.85,0.03,26.49
20461,0.333,-0.0259,0.8649,-6.46,7.89,-0.06,26.49
20471,0.3329,-0.0239,0.8665,-6.56,7.82,-0.12,26.49
20481,0.3347,-0.0222,0.8606,-6.52,7.83,-0.14,26.49
20491,0.3312,-0.0228,0.8632,-6.49,7.85,-0.09,26.48
20501,0.3337,-0.0264,0.8617,-6.53,7.86,-0.02,26.48
20511,0.3319,-0.0248,0.8593,-6.44,7.83,-0.08,26.5
20521,0.3336,-0.0215,0.8627,-6.49,7.91,-0.02,26.5
20531,0.3346,-0.022,0.8613,-6.52,7.83,0.0,26.5
20541,0.3348,-0.0232,0.8657,-6.49,7.89,-0.05,26.51
20551,0.3331,-0.0231,0.8627,-6.43,7.86,0.06,26.53
20561,0.3334,-0.0233,0.8638,-6.44,7.82,-0.06,26.51
20571,0.3341,-0.0236,0.8633,-6.49,7.86,-0.05,26.51
20581,0.3314,-0.0261,0.8651,-6.5,7.79,-0.06,26.51
20591,0.3331,-0.0184,0.8624,-6.55,7.89,-0.08,26.48
20601,0.3353,-0.0239,0.8593,-6.55,7.89,-0.05,26.5
20611,0.3307,-0.0226,0.8646,-6.47,7.86,-0.02,26.52
20621,0.3319,-0.0225,0.8665,-6.52,7.77,-0.02,26.51
20631,0.337,-0.0232,0.8638,-6.49,7.85,-0.05,26.52
20641,0.3347,-0.0212,0.8639,-6.47,7.88,0.03,26.49
20651,0.3356,-0.0229,0.8652,-6.46,7.85,-0.03,26.51
20661,0.3324,-0.0226,0.8638,-6.5,7.89,-0.05,26.52
20671,0.3339,-0.0217,0.8652,-6.47,7.8,-0.02,26.5
20681,0.3347,-0.0232,0.8629,-6.41,7.89,-0.06,26.52
20691,0.3324,-0.0226,0.8638,-6.46,7.86,0.02,26.52
20701,0.3318,-0.0255,0.8635,-6.43,7.79,-0.05,26.49
20711,0.3347,-0.0237,0.8663,-6.55,7.89,-0.05,26.51
20721,0.3319,-0.025,0.8628,-6.49,7.86,-0.05,26.53
20731,0.3362,-0.0248,0.865,-6.5,7.83,-0.02,26.49
20741,0.3325,-0.0259,0.863,-6.46,7.85,-0.02,26.5
20751,0.3347,-0.0238,0.8636,-6.47,7.88,0.0,26.5
20761,0.3318,-0.0243,0.8638,-6.53,7.85,-0.08,26.5
20771,0.3341,-0.0209,0.8663,-6.44,7.89,-0.11,26.51
20781,0.3318,-0.0234,0.8624,-6.52,7.8,0.0,26.51
20791,0.3334,-0.0232,0.8658,-6.6,7.89,-0.05,26.49
20801,0.3334,-0.0226,0.8662,-6.56,7.85,-0.08,26.49
20811,0.333,-0.0223,0.8668,-6.5,7.92,-0.02,26.5
20821,0.3337,-0.0222,0.8651,-6.44,7.88,-0.05,26.49
20831,0.3345,-0.0234,0.8705,-6.44,7.85,-0.03,26.51
20841,0.3314,-0.024,0.8643,-6.49,7.88,-0.06,26.48
20851,0.3354,-0.0227,0.8625,-6.53,7.91,0.02,26.5
20861,0.3347,-0.0216,0.8646,-6.5,7.88,-0.09,26.5
20871,0.334,-0.0226,0.8654,-6.52,7.88,0.0,26.5
20881,0.3364,-0.0229,0.8688,-6.52,7.8,0.03,26.5
20891,0.3352,-0.0236,0.8656,-6.53,7.85,-0.05,26.49
20901,0.3357,-0.0226,0.8661,-6.49,7.88,-0.05,26.49
20911,0.3362,-0.0255,0.866,-6.44,7.86,-0.09,26.5
20922,0.3341,-0.0234,0.8644,-6.52,7.83,-0.06,26.48
20932,0.333,-0.0249,0.8657,-6.52,7.83,0.02,26.5
20942,0.334,-0.0245,0.8633,-6.44,7.86,-0.06,26.49
20952,0.3326,-0.0251,0.8627,-6.43,7.88,-0.02,26.49
20962,0.3339,-0.0233,0.8661,-6.5,7.82,-0.03,26.49
20972,0.3325,-0.0231,0.8624,-6.52,7.83,-0.02,26.5
20982,0.3352,-0.024,0.8624,-6.47,7.86,-0.02,26.47
20992,0.333,-0.0219,0.865,-6.55,7.79,-0.06,26.49
21002,0.3351,-0.0255,0.8679,-6.53,7.85,-0.03,26.51
21012,0.3342,-0.0254,0.8677,-6.49,7.86,-0.09,26.49
21022,0.3341,-0.0231,0.8641,-6.56,7.82,-0.05,26.51
21032,0.3314,-0.0208,0.8613,-6.5,7.82,-0.05,26.52
21042,0.3324,-0.0256,0.8639,-6.46,7.86,-0.06,26.52
21052,0.3351,-0.0223,0.8574,-6.53,7.79,-0.06,26.52
21062,0.3309,-0.0244,0.8671,-6.56,7.76,-0.09,26.49
21072,0.3319,-0.0236,0.8647,-6.5,7.85,0.05,26.47
21082,0.3358,-0.0248,0.8656,-6.49,7.85,0.0,26.51
21092,0.3336,-0.0242,0.8623,-6.47,7.85,-0.06,26.54
21103,0.3326,-0.0221,0.8634,-6.55,7.92,-0.03,26.49
21113,0.3345,-0.0234,0.864,-6.47,7.83,0.0,26.48
21123,0.3325,-0.0237,0.8674,-6.43,7.86,-0.05,26.51
21133,0.3301,-0.0229,0.8656,-6.55,7.83,-0.08,26.48
21143,0.3331,-0.0219,0.8622,-6.43,7.82,-0.06,26.49
21153,0.3331,-0.0245,0.8673,-6.5,7.83,-0.09,26.49
21163,0.3341,-0.0256,0.8657,-6.44,7.88,-0.02,26.49
21173,0.3329,-0.0247,0.8657,-6.47,7.92,-0.05,26.49
21183,0.3325,-0.0248,0.8634,-6.49,7.83,-0.06,26.5
21193,0.3344,-0.0236,0.864,-6.52,7.91,-0.03,26.51
21203,0.3336,-0.0238,0.8622,-6.53,7.83,-0.02,26.49
21213,0.3326,-0.022,0.8632,-6.52,7.83,-0.06,26.49
21223,0.3346,-0.0223,0.8656,-6.52,7.85,-0.09,26.51
21233,0.3348,-0.0223,0.8652,-6.47,7.88,-0.12,26.51
21243,0.3335,-0.0231,0.8647,-6.52,7.86,0.0,26.5
21253,0.3336,-0.0209,0.8641,-6.47,7.79,-0.06,26.52
21263,0.3328,-0.0226,0.8655,-6.5,7.85,-0.02,26.51
21273,0.3346,-0.0228,0.8679,-6.55,7.95,-0.06,26.51
21283,0.3358,-0.0243,0.8622,-6.55,7.88,-0.08,26.5
21293,0.3304,-0.0254,0.8617,-6.49,7.86,-0.03,26.5
21303,0.3347,-0.024,0.8635,-6.47,7.85,-0.06,26.52
21313,0.3319,-0.0244,0.8667,-6.52,7.82,-0.06,26.52
21323,0.3363,-0.0245,0.8617,-6.52,7.94,-0.09,26.5
21333,0.332,-0.0214,0.86,-6.47,7.82,-0.03,26.51
21343,0.3353,-0.0255,0.8635,-6.46,7.91,0.0,26.51
21353,0.3334,-0.0223,0.8612,-6.52,7.85,0.0,26.52
21363,0.3319,-0.0265,0.8633,-6.55,7.85,-0.02,26.52
21373,0.3285,-0.024,0.865,-6.49,7.91,0.0,26.49
21383,0.3342,-0.0219,0.8635,-6.44,7.89,-0.05,26.5
21393,0.3379,-0.0239,0.8661,-6.44,7.77,0.0,26.5
21403,0.3396,-0.0233,0.8662,-6.55,7.85,-0.05,26.49
21413,0.3325,-0.0248,0.8673,-6.47,7.89,0.03,26.5
21423,0.3347,-0.0243,0.8673,-6.47,7.92,-0.05,26.5
21433,0.3324,-0.0265,0.8661,-6.46,7.86,-0.09,26.51
21443,0.3379,-0.0255,0.8652,-6.52,7.82,-0.06,26.51
21453,0.3285,-0.0259,0.8588,-6.5,7.86,-0.03,26.51
21463,0.3351,-0.025,0.8573,-6.6,7.89,-0.05,26.48
21473,0.3281,-0.0276,0.8619,-6.41,7.83,-0.03,26.5
21483,0.3287,-0.0198,0.8621,-6.5,7.8,-0.11,26.49
21493,0.3346,-0.0155,0.8679,-6.5,7.8,-0.08,26.52
21503,0.3354,-0.0212,0.8691,-6.47,7.89,-0.08,26.49
21513,0.3411,-0.0229,0.8696,-6.44,7.85,-0.06,26.52
21523,0.339,-0.0182,0.868,-6.47,7.83,-0.12,26.52
21533,0.3433,-0.0173,0.868,-6.52,7.95,-0.05,26.51
21543,0.3368,-0.0289,0.8575,-6.5,7.89,-0.02,26.5
21553,0.3331,-0.0281,0.8584,-6.46,7.86,-0.09,26.5
21563,0.3322,-0.0215,0.859,-6.44,7.86,-0.06,26.52
21573,0.3297,-0.0275,0.8601,-6.55,7.91,-0.02,26.5
21583,0.327,-0.027,0.8605,-6.52,7.83,0.0,26.51
21593,0.3336,-0.0189,0.8668,-6.49,7.8,0.0,26.5
21603,0.3347,-0.0167,0.8688,-6.47,7.86,0.0,26.5
21613,0.333,-0.0216,0.8679,-6.49,7.91,-0.03,26.51
21623,0.3315,-0.0231,0.8607,-6.55,7.91,-0.02,26.5
21633,0.3357,-0.0221,0.8663,-6.52,7.89,-0.15,26.48
21643,0.3345,-0.0254,0.8651,-6.58,7.89,-0.06,26.5
21653,0.3319,-0.0294,0.8561,-6.5,7.88,-0.05,26.51
21663,0.3344,-0.0267,0.8552,-6.43,7.79,-0.11,26.53
21673,0.3357,-0.021,0.8597,-6.43,7.82,-0.03,26.5
21683,0.3351,-0.0192,0.8629,-6.49,7.85,-0.06,26.51
21693,0.3348,-0.0193,0.8656,-6.55,7.85,-0.11,26.49
21703,0.3353,-0.0192,0.8702,-6.53,7.8,0.0,26.51
21713,0.335,-0.0219,0.8672,-6.56,7.88,0.02,26.51
21723,0.3335,-0.0216,0.8671,-6.47,7.82,0.0,26.49
21733,0.3318,-0.026,0.8643,-6.46,7.91,0.0,26.53
21743,0.3333,-0.0286,0.8612,-6.52,7.88,0.0,26.53
21753,0.3331,-0.0265,0.8582,-6.47,7.79,-0.11,26.51
21763,0.3317,-0.0272,0.8623,-6.46,7.85,0.0,26.51
21773,0.3312,-0.0228,0.8597,-6.5,7.77,-0.05,26.5
21783,0.3335,-0.021,0.8645,-6.5,7.86,-0.05,26.51
21793,0.3353,-0.0188,0.8629,-6.49,7.82,-0.05,26.49
21803,0.3374,-0.0181,0.8737,-6.53,7.82,-0.08,26.5
21813,0.3361,-0.0209,0.8679,-6.5,7.95,-0.08,26.52
21823,0.3372,-0.0236,0.8656,-6.53,7.89,0.0,26.51
21833,0.3324,-0.0245,0.8629,-6.5,7.94,-0.02,26.5
21843,0.3346,-0.0253,0.8633,-6.56,7.85,-0.05,26.51
21853,0.3319,-0.0237,0.8622,-6.5,7.91,-0.06,26.52
21863,0.3275,-0.0255,0.8583,-6.53,7.86,-0.02,26.5
21873,0.3319,-0.0229,0.8604,-6.44,7.91,-0.05,26.51
21883,0.334,-0.0217,0.8615,-6.56,7.89,-0.02,26.5
21893,0.333,-0.0206,0.866,-6.5,7.92,-0.02,26.52
21903,0.3319,-0.0243,0.8666,-6.56,7.85,-0.06,26.51
21913,0.3363,-0.0236,0.8679,-6.44,7.83,-0.09,26.5
21923,0.3336,-0.0242,0.8669,-6.5,7.89,-0.06,26.49
21933,0.3369,-0.025,0.8654,-6.41,7.89,0.0,26.5
21943,0.3352,-0.0223,0.8654,-6.46,7.91,-0.03,26.53
21953,0.3358,-0.0239,0.8596,-6.44,7.85,0.02,26.53
21963,0.3331,-0.021,0.8622,-6.4,7.89,-0.02,26.51
21973,0.3328,-0.0228,0.8632,-6.47,7.83,-0.11,26.53
21983,0.3339,-0.0205,0.8655,-6.47,7.92,-0.03,26.52
21993,0.3326,-0.0234,0.8651,-6.53,7.88,-0.09,26.46
22003,0.333,-0.0249,0.8647,-6.5,7.86,-0.02,26.51
22013,0.3346,-0.0223,0.8627,-6.43,7.79,0.03,26.51
22023,0.3358,-0.0231,0.8636,-6.47,7.86,-0.05,26.52
22033,0.3336,-0.026,0.8627,-6.44,7.8,0.03,26.52
22043,0.3344,-0.0245,0.8661,-6.44,7.92,-0.06,26.5
22053,0.3342,-0.0206,0.8651,-6.49,7.83,0.0,26.52
22063,0.333,-0.0201,0.8654,-6.47,7.88,-0.02,26.52
22073,0.3354,-0.0203,0.8625,-6.53,7.85,-0.03,26.5
22083,0.3334,-0.0206,0.8589,-6.46,7.8,-0.06,26.5
22093,0.3353,-0.0217,0.866,-6.44,7.85,-0.06,26.52
22103,0.3359,-0.0234,0.8622,-6.46,7.76,-0.06,26.53
22113,0.3358,-0.0234,0.8638,-6.53,7.85,-0.11,26.51
22123,0.3334,-0.0256,0.8666,-6.5,7.86,-0.05,26.53
22133,0.3307,-0.0273,0.8632,-6.46,7.94,0.0,26.5
22143,0.3339,-0.0214,0.8606,-6.5,7.86,-0.11,26.51
22153,0.3335,-0.0205,0.8606,-6.52,7.85,-0.06,26.52
22163,0.3304,-0.0197,0.8615,-6.52,7.82,-0.08,26.52
22173,0.333,-0.0228,0.8644,-6.49,7.82,-0.08,26.53
22183,0.3369,-0.0203,0.8644,-6.53,7.85,-0.03,26.5
22193,0.3337,-0.0262,0.8611,-6.58,7.85,-0.02,26.51
22203,0.3339,-0.0229,0.8671,-6.46,7.86,0.06,26.52
22213,0.332,-0.0248,0.8652,-6.46,7.83,0.0,26.51
22223,0.3328,-0.0247,0.8658,-6.49,7.8,-0.02,26.54
22233,0.3318,-0.0253,0.8657,-6.47,7.86,0.06,26.52
22243,0.3346,-0.0222,0.864,-6.52,7.79,-0.06,26.54
22253,0.3309,-0.02,0.8625,-6.49,7.86,0.0,26.52
22263,0.3346,-0.0215,0.8612,-6.53,7.85,-0.02,26.5
22273,0.3317,-0.0226,0.8656,-6.49,7.83,-0.02,26.52
22283,0.3341,-0.026,0.8638,-6.46,7.85,0.0,26.51
22293,0.334,-0.0248,0.8654,-6.43,7.89,0.0,26.53
22303,0.3347,-0.0227,0.8636,-6.53,7.85,0.03,26.52
22313,0.3326,-0.0244,0.8641,-6.44,7.82,-0.06,26.53
22323,0.3374,-0.0214,0.8655,-6.43,7.91,0.0,26.53
22333,0.3348,-0.0227,0.8644,-6.46,7.86,0.03,26.52
22343,0.3344,-0.0234,0.8654,-6.46,7.86,-0.03,26.52
22353,0.3302,-0.022,0.8633,-6.4,7.91,0.0,26.54
22363,0.3311,-0.0217,0.8639,-6.53,7.85,-0.12,26.52
22373,0.3308,-0.0227,0.8649,-6.44,7.79,-0.12,26.54
22383,0.3352,-0.0239,0.8606,-6.5,7.85,-0.08,26.51
22393,0.3361,-0.0249,0.8612,-6.47,7.77,-0.06,26.52
22403,0.3318,-0.0256,0.868,-6.58,7.85,-0.02,26.52
22413,0.3307,-0.0219,0.8641,-6.46,7.86,-0.08,26.52
22423,0.3345,-0.0233,0.8647,-6.46,7.83,-0.08,26.5
22433,0.3329,-0.0238,0.8601,-6.61,7.83,-0.11,26.54
22443,0.3351,-0.0223,0.8611,-6.47,7.88,0.0,26.51
22453,0.3347,-0.0231,0.8698,-6.53,7.92,-0.03,26.52
22463,0.3352,-0.0228,0.8655,-6.55,7.85,-0.09,26.5
22473,0.3346,-0.0229,0.8647,-6.5,7.86,-0.05,26.51
22483,0.3344,-0.0251,0.8617,-6.49,7.86,-0.06,26.54
22493,0.3337,-0.0219,0.866,-6.44,7.85,-0.05,26.52
22503,0.337,-0.0248,0.8628,-6.53,7.92,-0.03,26.52
22513,0.3335,-0.0228,0.8673,-6.44,7.86,-0.08,26.53
22523,0.3318,-0.0206,0.8646,-6.43,7.83,-0.06,26.51
22533,0.335,-0.0232,0.8658,-6.53,7.85,-0.05,26.5
22543,0.3334,-0.0184,0.8651,-6.46,7.88,-0.02,26.54
22554,0.3352,-0.022,0.8644,-6.5,7.91,-0.03,26.54
22564,0.334,-0.0258,0.8639,-6.52,7.83,0.02,26.53
22574,0.3347,-0.0239,0.8617,-6.41,7.85,-0.06,26.51
22584,0.3346,-0.0245,0.8683,-6.43,7.85,-0.05,26.55
22594,0.334,-0.0238,0.8618,-6.46,7.85,-0.05,26.52
22604,0.3307,-0.0222,0.863,-6.53,7.88,-0.05,26.5
22614,0.3326,-0.0236,0.8607,-6.53,7.86,-0.06,26.52
22624,0.335,-0.0205,0.8649,-6.47,7.86,-0.02,26.52
22634,0.3341,-0.0238,0.8652,-6.5,7.94,-0.03,26.52
22645,0.3358,-0.0234,0.8595,-6.4,7.92,0.02,26.52
22655,0.3331,-0.0222,0.8625,-6.47,7.85,-0.03,26.54
22665,0.333,-0.0239,0.8643,-6.55,7.83,-0.06,26.52
22675,0.3352,-0.0234,0.861,-6.5,7.83,-0.03,26.52
22685,0.3329,-0.0234,0.8628,-6.49,7.86,0.02,26.5
22695,0.3319,-0.021,0.8663,-6.5,7.8,-0.06,26.52
22705,0.3379,-0.025,0.8666,-6.46,7.83,-0.05,26.51
22715,0.3359,-0.0247,0.8695,-6.44,7.85,-0.03,26.52
22725,0.3329,-0.0243,0.866,-6.5,7.85,-0.06,26.53
22735,0.3313,-0.0217,0.8619,-6.49,7.83,-0.06,26.49
22745,0.3323,-0.0247,0.8624,-6.55,7.8,-0.08,26.51
22755,0.3297,-0.024,0.8632,-6.41,7.86,-0.02,26.52
22765,0.3329,-0.0255,0.864,-6.44,7.83,0.0,26.53
22775,0.333,-0.0249,0.8684,-6.44,7.83,-0.02,26.52
22785,0.335,-0.0234,0.8625,-6.43,7.85,0.02,26.52
22795,0.3335,-0.0204,0.8623,-6.49,7.91,-0.08,26.52
22805,0.3307,-0.024,0.8663,-6.5,7.83,-0.06,26.5
22815,0.335,-0.02,0.8655,-6.5,7.83,-0.06,26.5
22825,0.3342,-0.0209,0.8602,-6.5,7.85,-0.09,26.5
22835,0.3335,-0.0225,0.8649,-6.47,7.85,0.03,26.52
22845,0.3335,-0.0219,0.8657,-6.53,7.92,-0.03,26.52
22855,0.3315,-0.0223,0.8654,-6.52,7.82,-0.11,26.52
22865,0.3322,-0.0226,0.8641,-6.47,7.86,-0.15,26.53
22875,0.3345,-0.0254,0.8612,-6.5,7.86,-0.02,26.51
22885,0.3344,-0.0222,0.8624,-6.49,7.86,-0.06,26.52
22895,0.3322,-0.0231,0.8654,-6.4,7.85,-0.03,26.51
22905,0.3306,-0.0238,0.8678,-6.38,7.91,-0.05,26.52
22915,0.3347,-0.0234,0.8622,-6.49,7.88,-0.05,26.52
22925,0.3357,-0.0265,0.8619,-6.41,7.83,-0.03,26.51
22935,0.3358,-0.0232,0.8611,-6.53,7.83,-0.12,26.53
22945,0.3337,-0.021,0.8634,-6.55,7.74,-0.03,26.53
22955,0.3335,-0.0238,0.8619,-6.43,7.82,-0.06,26.52
22965,0.3307,-0.0237,0.8651,-6.46,7.89,-0.05,26.51
22975,0.3326,-0.0232,0.8633,-6.41,7.8,-0.09,26.52
22985,0.3353,-0.0237,0.8666,-6.5,7.74,-0.06,26.51
22995,0.3341,-0.0232,0.8639,-6.44,7.92,-0.05,26.52
23005,0.3369,-0.0228,0.864,-6.53,7.85,-0.06,26.51
23015,0.3337,-0.0269,0.8616,-6.5,7.82,-0.09,26.54
23025,0.3344,-0.0205,0.8641,-6.52,7.85,-0.08,26.53
23035,0.3348,-0.024,0.8632,-6.43,7.82,-0.06,26.53
23045,0.3339,-0.0237,0.8617,-6.53,7.86,-0.03,26.55
23055,0.3312,-0.0206,0.8616,-6.44,7.88,-0.12,26.55
23065,0.3325,-0.0184,0.8627,-6.5,7.88,-0.09,26.56
23075,0.3333,-0.0232,0.8622,-6.41,7.86,0.0,26.54
23085,0.3353,-0.022,0.8617,-6.52,7.88,-0.03,26.55
23095,0.3342,-0.024,0.8658,-6.52,7.88,-0.11,26.51
23105,0.3353,-0.0267,0.8627,-6.53,7.83,-0.06,26.51
23115,0.3336,-0.0253,0.8646,-6.52,7.92,0.0,26.51
23125,0.335,-0.0217,0.8665,-6.47,7.86,-0.06,26.51
23135,0.3328,-0.025,0.8652,-6.49,7.83,0.02,26.5
23145,0.3334,-0.0243,0.8649,-6.47,7.88,-0.02,26.52
23155,0.334,-0.022,0.8652,-6.5,7.79,-0.03,26.52
23165,0.3356,-0.0231,0.8647,-6.41,7.86,-0.06,26.52
23175,0.3353,-0.0239,0.8662,-6.56,7.89,-0.06,26.54
23185,0.3347,-0.0203,0.8674,-6.53,7.79,0.02,26.53
23195,0.3328,-0.0231,0.8625,-6.47,7.89,-0.12,26.55
23205,0.3354,-0.0242,0.8606,-6.43,7.85,-0.02,26.53
23215,0.3315,-0.0228,0.8655,-6.55,7.89,-0.06,26.54
23225,0.3331,-0.0211,0.8633,-6.4,7.89,-0.06,26.53
23235,0.335,-0.0237,0.8625,-6.46,7.85,-0.08,26.51
23245,0.332,-0.0211,0.8616,-6.55,7.8,-0.03,26.53
23255,0.3329,-0.0266,0.8643,-6.53,7.86,0.0,26.51
23265,0.332,-0.0239,0.8641,-6.52,7.82,-0.06,26.51
23275,0.3323,-0.0238,0.8661,-6.55,7.85,-0.03,26.54
23285,0.3341,-0.0229,0.8636,-6.46,7.89,-0.02,26.52
23295,0.3326,-0.0223,0.8678,-6.47,7.88,0.02,26.54
23305,0.3358,-0.0248,0.8641,-6.46,7.83,-0.05,26.54
23315,0.3322,-0.0234,0.8619,-6.53,7.89,0.03,26.54
23325,0.3354,-0.0243,0.8658,-6.53,7.83,-0.02,26.53
23335,0.334,-0.0234,0.8634,-6.4,7.77,0.0,26.54
23345,0.3346,-0.019,0.8632,-6.47,7.82,-0.03,26.56
23355,0.333,-0.0231,0.8599,-6.56,7.86,-0.05,26.53
23365,0.3376,-0.0236,0.863,-6.5,7.91,0.0,26.54
23375,0.333,-0.0221,0.8651,-6.52,7.82,-0.02,26.52
23385,0.3347,-0.0237,0.864,-6.46,7.88,-0.09,26.5
23395,0.334,-0.0222,0.863,-6.5,7.82,-0.09,26.53
23405,0.3345,-0.0212,0.8636,-6.41,7.83,-0.11,26.52
23415,0.3337,-0.0208,0.8657,-6.5,7.89,-0.02,26.52
23425,0.3356,-0.0227,0.8602,-6.52,7.83,-0.12,26.52
23435,0.3361,-0.0234,0.8641,-6.53,7.8,-0.03,26.52
23445,0.3325,-0.0232,0.8608,-6.46,7.85,-0.02,26.51
23455,0.3348,-0.0243,0.8617,-6.52,7.86,-0.02,26.53
23466,0.334,-0.0237,0.8633,-6.49,7.86,0.0,26.53
23476,0.3331,-0.0248,0.8687,-6.49,7.85,0.0,26.55
23486,0.3325,-0.0221,0.8644,-6.5,7.89,-0.06,26.53
23496,0.3336,-0.0214,0.8645,-6.47,7.88,-0.06,26.53
23506,0.3326,-0.0232,0.8629,-6.47,7.77,-0.06,26.52
23516,0.3351,-0.0227,0.8669,-6.53,7.85,0.0,26.54
23527,0.3326,-0.0209,0.8622,-6.52,7.82,-0.03,26.53
23537,0.3322,-0.0231,0.8636,-6.43,7.88,-0.06,26.54
23547,0.3356,-0.022,0.8646,-6.53,7.86,-0.05,26.55
23557,0.3356,-0.021,0.8652,-6.38,7.88,0.0,26.53
23567,0.3334,-0.0227,0.8667,-6.49,7.88,-0.11,26.54
23577,0.333,-0.0234,0.8605,-6.5,7.8,0.0,26.54
23587,0.3324,-0.0217,0.8605,-6.55,7.88,-0.02,26.53
23597,0.3323,-0.0215,0.8621,-6.46,7.88,0.02,26.54
23607,0.3331,-0.0211,0.8643,-6.55,7.86,-0.11,26.54
23617,0.3358,-0.0212,0.8667,-6.52,7.85,-0.08,26.53
23627,0.3353,-0.0231,0.8623,-6.52,7.83,-0.06,26.53
23637,0.337,-0.0223,0.8656,-6.56,7.85,-0.06,26.54
23647,0.3328,-0.0217,0.8632,-6.5,7.83,-0.02,26.52
23657,0.3325,-0.0209,0.8669,-6.46,7.8,-0.02,26.52
23667,0.3342,-0.024,0.8597,-6.47,7.85,-0.09,26.54
23677,0.3342,-0.0216,0.8654,-6.41,7.91,0.0,26.53
23687,0.333,-0.0227,0.8657,-6.49,7.91,0.0,26.53
23697,0.3337,-0.0247,0.8629,-6.49,7.83,0.0,26.55
23707,0.3336,-0.021,0.8636,-6.49,7.85,0.02,26.55
23717,0.3347,-0.0256,0.864,-6.44,7.85,0.0,26.54
23727,0.3315,-0.0208,0.8658,-6.53,7.83,-0.06,26.57
23737,0.3342,-0.0205,0.8623,-6.49,7.85,-0.03,26.57
23747,0.3333,-0.0219,0.8594,-6.49,7.86,-0.09,26.55
23757,0.3333,-0.0228,0.8636,-6.44,7.89,-0.08,26.56
23767,0.3353,-0.0242,0.864,-6.5,7.83,0.02,26.53
23777,0.3359,-0.0234,0.8624,-6.52,7.88,0.0,26.52
23787,0.3337,-0.0236,0.8643,-6.46,7.85,-0.05,26.52
23797,0.3363,-0.02,0.8627,-6.5,7.85,-0.08,26.54
23807,0.3344,-0.0262,0.8636,-6.55,7.92,-0.05,26.55
23817,0.3312,-0.0232,0.8638,-6.47,7.82,0.0,26.53
23827,0.3308,-0.0216,0.8632,-6.49,7.91,-0.02,26.53
23837,0.3329,-0.0204,0.8625,-6.52,7.91,-0.02,26.54
23847,0.3353,-0.0205,0.8606,-6.47,7.83,-0.06,26.57
23857,0.3344,-0.0245,0.8661,-6.49,7.85,-0.06,26.55
23867,0.3318,-0.024,0.8638,-6.47,7.85,-0.05,26.53
23877,0.3337,-0.0238,0.8676,-6.41,7.83,0.0,26.53
23887,0.3304,-0.0229,0.8634,-6.55,7.86,-0.09,26.54
23897,0.333,-0.0236,0.8644,-6.53,7.86,-0.02,26.54
23907,0.3362,-0.0197,0.8622,-6.43,7.91,-0.03,26.52
23917,0.3362,-0.0239,0.8647,-6.52,7.89,-0.02,26.54
23927,0.3333,-0.0215,0.86,-6.49,7.88,-0.05,26.51
23937,0.3328,-0.0211,0.8617,-6.55,7.85,-0.05,26.52
23947,0.3337,-0.022,0.8608,-6.52,7.89,0.02,26.55
23957,0.3352,-0.0244,0.8643,-6.56,7.85,-0.02,26.54
23967,0.3322,-0.0256,0.8662,-6.55,7.86,-0.03,26.54
23977,0.3328,-0.0242,0.8606,-6.58,7.79,-0.02,26.57
23987,0.3317,-0.0217,0.8655,-6.4,7.74,-0.09,26.55
23997,0.334,-0.0195,0.8633,-6.46,7.89,-0.08,26.55
24007,0.3311,-0.0204,0.8636,-6.5,7.91,-0.03,26.56
24017,0.3337,-0.0238,0.8654,-6.53,7.89,0.0,26.54
24027,0.3361,-0.0249,0.8663,-6.47,7.83,0.03,26.55
24037,0.3326,-0.0245,0.8652,-6.44,7.82,-0.11,26.54
24047,0.3317,-0.0258,0.8645,-6.52,7.82,-0.09,26.56
24057,0.335,-0.0215,0.8635,-6.44,7.83,-0.05,26.54
24067,0.334,-0.0204,0.8634,-6.44,7.86,-0.08,26.56
24077,0.3319,-0.0227,0.8662,-6.53,7.88,-0.06,26.57
24087,0.3331,-0.0253,0.8676,-6.5,7.91,-0.11,26.53
24097,0.3325,-0.0234,0.8669,-6.49,7.8,-0.05,26.54
24107,0.3325,-0.0215,0.8624,-6.5,7.83,-0.14,26.54
24117,0.3317,-0.0223,0.8656,-6.46,7.88,-0.08,26.54
24127,0.329,-0.0229,0.8673,-6.47,7.79,-0.05,26.55
24137,0.3322,-0.0219,0.8652,-6.5,7.86,-0.06,26.55
24147,0.3335,-0.0226,0.8638,-6.41,7.85,-0.05,26.53
24157,0.3326,-0.0226,0.8643,-6.52,7.86,-0.11,26.57
24167,0.3324,-0.0194,0.8651,-6.49,7.86,-0.11,26.54
24177,0.3346,-0.0242,0.8634,-6.49,7.85,-0.08,26.56
24187,0.3344,-0.0219,0.8645,-6.49,7.86,-0.03,26.53
24197,0.3337,-0.0243,0.8646,-6.37,7.92,-0.05,26.54
24207,0.3336,-0.0238,0.8638,-6.41,7.88,-0.03,26.56
24217,0.3344,-0.0211,0.8644,-6.46,7.82,-0.08,26.55
24227,0.3325,-0.0221,0.8612,-6.47,7.79,-0.08,26.54
24237,0.335,-0.0232,0.8671,-6.52,7.8,-0.05,26.52
24247,0.334,-0.0253,0.8599,-6.5,7.85,-0.08,26.55
24257,0.3336,-0.0239,0.8655,-6.47,7.88,0.03,26.56
24267,0.3357,-0.0233,0.8644,-6.47,7.85,-0.06,26.56
24277,0.335,-0.0234,0.8616,-6.61,7.85,-0.05,26.52
24287,0.3378,-0.027,0.863,-6.53,7.83,0.02,26.55
24300,0.3325,-0.0258,0.8639,-6.56,7.83,-0.03,26.55
24310,0.3333,-0.0253,0.8649,-6.47,7.89,-0.05,26.54
24320,0.3352,-0.0228,0.8641,-6.44,7.88,-0.03,26.54
24331,0.3346,-0.0233,0.8628,-6.5,7.86,-0.09,26.57
24341,0.3341,-0.0251,0.863,-6.47,7.85,-0.02,26.56
24351,0.3336,-0.0226,0.8678,-6.61,7.89,0.0,26.56
24361,0.3333,-0.0236,0.8623,-6.5,7.85,-0.02,26.54
24371,0.3309,-0.0233,0.8646,-6.55,7.88,0.0,26.55
24381,0.333,-0.0212,0.8649,-6.5,7.88,-0.02,26.53
24391,0.3353,-0.0226,0.8623,-6.46,7.82,-0.12,26.54
24401,0.3357,-0.0242,0.866,-6.52,7.82,-0.03,26.53
24411,0.3326,-0.0229,0.8674,-6.5,7.88,-0.09,26.55
24421,0.3353,-0.025,0.8677,-6.46,7.83,-0.08,26.54
24431,0.3324,-0.0226,0.8666,-6.49,7.85,0.0,26.54
24441,0.3324,-0.0228,0.8676,-6.43,7.85,-0.05,26.56
24451,0.3354,-0.0242,0.8657,-6.53,7.88,-0.05,26.56
24461,0.3325,-0.0271,0.8623,-6.44,7.91,-0.08,26.55
24471,0.335,-0.0266,0.8644,-6.47,7.82,-0.03,26.55
24481,0.3333,-0.0228,0.8644,-6.46,7.83,0.0,26.56
24491,0.3336,-0.0227,0.8636,-6.5,7.89,-0.05,26.54
24501,0.3365,-0.0194,0.8639,-6.52,7.91,-0.05,26.57
24511,0.3312,-0.021,0.8639,-6.5,7.85,0.0,26.56
24521,0.3336,-0.0236,0.8649,-6.53,7.85,-0.03,26.55
24531,0.3339,-0.0223,0.8604,-6.52,7.86,0.02,26.53
24541,0.3357,-0.0222,0.8635,-6.52,7.94,-0.03,26.55
24551,0.3318,-0.0229,0.8639,-6.5,7.86,-0.03,26.55
24561,0.3334,-0.0211,0.8625,-6.47,7.85,-0.06,26.55
24571,0.3379,-0.0222,0.8655,-6.49,7.89,-0.05,26.55
24581,0.332,-0.0233,0.8647,-6.49,7.88,-0.05,26.57
24591,0.3341,-0.0245,0.866,-6.5,7.83,-0.09,26.56
24601,0.3351,-0.0234,0.8663,-6.52,7.83,-0.05,26.56
24611,0.3335,-0.0272,0.8624,-6.44,7.83,0.03,26.55
24621,0.3325,-0.0227,0.8594,-6.46,7.94,-0.08,26.54
24631,0.3334,-0.0247,0.8618,-6.47,7.88,-0.06,26.56
24641,0.3328,-0.0233,0.8607,-6.47,7.86,0.0,26.55
24651,0.3331,-0.0226,0.8632,-6.47,7.82,-0.05,26.55
24661,0.3367,-0.0211,0.8632,-6.52,7.89,-0.03,26.56
24671,0.3325,-0.0231,0.8641,-6.47,7.82,0.0,26.54
24681,0.3311,-0.022,0.8702,-6.52,7.79,-0.06,26.57
24691,0.3324,-0.0238,0.8595,-6.49,7.85,-0.05,26.56
24701,0.3307,-0.0223,0.8639,-6.49,7.91,-0.03,26.57
24711,0.3341,-0.024,0.8644,-6.44,7.89,-0.08,26.57
24721,0.3345,-0.0247,0.8644,-6.55,7.92,-0.12,26.57
24731,0.3314,-0.0243,0.8666,-6.55,7.88,-0.08,26.55
24741,0.3334,-0.0222,0.8641,-6.43,7.89,-0.06,26.56
24751,0.3341,-0.0243,0.8679,-6.49,7.85,-0.05,26.56
24761,0.3312,-0.0226,0.864,-6.44,7.92,-0.03,26.55
24771,0.3353,-0.0219,0.8649,-6.5,7.83,-0.05,26.56
24781,0.332,-0.022,0.8639,-6.49,7.88,-0.06,26.57
24791,0.3361,-0.0231,0.8652,-6.53,7.82,-0.06,26.55
24801,0.3365,-0.0212,0.8632,-6.5,7.8,-0.05,26.56
24811,0.3359,-0.0229,0.8628,-6.5,7.92,-0.03,26.55
24821,0.3325,-0.0231,0.8652,-6.49,7.92,-0.02,26.52
24831,0.3323,-0.0219,0.8655,-6.52,7.83,0.02,26.57
24841,0.3324,-0.022,0.8662,-6.5,7.86,-0.02,26.55
24851,0.332,-0.0208,0.8619,-6.5,7.89,-0.08,26.56
24861,0.3354,-0.022,0.8658,-6.47,7.86,-0.03,26.55
24871,0.3336,-0.0248,0.865,-6.5,7.83,-0.03,26.57
24881,0.3346,-0.0228,0.8656,-6.47,7.83,-0.06,26.56
24891,0.3346,-0.0229,0.8636,-6.44,7.79,-0.08,26.56
24901,0.332,-0.0223,0.8656,-6.46,7.92,-0.08,26.57
24911,0.3322,-0.0226,0.8634,-6.47,7.86,-0.08,26.57
24921,0.3364,-0.024,0.8666,-6.47,7.83,-0.09,26.58
24931,0.3352,-0.0225,0.8656,-6.52,7.79,-0.08,26.59
24941,0.3362,-0.0227,0.8655,-6.43,7.82,-0.09,26.55
24951,0.3341,-0.0226,0.8628,-6.47,7.89,-0.08,26.55
24961,0.3333,-0.0233,0.8618,-6.47,7.83,0.02,26.58
24971,0.335,-0.0243,0.8669,-6.49,7.88,-0.14,26.57
24981,0.3326,-0.021,0.8658,-6.52,7.89,0.0,26.59
24991,0.3339,-0.0245,0.8601,-6.52,7.83,-0.02,26.55
25001,0.3372,-0.0234,0.8665,-6.55,7.88,-0.05,26.56
25011,0.3347,-0.0248,0.8634,-6.46,7.82,-0.05,26.54
25021,0.3336,-0.0204,0.8623,-6.52,7.85,0.0,26.56
25031,0.3339,-0.0234,0.8643,-6.44,7.85,-0.03,26.56
25041,0.3341,-0.0214,0.8619,-6.5,7.82,-0.06,26.58
25051,0.3309,-0.0244,0.865,-6.5,7.86,-0.08,26.57
25061,0.3325,-0.0228,0.8674,-6.55,7.91,-0.02,26.57
25071,0.3347,-0.0219,0.8671,-6.44,7.89,0.0,26.56
25081,0.3344,-0.0248,0.8617,-6.46,7.88,-0.03,26.58
25091,0.3324,-0.0215,0.8671,-6.46,7.91,-0.05,26.57
25101,0.3351,-0.0226,0.8624,-6.47,7.85,-0.05,26.56
25111,0.3318,-0.024,0.8652,-6.53,7.76,-0.02,26.58
25121,0.3339,-0.0245,0.8593,-6.49,7.85,0.0,26.58
25131,0.333,-0.0227,0.8641,-6.44,7.91,-0.08,26.57
25141,0.3348,-0.0245,0.8624,-6.55,7.89,-0.03,26.57
25151,0.3335,-0.0237,0.8623,-6.56,7.83,-0.05,26.56
25161,0.3335,-0.0216,0.8636,-6.5,7.77,-0.03,26.58
25171,0.3346,-0.0212,0.866,-6.52,7.85,-0.08,26.55
25181,0.3359,-0.0234,0.8605,-6.47,7.88,0.03,26.56
25191,0.3354,-0.0236,0.8669,-6.52,7.85,0.0,26.57
25201,0.3336,-0.0232,0.8622,-6.52,7.86,-0.09,26.57
25211,0.3301,-0.0233,0.8647,-6.46,7.85,-0.06,26.57
25221,0.3325,-0.0232,0.8652,-6.46,7.85,0.0,26.56
25231,0.3347,-0.0247,0.8651,-6.52,7.88,-0.06,26.54
25241,0.3319,-0.0203,0.8618,-6.46,7.88,-0.03,26.56
25251,0.334,-0.0227,0.8616,-6.41,7.82,0.06,26.56
25261,0.3322,-0.0222,0.8643,-6.5,7.91,-0.02,26.57
25271,0.3339,-0.0223,0.8641,-6.53,7.85,-0.02,26.54
25281,0.3356,-0.0239,0.8625,-6.4,7.92,-0.06,26.57
25291,0.3324,-0.026,0.861,-6.47,7.85,-0.09,26.55
25301,0.3331,-0.0238,0.863,-6.44,7.79,-0.03,26.59
25311,0.3347,-0.0226,0.8644,-6.44,7.89,-0.06,26.57
25321,0.3335,-0.024,0.8639,-6.55,7.94,-0.02,26.57
25331,0.3333,-0.024,0.8635,-6.58,7.86,-0.06,26.57
25341,0.3341,-0.0223,0.8643,-6.47,7.82,0.02,26.55
25351,0.3341,-0.0251,0.8629,-6.5,7.8,-0.02,26.55
25361,0.3337,-0.0239,0.8636,-6.5,7.89,-0.03,26.58
25371,0.3342,-0.0229,0.8657,-6.49,7.8,-0.02,26.55
25381,0.3337,-0.0255,0.8656,-6.53,7.85,0.02,26.56
25391,0.3364,-0.021,0.8624,-6.47,7.91,0.02,26.57
25401,0.3353,-0.0238,0.8685,-6.37,7.86,-0.08,26.57
25411,0.3317,-0.0233,0.8665,-6.44,7.88,-0.05,26.59
25421,0.3297,-0.0249,0.8655,-6.47,7.76,-0.11,26.57
25431,0.3337,-0.0228,0.8645,-6.53,7.79,-0.08,26.58
25441,0.3323,-0.0217,0.8611,-6.46,7.88,-0.05,26.56
25451,0.335,-0.0248,0.8635,-6.47,7.82,-0.05,26.55
25461,0.3324,-0.0228,0.8658,-6.5,7.91,-0.03,26.55
25471,0.333,-0.0232,0.865,-6.49,7.85,0.03,26.54
25481,0.3348,-0.0217,0.8663,-6.5,7.83,-0.03,26.57
25492,0.3324,-0.0205,0.8652,-6.52,7.91,-0.06,26.58
25502,0.3344,-0.0242,0.8677,-6.53,7.86,-0.05,26.59
25512,0.3319,-0.0223,0.8638,-6.43,7.85,-0.05,26.56
25522,0.3342,-0.0244,0.8639,-6.49,7.8,-0.02,26.57
25532,0.3324,-0.0223,0.8676,-6.46,7.88,-0.08,26.56
25542,0.333,-0.0217,0.8662,-6.46,7.8,-0.05,26.59
25552,0.3356,-0.0227,0.8667,-6.44,7.82,0.0,26.58
25562,0.335,-0.0222,0.863,-6.53,7.85,-0.05,26.56
25572,0.3324,-0.021,0.8651,-6.53,7.82,-0.09,26.59
25582,0.335,-0.0215,0.8593,-6.43,7.89,-0.03,26.58
25592,0.3351,-0.0226,0.8661,-6.46,7.85,-0.06,26.57
25602,0.3323,-0.0215,0.8638,-6.47,7.91,0.03,26.57
25612,0.3342,-0.0226,0.8644,-6.55,7.88,-0.08,26.58
25622,0.3347,-0.0262,0.8674,-6.44,7.83,-0.11,26.57
25632,0.333,-0.0223,0.8662,-6.46,7.83,0.0,26.56
25642,0.3323,-0.0249,0.8644,-6.52,7.82,-0.08,26.55
25652,0.3333,-0.0217,0.863,-6.6,7.85,-0.02,26.59
25662,0.3322,-0.0215,0.8644,-6.64,7.82,-0.02,26.58
25672,0.3376,-0.0216,0.8651,-6.55,7.8,0.02,26.58
25682,0.3354,-0.0227,0.865,-6.49,7.85,-0.02,26.57
25692,0.3335,-0.0229,0.8607,-6.55,7.86,-0.09,26.57
25703,0.3339,-0.0225,0.8607,-6.58,7.86,-0.02,26.57
25713,0.3319,-0.026,0.8658,-6.44,7.83,-0.06,26.56
25723,0.3336,-0.0237,0.8641,-6.47,7.8,-0.05,26.55
25733,0.3347,-0.0198,0.8651,-6.5,7.85,-0.05,26.56
25743,0.3323,-0.0221,0.8613,-6.52,7.88,-0.05,26.56
25753,0.3331,-0.0225,0.8644,-6.43,7.88,-0.03,26.58
25763,0.3352,-0.0205,0.865,-6.58,7.79,-0.02,26.59
25773,0.3358,-0.0222,0.8646,-6.46,7.77,-0.03,26.57
25783,0.3326,-0.0211,0.8632,-6.49,7.85,-0.05,26.57
25793,0.3322,-0.0239,0.865,-6.49,7.83,-0.08,26.58
25803,0.334,-0.025,0.8619,-6.49,7.89,-0.09,26.55
25813,0.3365,-0.0229,0.8679,-6.46,7.86,-0.02,26.56
25823,0.3341,-0.0231,0.8649,-6.55,7.8,-0.03,26.58
25833,0.3339,-0.0223,0.8639,-6.5,7.85,-0.11,26.56
25843,0.3325,-0.0225,0.8652,-6.49,7.83,-0.05,26.57
25853,0.3335,-0.0233,0.8655,-6.49,7.8,-0.06,26.57
25863,0.3319,-0.0247,0.8632,-6.43,7.85,-0.11,26.55
25873,0.3344,-0.0233,0.8617,-6.5,7.88,-0.02,26.57
25883,0.3344,-0.0229,0.8683,-6.5,7.89,-0.05,26.57
25893,0.3328,-0.0237,0.864,-6.53,7.86,-0.11,26.56
25903,0.3342,-0.021,0.8638,-6.5,7.91,-0.05,26.57
25913,0.3361,-0.0226,0.8646,-6.46,7.92,0.05,26.59
25923,0.3359,-0.0228,0.8635,-6.47,7.86,-0.06,26.57
25933,0.3358,-0.0231,0.8569,-6.5,7.83,-0.12,26.56
25943,0.3342,-0.0222,0.8638,-6.56,7.86,-0.09,26.55
25953,0.3352,-0.0228,0.8624,-6.46,7.89,-0.03,26.53
25963,0.3361,-0.0244,0.8635,-6.52,7.82,-0.09,26.57
25973,0.333,-0.0216,0.8634,-6.58,7.79,-0.06,26.56
25983,0.3322,-0.0217,0.8634,-6.44,7.94,0.0,26.57
25993,0.3363,-0.0232,0.8595,-6.47,7.85,-0.02,26.58
26003,0.3368,-0.024,0.8628,-6.5,7.85,0.0,26.58
26013,0.3362,-0.025,0.8655,-6.46,7.88,-0.03,26.59
26023,0.3345,-0.0233,0.8667,-6.47,7.85,-0.05,26.59
26033,0.3341,-0.0214,0.8628,-6.41,7.82,-0.05,26.58
26043,0.3331,-0.0239,0.8641,-6.41,7.79,-0.03,26.56
26053,0.3336,-0.0236,0.8612,-6.5,7.86,-0.02,26.57
26063,0.3298,-0.0227,0.8618,-6.53,7.91,-0.05,26.55
26073,0.3314,-0.0234,0.8647,-6.46,7.91,-0.11,26.57
26083,0.3335,-0.0249,0.8596,-6.46,7.82,-0.03,26.56
26093,0.3342,-0.0227,0.8604,-6.49,7.83,-0.05,26.57
26103,0.3328,-0.0223,0.8635,-6.53,7.88,-0.05,26.57
26113,0.335,-0.0245,0.8647,-6.49,7.92,-0.05,26.57
26123,0.3312,-0.0212,0.8624,-6.5,7.86,-0.06,26.6
26133,0.3331,-0.0261,0.8591,-6.37,7.91,-0.05,26.59
26143,0.3318,-0.0229,0.8623,-6.58,7.8,-0.06,26.59
26153,0.3322,-0.0219,0.8636,-6.53,7.83,0.0,26.58
26163,0.3324,-0.0237,0.8588,-6.5,7.89,-0.08,26.55
26173,0.334,-0.0225,0.8619,-6.5,7.86,-0.03,26.58
26183,0.334,-0.0248,0.8629,-6.53,7.85,-0.06,26.57
26193,0.3345,-0.0239,0.8641,-6.41,7.79,-0.03,26.59
26203,0.3333,-0.0255,0.8639,-6.41,7.88,-0.05,26.57
26213,0.3348,-0.0223,0.8671,-6.47,7.83,-0.09,26.57
26223,0.3361,-0.0253,0.8645,-6.52,7.79,-0.05,26.58
26233,0.3317,-0.022,0.8646,-6.46,7.85,-0.02,26.56
26243,0.3351,-0.0233,0.8623,-6.46,7.86,-0.03,26.57
26253,0.3311,-0.0222,0.8645,-6.49,7.82,-0.12,26.61
26263,0.3324,-0.0244,0.8656,-6.52,7.85,-0.08,26.58
26273,0.3351,-0.0209,0.8643,-6.49,7.88,-0.08,26.59
26283,0.3346,-0.022,0.8634,-6.52,7.82,-0.06,26.57
26293,0.3331,-0.0238,0.8658,-6.47,7.88,-0.02,26.59
26303,0.3351,-0.0228,0.8649,-6.5,7.79,-0.08,26.59
26313,0.3348,-0.0253,0.8679,-6.49,7.89,-0.09,26.59
26323,0.3335,-0.0211,0.8639,-6.41,7.82,-0.05,26.59
26333,0.335,-0.0236,0.8652,-6.49,7.88,-0.02,26.56
26343,0.3344,-0.024,0.8615,-6.58,7.88,-0.12,26.59
26353,0.3329,-0.021,0.8658,-6.49,7.91,-0.02,26.57
26363,0.3315,-0.0237,0.8699,-6.49,7.89,-0.12,26.57
26373,0.3317,-0.0249,0.8644,-6.43,7.8,-0.03,26.57
26383,0.3324,-0.0231,0.8625,-6.47,7.86,-0.02,26.57
26393,0.3306,-0.0249,0.8661,-6.38,7.86,-0.11,26.57
26403,0.3358,-0.0229,0.8657,-6.5,7.86,0.02,26.56
26414,0.3341,-0.0237,0.864,-6.53,7.86,-0.05,26.59
26424,0.3337,-0.0238,0.8654,-6.5,7.97,-0.08,26.57
26434,0.3318,-0.0248,0.8622,-6.5,7.89,0.02,26.58
26444,0.3347,-0.0221,0.866,-6.37,7.86,0.0,26.58
26454,0.3319,-0.0244,0.8617,-6.52,7.89,-0.03,26.58
26464,0.3334,-0.022,0.8618,-6.5,7.91,0.03,26.57
26474,0.3315,-0.024,0.8625,-6.58,7.86,-0.02,26.58
26485,0.334,-0.025,0.8638,-6.46,7.92,-0.03,26.59
26495,0.3336,-0.0228,0.864,-6.52,7.86,-0.02,26.58
26505,0.332,-0.0238,0.8656,-6.38,7.83,-0.08,26.58
26515,0.3344,-0.024,0.8628,-6.5,7.82,-0.14,26.57
26525,0.3348,-0.0253,0.8657,-6.44,7.82,-0.05,26.59
26535,0.3351,-0.0222,0.8666,-6.53,7.89,0.0,26.58
26545,0.3335,-0.0229,0.8672,-6.5,7.82,-0.05,26.59
26555,0.3337,-0.0237,0.8632,-6.46,7.86,-0.08,26.56
26565,0.3337,-0.0219,0.8613,-6.5,7.91,0.02,26.58
26575,0.3333,-0.025,0.8645,-6.49,7.83,0.02,26.59
26585,0.3311,-0.0238,0.8643,-6.44,7.83,-0.02,26.57
26595,0.3318,-0.0251,0.8613,-6.46,7.83,0.0,26.56
26605,0.3323,-0.0225,0.8651,-6.47,7.83,-0.03,26.57
26615,0.333,-0.02,0.8636,-6.47,7.88,-0.02,26.62
26625,0.3334,-0.0221,0.8632,-6.46,7.79,-0.05,26.58
26635,0.3341,-0.0225,0.8625,-6.52,7.83,0.05,26.58
26645,0.3318,-0.0247,0.8634,-6.49,7.83,-0.08,26.59
26655,0.3335,-0.0265,0.8632,-6.52,7.91,-0.12,26.58
26665,0.3341,-0.0211,0.864,-6.44,7.85,-0.08,26.59
26675,0.3367,-0.0236,0.8638,-6.5,7.85,-0.06,26.57
26685,0.3317,-0.0248,0.8671,-6.49,7.86,-0.05,26.59
26695,0.3333,-0.0226,0.8641,-6.49,7.86,-0.12,26.55
26705,0.3323,-0.024,0.8663,-6.5,7.79,-0.09,26.58
26715,0.3297,-0.0226,0.8619,-6.49,7.85,-0.03,26.58
26725,0.3325,-0.0242,0.861,-6.47,7.86,-0.09,26.59
26735,0.3344,-0.0221,0.8661,-6.47,7.92,-0.14,26.58
26745,0.3336,-0.024,0.8646,-6.43,7.92,-0.05,26.58
26755,0.3348,-0.0237,0.8628,-6.41,7.82,-0.03,26.58
26765,0.3315,-0.0229,0.861,-6.52,7.83,-0.03,26.59
26775,0.3318,-0.0225,0.864,-6.43,7.8,-0.17,26.57
26785,0.3354,-0.0233,0.8635,-6.47,7.85,-0.12,26.57
26795,0.334,-0.0216,0.8655,-6.49,7.91,0.0,26.57
26805,0.3325,-0.0259,0.8662,-6.52,7.86,-0.08,26.59
26815,0.3324,-0.0227,0.8658,-6.56,7.85,-0.05,26.58
26825,0.3314,-0.0236,0.8627,-6.5,7.79,-0.08,26.57
26835,0.3359,-0.0232,0.864,-6.41,7.85,-0.06,26.58
26845,0.3339,-0.0228,0.8645,-6.44,7.88,-0.02,26.57
26855,0.3342,-0.0244,0.8624,-6.49,7.8,-0.03,26.59
26865,0.3324,-0.0231,0.863,-6.49,7.94,0.05,26.57
26875,0.3324,-0.021,0.8629,-6.46,7.82,0.0,26.58
26885,0.3356,-0.0205,0.8621,-6.49,7.8,-0.05,26.58
26895,0.3363,-0.0236,0.8656,-6.44,7.89,-0.08,26.59
26905,0.3346,-0.0234,0.8624,-6.43,7.89,-0.03,26.59
26915,0.334,-0.0209,0.863,-6.47,7.82,-0.02,26.59
26925,0.3351,-0.0251,0.861,-6.41,7.83,-0.02,26.6
26935,0.3335,-0.0262,0.8671,-6.56,7.85,-0.02,26.57
26945,0.3365,-0.0259,0.865,-6.49,7.83,-0.09,26.61
26955,0.3385,-0.0204,0.863,-6.5,7.83,-0.03,26.57
26965,0.3333,-0.0233,0.8632,-6.47,7.89,-0.05,26.56
26975,0.3354,-0.0245,0.8669,-6.52,7.91,-0.09,26.57
26985,0.333,-0.0233,0.8657,-6.46,7.91,-0.03,26.56
26995,0.3276,-0.0203,0.8663,-6.44,7.88,0.0,26.61
27005,0.3346,-0.0225,0.869,-6.5,7.95,-0.03,26.57
27015,0.3296,-0.0239,0.866,-6.43,7.85,-0.12,26.59
27025,0.3381,-0.0209,0.8583,-6.46,7.74,0.0,26.59
27035,0.3312,-0.0262,0.8641,-6.41,7.91,0.05,26.62
27045,0.3325,-0.0229,0.863,-6.5,7.83,-0.03,26.58
27055,0.3348,-0.0197,0.8613,-6.44,7.8,-0.12,26.59
27065,0.3344,-0.0238,0.8639,-6.47,7.88,-0.08,26.59
27075,0.3314,-0.0225,0.8627,-6.5,7.85,-0.12,26.58
27085,0.334,-0.0225,0.866,-6.46,7.77,-0.03,26.57
27095,0.333,-0.0226,0.8654,-6.43,7.92,0.0,26.57
27105,0.3353,-0.0232,0.8666,-6.44,7.85,0.02,26.56
27115,0.3337,-0.0226,0.8646,-6.49,7.86,0.0,26.55
27125,0.3347,-0.0253,0.863,-6.43,7.92,-0.03,26.56
27135,0.3348,-0.0221,0.8632,-6.46,7.8,-0.06,26.56
27145,0.3334,-0.022,0.8655,-6.49,7.89,-0.03,26.6
27155,0.3374,-0.0251,0.864,-6.58,7.82,0.03,26.59
27165,0.3344,-0.0239,0.8636,-6.43,7.76,0.03,26.58
27175,0.3333,-0.0254,0.8667,-6.46,7.91,-0.03,26.56
27185,0.3352,-0.0253,0.8633,-6.46,7.89,0.0,26.59
27195,0.3344,-0.0231,0.8647,-6.43,7.83,-0.02,26.6
27205,0.3346,-0.0237,0.8625,-6.46,7.8,-0.03,26.59
27215,0.3368,-0.0262,0.8611,-6.52,7.85,0.0,26.57
27225,0.333,-0.0223,0.8662,-6.5,7.89,-0.03,26.57
27235,0.3351,-0.0237,0.8638,-6.46,7.85,-0.02,26.58
27245,0.3317,-0.0237,0.8643,-6.55,7.89,-0.08,26.58
27255,0.3346,-0.0244,0.8656,-6.52,7.86,-0.02,26.57
27265,0.3352,-0.0239,0.8668,-6.47,7.88,-0.06,26.6
27275,0.3342,-0.0233,0.8633,-6.46,7.89,-0.06,26.59
27285,0.3325,-0.0215,0.8647,-6.46,7.88,-0.02,26.6
27295,0.3356,-0.0238,0.8629,-6.53,7.83,-0.08,26.61
27305,0.3367,-0.0223,0.8657,-6.5,7.91,-0.02,26.6
27315,0.3356,-0.0217,0.8615,-6.5,7.95,-0.06,26.59
27325,0.334,-0.0242,0.8658,-6.43,7.85,-0.11,26.58
27335,0.333,-0.0212,0.8665,-6.52,7.86,-0.08,26.59
27345,0.3335,-0.0222,0.8606,-6.47,7.83,0.0,26.58
27355,0.3358,-0.02,0.8639,-6.43,7.8,-0.08,26.59
27365,0.3304,-0.0239,0.8655,-6.44,7.85,-0.03,26.59
27375,0.3301,-0.0222,0.8621,-6.49,7.83,-0.08,26.59
27385,0.3367,-0.0228,0.8628,-6.47,7.91,0.05,26.61
27395,0.333,-0.0242,0.8679,-6.47,7.8,-0.08,26.57
27405,0.3333,-0.0232,0.8666,-6.44,7.88,-0.06,26.59
