t_ms,accel_x_g,accel_y_g,accel_z_g,gyro_x_dps,gyro_y_dps,gyro_z_dps,imu_temp_c
3284,0.2124,-0.0167,0.8936,-6.75,8.03,0.08,30.99
3295,0.2129,-0.0176,0.8911,-6.72,8.03,-0.03,30.99
3305,0.2113,-0.0166,0.8921,-6.92,8.02,0.0,31.02
3315,0.214,-0.0194,0.8872,-6.7,7.95,0.02,30.99
3325,0.2137,-0.0193,0.8911,-6.73,8.06,-0.05,31.02
3335,0.2108,-0.0166,0.8864,-6.7,7.95,-0.03,31.0
3345,0.2146,-0.0204,0.8905,-6.84,7.97,0.02,31.01
3355,0.213,-0.0186,0.8889,-6.85,7.97,-0.05,30.99
3365,0.2129,-0.0175,0.8889,-6.81,7.97,-0.02,31.01
3375,0.2115,-0.0157,0.8895,-6.85,7.91,0.03,30.99
3385,0.2139,-0.0171,0.8884,-6.89,7.94,-0.05,31.02
3395,0.2117,-0.0162,0.8885,-6.84,7.98,-0.06,31.02
3405,0.2145,-0.0155,0.8866,-6.76,7.97,0.05,31.0
3415,0.2129,-0.0199,0.8861,-6.78,7.88,0.0,31.02
3425,0.214,-0.019,0.8896,-6.79,7.92,0.05,31.03
3435,0.2151,-0.0225,0.8907,-6.73,8.02,-0.09,31.03
3445,0.2158,-0.019,0.8905,-6.82,8.05,-0.05,31.02
3456,0.2139,-0.0183,0.8916,-6.81,7.98,-0.08,31.03
3466,0.2131,-0.021,0.8864,-6.82,8.0,0.05,31.0
3476,0.2118,-0.0162,0.8898,-6.84,8.0,0.02,31.03
3486,0.2115,-0.0165,0.8885,-6.84,8.03,-0.02,31.03
3496,0.2119,-0.0162,0.8911,-6.76,7.95,-0.05,31.02
3506,0.2115,-0.0168,0.8932,-6.82,7.98,-0.03,31.02
3516,0.2072,-0.0188,0.8879,-6.85,8.06,0.0,31.03
3526,0.2094,-0.0192,0.8892,-6.89,8.03,0.02,31.04
3536,0.2113,-0.0175,0.8889,-6.81,7.92,-0.03,31.02
3546,0.2139,-0.0209,0.8915,-6.78,8.03,0.0,31.04
3556,0.2141,-0.0195,0.8909,-6.76,8.0,0.0,31.03
3566,0.2135,-0.0177,0.891,-6.81,7.94,-0.15,31.05
3576,0.2144,-0.0194,0.8877,-6.75,8.02,-0.02,31.05
3586,0.2124,-0.0178,0.8918,-6.87,8.0,-0.06,31.0
3596,0.2133,-0.0192,0.8889,-6.73,7.94,-0.05,31.02
3606,0.2148,-0.0204,0.8851,-6.78,8.0,-0.03,31.02
3616,0.2131,-0.0167,0.887,-6.82,7.97,0.03,31.04
3626,0.2148,-0.0165,0.8895,-6.73,7.92,0.02,31.04
3636,0.2111,-0.0175,0.8927,-6.84,8.02,0.02,31.05
3646,0.21,-0.0179,0.8914,-6.76,8.02,-0.02,31.05
3656,0.2131,-0.0157,0.8945,-6.79,8.02,-0.06,31.04
3666,0.2119,-0.0175,0.8923,-6.87,8.05,-0.11,31.04
3676,0.2131,-0.0177,0.8873,-6.81,7.89,-0.09,31.04
3686,0.2102,-0.0167,0.8906,-6.89,8.02,-0.09,31.04
3696,0.2128,-0.0195,0.8894,-6.87,7.97,-0.09,31.03
3706,0.2114,-0.019,0.8882,-6.75,7.94,-0.06,31.03
3716,0.217,-0.0182,0.8893,-6.79,7.97,-0.03,31.03
3726,0.2156,-0.02,0.8923,-6.79,8.0,-0.06,31.02
3736,0.215,-0.0184,0.8895,-6.92,7.89,-0.05,31.03
3746,0.215,-0.0175,0.8887,-6.87,7.89,0.0,31.03
3756,0.2111,-0.0229,0.8882,-6.76,7.98,-0.08,31.03
3766,0.2122,-0.0201,0.8922,-6.89,7.97,-0.03,31.04
3776,0.2129,-0.0194,0.8907,-6.73,8.02,-0.03,31.04
3786,0.213,-0.0194,0.8872,-6.84,7.94,-0.08,31.05
3796,0.2109,-0.017,0.887,-6.9,7.95,-0.03,31.05
3806,0.2126,-0.0184,0.8881,-6.79,7.95,-0.09,31.05
3816,0.2135,-0.0195,0.8899,-6.78,7.83,-0.03,31.03
3826,0.2109,-0.0165,0.8851,-6.84,7.98,0.0,31.04
3836,0.2098,-0.0176,0.8887,-6.75,7.98,-0.03,31.04
3846,0.2128,-0.0177,0.8855,-6.82,7.94,0.02,31.05
3856,0.2142,-0.0193,0.8925,-6.84,7.98,0.0,31.04
3866,0.2131,-0.0194,0.8871,-6.84,7.98,-0.09,31.05
3876,0.2118,-0.0187,0.8909,-6.87,7.95,-0.03,31.04
3886,0.2128,-0.0189,0.8857,-6.72,7.98,-0.05,31.04
3896,0.2137,-0.0195,0.8866,-6.82,7.97,-0.08,31.02
3906,0.2137,-0.0214,0.8893,-6.87,7.97,-0.09,31.05
3916,0.2135,-0.0184,0.8843,-6.81,8.02,-0.03,31.05
3926,0.2161,-0.0195,0.8887,-6.89,8.02,-0.09,31.04
3936,0.2103,-0.0177,0.8885,-6.78,7.94,-0.11,31.02
3946,0.2128,-0.0197,0.8884,-6.79,8.02,0.03,31.05
3956,0.2094,-0.0189,0.8895,-6.82,7.97,-0.08,31.05
3966,0.2123,-0.0181,0.8901,-6.81,7.94,-0.06,31.07
3976,0.2092,-0.0166,0.8916,-6.85,7.97,0.0,31.08
3986,0.2124,-0.0177,0.8906,-6.82,8.03,0.0,31.06
3996,0.2142,-0.016,0.8936,-6.82,7.98,-0.05,31.04
4006,0.2111,-0.0177,0.8883,-6.81,8.02,-0.05,31.07
4016,0.2135,-0.0176,0.8903,-6.87,7.98,-0.05,31.06
4026,0.2128,-0.0183,0.8894,-6.84,7.89,-0.06,31.07
4036,0.2126,-0.0188,0.8884,-6.84,8.0,0.05,31.07
4046,0.2139,-0.0232,0.8889,-6.85,7.88,-0.06,31.08
4056,0.2144,-0.0204,0.8865,-6.81,7.95,-0.03,31.07
4066,0.2158,-0.0231,0.887,-6.89,7.94,0.0,31.08
4076,0.2114,-0.019,0.8892,-6.84,8.02,-0.08,31.05
4086,0.2139,-0.0193,0.8882,-6.73,7.98,-0.03,31.06
4096,0.2151,-0.0198,0.889,-6.73,7.95,0.0,31.04
4106,0.2117,-0.0167,0.8917,-6.85,7.94,-0.06,31.06
4116,0.213,-0.016,0.8865,-6.76,8.0,-0.08,31.08
4126,0.2152,-0.0179,0.8909,-6.81,7.94,-0.02,31.07
4136,0.215,-0.0186,0.89,-6.9,7.92,0.0,31.05
4146,0.2141,-0.0187,0.8903,-6.82,7.92,-0.09,31.06
4156,0.2144,-0.0188,0.8877,-6.84,7.94,-0.14,31.07
4166,0.2144,-0.0181,0.8864,-6.82,7.95,0.02,31.06
4176,0.2119,-0.0182,0.8878,-6.84,7.95,0.03,31.1
4186,0.2104,-0.0193,0.8904,-6.84,8.0,-0.08,31.05
4196,0.2104,-0.0205,0.8892,-6.89,8.02,-0.08,31.07
4206,0.2118,-0.0171,0.8867,-6.87,7.97,-0.03,31.06
4216,0.2134,-0.0205,0.8888,-6.75,8.0,-0.08,31.08
4226,0.2119,-0.0199,0.8892,-6.79,8.05,-0.15,31.07
4236,0.21,-0.0176,0.8938,-6.82,7.97,-0.05,31.07
4246,0.2114,-0.0164,0.8898,-6.89,8.0,-0.05,31.09
4256,0.2156,-0.0149,0.889,-6.78,7.97,0.02,31.09
4266,0.2119,-0.019,0.8889,-6.82,7.98,-0.03,31.07
4276,0.2145,-0.019,0.8884,-6.81,7.98,-0.06,31.07
4286,0.2129,-0.0184,0.8885,-6.75,8.0,0.06,31.07
4296,0.2141,-0.0205,0.8882,-6.78,7.95,-0.05,31.09
4306,0.2126,-0.0187,0.891,-6.79,7.97,0.05,31.09
4316,0.2115,-0.0211,0.8892,-6.76,7.94,-0.02,31.09
4326,0.2122,-0.0175,0.8892,-6.76,8.0,0.03,31.08
4336,0.2114,-0.0187,0.8883,-6.79,7.88,-0.02,31.08
4346,0.2118,-0.0184,0.8879,-6.79,8.0,-0.08,31.08
4356,0.2029,-0.0186,0.8992,-6.92,8.14,-0.56,31.08
4366,0.2135,-0.017,0.8896,-6.87,8.06,-0.06,31.11
4376,0.2137,-0.0204,0.8862,-6.84,7.86,-0.09,31.09
4386,0.2124,-0.0203,0.8917,-6.78,7.98,-0.06,31.09
4396,0.2134,-0.0181,0.8892,-6.84,7.97,-0.03,31.08
4406,0.2137,-0.0177,0.8861,-6.7,8.02,-0.02,31.09
4416,0.2131,-0.0181,0.8887,-6.76,7.95,-0.09,31.08
4426,0.2158,-0.0175,0.8881,-6.76,7.97,-0.11,31.07
4436,0.2119,-0.0193,0.8923,-6.85,7.98,0.0,31.09
4446,0.2129,-0.0179,0.8876,-6.95,8.02,-0.05,31.11
4456,0.2125,-0.0179,0.8854,-6.87,8.0,0.06,31.08
4466,0.2122,-0.0155,0.89,-6.82,8.02,-0.05,31.09
4476,0.2114,-0.0156,0.89,-6.75,7.94,-0.03,31.09
4486,0.2131,-0.0151,0.8898,-6.82,7.98,-0.05,31.11
4496,0.2133,-0.0176,0.8918,-6.75,7.98,-0.02,31.09
4506,0.2119,-0.0183,0.8877,-6.81,8.03,-0.12,31.07
4516,0.2141,-0.0171,0.8903,-6.78,8.06,-0.06,31.09
4526,0.2122,-0.0194,0.8917,-6.79,8.06,-0.02,31.1
4536,0.2141,-0.0197,0.8931,-6.75,8.03,-0.08,31.11
4546,0.215,-0.0195,0.8871,-6.81,8.06,0.0,31.1
4556,0.2139,-0.0211,0.8903,-6.87,7.94,-0.08,31.1
4566,0.2114,-0.0227,0.8921,-6.84,8.08,-0.06,31.08
4576,0.2097,-0.0199,0.8871,-6.84,8.0,-0.05,31.11
4586,0.2107,-0.0217,0.8855,-6.84,8.0,-0.06,31.11
4596,0.2139,-0.019,0.8899,-6.82,7.88,-0.09,31.14
4606,0.2119,-0.0177,0.8923,-6.81,7.98,-0.06,31.12
4616,0.2136,-0.0184,0.887,-6.76,7.94,-0.05,31.1
4626,0.2131,-0.0192,0.8922,-6.78,7.95,-0.12,31.1
4636,0.215,-0.0189,0.8878,-6.73,7.94,-0.02,31.1
4646,0.2128,-0.0189,0.89,-6.75,7.98,-0.08,31.12
4656,0.2144,-0.0162,0.8877,-6.76,7.98,-0.06,31.1
4666,0.2131,-0.0206,0.8884,-6.79,7.98,-0.08,31.1
4676,0.212,-0.019,0.8892,-6.75,8.0,-0.11,31.07
4686,0.2118,-0.0182,0.8901,-6.78,8.05,-0.03,31.09
4696,0.2102,-0.0198,0.8917,-6.87,7.95,0.0,31.08
4706,0.2148,-0.0204,0.8887,-6.7,7.97,-0.05,31.11
4716,0.2098,-0.0194,0.8883,-6.82,7.94,-0.06,31.09
4726,0.2136,-0.0168,0.8896,-6.82,7.95,-0.11,31.1
4736,0.2104,-0.02,0.885,-6.81,7.97,-0.03,31.1
4746,0.213,-0.0197,0.8901,-6.85,7.98,-0.05,31.11
4756,0.2134,-0.0195,0.8905,-6.84,7.97,-0.18,31.1
4766,0.2177,-0.0181,0.8933,-6.84,8.0,-0.09,31.09
4776,0.2147,-0.0188,0.89,-6.84,8.0,-0.11,31.09
4786,0.2104,-0.0154,0.8898,-6.81,7.98,-0.03,31.11
4796,0.2151,-0.0138,0.8888,-6.72,7.98,-0.12,31.12
4806,0.2115,-0.0154,0.8915,-6.87,8.0,-0.05,31.13
4816,0.2123,-0.0179,0.8885,-6.73,7.91,0.02,31.12
4826,0.2098,-0.0188,0.8866,-6.78,8.06,-0.03,31.1
4836,0.212,-0.0189,0.8885,-6.79,7.88,-0.05,31.1
4846,0.2096,-0.0195,0.8915,-6.89,7.97,0.09,31.12
4856,0.2118,-0.019,0.8905,-6.87,8.02,-0.02,31.12
4866,0.2137,-0.0164,0.8892,-6.85,7.98,0.02,31.15
4876,0.2153,-0.022,0.8916,-6.69,7.92,-0.03,31.13
4886,0.2131,-0.0215,0.8884,-6.78,8.02,-0.02,31.1
4896,0.2144,-0.0193,0.8916,-6.82,7.95,-0.06,31.11
4906,0.214,-0.0201,0.8912,-6.85,7.95,-0.05,31.1
4916,0.2129,-0.019,0.8892,-6.79,8.02,-0.03,31.14
4926,0.2129,-0.0203,0.8892,-6.81,7.94,0.02,31.13
4936,0.2111,-0.0199,0.8887,-6.75,8.06,-0.11,31.11
4946,0.2144,-0.0178,0.8871,-6.75,7.91,0.02,31.11
4956,0.2139,-0.0145,0.8872,-6.78,7.89,-0.12,31.12
4966,0.2136,-0.0181,0.8895,-6.87,8.02,0.02,31.12
4976,0.2108,-0.0155,0.8894,-6.82,7.98,-0.06,31.12
4986,0.214,-0.0154,0.8867,-6.7,7.98,-0.06,31.12
4996,0.2139,-0.0193,0.8892,-6.87,8.02,-0.14,31.11
5006,0.215,-0.0178,0.8925,-6.84,7.95,-0.11,31.12
5016,0.2129,-0.0206,0.8921,-6.84,7.98,-0.02,31.11
5026,0.2112,-0.0193,0.8885,-6.79,7.97,-0.06,31.14
5036,0.213,-0.0204,0.8865,-6.73,7.92,-0.03,31.11
5046,0.2118,-0.0204,0.8821,-6.7,8.03,-0.03,31.11
5056,0.2128,-0.0188,0.8862,-6.82,8.0,-0.06,31.1
5066,0.2115,-0.0181,0.8889,-6.87,7.97,-0.05,31.1
5076,0.2123,-0.0188,0.8922,-6.82,7.98,-0.08,31.11
5086,0.2135,-0.0167,0.8948,-6.82,7.92,-0.02,31.12
5096,0.2125,-0.0184,0.8921,-6.85,7.98,-0.02,31.1
5106,0.2158,-0.017,0.8895,-6.85,7.92,-0.03,31.12
5116,0.2145,-0.0192,0.8872,-6.87,7.98,-0.02,31.1
5126,0.2166,-0.0164,0.8866,-6.81,8.02,-0.09,31.1
5136,0.2136,-0.0181,0.8927,-6.87,7.95,-0.05,31.12
5146,0.2124,-0.016,0.8901,-6.89,7.98,-0.02,31.11
5156,0.2141,-0.0188,0.8928,-6.79,7.95,-0.14,31.12
5166,0.2108,-0.0195,0.8907,-6.81,8.0,-0.06,31.1
5176,0.212,-0.0208,0.8887,-6.9,8.05,-0.12,31.14
5186,0.2117,-0.0193,0.884,-6.75,8.08,-0.03,31.12
5196,0.212,-0.0195,0.8885,-6.82,7.89,-0.02,31.12
5206,0.2118,-0.0177,0.8876,-6.81,7.92,-0.12,31.14
5216,0.2106,-0.0168,0.8888,-6.79,8.02,-0.09,31.14
5226,0.214,-0.0211,0.8892,-6.89,8.0,-0.09,31.12
5236,0.2123,-0.0162,0.8884,-6.73,8.02,-0.06,31.14
5246,0.2119,-0.021,0.8923,-6.79,7.97,0.02,31.12
5256,0.2134,-0.0204,0.8885,-6.85,7.94,-0.02,31.12
5266,0.2147,-0.0184,0.8866,-6.76,7.98,-0.06,31.15
5276,0.2111,-0.0177,0.8887,-6.66,7.97,0.08,31.11
5286,0.2128,-0.0173,0.889,-6.76,7.98,-0.03,31.09
5296,0.2134,-0.0184,0.8943,-6.78,7.98,0.0,31.14
5306,0.2118,-0.0184,0.8911,-6.85,7.88,-0.03,31.12
5316,0.2139,-0.0208,0.8927,-6.81,7.98,-0.02,31.14
5326,0.2122,-0.0214,0.8893,-6.82,7.95,-0.05,31.12
5336,0.2123,-0.0199,0.8894,-6.73,7.97,-0.05,31.13
5346,0.2136,-0.0198,0.8844,-6.76,8.0,-0.09,31.12
5356,0.2137,-0.02,0.8915,-6.85,7.98,-0.08,31.11
5366,0.2128,-0.0187,0.8898,-6.73,7.98,-0.06,31.11
5376,0.2148,-0.0214,0.891,-6.75,7.98,-0.05,31.12
5386,0.213,-0.0206,0.8912,-6.81,7.94,-0.02,31.12
5396,0.2175,-0.0199,0.8864,-6.89,8.0,0.02,31.1
5406,0.2145,-0.0231,0.8951,-6.78,8.02,-0.03,31.11
5416,0.2107,-0.0172,0.887,-6.87,8.02,-0.02,31.14
5426,0.2137,-0.0198,0.8904,-6.78,8.03,0.06,31.13
5436,0.2122,-0.0179,0.8909,-6.78,7.94,0.0,31.12
5446,0.2123,-0.0173,0.8927,-6.78,8.03,0.0,31.15
5456,0.2151,-0.0144,0.8873,-6.89,7.98,-0.05,31.13
5466,0.2122,-0.0155,0.891,-6.79,8.09,-0.09,31.12
5476,0.2107,-0.0165,0.8856,-6.84,7.98,-0.02,31.13
5486,0.2091,-0.0195,0.8894,-6.79,7.95,0.02,31.14
5496,0.2145,-0.0161,0.8868,-6.79,7.94,-0.03,31.14
5506,0.2122,-0.0198,0.8881,-6.87,8.02,-0.05,31.13
5516,0.2098,-0.0192,0.8876,-6.87,7.95,-0.12,31.13
5526,0.2119,-0.021,0.8867,-6.78,7.95,-0.05,31.13
5536,0.2111,-0.0194,0.8896,-6.78,8.0,0.02,31.14
5546,0.2144,-0.0197,0.8901,-6.89,7.94,-0.03,31.11
5556,0.2133,-0.0225,0.886,-6.84,7.83,-0.12,31.14
5566,0.2155,-0.0177,0.892,-6.79,8.0,0.02,31.13
5576,0.2139,-0.0193,0.8942,-6.76,7.97,-0.08,31.12
5586,0.2141,-0.0168,0.8907,-6.79,8.12,-0.06,31.13
5596,0.2175,-0.0193,0.8947,-6.75,7.92,-0.06,31.13
5606,0.2155,-0.0194,0.8932,-6.84,7.94,-0.05,31.13
5616,0.2102,-0.019,0.8877,-6.76,7.92,-0.08,31.15
5626,0.2095,-0.0153,0.8884,-6.73,8.02,0.0,31.14
5636,0.2129,-0.0199,0.8882,-6.82,8.03,-0.02,31.13
5646,0.2134,-0.0176,0.8885,-6.85,8.02,-0.08,31.12
5656,0.2114,-0.0186,0.8918,-6.76,7.91,-0.05,31.17
5666,0.2111,-0.0184,0.8848,-6.93,7.97,-0.12,31.14
5676,0.2137,-0.0188,0.8885,-6.76,7.89,0.09,31.12
5686,0.2136,-0.0187,0.8862,-6.79,7.95,-0.03,31.13
5696,0.2146,-0.017,0.8887,-6.81,7.98,-0.03,31.14
5706,0.212,-0.0222,0.8872,-6.69,7.98,-0.03,31.16
5716,0.2114,-0.0208,0.8905,-6.87,8.05,0.06,31.14
5726,0.2137,-0.0176,0.8864,-6.82,7.98,-0.06,31.15
5736,0.2098,-0.019,0.8884,-6.85,7.95,-0.11,31.15
5746,0.2139,-0.0195,0.8907,-6.9,7.97,0.0,31.13
5756,0.2111,-0.0165,0.8879,-6.81,7.92,-0.05,31.14
5766,0.2128,-0.0178,0.8859,-6.78,7.92,-0.03,31.16
5776,0.2096,-0.0177,0.8909,-6.84,7.91,-0.05,31.17
5786,0.2122,-0.0188,0.8871,-6.85,7.95,-0.05,31.16
5796,0.2109,-0.0195,0.8873,-6.85,7.95,-0.03,31.13
5806,0.2135,-0.0179,0.8885,-6.87,7.98,0.05,31.16
5816,0.2117,-0.0211,0.887,-6.85,8.02,-0.08,31.15
5826,0.2114,-0.0187,0.8873,-6.76,8.02,0.0,31.14
5836,0.2133,-0.0188,0.8896,-6.81,8.0,0.0,31.15
5846,0.2126,-0.0189,0.8883,-6.85,7.97,-0.08,31.16
5856,0.2126,-0.0189,0.8953,-6.84,7.94,-0.02,31.14
5866,0.2146,-0.0184,0.89,-6.89,7.98,0.08,31.14
5876,0.2101,-0.0188,0.8937,-6.81,7.98,-0.02,31.17
5886,0.2113,-0.0183,0.8894,-6.78,7.94,-0.09,31.14
5896,0.2142,-0.0187,0.891,-6.82,8.0,-0.02,31.13
5906,0.2142,-0.02,0.8873,-6.84,8.0,-0.03,31.14
5916,0.2125,-0.019,0.8868,-6.85,7.94,-0.08,31.14
5926,0.2126,-0.0176,0.8884,-6.78,7.98,-0.11,31.15
5936,0.2135,-0.0165,0.8864,-6.75,8.0,0.05,31.14
5946,0.2108,-0.0192,0.8915,-6.76,8.02,-0.06,31.13
5956,0.213,-0.0177,0.8883,-6.72,8.03,-0.03,31.13
5966,0.21,-0.0162,0.8866,-6.81,7.95,-0.08,31.14
5976,0.2083,-0.0173,0.89,-6.63,8.05,-0.06,31.14
5986,0.2135,-0.0182,0.8934,-6.82,7.98,0.03,31.13
5996,0.2123,-0.0194,0.892,-6.75,8.06,-0.05,31.16
6006,0.2117,-0.0217,0.8927,-6.81,8.0,-0.02,31.15
6016,0.2122,-0.0195,0.8885,-6.84,7.97,0.0,31.15
6026,0.2141,-0.0205,0.8859,-6.81,8.05,0.03,31.17
6036,0.2153,-0.0233,0.8893,-6.76,7.94,-0.12,31.14
6046,0.2096,-0.0205,0.8885,-6.76,7.98,-0.11,31.14
6056,0.2112,-0.0233,0.8854,-6.78,8.02,-0.06,31.13
6066,0.2097,-0.0203,0.8861,-6.75,7.94,-0.06,31.16
6076,0.2124,-0.0216,0.8901,-6.76,8.02,0.02,31.15
6086,0.2125,-0.0172,0.8914,-6.93,8.02,0.03,31.14
6096,0.2158,-0.0179,0.8904,-6.81,7.98,-0.03,31.14
6106,0.2128,-0.017,0.8888,-6.75,7.97,-0.09,31.15
6116,0.2128,-0.0187,0.8857,-6.78,7.92,-0.03,31.14
6126,0.2135,-0.0203,0.8914,-6.81,8.0,-0.06,31.17
6136,0.2148,-0.0181,0.8894,-6.75,8.02,-0.09,31.16
6146,0.2128,-0.0195,0.8903,-6.75,7.97,-0.02,31.16
6156,0.2137,-0.0201,0.8894,-6.84,7.91,-0.05,31.16
6166,0.2128,-0.0188,0.889,-6.82,8.02,-0.08,31.15
6176,0.2112,-0.0201,0.8893,-6.79,8.03,-0.06,31.17
6186,0.2141,-0.021,0.8877,-6.76,7.91,-0.03,31.15
6196,0.2131,-0.019,0.8837,-6.81,8.02,0.05,31.17
6206,0.2133,-0.0198,0.8901,-6.85,7.97,-0.06,31.17
6216,0.2135,-0.0175,0.8933,-6.7,8.05,-0.09,31.16
6226,0.2151,-0.0181,0.8898,-6.82,7.91,-0.05,31.18
6236,0.2161,-0.0192,0.8894,-6.84,8.03,-0.02,31.14
6246,0.2129,-0.019,0.8939,-6.82,7.88,-0.05,31.19
6256,0.2139,-0.0199,0.8868,-6.79,8.03,0.05,31.16
6266,0.2131,-0.0164,0.8881,-6.84,8.11,-0.03,31.15
6276,0.2139,-0.0168,0.8898,-6.85,8.02,-0.02,31.17
6290,0.2128,-0.0194,0.8882,-6.79,7.97,-0.05,31.17
6300,0.2115,-0.0179,0.8904,-6.81,7.94,-0.06,31.16
6310,0.2114,-0.0154,0.8885,-6.81,7.89,-0.06,31.17
6320,0.2114,-0.0184,0.89,-6.76,7.98,-0.06,31.17
6330,0.2119,-0.0215,0.8878,-6.81,8.03,-0.14,31.15
6341,0.2122,-0.0177,0.8893,-6.85,7.94,0.0,31.14
6351,0.2139,-0.0187,0.8896,-6.9,7.94,-0.03,31.15
6361,0.2137,-0.0178,0.8928,-6.85,8.0,-0.02,31.15
6372,0.2109,-0.02,0.8885,-6.84,7.95,0.03,31.2
6382,0.2134,-0.0214,0.8855,-6.78,8.0,0.02,31.17
6392,0.2139,-0.0181,0.8873,-6.79,8.02,-0.05,31.18
6402,0.2117,-0.0181,0.8912,-6.81,7.94,0.0,31.16
6412,0.2113,-0.017,0.8877,-6.82,8.0,-0.05,31.16
6422,0.2136,-0.0166,0.8916,-6.81,8.0,0.0,31.17
6432,0.2085,-0.0154,0.8903,-6.84,7.95,0.03,31.16
6445,0.2163,-0.0176,0.8899,-6.85,7.88,-0.27,31.19
6455,0.2166,-0.0177,0.8877,-6.78,8.05,-0.02,31.16
6465,0.2151,-0.0157,0.8884,-6.87,7.91,-0.09,31.16
6475,0.2126,-0.017,0.8899,-6.92,7.94,-0.02,31.17
6485,0.2114,-0.0198,0.8945,-6.85,7.98,0.05,31.14
6495,0.2139,-0.0197,0.8884,-6.89,7.86,-0.03,31.17
6507,0.2124,-0.0186,0.8894,-6.84,8.03,-0.03,31.16
6517,0.2119,-0.0201,0.8871,-6.78,8.02,-0.08,31.15
6527,0.2098,-0.0184,0.8833,-6.84,8.0,0.03,31.15
6537,0.2133,-0.022,0.8867,-6.75,8.0,-0.03,31.18
6548,0.2115,-0.0188,0.8885,-6.82,7.89,-0.12,31.19
6558,0.2135,-0.0205,0.8884,-6.79,7.88,-0.02,31.19
6568,0.2129,-0.0187,0.8911,-6.81,8.02,-0.03,31.18
6578,0.2122,-0.0178,0.8916,-6.76,8.0,0.0,31.17
6588,0.2152,-0.016,0.8905,-6.93,8.03,0.02,31.18
6598,0.2103,-0.0195,0.8916,-6.78,7.97,0.03,31.16
6608,0.2126,-0.0199,0.8881,-6.84,7.88,-0.08,31.18
6618,0.209,-0.0184,0.8885,-6.89,7.97,0.02,31.19
6628,0.2109,-0.0151,0.89,-6.85,7.95,0.0,31.18
6638,0.2107,-0.0192,0.8911,-6.85,7.98,-0.09,31.18
6648,0.2141,-0.0193,0.891,-6.79,8.08,-0.12,31.16
6658,0.2119,-0.0184,0.8905,-6.75,8.05,-0.05,31.15
6668,0.2111,-0.0184,0.8873,-6.78,7.95,-0.03,31.17
6678,0.2111,-0.0194,0.8853,-6.87,8.0,-0.09,31.17
6688,0.2128,-0.019,0.8881,-6.87,7.95,-0.08,31.16
6698,0.2137,-0.0197,0.8929,-6.79,8.0,0.02,31.19
6708,0.2135,-0.0201,0.8872,-6.76,7.92,-0.02,31.19
6718,0.2126,-0.0201,0.8934,-6.72,8.0,-0.08,31.17
6728,0.2139,-0.0183,0.8885,-6.87,7.94,-0.11,31.17
6738,0.213,-0.0188,0.8862,-6.84,8.05,-0.06,31.16
6748,0.2134,-0.0157,0.8907,-6.82,8.0,0.06,31.18
6758,0.2152,-0.0161,0.8945,-6.7,7.98,0.03,31.19
6768,0.2126,-0.0143,0.895,-6.84,8.0,-0.02,31.17
6778,0.2126,-0.021,0.89,-6.89,7.95,0.0,31.2
6788,0.2125,-0.0192,0.8878,-6.81,7.98,-0.03,31.16
6798,0.2152,-0.0172,0.8844,-6.84,7.95,-0.03,31.17
6808,0.2137,-0.0188,0.8881,-6.9,8.0,-0.09,31.17
6818,0.2125,-0.0183,0.8896,-6.79,7.92,-0.02,31.17
6828,0.2152,-0.0186,0.8871,-6.81,7.98,0.02,31.17
6838,0.2142,-0.0183,0.887,-6.76,7.95,-0.02,31.16
6848,0.2124,-0.0175,0.8896,-6.95,8.06,0.06,31.18
6858,0.2145,-0.0168,0.8918,-6.84,8.0,-0.06,31.19
6868,0.2135,-0.0204,0.8866,-6.81,7.98,-0.09,31.17
6878,0.2136,-0.019,0.8914,-6.9,7.98,-0.09,31.17
6888,0.2113,-0.0209,0.8884,-6.78,7.94,0.03,31.16
6898,0.2106,-0.0167,0.8879,-6.75,7.98,-0.06,31.17
6908,0.2128,-0.0171,0.8932,-6.89,7.97,0.02,31.16
6918,0.2124,-0.0166,0.8866,-6.78,7.95,0.0,31.18
6928,0.2152,-0.0151,0.8896,-6.82,8.05,-0.12,31.18
6938,0.2115,-0.0192,0.8888,-6.82,7.98,-0.11,31.13
6948,0.2123,-0.0189,0.8888,-6.87,8.0,-0.12,31.17
6958,0.2135,-0.0205,0.8887,-6.85,8.03,-0.03,31.18
6969,0.2115,-0.0214,0.8942,-6.9,8.06,-0.02,31.18
6979,0.2145,-0.0217,0.8933,-6.69,7.98,0.02,31.18
6989,0.2135,-0.0205,0.8883,-6.87,8.0,0.02,31.17
6999,0.214,-0.0184,0.8871,-6.89,8.02,0.0,31.19
7009,0.212,-0.0179,0.8867,-6.85,7.98,-0.02,31.17
7019,0.2125,-0.0186,0.8942,-6.79,7.95,0.02,31.19
7029,0.2118,-0.0198,0.8926,-6.92,7.98,-0.11,31.19
7039,0.2094,-0.0168,0.8879,-6.75,7.97,-0.11,31.19
7049,0.2094,-0.0159,0.8893,-6.85,7.98,-0.03,31.18
7059,0.2106,-0.0164,0.8961,-6.85,8.02,-0.09,31.17
7069,0.2111,-0.0172,0.8901,-6.84,7.92,-0.06,31.2
7079,0.2144,-0.0223,0.8905,-6.85,7.97,-0.02,31.19
7089,0.2129,-0.0199,0.889,-6.75,7.98,0.02,31.18
7099,0.2113,-0.0179,0.8918,-6.79,7.98,0.02,31.19
7109,0.2122,-0.0179,0.8855,-6.78,7.97,0.02,31.19
7119,0.2114,-0.0164,0.8859,-6.82,8.02,0.03,31.17
7129,0.2122,-0.0199,0.8866,-6.84,8.0,-0.11,31.19
7139,0.2119,-0.0188,0.8871,-6.75,7.98,-0.11,31.18
7149,0.2113,-0.0195,0.8885,-6.82,8.06,-0.03,31.19
7159,0.2134,-0.0189,0.8887,-6.81,8.05,-0.03,31.2
7169,0.2122,-0.0181,0.8879,-6.82,8.0,-0.03,31.19
7179,0.2131,-0.0172,0.8903,-6.79,7.95,-0.06,31.2
7189,0.2131,-0.0176,0.8916,-6.81,8.0,-0.09,31.21
7199,0.2111,-0.0188,0.8914,-6.79,7.95,0.03,31.18
7209,0.2153,-0.0193,0.8864,-6.81,8.0,-0.03,31.17
7219,0.2128,-0.0186,0.8877,-6.84,8.05,0.06,31.18
7229,0.2147,-0.0187,0.8887,-6.9,8.03,0.02,31.19
7239,0.2112,-0.0188,0.8912,-6.89,8.02,-0.05,31.19
7249,0.2118,-0.0205,0.889,-6.78,7.94,-0.05,31.21
7259,0.2125,-0.0175,0.89,-6.72,8.02,0.0,31.17
7269,0.2113,-0.0167,0.8922,-6.81,7.98,-0.02,31.19
7279,0.2114,-0.0165,0.8881,-6.93,8.02,-0.02,31.21
7290,0.2146,-0.0188,0.8909,-6.78,8.0,-0.05,31.22
7300,0.2129,-0.0209,0.8868,-6.75,8.02,0.0,31.19
7310,0.2146,-0.019,0.8898,-6.84,8.03,-0.09,31.19
7320,0.214,-0.0189,0.8907,-6.9,8.02,-0.06,31.2
7330,0.2125,-0.0184,0.8892,-6.9,7.98,-0.06,31.17
7340,0.2147,-0.0216,0.8922,-6.81,7.92,0.02,31.19
7350,0.2141,-0.021,0.8878,-6.82,8.0,-0.11,31.19
7360,0.2126,-0.0201,0.8894,-6.79,8.03,-0.03,31.21
7370,0.214,-0.0195,0.8923,-6.87,8.06,-0.08,31.19
7380,0.2144,-0.0179,0.8879,-6.81,8.08,0.0,31.18
7390,0.2108,-0.0197,0.8843,-6.79,7.98,-0.02,31.19
7400,0.2119,-0.0192,0.8898,-6.82,7.98,-0.03,31.19
7410,0.213,-0.0175,0.8866,-6.82,8.06,-0.03,31.21
7420,0.2125,-0.0199,0.8898,-6.85,7.95,-0.06,31.17
7430,0.2145,-0.0205,0.8894,-6.84,8.0,-0.03,31.18
7440,0.2134,-0.0195,0.889,-6.82,8.08,-0.03,31.2
7450,0.2107,-0.0175,0.8916,-6.7,7.95,-0.03,31.19
7460,0.2129,-0.0205,0.8871,-6.82,8.0,-0.02,31.18
7470,0.2124,-0.0206,0.8856,-6.78,7.88,-0.06,31.17
7480,0.2136,-0.0188,0.8925,-6.81,8.03,-0.03,31.2
7490,0.2146,-0.0201,0.8898,-6.85,7.98,0.03,31.17
7500,0.2107,-0.0183,0.8904,-6.89,7.97,-0.06,31.21
7510,0.2142,-0.0178,0.8912,-6.82,7.97,-0.12,31.19
7520,0.2131,-0.0167,0.8923,-6.73,7.94,-0.03,31.2
7530,0.2142,-0.0159,0.8918,-6.82,8.05,-0.03,31.22
7540,0.2142,-0.0151,0.8892,-6.85,7.94,-0.02,31.19
7550,0.2096,-0.0204,0.8887,-6.76,7.98,-0.05,31.17
7560,0.2108,-0.0167,0.8846,-6.82,8.03,-0.06,31.21
7570,0.2122,-0.017,0.8856,-6.75,8.02,-0.05,31.2
7580,0.2124,-0.0173,0.8876,-6.78,8.05,-0.03,31.18
7590,0.2126,-0.0192,0.8887,-6.72,8.02,0.0,31.19
7600,0.2134,-0.0223,0.8918,-6.81,7.98,-0.12,31.18
7610,0.2115,-0.0219,0.8843,-6.81,7.97,-0.05,31.19
7620,0.21,-0.0192,0.8865,-6.81,8.02,-0.06,31.22
7630,0.2148,-0.0201,0.8898,-6.84,8.02,-0.02,31.19
7640,0.2102,-0.0193,0.894,-6.79,8.05,-0.06,31.23
7650,0.2123,-0.0172,0.8939,-6.78,7.97,0.0,31.19
7660,0.2136,-0.0149,0.8915,-6.85,7.97,0.02,31.22
7670,0.2141,-0.0172,0.8884,-6.76,8.0,-0.02,31.2
7680,0.2135,-0.0182,0.8906,-6.81,8.02,0.0,31.21
7690,0.2117,-0.0159,0.8899,-6.82,8.06,-0.03,31.2
7700,0.2119,-0.0164,0.889,-6.87,8.0,-0.03,31.2
7710,0.2131,-0.0183,0.8909,-6.9,8.0,-0.09,31.2
7720,0.2122,-0.0188,0.8876,-6.81,8.02,-0.06,31.19
7730,0.213,-0.0176,0.887,-6.81,7.97,-0.12,31.2
7740,0.2134,-0.0166,0.8899,-6.78,8.02,-0.02,31.2
7750,0.2118,-0.0182,0.8873,-6.82,7.98,-0.06,31.22
7760,0.2137,-0.0172,0.8868,-6.84,8.05,0.05,31.22
7770,0.2118,-0.0194,0.8906,-6.92,7.97,0.0,31.18
7780,0.2131,-0.0203,0.8901,-6.85,7.98,-0.03,31.23
7790,0.2144,-0.0181,0.8845,-6.84,7.95,-0.05,31.21
7800,0.2125,-0.0176,0.8846,-6.82,8.0,-0.09,31.22
7810,0.2137,-0.0197,0.8892,-6.81,7.91,-0.12,31.24
7820,0.2142,-0.0165,0.8915,-6.81,8.05,-0.06,31.18
7830,0.2106,-0.0178,0.8899,-6.79,8.06,0.0,31.21
7840,0.2137,-0.0182,0.8857,-6.85,8.05,-0.03,31.2
7850,0.2103,-0.016,0.8855,-6.75,8.06,-0.02,31.19
7860,0.2118,-0.0203,0.8903,-6.89,7.98,-0.06,31.23
7870,0.2118,-0.0161,0.8889,-6.84,7.97,-0.03,31.22
7880,0.2126,-0.0178,0.8906,-6.82,8.05,-0.05,31.2
7890,0.213,-0.0176,0.8876,-6.78,8.02,0.05,31.2
7900,0.2145,-0.0184,0.8859,-6.84,7.95,0.05,31.2
7910,0.2159,-0.0184,0.8859,-6.81,8.02,-0.06,31.22
7920,0.2126,-0.0201,0.8916,-6.78,8.02,-0.03,31.24
7930,0.2145,-0.021,0.887,-6.87,8.0,-0.08,31.21
7940,0.2126,-0.0198,0.8895,-6.89,7.97,0.0,31.21
7950,0.2125,-0.0226,0.8882,-6.79,7.97,-0.02,31.22
7960,0.2134,-0.021,0.89,-6.78,7.94,-0.05,31.23
7970,0.2146,-0.0177,0.8884,-6.79,8.02,-0.12,31.2
7980,0.2147,-0.0197,0.8866,-6.75,7.97,0.03,31.21
7990,0.2104,-0.0178,0.8846,-6.87,7.95,-0.05,31.19
8000,0.2114,-0.0183,0.8878,-6.82,8.0,0.0,31.19
8010,0.2123,-0.0143,0.8912,-6.82,7.97,-0.06,31.22
8020,0.2137,-0.0171,0.89,-6.87,8.0,-0.12,31.22
8030,0.2131,-0.0203,0.8877,-6.79,7.97,-0.03,31.22
8040,0.2141,-0.021,0.889,-6.81,7.92,-0.06,31.21
8050,0.2139,-0.0193,0.8907,-6.78,8.0,0.05,31.23
8060,0.2136,-0.0183,0.8912,-6.81,7.91,-0.11,31.22
8070,0.2126,-0.0201,0.8893,-6.84,7.94,-0.05,31.19
8080,0.2126,-0.0219,0.8914,-6.81,7.95,0.0,31.22
8090,0.2125,-0.0166,0.8911,-6.84,7.97,-0.03,31.2
8100,0.2101,-0.0178,0.8922,-6.85,8.0,-0.08,31.24
8110,0.2148,-0.0173,0.8917,-6.79,7.95,-0.02,31.24
8120,0.2125,-0.02,0.8881,-6.85,8.03,-0.12,31.22
8130,0.2114,-0.0177,0.8903,-6.76,8.02,-0.09,31.22
8140,0.2151,-0.0206,0.8894,-6.79,8.0,-0.03,31.22
8150,0.2125,-0.0183,0.8904,-6.73,7.92,-0.06,31.23
8160,0.2104,-0.0187,0.8904,-6.78,8.0,-0.06,31.21
8170,0.2131,-0.0187,0.8934,-6.82,7.95,-0.05,31.22
8180,0.2137,-0.016,0.8907,-6.79,7.94,-0.06,31.21
8190,0.2134,-0.0171,0.8894,-6.82,8.05,-0.05,31.23
8200,0.2142,-0.0154,0.8896,-6.84,8.06,-0.03,31.21
8210,0.2122,-0.0208,0.8884,-6.78,8.02,-0.09,31.23
8220,0.2119,-0.0155,0.8909,-6.79,7.98,-0.03,31.23
8230,0.212,-0.0188,0.8867,-6.81,8.05,-0.06,31.23
8240,0.2158,-0.021,0.8905,-6.7,8.03,-0.05,31.21
8250,0.2123,-0.0198,0.8899,-6.75,7.97,-0.03,31.22
8260,0.2136,-0.0194,0.8855,-6.84,7.91,-0.08,31.23
8270,0.2157,-0.0203,0.8917,-6.85,7.88,-0.05,31.22
8280,0.2145,-0.0181,0.8887,-6.89,7.95,-0.08,31.22
8290,0.2141,-0.0165,0.892,-6.76,8.03,-0.03,31.22
8300,0.2151,-0.0167,0.8865,-6.85,8.02,-0.06,31.22
8310,0.2123,-0.0209,0.8894,-6.84,8.05,-0.11,31.24
8320,0.2135,-0.0179,0.8898,-6.72,8.05,-0.03,31.25
8330,0.2109,-0.0198,0.8856,-6.75,8.0,0.0,31.22
8340,0.2122,-0.0178,0.8864,-6.82,8.03,0.03,31.21
8350,0.2098,-0.0175,0.8842,-6.82,7.92,-0.09,31.24
8360,0.2133,-0.0183,0.8907,-6.79,7.94,0.0,31.21
8370,0.2148,-0.0209,0.8855,-6.67,8.0,0.0,31.24
8380,0.2196,-0.0178,0.8905,-6.85,7.91,0.03,31.23
8390,0.2186,-0.0172,0.8938,-6.7,7.95,-0.06,31.22
8400,0.2188,-0.0157,0.8922,-6.78,7.97,-0.03,31.22
8410,0.2145,-0.0142,0.8925,-6.79,8.05,0.02,31.21
8420,0.2112,-0.0178,0.8901,-6.73,8.09,-0.05,31.22
8430,0.2076,-0.0151,0.8896,-6.79,8.05,0.02,31.22
8440,0.2063,-0.0135,0.89,-6.93,7.94,-0.09,31.24
8450,0.2062,-0.0171,0.8885,-6.9,8.02,-0.08,31.25
8460,0.2074,-0.0183,0.8843,-6.85,8.0,0.02,31.23
8470,0.2131,-0.0182,0.8862,-6.78,7.95,-0.05,31.24
8480,0.2141,-0.0171,0.8895,-6.78,7.94,0.02,31.23
8490,0.2122,-0.0168,0.8892,-6.79,7.91,-0.09,31.22
8500,0.2146,-0.0167,0.8856,-6.72,8.03,-0.03,31.24
8510,0.2167,-0.0178,0.8856,-6.78,8.08,-0.03,31.22
8520,0.2148,-0.0209,0.8889,-6.72,7.95,-0.05,31.21
8530,0.217,-0.024,0.8903,-6.79,7.98,-0.02,31.24
8540,0.2151,-0.0239,0.8896,-6.85,8.0,-0.09,31.2
8550,0.2139,-0.0228,0.8909,-6.76,8.02,0.03,31.23
8560,0.213,-0.0242,0.892,-6.76,8.06,0.02,31.23
8570,0.2124,-0.02,0.8868,-6.84,8.06,-0.02,31.23
8580,0.2087,-0.017,0.8867,-6.89,7.98,0.0,31.24
8590,0.2089,-0.0172,0.8887,-6.87,8.0,-0.05,31.23
8600,0.2117,-0.0162,0.8866,-6.82,7.95,-0.02,31.2
8610,0.2125,-0.0146,0.8878,-6.75,7.95,0.0,31.24
8620,0.2111,-0.0159,0.8915,-6.99,7.98,-0.02,31.24
8630,0.2144,-0.0164,0.8837,-6.78,8.03,-0.06,31.24
8640,0.2163,-0.0164,0.8868,-6.92,7.95,0.0,31.23
8650,0.215,-0.0149,0.887,-6.89,7.98,-0.06,31.24
8660,0.2129,-0.0183,0.8845,-6.84,7.98,-0.02,31.24
8670,0.2122,-0.0206,0.8931,-6.87,7.98,0.02,31.24
8680,0.2133,-0.0182,0.886,-6.89,8.0,-0.02,31.22
8690,0.2141,-0.0228,0.8854,-6.92,7.97,0.02,31.2
8700,0.2117,-0.0242,0.8906,-6.84,8.0,0.02,31.23
8710,0.2128,-0.0229,0.8873,-6.79,8.03,-0.08,31.22
8720,0.2131,-0.0231,0.8893,-6.81,7.91,-0.02,31.24
8730,0.2142,-0.0197,0.8866,-6.76,7.95,-0.02,31.23
8740,0.2122,-0.021,0.8871,-6.89,7.92,0.0,31.23
8750,0.2131,-0.021,0.8896,-6.73,7.95,-0.05,31.23
8760,0.2145,-0.0179,0.8888,-6.9,8.06,-0.11,31.24
8770,0.2107,-0.0148,0.885,-6.82,7.92,-0.15,31.23
8780,0.2134,-0.012,0.8912,-6.89,8.03,-0.02,31.23
8790,0.2097,-0.0128,0.889,-6.78,8.03,-0.03,31.25
8800,0.2113,-0.0137,0.8879,-6.85,7.95,-0.08,31.22
8810,0.2134,-0.016,0.8893,-6.85,8.06,-0.02,31.22
8820,0.2114,-0.0171,0.8925,-6.87,8.0,-0.03,31.22
8830,0.2126,-0.0182,0.8917,-6.85,7.98,-0.03,31.26
8840,0.2133,-0.0181,0.8901,-6.89,8.03,-0.02,31.23
8850,0.2139,-0.0206,0.8914,-6.81,8.02,-0.02,31.21
8860,0.2131,-0.0233,0.8884,-6.82,8.02,-0.03,31.22
8870,0.2115,-0.0206,0.8844,-6.82,8.02,-0.09,31.25
8880,0.2123,-0.0203,0.885,-6.85,7.97,-0.05,31.23
8890,0.2133,-0.0234,0.8864,-6.79,7.97,0.0,31.24
8900,0.2147,-0.0197,0.8868,-6.84,7.88,-0.03,31.21
8910,0.2113,-0.0188,0.8864,-6.84,7.94,0.03,31.24
8920,0.2126,-0.0175,0.8878,-6.84,7.91,-0.12,31.22
8930,0.2144,-0.0159,0.8883,-6.76,7.91,-0.09,31.22
8940,0.214,-0.0161,0.8898,-6.81,8.0,0.0,31.23
8950,0.2131,-0.0171,0.889,-6.81,7.97,-0.05,31.26
8960,0.2134,-0.0157,0.8916,-6.87,7.91,0.0,31.22
8970,0.2133,-0.0164,0.8882,-6.85,8.0,-0.08,31.22
8980,0.2142,-0.0194,0.8914,-6.85,7.97,0.05,31.22
8990,0.2125,-0.0194,0.8884,-6.85,8.06,0.0,31.26
9000,0.2086,-0.0198,0.8879,-6.85,7.94,-0.02,31.24
9010,0.2131,-0.0178,0.8901,-6.75,8.02,-0.02,31.24
9020,0.2104,-0.0189,0.8912,-6.9,7.94,-0.12,31.24
9030,0.2108,-0.019,0.8925,-6.78,7.98,-0.02,31.24
9040,0.2115,-0.0206,0.8883,-6.9,8.02,0.03,31.22
9050,0.2106,-0.0205,0.8875,-6.75,7.94,0.0,31.24
9060,0.2128,-0.0204,0.8853,-6.79,7.95,0.03,31.25
9070,0.2136,-0.0195,0.8843,-6.92,7.94,0.03,31.26
9080,0.2129,-0.0187,0.8889,-6.87,8.08,-0.06,31.24
9090,0.2128,-0.0183,0.8918,-6.87,8.02,0.05,31.25
9100,0.2109,-0.0184,0.8892,-6.93,7.98,-0.03,31.24
9110,0.2126,-0.0166,0.8857,-6.85,7.98,0.0,31.22
9120,0.2106,-0.0188,0.8904,-6.89,8.02,-0.08,31.23
9130,0.2148,-0.0184,0.892,-6.76,7.91,0.0,31.24
9140,0.2142,-0.0199,0.8883,-6.89,8.02,-0.05,31.24
9150,0.212,-0.0177,0.8914,-6.81,7.94,-0.02,31.22
9160,0.214,-0.0203,0.8888,-6.87,7.92,0.06,31.24
9170,0.2124,-0.0193,0.8906,-6.76,7.97,-0.05,31.23
9180,0.2124,-0.0197,0.8917,-6.75,7.94,-0.02,31.24
9191,0.2112,-0.0217,0.8861,-6.85,8.03,-0.02,31.23
9201,0.2131,-0.0186,0.8884,-6.81,7.95,-0.03,31.23
9211,0.2134,-0.0176,0.8876,-6.89,8.0,-0.02,31.23
9222,0.2126,-0.0192,0.886,-6.79,8.02,-0.02,31.24
9232,0.209,-0.0209,0.8878,-6.81,8.0,-0.12,31.24
9242,0.2144,-0.0187,0.8876,-6.92,7.95,0.02,31.22
9252,0.2134,-0.0189,0.884,-6.82,8.03,-0.08,31.23
9262,0.2113,-0.0184,0.8878,-6.81,7.94,-0.05,31.24
9272,0.2129,-0.0187,0.8903,-6.89,8.02,0.03,31.24
9282,0.2124,-0.0186,0.8904,-6.78,8.0,0.02,31.24
9292,0.2113,-0.0168,0.8885,-6.82,7.98,-0.08,31.26
9302,0.2125,-0.0179,0.8925,-6.79,7.88,0.05,31.24
9312,0.2119,-0.0177,0.8872,-6.76,7.92,0.0,31.23
9322,0.2133,-0.0171,0.8878,-6.84,8.05,-0.02,31.23
9332,0.2113,-0.0179,0.889,-6.78,7.97,0.0,31.25
9342,0.2136,-0.021,0.8912,-6.67,8.02,0.02,31.25
9352,0.2125,-0.0197,0.8916,-6.81,7.94,-0.05,31.22
9362,0.2101,-0.0211,0.8894,-6.85,7.92,-0.09,31.24
9372,0.2123,-0.0216,0.8907,-6.93,7.98,-0.02,31.23
9382,0.2128,-0.0186,0.8837,-6.85,8.02,0.0,31.27
9392,0.2139,-0.0211,0.8887,-6.89,8.06,-0.08,31.26
9402,0.2157,-0.0165,0.889,-6.92,8.02,-0.06,31.24
9412,0.2153,-0.0168,0.8911,-6.73,7.98,-0.09,31.26
9422,0.2115,-0.0204,0.8901,-6.82,8.0,-0.02,31.26
9432,0.2112,-0.0181,0.8905,-6.81,8.03,-0.08,31.24
9442,0.2126,-0.0165,0.8882,-6.84,8.03,0.02,31.23
9452,0.2111,-0.0159,0.8875,-6.84,8.02,-0.08,31.23
9462,0.2122,-0.019,0.8873,-6.84,8.03,0.03,31.24
9472,0.2117,-0.019,0.8914,-6.87,7.95,-0.09,31.25
9482,0.2126,-0.0186,0.8876,-6.84,7.97,-0.05,31.23
9492,0.2123,-0.0186,0.8884,-6.78,7.94,-0.14,31.25
9502,0.2092,-0.016,0.8925,-6.81,8.02,-0.02,31.25
9512,0.2142,-0.0183,0.8883,-6.84,8.05,-0.02,31.23
9522,0.2126,-0.0159,0.8887,-6.87,7.95,-0.09,31.23
9532,0.2159,-0.0225,0.8901,-6.82,8.0,-0.08,31.27
9542,0.215,-0.0179,0.8889,-6.79,8.0,-0.06,31.24
9552,0.2145,-0.0199,0.8927,-6.85,8.03,-0.03,31.25
9562,0.2114,-0.0192,0.8887,-6.87,7.98,-0.06,31.22
9572,0.2119,-0.0168,0.886,-6.82,7.94,-0.09,31.24
9582,0.2131,-0.019,0.8885,-6.87,7.94,0.06,31.24
9592,0.2125,-0.0167,0.8872,-6.78,7.95,-0.02,31.25
9602,0.2119,-0.0186,0.8927,-6.72,8.0,-0.09,31.26
9612,0.2129,-0.0193,0.8905,-6.9,7.92,-0.05,31.26
9622,0.2137,-0.0188,0.8892,-6.87,7.97,0.02,31.26
9632,0.2106,-0.0167,0.8909,-6.82,8.02,-0.03,31.25
9642,0.2153,-0.0198,0.886,-6.85,7.91,0.0,31.25
9652,0.2164,-0.0198,0.8857,-6.78,7.92,-0.05,31.24
9662,0.2118,-0.0176,0.8918,-6.84,8.02,-0.11,31.26
9672,0.2146,-0.0188,0.8928,-6.87,8.0,-0.02,31.27
9682,0.2129,-0.0225,0.8878,-6.78,7.94,-0.06,31.26
9692,0.2136,-0.0177,0.89,-6.72,8.03,0.0,31.25
9702,0.213,-0.0177,0.8909,-6.89,8.06,-0.06,31.23
9712,0.2124,-0.0221,0.8918,-6.79,7.98,-0.02,31.26
9722,0.2131,-0.0187,0.8893,-6.85,8.02,-0.03,31.25
9732,0.2117,-0.0176,0.8899,-6.79,7.95,-0.11,31.27
9742,0.2095,-0.0184,0.8881,-6.82,7.98,-0.02,31.26
9752,0.2106,-0.0164,0.8894,-6.9,7.92,-0.05,31.24
9762,0.2141,-0.0143,0.8879,-6.82,7.97,0.08,31.25
9772,0.2102,-0.0159,0.8878,-6.85,8.09,-0.05,31.24
9782,0.2141,-0.0175,0.8914,-6.85,7.97,-0.03,31.24
9792,0.2167,-0.0198,0.8881,-6.82,8.0,-0.06,31.25
9802,0.2124,-0.0201,0.8879,-6.81,8.06,0.0,31.27
9812,0.2131,-0.0222,0.891,-6.76,8.03,-0.03,31.25
9822,0.2148,-0.0232,0.8892,-6.82,8.02,-0.06,31.26
9832,0.2144,-0.0194,0.8922,-6.75,7.98,-0.08,31.27
9842,0.2145,-0.0195,0.8879,-6.81,7.95,0.02,31.26
9852,0.2136,-0.0172,0.8923,-6.85,8.03,-0.03,31.25
9862,0.2118,-0.0168,0.8894,-6.85,8.03,-0.11,31.27
9872,0.213,-0.0171,0.8882,-6.81,8.03,-0.05,31.27
9882,0.2123,-0.0176,0.8915,-6.87,8.05,-0.05,31.25
9892,0.2119,-0.0182,0.8917,-6.93,7.94,-0.03,31.27
9902,0.212,-0.0161,0.8868,-6.95,7.98,-0.06,31.24
9912,0.2129,-0.0164,0.8873,-6.89,8.0,-0.11,31.27
9922,0.2119,-0.0186,0.8928,-6.95,8.0,0.02,31.26
9932,0.2107,-0.0172,0.8862,-6.87,7.92,0.0,31.27
9942,0.2114,-0.0182,0.8912,-6.78,7.98,-0.09,31.27
9952,0.2128,-0.0178,0.889,-6.79,7.91,-0.06,31.24
9962,0.2151,-0.0199,0.8887,-6.87,7.94,0.02,31.24
9972,0.2101,-0.0204,0.8867,-6.78,7.98,0.03,31.24
9982,0.2118,-0.0167,0.8873,-6.84,7.97,0.02,31.28
9992,0.2133,-0.0183,0.8918,-6.81,8.03,-0.05,31.27
10002,0.2117,-0.0171,0.8901,-6.89,7.98,-0.08,31.24
10012,0.2136,-0.0195,0.892,-6.79,8.02,-0.12,31.27
10022,0.2113,-0.0151,0.8866,-6.81,7.97,-0.11,31.28
10032,0.2109,-0.0172,0.8914,-6.89,8.05,-0.03,31.28
10042,0.2129,-0.0189,0.8895,-6.81,8.03,-0.02,31.27
10052,0.2101,-0.0178,0.8853,-6.82,8.06,-0.03,31.26
10062,0.2133,-0.0178,0.8873,-6.85,7.92,-0.02,31.26
10072,0.2103,-0.0193,0.8912,-6.84,8.03,-0.03,31.3
10082,0.2085,-0.0192,0.8885,-6.76,7.98,-0.03,31.29
10092,0.2076,-0.0166,0.8868,-6.81,7.94,-0.05,31.27
10102,0.2096,-0.0192,0.886,-6.73,7.98,-0.05,31.26
10112,0.2152,-0.0179,0.8859,-6.81,7.92,0.06,31.27
10122,0.2141,-0.0181,0.8873,-6.78,7.95,-0.03,31.26
10132,0.2146,-0.0194,0.8943,-6.84,7.98,-0.09,31.25
10142,0.2134,-0.0155,0.8932,-6.78,7.97,0.0,31.27
10152,0.2158,-0.0199,0.891,-6.81,8.02,0.0,31.27
10162,0.2113,-0.0182,0.8905,-6.79,8.08,-0.02,31.27
10172,0.2126,-0.0177,0.8918,-6.82,8.06,0.05,31.24
10182,0.2097,-0.0188,0.8872,-6.81,8.02,-0.05,31.24
10192,0.2129,-0.0171,0.8857,-6.75,8.06,-0.02,31.27
10202,0.2148,-0.017,0.886,-6.85,7.85,-0.15,31.25
10212,0.2114,-0.0151,0.8879,-6.81,7.95,-0.02,31.26
10222,0.2112,-0.017,0.8901,-6.82,7.91,-0.08,31.29
10232,0.2135,-0.0178,0.8892,-6.84,8.0,-0.09,31.29
10242,0.2123,-0.0203,0.8882,-6.79,7.97,-0.05,31.28
10252,0.2122,-0.0159,0.8873,-6.73,7.88,-0.11,31.27
10262,0.2135,-0.0177,0.8895,-6.76,8.02,0.0,31.3
10272,0.2147,-0.0188,0.8896,-6.82,8.03,0.03,31.28
10282,0.2083,-0.0203,0.8853,-6.84,8.03,-0.08,31.27
10292,0.2125,-0.0199,0.8881,-6.85,7.97,-0.11,31.31
10302,0.2124,-0.0223,0.8864,-6.84,8.02,-0.2,31.27
10312,0.2137,-0.0234,0.889,-6.93,8.02,-0.06,31.25
10322,0.2142,-0.0217,0.889,-6.81,8.03,-0.06,31.28
10332,0.2133,-0.0214,0.886,-6.89,7.94,-0.02,31.28
10342,0.2068,-0.017,0.8954,-6.85,7.97,-0.06,31.27
10352,0.2184,-0.0176,0.8826,-6.96,7.95,0.0,31.27
10362,0.2131,-0.0165,0.892,-6.63,8.08,-0.08,31.28
10372,0.2129,-0.0162,0.8899,-6.81,7.91,-0.05,31.3
10382,0.2144,-0.0179,0.8958,-6.82,8.15,-0.05,31.28
10392,0.208,-0.0198,0.8906,-6.78,8.05,-0.03,31.26
10402,0.2122,-0.0186,0.8844,-6.75,8.02,-0.06,31.26
10412,0.2076,-0.019,0.8864,-6.84,8.0,-0.02,31.26
10422,0.2111,-0.0173,0.8921,-6.75,7.89,0.0,31.26
10432,0.2148,-0.0133,0.8862,-6.87,7.95,-0.05,31.27
10442,0.2153,-0.0157,0.8885,-6.89,8.03,-0.09,31.29
10452,0.2155,-0.0237,0.8878,-6.81,8.03,-0.09,31.28
10462,0.2112,-0.0156,0.8951,-6.82,8.06,-0.06,31.28
10472,0.217,-0.0227,0.8894,-6.89,8.0,-0.06,31.27
10482,0.2175,-0.021,0.8866,-6.89,8.03,-0.02,31.28
10492,0.2163,-0.0183,0.892,-6.79,8.0,0.02,31.28
10502,0.2166,-0.0223,0.8894,-6.81,8.02,-0.02,31.28
10512,0.2115,-0.0231,0.8876,-6.89,7.97,0.03,31.27
10522,0.2134,-0.0225,0.8888,-6.79,7.91,-0.06,31.27
10532,0.2113,-0.0194,0.8889,-6.75,8.05,-0.02,31.26
10542,0.2089,-0.0197,0.8881,-6.9,8.0,-0.09,31.27
10552,0.2084,-0.0153,0.8907,-6.82,8.02,-0.03,31.28
10562,0.2078,-0.0125,0.8883,-6.89,7.97,-0.06,31.3
10572,0.2112,-0.0138,0.8876,-6.85,7.94,-0.11,31.28
10582,0.2114,-0.0142,0.8877,-6.79,8.08,-0.08,31.27
10592,0.2136,-0.0123,0.8876,-6.82,7.88,-0.02,31.28
10602,0.2102,-0.0146,0.8827,-6.85,7.98,-0.02,31.28
10612,0.2141,-0.0178,0.89,-6.75,7.86,-0.12,31.27
10622,0.2147,-0.0193,0.8835,-6.9,7.97,0.0,31.27
10632,0.2136,-0.021,0.8872,-6.81,7.98,-0.08,31.3
10642,0.214,-0.0234,0.8877,-6.9,7.95,0.02,31.3
10652,0.212,-0.0238,0.8911,-6.84,7.95,0.06,31.27
10662,0.2166,-0.0239,0.892,-6.84,7.97,-0.02,31.31
10672,0.2152,-0.0217,0.8926,-6.82,8.05,-0.09,31.27
10682,0.2163,-0.0201,0.8878,-6.78,7.88,-0.06,31.27
10692,0.217,-0.0219,0.8948,-6.78,8.02,-0.02,31.27
10702,0.2151,-0.0201,0.896,-6.81,8.11,-0.12,31.27
10712,0.2108,-0.0203,0.892,-6.75,8.02,-0.05,31.3
10722,0.213,-0.0204,0.8896,-6.75,8.0,-0.06,31.26
10732,0.2097,-0.0168,0.8867,-6.75,8.02,-0.03,31.28
10742,0.2068,-0.0143,0.8877,-6.85,8.05,-0.03,31.28
10752,0.2068,-0.0154,0.8866,-6.87,7.95,0.02,31.3
10762,0.2083,-0.0153,0.8883,-6.89,7.94,-0.05,31.28
10772,0.2097,-0.0112,0.887,-6.85,8.0,-0.02,31.29
10782,0.2126,-0.0206,0.8899,-6.85,7.92,-0.11,31.3
10792,0.2114,-0.0166,0.8862,-6.84,7.92,-0.06,31.27
10802,0.2008,-0.0204,0.8774,-6.95,8.35,-0.05,31.27
10812,0.1788,-0.0131,0.9259,-6.82,8.69,-0.2,31.29
10822,0.2485,-0.0238,0.8682,-6.47,7.31,0.03,31.28
10832,0.222,-0.0216,0.8999,-6.78,7.53,-0.06,31.27
10842,0.2297,-0.0248,0.8699,-6.92,7.42,-0.05,31.27
10852,0.224,-0.024,0.8795,-6.78,7.79,-0.02,31.29
10862,0.2205,-0.0229,0.8832,-6.87,7.97,0.08,31.28
10872,0.2155,-0.0204,0.8889,-6.82,7.97,-0.06,31.28
10882,0.2054,-0.0172,0.8947,-6.82,8.12,-0.09,31.28
10892,0.2108,-0.0168,0.8915,-6.7,8.0,-0.05,31.29
10902,0.2084,-0.016,0.8943,-6.84,8.11,-0.03,31.3
10912,0.2112,-0.0159,0.8835,-6.78,7.94,0.0,31.29
10922,0.214,-0.0171,0.8839,-6.81,7.83,-0.03,31.27
10932,0.2124,-0.0151,0.8885,-6.82,8.06,0.02,31.28
10942,0.2144,-0.0179,0.8832,-6.84,7.98,-0.06,31.28
10952,0.2114,-0.0161,0.8925,-6.81,8.03,-0.03,31.26
10962,0.2102,-0.0179,0.8951,-6.78,7.98,-0.08,31.32
10972,0.2133,-0.0162,0.8931,-6.93,7.94,-0.05,31.3
10982,0.2128,-0.0199,0.8939,-6.99,8.03,-0.03,31.28
10992,0.2157,-0.0216,0.8855,-6.95,7.98,-0.05,31.27
11002,0.2141,-0.0208,0.891,-6.85,8.0,-0.05,31.29
11012,0.2119,-0.0212,0.8901,-6.81,8.0,-0.08,31.27
11022,0.2113,-0.0215,0.8879,-6.78,7.95,-0.05,31.27
11032,0.2123,-0.0188,0.8865,-6.89,8.08,-0.08,31.27
11042,0.2096,-0.0187,0.8861,-6.87,7.97,-0.02,31.28
11052,0.2108,-0.0199,0.8887,-6.76,7.98,-0.11,31.29
11062,0.2113,-0.0177,0.8881,-6.85,7.92,-0.06,31.3
11072,0.2136,-0.0182,0.8872,-6.73,7.95,-0.05,31.27
11082,0.2128,-0.019,0.8894,-6.78,8.02,-0.06,31.26
11092,0.213,-0.0183,0.8914,-6.78,8.02,-0.08,31.3
11102,0.2129,-0.0186,0.8923,-6.81,8.03,-0.02,31.28
11112,0.2152,-0.0166,0.8932,-6.78,8.12,-0.05,31.29
11122,0.2148,-0.0178,0.8859,-6.84,8.03,-0.08,31.3
11132,0.2133,-0.0135,0.8915,-6.92,7.91,-0.03,31.27
11142,0.2133,-0.0165,0.8864,-6.81,8.05,-0.02,31.29
11152,0.2108,-0.0171,0.8927,-6.79,7.98,-0.06,31.29
11162,0.2135,-0.0198,0.8865,-6.82,8.05,-0.05,31.27
11172,0.2125,-0.0161,0.8892,-6.85,7.97,-0.08,31.27
11182,0.2109,-0.0176,0.8879,-6.9,8.02,0.08,31.28
11192,0.2123,-0.0211,0.8884,-6.84,7.91,-0.05,31.32
11202,0.2115,-0.0195,0.8828,-6.78,8.03,-0.02,31.32
11212,0.2098,-0.0171,0.8821,-6.84,8.02,-0.02,31.29
11222,0.2135,-0.02,0.8892,-6.92,8.0,0.0,31.28
11232,0.2117,-0.0201,0.8909,-6.82,7.95,0.03,31.28
11242,0.2104,-0.0212,0.8893,-6.82,8.02,0.02,31.27
11252,0.213,-0.0172,0.8896,-6.79,8.06,-0.05,31.28
11262,0.2152,-0.0178,0.8888,-6.85,7.86,-0.05,31.29
11272,0.2147,-0.0176,0.889,-6.82,7.92,-0.06,31.3
11282,0.215,-0.0171,0.891,-6.9,7.98,-0.17,31.28
11292,0.2134,-0.016,0.8868,-6.95,8.03,0.0,31.28
11302,0.2155,-0.0168,0.8866,-6.89,7.94,0.02,31.29
11312,0.2144,-0.0205,0.8892,-6.84,8.05,0.0,31.3
11322,0.2106,-0.0189,0.8887,-6.82,7.95,-0.02,31.27
11332,0.2125,-0.0161,0.8882,-6.76,7.94,-0.05,31.28
11342,0.2094,-0.0178,0.8884,-6.76,7.97,-0.05,31.28
11352,0.2108,-0.0204,0.8865,-6.78,7.97,-0.05,31.28
11362,0.2111,-0.0199,0.8871,-6.85,7.95,-0.03,31.3
11372,0.2133,-0.0219,0.8898,-6.87,7.98,-0.05,31.3
11382,0.2146,-0.021,0.8914,-6.87,8.0,-0.08,31.29
11392,0.2172,-0.0192,0.8894,-6.85,7.97,-0.02,31.29
11402,0.2152,-0.0217,0.8914,-6.79,7.98,-0.09,31.3
11412,0.2123,-0.0211,0.8867,-6.78,7.94,-0.09,31.3
11422,0.2129,-0.0222,0.8851,-6.82,8.0,-0.09,31.32
11432,0.2117,-0.0175,0.8871,-6.82,8.0,-0.02,31.28
11442,0.2131,-0.0167,0.8882,-6.85,8.08,0.03,31.31
11452,0.2096,-0.0179,0.8854,-6.81,7.94,0.08,31.29
11462,0.2142,-0.0171,0.886,-6.84,8.02,-0.05,31.31
11472,0.213,-0.0179,0.8862,-6.81,8.03,0.05,31.32
11482,0.2125,-0.0171,0.8871,-6.84,8.0,-0.06,31.31
11492,0.2107,-0.0166,0.89,-6.84,8.0,-0.05,31.3
11502,0.212,-0.0182,0.8883,-6.75,7.94,-0.05,31.31
11512,0.2114,-0.0209,0.8871,-6.93,8.0,-0.12,31.3
11522,0.213,-0.0178,0.8907,-6.84,7.98,-0.03,31.31
11532,0.2139,-0.0179,0.8925,-6.81,7.95,0.0,31.29
11542,0.2148,-0.0187,0.8887,-6.85,7.95,-0.06,31.31
11552,0.2126,-0.0217,0.8894,-6.95,7.98,-0.03,31.31
11562,0.2118,-0.0247,0.894,-6.93,8.0,-0.05,31.3
11572,0.212,-0.0232,0.8911,-6.92,8.06,-0.11,31.29
11582,0.2119,-0.0175,0.8904,-6.85,7.98,-0.03,31.31
11592,0.2091,-0.016,0.8864,-6.78,8.0,-0.02,31.29
11602,0.2075,-0.0167,0.8871,-6.79,7.92,-0.08,31.3
11612,0.2145,-0.0157,0.8878,-6.79,7.92,-0.02,31.3
11622,0.215,-0.0153,0.887,-6.84,7.92,-0.05,31.3
11632,0.2106,-0.0173,0.8864,-6.87,7.94,-0.08,31.31
11642,0.2145,-0.0162,0.8879,-6.84,7.97,0.03,31.31
11652,0.2157,-0.0203,0.8912,-6.79,7.88,0.03,31.3
11662,0.2125,-0.0183,0.8931,-6.9,7.94,-0.03,31.3
11672,0.2148,-0.0173,0.8907,-6.82,7.94,-0.03,31.3
11682,0.2163,-0.0186,0.8884,-6.9,8.06,-0.09,31.29
11692,0.2163,-0.02,0.8877,-6.84,7.97,0.0,31.28
11702,0.2133,-0.0204,0.8901,-6.81,7.92,0.03,31.29
11712,0.2115,-0.0214,0.8887,-6.87,7.89,-0.05,31.31
11722,0.2162,-0.0201,0.8865,-6.75,8.05,0.03,31.32
11732,0.2112,-0.0178,0.8889,-6.79,7.95,-0.06,31.3
11742,0.2135,-0.0166,0.8922,-6.81,8.0,-0.03,31.3
11752,0.2135,-0.0151,0.8892,-6.92,8.02,-0.02,31.32
11762,0.2151,-0.0165,0.8889,-6.89,8.0,-0.02,31.29
11772,0.2131,-0.0168,0.8905,-6.87,7.97,0.02,31.32
11782,0.2137,-0.0205,0.889,-6.81,8.02,0.0,31.29
11792,0.2129,-0.0181,0.8904,-6.76,8.0,0.03,31.29
11802,0.2091,-0.019,0.8927,-6.79,8.0,-0.03,31.31
11812,0.2133,-0.0177,0.8889,-6.89,8.12,-0.12,31.3
11822,0.2157,-0.019,0.8865,-6.82,8.0,-0.05,31.3
11832,0.2134,-0.0184,0.8905,-6.9,8.03,-0.02,31.29
11842,0.2112,-0.0211,0.889,-6.87,7.98,-0.11,31.31
11852,0.214,-0.0198,0.8877,-6.78,8.05,-0.11,31.31
11862,0.2113,-0.0171,0.8911,-6.84,7.98,-0.08,31.32
11872,0.2122,-0.0175,0.8878,-6.78,7.95,-0.06,31.31
11882,0.2113,-0.0192,0.8888,-6.78,8.0,0.03,31.31
11892,0.2142,-0.0187,0.8883,-6.84,8.05,0.03,31.3
11902,0.2147,-0.0171,0.8881,-6.67,7.94,0.03,31.29
11912,0.2139,-0.0184,0.89,-6.89,7.98,-0.03,31.31
11922,0.2123,-0.0186,0.8938,-6.82,8.0,0.0,31.3
11932,0.2144,-0.0209,0.8834,-6.82,8.06,0.0,31.29
11942,0.2129,-0.0193,0.8843,-6.79,7.91,-0.09,31.31
11952,0.2109,-0.0199,0.8862,-6.79,7.97,0.0,31.32
11962,0.2125,-0.0177,0.8851,-6.85,8.0,-0.05,31.34
11972,0.2101,-0.0197,0.8905,-6.78,7.97,-0.09,31.31
11982,0.2107,-0.0181,0.8931,-6.87,7.97,-0.11,31.3
11992,0.2141,-0.0193,0.8911,-6.84,8.0,-0.09,31.31
12002,0.2133,-0.0188,0.8889,-6.84,8.0,-0.12,31.31
12012,0.2164,-0.019,0.8939,-6.84,8.05,-0.06,31.32
12022,0.2142,-0.0182,0.8911,-6.76,7.97,-0.08,31.31
12032,0.214,-0.0199,0.8867,-6.78,7.98,-0.05,31.31
12042,0.212,-0.0219,0.8917,-6.89,7.88,0.02,31.31
12052,0.2129,-0.0204,0.8889,-6.79,7.94,-0.05,31.31
12062,0.2123,-0.0192,0.8843,-6.87,8.0,-0.09,31.32
12072,0.2109,-0.0172,0.8857,-6.81,8.0,0.06,31.32
12082,0.2111,-0.0156,0.8865,-6.85,8.02,-0.06,31.31
12092,0.2104,-0.0154,0.8901,-6.99,8.03,-0.03,31.32
12102,0.2103,-0.0153,0.8922,-6.9,8.0,-0.05,31.3
12112,0.2147,-0.0178,0.891,-6.89,8.02,-0.05,31.31
12122,0.2095,-0.022,0.889,-6.7,7.98,-0.03,31.29
12132,0.2113,-0.0173,0.8884,-6.96,7.94,-0.03,31.31
12142,0.212,-0.0176,0.891,-6.95,7.83,0.03,31.32
12152,0.2128,-0.0186,0.894,-6.9,7.89,0.0,31.3
12162,0.2106,-0.0167,0.8914,-6.84,7.94,0.03,31.31
12172,0.214,-0.0173,0.8933,-6.93,8.0,-0.08,31.31
12182,0.2118,-0.0184,0.8907,-6.9,8.02,-0.03,31.32
12192,0.2104,-0.0204,0.8866,-6.79,8.09,-0.06,31.33
12202,0.217,-0.0212,0.8843,-6.85,8.05,0.0,31.32
12212,0.213,-0.0234,0.8851,-6.84,7.94,0.06,31.31
12222,0.2144,-0.0234,0.8877,-6.78,8.03,-0.12,31.32
12232,0.2129,-0.0195,0.8936,-6.82,8.06,-0.08,31.33
12242,0.2152,-0.017,0.89,-6.84,8.0,-0.02,31.32
12252,0.2174,-0.017,0.8896,-6.73,7.92,0.03,31.3
12262,0.218,-0.016,0.8901,-6.82,7.95,-0.02,31.32
12272,0.2152,-0.0179,0.8888,-6.79,8.03,-0.05,31.32
12282,0.2111,-0.0197,0.8915,-6.87,8.03,-0.06,31.32
12292,0.2095,-0.0171,0.8887,-6.79,8.08,-0.06,31.32
12302,0.2115,-0.017,0.8875,-6.82,8.0,0.02,31.31
12312,0.2124,-0.0189,0.8873,-6.79,7.98,0.03,31.33
12322,0.2108,-0.019,0.8887,-6.81,7.97,-0.02,31.31
12332,0.2109,-0.0155,0.885,-6.82,7.85,-0.12,31.33
12342,0.2106,-0.0164,0.882,-6.73,7.92,-0.03,31.3
12352,0.2097,-0.017,0.8881,-6.85,7.89,-0.05,31.33
12362,0.2136,-0.0197,0.8844,-6.79,7.95,0.02,31.32
12372,0.2108,-0.0205,0.8867,-6.84,7.94,0.03,31.3
12382,0.214,-0.0208,0.8936,-6.82,7.94,-0.03,31.33
12392,0.2135,-0.0192,0.8889,-6.9,7.94,-0.06,31.3
12402,0.2164,-0.0193,0.8936,-6.87,7.97,-0.09,31.33
12412,0.2122,-0.0203,0.894,-6.82,8.0,-0.11,31.34
12422,0.2128,-0.0237,0.8914,-6.87,8.0,-0.12,31.31
12432,0.2136,-0.0178,0.8911,-6.72,7.91,-0.03,31.32
12442,0.2134,-0.0165,0.8883,-6.9,7.88,0.02,31.32
12452,0.2122,-0.0172,0.8845,-6.82,8.0,0.0,31.33
12462,0.2097,-0.0182,0.8882,-6.87,8.03,-0.09,31.32
12472,0.2137,-0.0203,0.8848,-6.82,8.05,0.06,31.34
12482,0.2117,-0.0184,0.889,-6.87,7.97,-0.03,31.33
12492,0.2119,-0.0184,0.8895,-6.82,7.95,-0.08,31.31
12502,0.2125,-0.0167,0.8873,-6.84,7.94,-0.02,31.29
12512,0.2136,-0.0176,0.8878,-6.78,8.03,0.03,31.31
12522,0.2129,-0.0161,0.8898,-6.9,7.94,-0.11,31.32
12532,0.2118,-0.0182,0.8867,-6.81,7.97,-0.05,31.33
12542,0.2139,-0.0189,0.8866,-6.89,8.03,-0.03,31.33
12552,0.2146,-0.0177,0.8904,-6.85,8.02,-0.02,31.3
12562,0.2148,-0.0178,0.8915,-6.87,7.92,-0.05,31.32
12572,0.2126,-0.0188,0.8893,-6.9,8.0,-0.08,31.31
12582,0.2112,-0.0179,0.8906,-6.79,8.06,-0.02,31.3
12592,0.2115,-0.0162,0.8864,-6.76,7.95,-0.08,31.33
12602,0.2118,-0.0192,0.8894,-6.82,7.95,-0.06,31.35
12612,0.2114,-0.0181,0.889,-6.85,7.97,-0.03,31.32
12622,0.2125,-0.0208,0.8861,-6.82,7.98,-0.02,31.3
12632,0.212,-0.0186,0.8857,-6.9,7.92,-0.06,31.3
12642,0.2125,-0.0166,0.891,-6.82,8.02,-0.09,31.3
12652,0.2142,-0.019,0.8889,-6.87,7.98,-0.02,31.31
12662,0.2134,-0.0209,0.8926,-6.79,8.03,-0.03,31.31
12672,0.2159,-0.02,0.8942,-6.79,7.95,0.0,31.33
12682,0.2163,-0.0173,0.8909,-6.82,7.98,0.02,31.31
12692,0.2131,-0.0167,0.8909,-6.82,8.0,-0.06,31.32
12702,0.2131,-0.0175,0.8921,-6.9,7.94,-0.08,31.31
12712,0.2134,-0.0177,0.8854,-6.89,8.0,-0.03,31.3
12722,0.2131,-0.0156,0.8853,-6.89,7.88,0.05,31.31
12732,0.2122,-0.0164,0.8888,-6.85,8.03,0.02,31.32
12742,0.2108,-0.022,0.8892,-6.84,8.02,-0.02,31.32
12752,0.2126,-0.021,0.8878,-6.79,7.94,-0.02,31.33
12762,0.2114,-0.0227,0.8845,-6.89,7.95,-0.03,31.34
12772,0.2139,-0.0193,0.8926,-6.9,7.91,0.05,31.32
12782,0.2101,-0.0168,0.8893,-6.73,7.98,-0.03,31.35
12792,0.2103,-0.0203,0.8916,-6.82,8.02,-0.06,31.3
12802,0.2134,-0.0184,0.886,-6.82,8.05,-0.02,31.32
12812,0.2124,-0.0161,0.8867,-6.82,7.95,-0.03,31.31
12822,0.2136,-0.0156,0.8932,-6.82,8.0,-0.09,31.32
12832,0.2147,-0.0173,0.8921,-6.84,7.97,0.0,31.34
12842,0.2196,-0.0162,0.891,-6.95,7.98,-0.05,31.34
12852,0.2156,-0.0175,0.8877,-6.85,7.98,-0.08,31.33
12862,0.2107,-0.0167,0.8892,-6.87,8.02,0.0,31.32
12872,0.2125,-0.017,0.8894,-6.9,7.97,-0.11,31.35
12882,0.2129,-0.0203,0.8831,-6.92,8.03,-0.05,31.33
12892,0.2156,-0.0182,0.8901,-6.82,8.02,-0.05,31.34
12902,0.2101,-0.0195,0.8907,-6.9,7.95,-0.08,31.31
12912,0.2103,-0.0183,0.8882,-6.84,8.02,-0.03,31.31
12922,0.2089,-0.0198,0.8904,-6.82,8.03,-0.05,31.34
12932,0.2158,-0.0168,0.8896,-6.89,7.97,-0.06,31.33
12942,0.2117,-0.0167,0.8912,-6.93,8.02,0.03,31.33
12952,0.2141,-0.0222,0.894,-6.89,7.97,-0.06,31.35
12962,0.2118,-0.02,0.8879,-6.87,7.98,-0.02,31.33
12972,0.2128,-0.0216,0.8923,-6.85,8.02,-0.02,31.3
12982,0.2129,-0.0143,0.8918,-6.9,8.02,0.03,31.31
12992,0.2117,-0.0206,0.8892,-6.67,8.0,-0.03,31.35
13002,0.2112,-0.0176,0.891,-6.81,7.95,0.05,31.32
13012,0.2133,-0.0151,0.8904,-6.79,8.0,-0.06,31.34
13022,0.212,-0.0164,0.8926,-6.81,7.95,-0.06,31.33
13032,0.214,-0.0153,0.8883,-6.87,8.03,-0.05,31.33
13042,0.2148,-0.0188,0.889,-6.89,7.94,-0.08,31.34
13052,0.2124,-0.017,0.8873,-6.92,8.05,-0.11,31.29
13062,0.2128,-0.0193,0.892,-6.79,7.98,-0.03,31.32
13072,0.2107,-0.0183,0.8872,-6.76,7.94,-0.09,31.33
13082,0.2098,-0.0179,0.8901,-6.84,8.02,0.02,31.34
13092,0.2113,-0.0203,0.8911,-6.84,7.92,-0.03,31.32
13102,0.2131,-0.0194,0.8893,-6.85,7.98,-0.06,31.32
13112,0.2135,-0.0214,0.8882,-6.84,7.85,-0.12,31.3
13122,0.212,-0.0223,0.8911,-6.81,8.0,-0.05,31.33
13132,0.2133,-0.0208,0.8907,-6.79,7.95,-0.05,31.32
13143,0.214,-0.0198,0.8918,-6.85,7.92,-0.02,31.32
13153,0.2142,-0.0154,0.8857,-6.84,7.97,-0.09,31.32
13165,0.2112,-0.0139,0.8929,-6.81,8.02,0.0,31.34
13175,0.2128,-0.0146,0.8887,-6.81,8.02,-0.03,31.34
13185,0.213,-0.0176,0.8876,-6.81,7.95,-0.12,31.31
13195,0.2156,-0.0159,0.887,-6.89,7.98,-0.03,31.34
13206,0.2114,-0.017,0.8904,-6.92,8.03,-0.03,31.34
13216,0.2128,-0.0177,0.8882,-6.9,7.97,0.0,31.36
13226,0.2098,-0.0209,0.8921,-6.9,8.03,-0.06,31.32
13236,0.2109,-0.0178,0.8855,-6.98,8.0,-0.03,31.33
13246,0.2137,-0.0209,0.8846,-6.79,7.98,0.03,31.32
13256,0.2113,-0.0198,0.8866,-6.89,8.0,-0.05,31.32
13266,0.2159,-0.0199,0.8895,-6.9,8.02,-0.11,31.3
13276,0.2145,-0.0189,0.887,-6.84,7.97,-0.08,31.32
13286,0.2125,-0.022,0.89,-6.93,8.02,-0.09,31.32
13296,0.2126,-0.0234,0.8929,-6.79,8.03,0.02,31.34
13306,0.2135,-0.0194,0.8888,-6.82,8.0,0.0,31.31
13316,0.2141,-0.0145,0.8917,-6.81,8.02,-0.03,31.33
13326,0.2111,-0.0192,0.8901,-6.82,8.03,-0.05,31.33
13336,0.2106,-0.0219,0.8881,-6.69,8.03,0.02,31.31
13346,0.2097,-0.0198,0.8867,-6.78,8.0,0.06,31.35
13356,0.2078,-0.0372,0.8843,-6.72,7.95,-0.14,31.33
13366,0.2085,-0.0178,0.8837,-6.79,7.77,-0.05,31.34
13376,0.2142,-0.0184,0.8678,-6.76,7.83,0.0,31.33
13386,0.1887,0.0074,0.9279,-6.96,8.26,-0.06,31.34
13396,0.2013,-0.0055,0.9211,-6.69,8.69,-0.11,31.33
13406,0.2107,-0.0128,0.8973,-6.98,8.27,-0.02,31.32
13416,0.2117,-0.0278,0.8872,-6.76,8.02,-0.02,31.32
13426,0.1965,-0.0221,0.9203,-6.9,8.75,-0.08,31.33
13436,0.2203,-0.0219,0.8831,-6.81,8.24,0.06,31.34
13446,0.2108,-0.0227,0.8916,-6.95,8.14,-0.02,31.32
13456,0.2137,-0.0192,0.882,-6.81,7.86,0.0,31.35
13466,0.2097,-0.015,0.8939,-6.85,8.03,0.02,31.32
13476,0.2092,-0.0182,0.8828,-6.95,8.05,-0.06,31.32
13486,0.2074,-0.0216,0.8833,-6.76,8.02,0.02,31.33
13496,0.2086,-0.0161,0.8895,-6.96,7.95,0.05,31.34
13506,0.2108,-0.0183,0.8942,-6.76,8.0,-0.02,31.35
13516,0.2091,-0.0182,0.8822,-6.89,7.98,0.0,31.33
13527,0.2118,-0.0151,0.8843,-6.84,7.92,-0.02,31.33
13537,0.2128,-0.0172,0.8904,-6.84,7.95,-0.02,31.33
13547,0.2128,-0.0165,0.8906,-6.76,8.0,-0.03,31.33
13557,0.2159,-0.0187,0.8871,-6.87,7.95,0.03,31.31
13567,0.217,-0.0217,0.8905,-6.82,7.91,-0.02,31.33
13577,0.2136,-0.0237,0.891,-6.81,8.03,-0.11,31.33
13587,0.215,-0.0212,0.8921,-6.92,8.05,-0.08,31.34
13597,0.2168,-0.0188,0.8876,-6.84,8.05,-0.09,31.34
13607,0.215,-0.0189,0.8893,-6.73,8.03,-0.02,31.33
13617,0.213,-0.0139,0.8887,-6.84,8.03,-0.09,31.34
13627,0.2052,-0.0181,0.8855,-6.84,8.08,0.0,31.31
13637,0.2123,-0.0194,0.8872,-6.92,8.02,0.03,31.33
13647,0.2141,-0.0159,0.8901,-6.89,7.94,-0.03,31.33
13657,0.2169,-0.016,0.8932,-6.92,8.0,0.0,31.35
13667,0.2114,-0.0204,0.8884,-6.85,8.0,0.0,31.36
13677,0.2079,-0.0194,0.8816,-6.84,8.0,0.06,31.32
13687,0.2109,-0.0171,0.8821,-6.93,7.95,0.06,31.33
13697,0.2092,-0.0188,0.8871,-6.82,8.0,-0.09,31.34
13707,0.2084,-0.0164,0.8881,-6.89,7.95,-0.05,31.33
13717,0.2123,-0.0175,0.8949,-6.85,7.92,0.0,31.34
13727,0.2135,-0.0193,0.8942,-6.85,8.02,-0.03,31.34
13737,0.2117,-0.0166,0.8931,-6.84,8.05,-0.06,31.33
13747,0.2102,-0.0208,0.8893,-6.82,7.98,-0.02,31.35
13757,0.2124,-0.0228,0.8918,-6.78,7.97,-0.05,31.32
13767,0.2155,-0.0176,0.8893,-6.78,7.92,0.0,31.32
13777,0.2158,-0.019,0.8872,-6.84,7.91,-0.08,31.32
13787,0.2151,-0.0212,0.8896,-6.89,7.98,-0.08,31.34
13797,0.2184,-0.0155,0.8927,-6.82,8.02,-0.03,31.32
13807,0.2155,-0.0159,0.8915,-6.87,7.98,-0.02,31.34
13817,0.2147,-0.0142,0.8889,-6.92,8.05,-0.03,31.34
13827,0.2122,-0.0171,0.8871,-6.87,8.03,-0.09,31.32
13837,0.2125,-0.02,0.8876,-6.89,8.0,-0.03,31.33
13847,0.2094,-0.0221,0.8876,-6.82,8.08,-0.02,31.32
13857,0.2095,-0.0187,0.8831,-6.89,8.0,-0.06,31.34
13867,0.2114,-0.0228,0.8877,-6.84,8.02,0.03,31.35
13877,0.2073,-0.0199,0.8864,-6.81,7.95,-0.06,31.35
13887,0.213,-0.0165,0.8877,-6.75,7.95,-0.02,31.34
13897,0.2122,-0.0194,0.8895,-6.85,7.88,-0.05,31.33
13908,0.2159,-0.0168,0.8937,-6.85,7.97,0.02,31.35
13918,0.2179,-0.0177,0.8893,-6.82,8.02,-0.02,31.33
13928,0.2125,-0.0183,0.8866,-6.84,7.97,-0.02,31.34
13938,0.2131,-0.0222,0.8871,-6.78,7.95,-0.05,31.35
13948,0.214,-0.0184,0.8885,-6.89,7.95,-0.03,31.34
13958,0.2098,-0.0186,0.8905,-6.85,7.98,-0.02,31.32
13968,0.2109,-0.0177,0.8856,-6.89,8.0,0.0,31.33
13978,0.2091,-0.0176,0.8875,-6.92,7.95,-0.06,31.35
13988,0.2078,-0.0178,0.8856,-6.93,7.95,0.05,31.34
13998,0.2089,-0.0186,0.8828,-6.95,7.89,0.0,31.32
14008,0.2069,-0.0189,0.8829,-6.9,7.88,-0.03,31.35
14018,0.2074,-0.0179,0.8871,-6.85,7.8,-0.02,31.32
14028,0.209,-0.0223,0.8857,-6.78,7.79,0.05,31.34
14038,0.2137,-0.0244,0.8916,-6.9,7.94,0.03,31.34
14048,0.2198,-0.0243,0.8961,-6.76,7.86,-0.09,31.35
14058,0.2288,-0.0189,0.9078,-6.82,8.05,-0.05,31.34
14068,0.2302,-0.0167,0.9131,-6.73,8.09,0.02,31.32
14078,0.2245,-0.0146,0.9017,-6.76,8.05,-0.08,31.37
14088,0.2194,-0.0128,0.896,-6.78,8.06,-0.06,31.35
14098,0.2075,-0.0149,0.8876,-6.89,8.12,-0.03,31.34
14108,0.2076,-0.0186,0.8778,-6.85,8.11,-0.06,31.34
14118,0.2059,-0.0173,0.8765,-6.84,7.92,0.0,31.35
14128,0.2024,-0.0187,0.8795,-6.79,7.97,0.02,31.35
14138,0.2013,-0.0128,0.886,-6.87,8.06,0.03,31.36
14148,0.2025,-0.011,0.8817,-6.87,8.02,-0.05,31.36
14158,0.2025,-0.0083,0.8843,-6.92,7.95,-0.08,31.36
14168,0.2043,-0.0168,0.8882,-6.84,8.03,-0.09,31.32
14178,0.2052,-0.0221,0.8859,-6.89,7.98,-0.11,31.35
14189,0.2092,-0.0255,0.8929,-6.9,7.94,-0.21,31.35
14199,0.2164,-0.0291,0.8966,-6.9,7.88,-0.15,31.34
14209,0.2228,-0.0295,0.9016,-6.89,8.0,-0.11,31.35
14220,0.2247,-0.026,0.8981,-6.87,7.88,-0.06,31.37
14230,0.2258,-0.0232,0.8981,-6.84,7.95,-0.06,31.36
14240,0.223,-0.0182,0.8889,-6.79,7.98,-0.02,31.36
14250,0.22,-0.0153,0.8866,-6.75,8.05,-0.03,31.34
14260,0.2157,-0.0148,0.8851,-6.85,8.11,0.02,31.35
14270,0.2111,-0.0151,0.8817,-6.82,8.12,0.0,31.36
14280,0.2109,-0.0217,0.8752,-6.7,8.0,0.05,31.35
14290,0.2081,-0.019,0.8779,-6.84,8.08,-0.03,31.34
14300,0.21,-0.0205,0.8804,-6.92,8.05,0.0,31.35
14310,0.2108,-0.0186,0.8864,-6.81,8.09,0.05,31.34
14320,0.2095,-0.0165,0.8925,-6.85,7.98,-0.02,31.35
14330,0.2123,-0.0145,0.8994,-6.87,8.02,-0.02,31.36
14340,0.2119,-0.0181,0.8999,-6.96,7.98,-0.03,31.36
14350,0.2102,-0.0138,0.9028,-6.9,8.0,-0.06,31.34
14360,0.2081,-0.0159,0.8947,-6.9,8.08,-0.06,31.32
14370,0.2068,-0.0162,0.8938,-6.78,8.06,-0.03,31.35
14380,0.2065,-0.0197,0.8827,-6.9,8.11,-0.06,31.35
14391,0.2026,-0.0175,0.8823,-6.82,8.0,-0.11,31.35
14401,0.2068,-0.0242,0.8792,-6.81,8.02,-0.11,31.36
14412,0.2067,-0.0242,0.8831,-6.75,8.0,-0.12,31.35
14422,0.2013,-0.0231,0.882,-6.73,7.62,-0.06,31.37
14432,0.1934,-0.0151,0.8695,-6.61,7.79,-0.09,31.34
14442,0.1953,-0.0216,0.8516,-6.69,7.88,-0.17,31.37
14452,0.217,-0.0072,0.8772,-6.78,7.59,-0.12,31.36
14462,0.2299,-0.0309,0.9004,-6.81,7.62,-0.05,31.37
14472,0.2318,-0.007,0.9327,-6.82,7.8,-0.17,31.34
14482,0.2385,-0.0116,0.9402,-6.96,8.06,-0.11,31.36
14492,0.2419,-0.0265,0.9464,-6.89,8.26,0.03,31.35
14502,0.2334,-0.0122,0.9191,-6.95,8.26,-0.02,31.35
14512,0.2225,-0.0247,0.9069,-6.89,8.18,-0.14,31.35
14522,0.213,-0.0283,0.8828,-6.76,8.2,0.0,31.34
14532,0.2013,-0.0175,0.8678,-6.78,8.14,-0.09,31.34
14542,0.1984,-0.0294,0.8619,-6.72,8.06,-0.02,31.34
14552,0.1947,-0.0253,0.8542,-6.79,7.91,0.02,31.34
14562,0.1919,-0.0154,0.8529,-6.76,7.88,0.06,31.32
14572,0.1967,-0.016,0.8677,-6.89,7.86,-0.02,31.36
14582,0.2032,-0.0067,0.8762,-6.75,7.92,-0.03,31.35
14592,0.2096,-0.0016,0.8831,-6.84,7.94,-0.05,31.36
14602,0.214,-0.0128,0.892,-6.85,7.91,-0.08,31.38
14612,0.2168,-0.0099,0.9001,-6.9,7.97,-0.12,31.35
14622,0.2188,-0.0182,0.9072,-6.89,7.97,-0.05,31.35
14632,0.2222,-0.0306,0.906,-6.87,7.88,-0.08,31.37
14642,0.2174,-0.0314,0.9049,-6.93,7.89,-0.08,31.35
14652,0.2246,-0.0326,0.906,-6.9,7.95,-0.03,31.34
14662,0.2238,-0.0281,0.9014,-6.84,7.86,0.05,31.37
14672,0.2201,-0.0154,0.8954,-6.81,8.0,0.06,31.37
14682,0.215,-0.0127,0.8898,-6.69,8.05,0.02,31.34
14692,0.2131,-0.0099,0.8821,-6.81,8.11,-0.06,31.35
14702,0.2101,-0.012,0.8745,-6.81,8.15,-0.05,31.31
14712,0.2106,-0.0176,0.8745,-6.81,8.08,-0.02,31.35
14722,0.2043,-0.0215,0.8741,-6.76,8.03,-0.02,31.34
14732,0.1997,-0.0209,0.8734,-6.81,7.95,-0.02,31.37
14742,0.2036,-0.0209,0.8785,-6.67,7.88,0.0,31.35
14752,0.2065,-0.0198,0.8903,-6.81,7.94,-0.05,31.35
14762,0.2153,-0.0146,0.8964,-6.79,7.85,0.05,31.34
14772,0.2156,-0.0104,0.8982,-6.79,7.89,0.02,31.34
14782,0.2139,-0.0139,0.9083,-6.84,7.88,-0.05,31.38
14792,0.2142,-0.0166,0.9021,-6.93,7.92,-0.03,31.37
14802,0.2117,-0.0225,0.8918,-6.9,8.03,-0.15,31.37
14812,0.2111,-0.0236,0.8939,-6.9,7.88,-0.05,31.34
14822,0.2126,-0.0195,0.8871,-6.92,8.02,-0.11,31.35
14832,0.2111,-0.0215,0.8853,-6.84,8.02,-0.06,31.36
14842,0.2151,-0.0234,0.8816,-6.81,8.05,0.02,31.33
14852,0.213,-0.0193,0.8846,-6.81,8.06,-0.05,31.37
14862,0.2172,-0.0209,0.8848,-6.75,7.98,0.06,31.36
14872,0.2145,-0.0179,0.8904,-6.81,8.05,0.03,31.34
14882,0.2148,-0.0197,0.8857,-6.85,8.03,0.0,31.37
14892,0.2153,-0.0243,0.8944,-6.84,7.95,-0.02,31.36
14902,0.215,-0.0227,0.8867,-6.85,7.98,0.06,31.36
14912,0.2141,-0.0194,0.8945,-6.82,8.02,-0.05,31.37
14922,0.2139,-0.0206,0.8877,-6.84,7.91,0.06,31.36
14932,0.2118,-0.0175,0.894,-6.93,8.02,0.06,31.37
14942,0.2136,-0.011,0.8906,-6.85,8.0,-0.02,31.35
14952,0.2106,-0.0084,0.889,-6.76,8.06,-0.02,31.34
14962,0.2045,-0.0057,0.8877,-6.81,8.09,-0.09,31.37
14972,0.2035,-0.0103,0.8899,-6.89,8.08,-0.17,31.36
14982,0.2062,-0.0164,0.8867,-6.93,8.11,-0.11,31.38
14992,0.2028,-0.025,0.8842,-6.85,8.05,-0.03,31.39
15002,0.2051,-0.0225,0.8833,-6.84,8.0,-0.12,31.35
15012,0.2046,-0.02,0.8796,-6.95,8.0,-0.15,31.35
15022,0.2122,-0.0206,0.8822,-6.85,7.91,-0.12,31.36
15032,0.2158,-0.0211,0.8933,-6.87,7.85,-0.11,31.36
15042,0.2179,-0.0189,0.8937,-6.84,7.89,-0.12,31.37
15052,0.2249,-0.0277,0.8944,-6.85,7.89,-0.09,31.35
15062,0.2271,-0.0242,0.9023,-6.84,7.89,-0.15,31.37
15072,0.2269,-0.0251,0.8966,-6.75,7.89,-0.05,31.35
15082,0.2272,-0.0187,0.8942,-6.85,7.97,0.0,31.36
15092,0.2206,-0.0114,0.8914,-6.73,8.03,0.0,31.37
15102,0.2156,-0.0121,0.8878,-6.89,8.09,0.05,31.37
15112,0.2092,-0.0149,0.88,-6.76,8.12,-0.02,31.34
15122,0.2051,-0.0227,0.8801,-6.79,8.14,0.02,31.37
15132,0.2039,-0.0211,0.877,-6.78,7.98,-0.02,31.38
15142,0.2067,-0.0253,0.8837,-6.79,7.95,0.02,31.34
15152,0.2087,-0.019,0.8839,-6.82,7.94,-0.02,31.34
15162,0.212,-0.0175,0.8917,-6.81,7.91,-0.02,31.37
15172,0.2083,-0.0137,0.8945,-6.76,8.05,-0.02,31.37
15182,0.2109,-0.0129,0.894,-6.79,7.95,-0.06,31.37
15192,0.2092,-0.0172,0.8923,-6.78,8.0,-0.05,31.36
15202,0.2119,-0.0175,0.8951,-6.96,7.94,-0.12,31.36
15212,0.2112,-0.0219,0.8893,-6.87,8.02,-0.05,31.36
15222,0.2137,-0.0236,0.8916,-6.84,7.95,-0.05,31.38
15232,0.2211,-0.0182,0.8895,-6.73,7.89,0.0,31.35
15242,0.2231,-0.0162,0.8942,-6.79,8.02,0.0,31.36
15252,0.2222,-0.0145,0.8928,-6.85,8.0,0.05,31.37
15262,0.2217,-0.0142,0.8933,-6.79,8.05,-0.08,31.39
15272,0.2168,-0.0178,0.8899,-6.84,8.18,-0.02,31.35
15282,0.2123,-0.0184,0.8864,-6.82,8.05,-0.02,31.37
15292,0.2053,-0.0172,0.8846,-6.9,8.05,-0.03,31.38
15302,0.2021,-0.0222,0.8821,-6.82,8.06,0.12,31.38
15312,0.2029,-0.015,0.8684,-6.99,7.8,0.05,31.35
15322,0.1945,-0.0204,0.8679,-6.82,7.89,-0.06,31.37
15332,0.1998,-0.025,0.8878,-6.99,7.85,-0.02,31.33
15342,0.2142,-0.0199,0.8873,-6.85,7.83,-0.12,31.38
15352,0.212,-0.0182,0.8976,-6.89,8.02,-0.03,31.38
15362,0.2126,-0.0209,0.8975,-6.89,7.86,-0.12,31.38
15372,0.2239,-0.0187,0.896,-6.85,7.98,-0.14,31.37
15382,0.2222,-0.0254,0.9038,-6.93,8.11,-0.17,31.38
15392,0.2135,-0.0143,0.9032,-6.98,8.2,-0.12,31.37
15402,0.2175,-0.0208,0.8909,-6.66,8.08,-0.05,31.36
15412,0.223,-0.0244,0.9025,-6.79,7.97,-0.05,31.36
15422,0.2252,-0.0237,0.8949,-6.85,8.08,0.0,31.38
15432,0.2202,-0.0175,0.8857,-6.81,8.06,0.02,31.36
15442,0.2269,-0.0131,0.9,-6.85,8.23,0.03,31.36
15452,0.2261,-0.0238,0.8844,-6.96,7.92,0.0,31.34
15462,0.2052,-0.0157,0.8828,-6.76,8.15,0.14,31.34
15472,0.199,-0.0166,0.868,-6.76,8.21,0.02,31.34
15482,0.2042,-0.0203,0.8713,-6.79,7.98,0.0,31.38
15492,0.1969,-0.0181,0.88,-6.75,8.0,0.05,31.37
15502,0.1978,-0.0183,0.8857,-6.69,7.89,0.11,31.36
15512,0.2069,-0.0155,0.8962,-6.87,7.91,0.02,31.36
15522,0.2037,-0.0151,0.9041,-6.78,7.98,-0.02,31.34
15532,0.2059,-0.0123,0.902,-6.81,7.97,-0.06,31.37
15542,0.208,-0.0165,0.897,-6.78,8.02,-0.11,31.37
15552,0.2024,-0.0128,0.8921,-6.79,7.94,-0.14,31.39
15562,0.2039,-0.0118,0.8868,-6.76,8.0,-0.14,31.36
15572,0.2068,-0.0154,0.884,-6.85,7.98,-0.2,31.36
15582,0.2061,-0.0161,0.8838,-6.82,7.92,-0.32,31.38
15592,0.2152,-0.0233,0.8848,-6.87,7.91,-0.08,31.38
15602,0.2213,-0.0228,0.8835,-6.9,7.89,-0.05,31.37
15612,0.2261,-0.0217,0.885,-6.82,7.94,-0.09,31.36
15622,0.2273,-0.0225,0.8859,-6.85,7.91,-0.03,31.37
15632,0.2288,-0.0194,0.8936,-6.81,7.91,-0.05,31.39
15642,0.2305,-0.0186,0.8964,-6.85,7.95,-0.06,31.38
15652,0.225,-0.0176,0.9038,-6.96,8.02,-0.03,31.37
15662,0.2163,-0.0215,0.8961,-6.89,8.05,-0.11,31.36
15672,0.2168,-0.0206,0.8966,-6.85,8.15,-0.05,31.39
15682,0.2122,-0.0239,0.8872,-6.92,8.09,0.03,31.36
15692,0.2123,-0.0251,0.8846,-6.92,8.05,0.02,31.37
15702,0.2076,-0.0243,0.8838,-6.79,7.97,0.02,31.38
15712,0.2045,-0.0189,0.887,-6.76,7.97,0.03,31.35
15722,0.2021,-0.0187,0.8853,-6.84,7.94,0.08,31.37
15732,0.1921,-0.0244,0.8394,-6.67,7.21,-0.09,31.37
15742,0.1771,-0.0117,0.8687,-6.56,7.74,-0.03,31.38
15752,0.1997,-0.0005,0.8754,-6.79,8.12,-0.15,31.37
15762,0.2142,-0.0199,0.895,-6.79,7.97,-0.12,31.39
15772,0.23,-0.0215,0.923,-6.96,7.62,-0.02,31.39
15782,0.2443,-0.01,0.9412,-6.99,8.08,0.0,31.37
15792,0.2395,-0.0222,0.9275,-6.96,8.44,0.0,31.39
15802,0.2227,-0.0234,0.9084,-6.84,8.18,-0.06,31.34
15812,0.2151,-0.0182,0.8999,-6.7,8.15,-0.14,31.37
15822,0.2074,-0.025,0.8807,-6.89,8.27,-0.06,31.37
15832,0.1991,-0.0325,0.855,-6.87,8.03,-0.06,31.38
15842,0.1971,-0.0265,0.8607,-6.95,7.85,-0.06,31.38
15852,0.2094,-0.0197,0.8734,-6.89,7.76,0.08,31.39
15862,0.2032,-0.0104,0.8964,-6.82,8.09,-0.05,31.38
15872,0.2128,-0.0079,0.8868,-6.76,8.14,-0.02,31.39
15882,0.2302,-0.01,0.8909,-6.82,8.21,-0.03,31.37
15892,0.2263,-0.0082,0.8898,-6.73,8.21,-0.06,31.37
15902,0.2289,-0.0173,0.8746,-6.92,8.0,-0.05,31.39
15912,0.175,-0.0223,0.7715,-7.62,7.79,-0.11,31.39
15922,0.1802,-0.0115,0.8577,-6.49,7.98,-0.05,31.39
15932,0.2262,-0.0277,0.9692,-6.81,7.11,0.15,31.38
15942,0.2802,-0.0388,0.9965,-7.04,7.77,0.26,31.39
15952,0.2551,-0.0275,0.9585,-6.92,8.44,0.24,31.38
15962,0.2091,-0.0085,0.9106,-6.67,8.29,0.24,31.4
15972,0.203,0.0107,0.92,-6.64,8.27,0.08,31.36
15982,0.1838,0.0195,0.8895,-6.82,8.52,-0.2,31.36
15992,0.1643,-0.0016,0.8381,-6.9,8.26,-0.26,31.37
16002,0.1696,-0.0393,0.8351,-6.9,7.71,-0.18,31.38
16012,0.1868,-0.0449,0.8638,-6.99,7.83,-0.29,31.38
16022,0.2014,-0.0452,0.864,-6.93,7.89,-0.14,31.37
16032,0.2163,-0.0438,0.868,-6.79,7.66,0.03,31.38
16042,0.2377,-0.0193,0.8925,-6.75,7.8,-0.06,31.39
16052,0.235,-0.0057,0.8969,-6.73,8.02,0.03,31.38
16062,0.2327,0.0004,0.8865,-6.76,8.12,-0.06,31.37
16072,0.2329,0.0034,0.8959,-6.93,8.06,-0.03,31.36
16082,0.2302,-0.0032,0.9004,-6.99,8.03,-0.05,31.36
16092,0.2156,-0.0295,0.9005,-6.98,8.02,-0.09,31.37
16102,0.2122,-0.0326,0.9011,-6.79,7.92,0.0,31.39
16112,0.2112,-0.0356,0.9059,-6.75,7.97,0.05,31.37
16122,0.2032,-0.0294,0.897,-6.93,8.09,0.03,31.39
16132,0.2024,-0.0253,0.887,-6.9,7.94,0.08,31.35
16142,0.2058,-0.0098,0.8856,-6.9,7.89,0.08,31.37
16152,0.204,-0.0009,0.8793,-6.95,7.85,0.02,31.36
16162,0.2124,-0.0061,0.8834,-6.92,7.97,-0.08,31.39
16172,0.2131,-0.0105,0.8834,-6.92,7.97,-0.17,31.4
16182,0.2167,-0.022,0.8903,-6.99,7.98,-0.24,31.38
16192,0.2163,-0.0294,0.8916,-6.98,7.95,-0.17,31.39
16202,0.2125,-0.037,0.8861,-6.9,8.03,0.0,31.4
16212,0.2145,-0.0314,0.8843,-6.81,8.03,-0.02,31.37
16222,0.2118,-0.017,0.8876,-6.84,8.08,0.0,31.36
16232,0.2117,-0.0132,0.8915,-6.93,7.97,0.05,31.37
16242,0.2148,-0.0159,0.8948,-6.81,7.85,0.11,31.37
16252,0.2139,-0.0111,0.8956,-6.81,7.82,0.08,31.39
16262,0.2133,-0.0194,0.8997,-6.79,7.88,-0.03,31.36
16272,0.2173,-0.0216,0.8959,-6.89,8.03,-0.08,31.36
16282,0.215,-0.0244,0.8933,-6.76,8.14,-0.11,31.38
16292,0.2159,-0.0233,0.8855,-6.78,8.03,0.03,31.39
16302,0.2179,-0.0167,0.8885,-6.89,7.98,-0.05,31.39
16312,0.2136,-0.0121,0.885,-6.82,8.06,-0.09,31.4
16322,0.2161,-0.0115,0.8914,-6.82,8.0,0.03,31.38
16332,0.2157,-0.016,0.8901,-6.79,7.97,0.03,31.38
16342,0.2173,-0.0188,0.8921,-6.89,8.06,0.03,31.36
16352,0.214,-0.0226,0.8925,-6.87,8.03,-0.06,31.39
16362,0.2097,-0.019,0.8872,-6.85,8.03,0.02,31.37
16372,0.2073,-0.0211,0.8926,-6.85,7.98,0.08,31.39
16382,0.2024,-0.0216,0.891,-6.85,8.03,0.06,31.37
16392,0.2029,-0.0142,0.8929,-6.79,8.06,0.02,31.39
16402,0.2081,-0.0127,0.89,-6.84,8.0,0.0,31.36
16412,0.2056,-0.0175,0.8851,-6.81,7.95,-0.05,31.38
16422,0.2111,-0.0153,0.8831,-6.96,7.91,-0.17,31.38
16432,0.2119,-0.0176,0.8906,-6.81,7.95,-0.14,31.37
16442,0.2134,-0.0222,0.8912,-6.81,7.95,-0.02,31.36
16452,0.213,-0.0209,0.8915,-6.84,7.88,-0.02,31.37
16462,0.2134,-0.0203,0.8942,-6.82,7.98,-0.11,31.38
16472,0.2139,-0.0128,0.8911,-6.84,7.92,0.05,31.38
16482,0.2122,-0.0138,0.8882,-6.9,7.88,0.06,31.39
16492,0.2125,-0.0159,0.8898,-6.76,8.0,0.0,31.37
16502,0.2161,-0.0145,0.8906,-6.75,7.89,-0.08,31.37
16512,0.2092,-0.0168,0.89,-6.82,7.92,-0.06,31.37
16522,0.21,-0.0193,0.8892,-6.85,8.08,-0.03,31.36
16532,0.2103,-0.0188,0.8894,-6.9,7.91,-0.05,31.38
16542,0.2145,-0.0177,0.8895,-6.89,7.95,0.0,31.38
16552,0.2156,-0.0206,0.887,-6.82,7.94,-0.11,31.38
16562,0.2117,-0.0193,0.8881,-6.9,7.97,-0.11,31.39
16572,0.2159,-0.0182,0.8895,-6.82,7.92,-0.08,31.38
16582,0.2162,-0.0193,0.8872,-6.89,8.03,-0.09,31.36
16592,0.2157,-0.0173,0.8896,-6.82,7.97,-0.08,31.36
16602,0.2201,-0.0195,0.8876,-6.72,7.86,-0.02,31.39
16612,0.2227,-0.0208,0.8918,-6.69,8.06,-0.09,31.35
16622,0.2181,-0.0217,0.8927,-6.79,8.05,0.02,31.38
16632,0.2198,-0.0219,0.8929,-6.85,7.98,0.02,31.37
16642,0.2174,-0.0242,0.8912,-6.92,8.05,0.02,31.35
16652,0.2142,-0.019,0.8887,-6.76,8.11,-0.05,31.35
16662,0.2113,-0.019,0.8849,-6.82,8.09,0.08,31.38
16672,0.2113,-0.0165,0.8865,-6.81,8.0,-0.06,31.38
16682,0.2065,-0.014,0.8843,-6.84,7.97,-0.03,31.41
16692,0.2087,-0.0145,0.8877,-6.82,8.0,0.02,31.41
16702,0.2074,-0.014,0.8903,-6.96,7.85,0.03,31.38
16712,0.208,-0.0182,0.891,-6.78,7.95,-0.09,31.38
16722,0.2084,-0.017,0.8983,-6.82,7.89,-0.08,31.41
16732,0.2108,-0.0151,0.8972,-6.85,8.05,-0.03,31.37
16742,0.2112,-0.0118,0.8833,-6.82,8.05,0.0,31.4
16752,0.2097,-0.0129,0.8744,-6.92,8.03,-0.06,31.39
16762,0.2135,-0.0182,0.8889,-6.87,7.91,-0.08,31.39
16772,0.2169,-0.0226,0.8877,-6.92,8.06,-0.06,31.4
16782,0.2169,-0.0259,0.8956,-6.9,7.94,-0.06,31.38
16792,0.2189,-0.0294,0.8909,-6.85,7.85,0.02,31.38
16802,0.2178,-0.0249,0.8942,-6.76,7.95,0.0,31.41
16812,0.2151,-0.0148,0.8923,-6.75,8.03,-0.03,31.4
16822,0.2145,-0.0127,0.885,-6.85,8.02,0.0,31.39
16832,0.2134,-0.0093,0.8889,-6.85,7.95,-0.08,31.39
16842,0.2137,-0.0144,0.8873,-6.85,7.91,-0.02,31.39
16852,0.212,-0.0239,0.8879,-6.93,8.0,-0.14,31.4
16862,0.2102,-0.0223,0.8912,-6.92,7.97,-0.03,31.38
16872,0.2134,-0.0259,0.8912,-6.84,7.95,-0.02,31.39
16882,0.2164,-0.0228,0.8929,-6.89,8.0,0.0,31.37
16892,0.219,-0.0172,0.8914,-6.82,8.11,0.02,31.37
16902,0.2133,-0.0171,0.8932,-6.84,8.06,0.0,31.37
16912,0.2086,-0.0143,0.8854,-6.84,8.12,-0.03,31.39
16922,0.2067,-0.0171,0.8839,-6.84,7.94,-0.06,31.37
16932,0.2069,-0.0212,0.8868,-6.85,7.89,-0.03,31.39
16942,0.2119,-0.0215,0.8842,-6.75,7.94,0.09,31.39
16952,0.2106,-0.0232,0.8898,-6.89,7.89,-0.09,31.35
16962,0.2107,-0.0216,0.8876,-6.79,7.92,-0.05,31.37
16972,0.2124,-0.0164,0.8928,-6.85,7.97,-0.12,31.38
16982,0.2124,-0.0176,0.8901,-6.82,8.02,0.0,31.36
16992,0.2133,-0.0138,0.8906,-6.89,7.94,-0.03,31.4
17002,0.2125,-0.0126,0.89,-6.87,8.0,-0.09,31.39
17012,0.214,-0.0189,0.894,-6.85,7.98,-0.11,31.38
17022,0.2184,-0.0243,0.89,-6.92,8.06,-0.17,31.39
17032,0.2144,-0.0245,0.889,-6.85,8.03,-0.12,31.4
17042,0.2144,-0.0239,0.8938,-6.81,7.89,-0.03,31.37
17053,0.2139,-0.0175,0.8889,-6.9,8.08,0.05,31.42
17063,0.2146,-0.0156,0.8855,-6.92,7.95,0.0,31.38
17073,0.2095,-0.0182,0.887,-6.82,8.05,-0.05,31.37
17084,0.2061,-0.0168,0.8885,-6.89,8.03,-0.06,31.41
17094,0.2081,-0.0165,0.8884,-6.93,7.97,-0.08,31.37
17104,0.2124,-0.02,0.8831,-6.92,8.0,-0.03,31.39
17114,0.2083,-0.0225,0.8899,-6.9,7.94,0.03,31.37
17124,0.2123,-0.0179,0.8884,-6.87,7.97,-0.08,31.37
17134,0.2124,-0.0172,0.8877,-6.82,8.05,-0.14,31.4
17144,0.2155,-0.0181,0.8867,-6.81,7.97,-0.06,31.37
17154,0.2157,-0.016,0.8909,-6.66,7.89,-0.03,31.39
17164,0.2124,-0.0129,0.8933,-6.81,7.94,-0.05,31.39
17174,0.2164,-0.0189,0.8912,-6.79,8.03,0.0,31.37
17184,0.2131,-0.0198,0.8889,-6.84,8.08,-0.02,31.38
17194,0.2142,-0.022,0.8895,-6.84,8.03,-0.02,31.37
17204,0.2152,-0.0188,0.8867,-6.84,7.94,-0.08,31.39
17214,0.2129,-0.019,0.8859,-6.76,8.02,-0.03,31.37
17224,0.2107,-0.019,0.8885,-6.85,7.97,-0.03,31.38
17234,0.2096,-0.0166,0.8864,-6.85,7.95,-0.03,31.39
17244,0.2119,-0.016,0.8928,-6.82,8.02,0.0,31.38
17254,0.2089,-0.0177,0.8905,-6.95,8.05,0.05,31.37
17265,0.214,-0.0193,0.8893,-6.89,7.89,0.02,31.38
17275,0.2148,-0.0167,0.8887,-6.85,7.95,0.09,31.39
17285,0.2141,-0.0167,0.8907,-6.79,7.97,-0.06,31.39
17295,0.215,-0.0199,0.8904,-6.81,7.97,-0.03,31.36
17306,0.2158,-0.0205,0.8894,-6.75,8.0,0.0,31.39
17316,0.2106,-0.0186,0.8916,-6.82,8.05,-0.03,31.39
17326,0.2112,-0.0164,0.8895,-6.84,7.95,-0.06,31.37
17336,0.2087,-0.0197,0.8876,-6.87,7.95,0.02,31.39
17346,0.2096,-0.0162,0.8927,-6.89,7.91,0.0,31.4
17356,0.2102,-0.0159,0.8892,-6.75,8.06,-0.05,31.4
17368,0.2119,-0.0184,0.8862,-6.76,7.98,-0.08,31.41
17378,0.2125,-0.0203,0.8884,-6.84,7.98,-0.02,31.37
17388,0.214,-0.0189,0.8909,-6.75,7.86,-0.06,31.37
17398,0.2135,-0.0188,0.8906,-6.81,8.0,-0.06,31.41
17408,0.213,-0.0159,0.8898,-6.81,7.98,-0.09,31.39
17418,0.2167,-0.0142,0.8905,-6.84,8.0,0.03,31.42
17428,0.2136,-0.0159,0.8904,-6.82,8.02,-0.02,31.38
17438,0.2133,-0.0216,0.8893,-6.84,8.02,0.03,31.38
17448,0.2113,-0.0194,0.891,-6.81,7.97,-0.06,31.37
17458,0.2126,-0.0219,0.8882,-6.85,8.03,-0.08,31.42
17468,0.2144,-0.0181,0.8871,-6.82,7.98,-0.02,31.4
17478,0.2139,-0.0215,0.8904,-6.75,7.97,0.05,31.39
17488,0.2144,-0.0208,0.8912,-6.93,7.98,0.0,31.38
17498,0.2087,-0.0156,0.8857,-6.92,8.05,-0.08,31.39
17508,0.2129,-0.0197,0.8845,-6.92,8.05,-0.09,31.37
17518,0.2115,-0.0172,0.8903,-6.81,7.94,-0.06,31.4
17528,0.2126,-0.0173,0.8883,-6.96,7.95,-0.09,31.38
17538,0.2135,-0.0188,0.8898,-6.84,7.97,-0.05,31.38
17548,0.2123,-0.0167,0.8928,-6.93,7.92,0.05,31.39
17558,0.2111,-0.0187,0.8914,-6.82,7.95,0.0,31.38
17568,0.2135,-0.0193,0.8899,-6.76,7.98,-0.03,31.36
17578,0.2147,-0.0175,0.8901,-6.92,7.95,0.0,31.39
17588,0.2146,-0.0188,0.8923,-6.85,7.92,-0.12,31.39
17598,0.2115,-0.021,0.8906,-6.81,7.98,0.05,31.42
17608,0.2118,-0.0166,0.8912,-6.81,7.97,-0.03,31.4
17618,0.2134,-0.019,0.8905,-6.79,7.95,-0.03,31.38
17628,0.2129,-0.0187,0.8883,-6.72,7.94,-0.03,31.39
17638,0.2136,-0.0183,0.8883,-6.85,7.98,-0.05,31.39
17648,0.2107,-0.021,0.8892,-6.85,8.02,0.0,31.43
17658,0.2098,-0.0177,0.8871,-6.81,8.06,0.03,31.41
17668,0.2117,-0.0175,0.8872,-6.85,7.95,-0.09,31.4
17678,0.214,-0.0178,0.8906,-6.76,8.02,-0.08,31.42
17688,0.2113,-0.0217,0.8894,-6.82,7.97,-0.06,31.39
17698,0.2141,-0.0176,0.8905,-6.9,7.98,-0.05,31.42
17708,0.2131,-0.0161,0.8905,-6.76,8.0,0.02,31.4
17718,0.2125,-0.0167,0.8883,-6.82,8.02,-0.06,31.39
17728,0.2147,-0.0179,0.8898,-6.78,7.92,-0.03,31.39
17738,0.2137,-0.0179,0.8878,-6.9,7.94,-0.08,31.38
17748,0.2117,-0.0177,0.8896,-6.89,8.0,-0.02,31.4
17758,0.2112,-0.02,0.8905,-6.79,7.97,-0.09,31.39
17768,0.21,-0.022,0.889,-6.89,7.95,-0.12,31.42
17778,0.2123,-0.0206,0.8885,-6.89,8.02,-0.02,31.39
17788,0.2111,-0.022,0.8873,-6.84,8.08,0.02,31.42
17798,0.213,-0.019,0.8896,-6.87,8.02,-0.05,31.41
17808,0.2137,-0.0229,0.8888,-6.73,7.94,-0.06,31.37
17818,0.2146,-0.0203,0.8918,-6.79,7.94,-0.14,31.42
17828,0.2166,-0.0175,0.8915,-6.84,7.98,0.03,31.4
17838,0.2144,-0.0166,0.8894,-6.87,8.03,-0.03,31.4
17848,0.2145,-0.0189,0.8885,-6.84,7.97,-0.11,31.39
17858,0.2129,-0.0186,0.8882,-6.79,7.97,-0.08,31.4
17868,0.2133,-0.0179,0.8887,-6.69,8.02,-0.05,31.42
17878,0.2125,-0.0151,0.8916,-6.81,8.05,-0.05,31.4
17888,0.2109,-0.0155,0.8873,-6.82,8.08,-0.06,31.4
17898,0.2119,-0.0214,0.8884,-6.79,7.98,0.08,31.41
17908,0.2087,-0.0203,0.8896,-6.82,8.0,-0.09,31.42
17918,0.2101,-0.0206,0.8899,-6.85,8.02,-0.02,31.41
17928,0.2114,-0.0177,0.8875,-6.78,7.92,-0.03,31.42
17938,0.2103,-0.0159,0.8921,-6.79,7.98,-0.03,31.4
17948,0.2146,-0.0178,0.8894,-6.87,8.02,-0.11,31.41
17958,0.2167,-0.0201,0.8914,-6.79,8.03,-0.14,31.42
17968,0.2159,-0.0216,0.8915,-6.84,7.95,-0.03,31.39
17978,0.2147,-0.0167,0.8872,-6.78,8.03,0.02,31.41
17988,0.2144,-0.0192,0.8916,-6.76,8.0,-0.08,31.42
17998,0.2148,-0.0231,0.8892,-6.78,8.02,-0.09,31.41
18008,0.2117,-0.0173,0.8848,-6.84,7.92,-0.05,31.39
18018,0.2145,-0.021,0.8854,-6.76,7.89,0.03,31.4
18028,0.2111,-0.0223,0.889,-6.92,7.95,0.05,31.42
18038,0.2107,-0.0181,0.8881,-6.84,8.02,-0.09,31.42
18048,0.213,-0.02,0.8893,-6.93,7.91,-0.03,31.41
18058,0.2135,-0.0195,0.8906,-6.79,8.03,0.0,31.41
18068,0.2133,-0.0194,0.892,-6.81,8.0,-0.08,31.39
18078,0.2141,-0.0206,0.8889,-6.81,8.03,-0.02,31.4
18088,0.2146,-0.0197,0.8866,-6.81,7.98,-0.06,31.4
18098,0.2135,-0.0204,0.8881,-6.76,7.97,-0.03,31.41
18108,0.2144,-0.0238,0.8849,-6.75,8.0,-0.06,31.42
18118,0.215,-0.0197,0.8849,-6.76,8.02,-0.09,31.4
18128,0.2146,-0.0198,0.8854,-6.73,7.95,-0.08,31.43
18138,0.2136,-0.0199,0.8871,-6.82,8.02,0.0,31.4
18148,0.2157,-0.0179,0.8894,-6.84,7.98,-0.05,31.42
18158,0.2128,-0.0167,0.889,-6.79,7.92,0.0,31.41
18168,0.212,-0.0143,0.8916,-6.84,8.0,0.0,31.39
18178,0.2109,-0.0148,0.8912,-6.84,7.98,-0.09,31.38
18188,0.2123,-0.0162,0.8865,-6.85,8.05,0.02,31.39
18198,0.2146,-0.019,0.8888,-6.85,8.0,-0.05,31.41
18208,0.2107,-0.0204,0.8932,-6.87,8.05,-0.06,31.42
18218,0.2122,-0.019,0.8895,-6.82,7.91,-0.03,31.41
18228,0.2131,-0.0189,0.8889,-6.87,8.03,-0.06,31.4
18238,0.2111,-0.0239,0.8892,-6.9,7.97,-0.02,31.39
18248,0.2137,-0.0217,0.8888,-6.82,8.0,-0.08,31.42
18258,0.2106,-0.0204,0.8868,-6.73,7.98,-0.02,31.4
18272,0.2122,-0.0208,0.8923,-6.9,8.0,-0.09,31.43
18282,0.2133,-0.0226,0.8879,-6.92,8.03,-0.14,31.42
18292,0.214,-0.0186,0.887,-6.79,7.94,-0.08,31.42
18302,0.2137,-0.0176,0.8901,-6.85,7.97,-0.05,31.39
18312,0.2128,-0.0159,0.8927,-6.79,8.02,-0.09,31.42
18322,0.2111,-0.0171,0.8887,-6.82,7.98,-0.06,31.4
18332,0.2107,-0.0173,0.8893,-6.84,7.95,-0.05,31.4
18342,0.2122,-0.0193,0.887,-6.92,7.95,-0.02,31.4
18352,0.2172,-0.0178,0.8872,-6.87,7.97,-0.05,31.41
18362,0.2122,-0.0198,0.8903,-6.82,8.02,-0.06,31.41
18372,0.2148,-0.0199,0.8865,-6.87,7.97,-0.02,31.4
18382,0.2098,-0.0159,0.8895,-6.89,7.98,-0.06,31.4
18392,0.2128,-0.0205,0.8901,-6.87,8.0,0.02,31.41
18402,0.21,-0.0175,0.8896,-6.73,8.0,0.02,31.4
18412,0.2136,-0.0184,0.8867,-6.87,7.94,0.0,31.39
18422,0.215,-0.0184,0.8921,-6.9,8.05,-0.08,31.41
18432,0.2134,-0.0171,0.892,-6.84,8.14,-0.02,31.42
18442,0.2169,-0.0181,0.8923,-6.84,7.95,-0.03,31.41
18452,0.2131,-0.0186,0.889,-6.75,8.05,-0.03,31.42
18462,0.2158,-0.0181,0.8878,-6.76,8.05,0.03,31.4
18472,0.2141,-0.0157,0.8878,-6.82,8.0,0.0,31.41
18482,0.2115,-0.0194,0.8896,-6.81,8.0,-0.05,31.43
18492,0.2094,-0.0184,0.8898,-6.87,7.98,0.02,31.41
18502,0.2114,-0.0197,0.8877,-6.81,8.02,-0.09,31.42
18512,0.2111,-0.0176,0.8906,-6.85,7.94,-0.08,31.44
18522,0.2135,-0.0172,0.8876,-6.9,7.94,-0.09,31.41
18532,0.2134,-0.0157,0.8843,-6.79,7.98,-0.08,31.43
18542,0.2175,-0.0176,0.8878,-6.73,7.97,-0.12,31.44
18552,0.212,-0.0176,0.8884,-6.82,8.0,-0.03,31.42
18562,0.2111,-0.02,0.8889,-6.84,8.03,-0.05,31.43
18572,0.2124,-0.0178,0.8878,-6.85,7.98,0.06,31.41
18582,0.212,-0.0182,0.8896,-6.84,8.02,0.0,31.42
18592,0.2115,-0.0165,0.8905,-6.84,7.94,0.02,31.41
18602,0.2117,-0.0195,0.8923,-6.95,7.98,-0.08,31.42
18612,0.2111,-0.0178,0.8871,-6.87,8.0,-0.09,31.43
18622,0.213,-0.0159,0.8871,-6.9,8.09,-0.06,31.43
18632,0.2129,-0.0178,0.8861,-6.87,7.97,-0.02,31.42
18642,0.2145,-0.0206,0.892,-6.87,8.02,-0.03,31.42
18652,0.2152,-0.0212,0.8865,-6.87,7.98,-0.02,31.41
18662,0.2141,-0.0184,0.8854,-6.87,7.94,-0.09,31.43
18672,0.2145,-0.021,0.8878,-6.82,8.06,-0.08,31.42
18682,0.2117,-0.0201,0.8854,-6.72,8.03,-0.03,31.4
18692,0.2096,-0.0193,0.8875,-6.84,7.97,-0.06,31.42
18702,0.2104,-0.0208,0.8868,-6.82,8.03,-0.05,31.44
18712,0.2124,-0.0201,0.8912,-6.9,7.98,-0.12,31.4
18722,0.2114,-0.0205,0.8907,-6.87,7.98,0.02,31.42
18732,0.2133,-0.0215,0.8917,-6.85,7.98,-0.06,31.41
18742,0.2139,-0.0167,0.8904,-6.84,8.03,-0.06,31.41
18752,0.2142,-0.0165,0.886,-6.78,8.02,-0.08,31.42
18762,0.212,-0.0161,0.8906,-6.84,7.94,-0.05,31.4
18772,0.215,-0.0193,0.8875,-6.81,7.98,-0.06,31.43
18782,0.2123,-0.0199,0.8871,-6.85,7.95,-0.06,31.42
18792,0.2117,-0.0184,0.8884,-6.78,7.95,-0.02,31.42
18802,0.2098,-0.0186,0.8881,-6.82,7.94,-0.08,31.42
18812,0.21,-0.0208,0.8866,-6.89,7.97,-0.06,31.41
18822,0.2136,-0.0189,0.8951,-6.84,8.06,-0.08,31.41
18832,0.2103,-0.0215,0.892,-6.89,8.0,-0.03,31.43
18842,0.2144,-0.0179,0.8889,-6.81,7.95,0.03,31.43
18852,0.212,-0.0179,0.8893,-6.85,8.03,-0.03,31.42
18862,0.2135,-0.0186,0.8907,-6.79,7.94,-0.05,31.41
18872,0.2129,-0.0192,0.8882,-6.85,7.95,-0.11,31.41
18882,0.2125,-0.0179,0.8922,-6.87,8.02,-0.05,31.41
18892,0.2155,-0.0155,0.8846,-6.78,7.98,0.03,31.43
18902,0.2129,-0.0206,0.8928,-6.82,7.95,-0.05,31.42
18912,0.2139,-0.0187,0.891,-6.79,7.97,-0.08,31.4
18922,0.2142,-0.0216,0.8938,-6.81,7.95,0.02,31.42
18932,0.2139,-0.0192,0.8883,-6.9,7.95,-0.14,31.39
18942,0.2124,-0.0186,0.8867,-6.93,8.0,0.0,31.4
18952,0.2124,-0.0194,0.8898,-6.85,7.92,-0.03,31.41
18962,0.21,-0.0187,0.8912,-6.84,8.03,-0.02,31.4
18972,0.2131,-0.021,0.8884,-6.82,7.91,-0.09,31.43
18982,0.2145,-0.0186,0.8909,-6.89,7.98,-0.05,31.4
18992,0.2152,-0.0175,0.8888,-6.9,7.98,-0.11,31.42
19002,0.212,-0.0165,0.8904,-6.81,7.89,-0.03,31.43
19012,0.2129,-0.0192,0.8879,-6.76,7.82,-0.03,31.42
19022,0.2106,-0.0164,0.8882,-6.76,8.03,-0.08,31.42
19032,0.2112,-0.019,0.8871,-6.87,7.97,-0.02,31.42
19042,0.2118,-0.0204,0.889,-6.81,7.94,-0.03,31.4
19052,0.2123,-0.0186,0.889,-6.85,7.92,0.0,31.4
19062,0.2148,-0.0179,0.8912,-6.89,7.98,-0.06,31.46
19072,0.2113,-0.0165,0.8883,-6.89,8.03,0.0,31.42
19082,0.2125,-0.016,0.8879,-6.82,7.92,-0.09,31.43
19092,0.2167,-0.0182,0.889,-6.85,7.91,-0.09,31.42
19102,0.2146,-0.0153,0.8893,-6.87,7.98,-0.02,31.42
19112,0.2107,-0.0187,0.8856,-6.84,7.97,-0.03,31.41
19122,0.2141,-0.0171,0.8885,-6.9,7.98,0.02,31.42
19132,0.2125,-0.0215,0.887,-6.89,8.0,0.0,31.44
19142,0.2107,-0.02,0.8872,-6.9,7.97,-0.08,31.4
19152,0.2134,-0.0182,0.8906,-6.89,7.91,-0.08,31.41
19162,0.2102,-0.0195,0.8933,-6.87,7.94,0.0,31.42
19172,0.2122,-0.0244,0.8903,-6.73,7.91,0.0,31.42
19182,0.2141,-0.0203,0.8877,-6.84,7.97,0.03,31.45
19192,0.2163,-0.0173,0.8876,-6.84,7.92,-0.03,31.4
19202,0.2113,-0.0172,0.8929,-6.92,8.02,0.0,31.42
19212,0.2108,-0.0176,0.8903,-6.81,8.05,0.03,31.44
19222,0.2135,-0.0203,0.8884,-6.95,7.91,0.0,31.42
19232,0.2135,-0.0199,0.8907,-6.82,8.02,0.06,31.43
19242,0.2111,-0.0193,0.8893,-6.93,8.0,-0.05,31.41
19252,0.2139,-0.0194,0.8917,-6.93,7.97,0.02,31.42
19262,0.2128,-0.0203,0.8905,-6.87,8.03,-0.03,31.43
19272,0.212,-0.019,0.8884,-6.84,7.98,0.0,31.42
19282,0.213,-0.0186,0.8905,-6.89,8.02,-0.03,31.44
19293,0.2103,-0.0167,0.8888,-6.78,8.02,0.0,31.42
19305,0.2101,-0.0183,0.8909,-6.87,7.97,-0.06,31.41
19315,0.2126,-0.0181,0.8867,-6.87,7.97,-0.08,31.41
19326,0.2131,-0.0188,0.8879,-6.85,7.95,-0.08,31.41
19336,0.2151,-0.0173,0.8887,-6.81,8.02,-0.11,31.42
19346,0.2134,-0.019,0.8925,-6.81,7.95,-0.05,31.44
19356,0.2145,-0.0188,0.8928,-6.85,7.98,-0.02,31.44
19368,0.2172,-0.0192,0.8892,-6.89,7.97,-0.14,31.42
19378,0.2115,-0.0181,0.8884,-6.84,7.98,0.0,31.43
19389,0.2089,-0.0173,0.8895,-6.93,8.0,-0.02,31.43
19399,0.2101,-0.0168,0.8868,-6.87,8.02,0.02,31.43
19409,0.2128,-0.0181,0.8888,-6.9,7.98,0.06,31.41
19419,0.2102,-0.0189,0.8877,-6.95,7.89,-0.08,31.43
19429,0.213,-0.0183,0.885,-6.89,7.92,-0.09,31.43
19439,0.2144,-0.0162,0.8911,-6.82,8.02,-0.08,31.39
19449,0.2147,-0.0201,0.8925,-6.85,7.95,0.02,31.42
19459,0.2156,-0.0186,0.8896,-6.85,8.03,-0.05,31.46
19469,0.2137,-0.0178,0.8911,-6.92,7.94,-0.06,31.4
19479,0.2126,-0.0187,0.8857,-6.82,7.97,-0.05,31.43
19493,0.2107,-0.0205,0.8873,-6.76,7.88,-0.02,31.41
19503,0.212,-0.0206,0.8883,-6.82,7.92,-0.14,31.42
19513,0.2112,-0.0223,0.89,-6.87,8.02,-0.05,31.42
19524,0.2139,-0.0186,0.8896,-6.81,7.97,-0.08,31.43
19534,0.2115,-0.0149,0.8876,-6.84,8.03,-0.06,31.42
19544,0.2101,-0.0165,0.8911,-6.87,8.05,0.03,31.4
19554,0.2125,-0.0175,0.8898,-6.84,7.97,-0.02,31.42
19564,0.2133,-0.0186,0.889,-6.85,7.97,0.02,31.41
19574,0.2113,-0.021,0.8937,-6.89,8.02,0.02,31.43
19584,0.2118,-0.0197,0.889,-6.79,8.0,0.02,31.42
19594,0.2137,-0.0173,0.8916,-6.76,8.05,0.03,31.4
19604,0.2147,-0.0204,0.8881,-6.81,7.97,-0.08,31.41
19614,0.2122,-0.0214,0.8894,-6.85,8.02,-0.05,31.42
19624,0.2115,-0.0186,0.8826,-6.9,8.03,-0.06,31.43
19634,0.2118,-0.0177,0.8848,-6.87,7.98,-0.08,31.41
19644,0.2111,-0.02,0.8875,-6.81,8.0,-0.03,31.44
19654,0.2124,-0.0201,0.8865,-6.81,7.98,-0.03,31.41
19665,0.2134,-0.019,0.8892,-6.9,7.98,0.02,31.41
19675,0.2123,-0.0175,0.89,-6.66,7.97,-0.06,31.43
19685,0.2133,-0.0178,0.8871,-6.82,7.97,-0.05,31.41
19695,0.2118,-0.0172,0.8882,-6.93,7.97,-0.09,31.39
19705,0.2111,-0.0179,0.8859,-6.87,7.95,0.03,31.44
19715,0.2111,-0.0166,0.8889,-6.85,7.97,-0.06,31.41
19725,0.2123,-0.0168,0.8903,-6.84,7.95,-0.08,31.44
19735,0.217,-0.0171,0.8961,-6.81,7.92,-0.11,31.42
19745,0.2231,-0.0226,0.896,-6.85,7.85,-0.09,31.42
19755,0.2267,-0.0214,0.9025,-6.79,7.95,-0.08,31.42
19765,0.2252,-0.0261,0.8983,-6.81,8.06,-0.08,31.44
19775,0.2212,-0.0226,0.8938,-6.79,8.06,-0.02,31.42
19785,0.2162,-0.0182,0.8917,-6.82,8.14,-0.09,31.4
19795,0.2098,-0.0227,0.8831,-6.78,8.18,0.0,31.43
19805,0.2065,-0.0227,0.8798,-6.79,8.08,0.06,31.43
19815,0.2101,-0.0193,0.8766,-6.84,8.03,-0.08,31.41
19825,0.2076,-0.0243,0.8802,-6.9,8.02,0.02,31.43
19835,0.2112,-0.0255,0.885,-6.81,7.98,-0.02,31.4
19845,0.2103,-0.0212,0.8932,-6.79,8.02,-0.08,31.38
19855,0.2083,-0.0195,0.8984,-6.81,8.08,0.02,31.4
19865,0.2063,-0.0133,0.9034,-6.82,8.09,0.02,31.42
19875,0.1989,-0.0042,0.8907,-6.84,7.97,0.02,31.41
19885,0.1941,-0.0028,0.8771,-6.75,8.0,0.0,31.4
19895,0.1989,-0.0054,0.8707,-6.73,7.8,-0.06,31.43
19905,0.2052,-0.0031,0.8815,-6.82,7.79,-0.17,31.44
19915,0.2217,-0.0117,0.8888,-6.93,7.8,-0.15,31.41
19925,0.2311,-0.0193,0.9059,-6.87,7.91,-0.21,31.43
19935,0.2305,-0.0198,0.9091,-6.99,8.08,-0.09,31.43
19945,0.2294,-0.0219,0.9041,-6.85,8.14,-0.03,31.42
19955,0.223,-0.0237,0.9005,-6.87,8.09,-0.12,31.44
19965,0.2189,-0.026,0.8925,-6.93,8.08,-0.15,31.43
19975,0.2151,-0.0325,0.8871,-6.87,8.12,-0.06,31.45
19985,0.2137,-0.0276,0.8798,-6.84,8.02,0.06,31.45
19995,0.208,-0.0203,0.8878,-6.81,7.92,-0.05,31.43
20005,0.2095,-0.019,0.8818,-6.76,8.08,0.0,31.43
20015,0.2083,-0.0132,0.8842,-6.84,7.97,0.02,31.44
20025,0.2112,-0.0057,0.8829,-6.81,7.88,-0.05,31.42
20035,0.2103,-0.0099,0.8822,-6.85,7.82,-0.03,31.41
20045,0.2094,-0.0151,0.8853,-6.89,7.95,-0.02,31.42
20055,0.2102,-0.0236,0.8892,-6.87,7.97,-0.11,31.42
20065,0.2124,-0.0248,0.8907,-6.89,8.03,-0.11,31.44
20075,0.2129,-0.0278,0.8901,-6.76,8.0,-0.06,31.4
20085,0.2114,-0.027,0.8901,-6.73,8.02,0.08,31.4
20095,0.2102,-0.0227,0.89,-6.78,7.95,0.02,31.42
20105,0.2119,-0.0183,0.8866,-6.84,7.86,-0.03,31.4
20115,0.2122,-0.0173,0.8844,-6.76,7.89,-0.08,31.43
20125,0.2133,-0.0151,0.8899,-6.81,7.92,-0.03,31.44
20135,0.2188,-0.017,0.8973,-6.9,8.05,-0.05,31.42
20145,0.223,-0.0184,0.9072,-6.81,8.11,-0.09,31.42
20155,0.2235,-0.0139,0.9058,-6.82,8.17,-0.06,31.44
20165,0.2206,-0.0165,0.8975,-6.72,8.24,-0.05,31.42
20175,0.2145,-0.0162,0.8926,-6.7,8.27,-0.05,31.44
20185,0.1849,-0.0449,0.7853,-6.6,8.38,-0.02,31.45
20196,0.1863,-0.0255,0.8293,-6.98,7.37,0.02,31.45
20206,0.231,-0.0201,0.9127,-6.66,7.5,0.02,31.43
20216,0.2358,-0.0154,0.9518,-6.96,8.12,0.06,31.42
20226,0.2261,-0.0203,0.9208,-6.82,8.24,-0.02,31.42
20236,0.2091,-0.0056,0.9183,-6.81,8.11,-0.11,31.42
20246,0.2117,-0.0015,0.9146,-6.87,8.21,-0.06,31.4
20256,0.1971,-0.0192,0.8837,-6.99,8.47,-0.14,31.44
20266,0.1927,-0.0254,0.8618,-6.98,8.06,-0.15,31.39
20276,0.1986,-0.0319,0.8665,-6.89,7.79,-0.14,31.39
20286,0.2094,-0.0327,0.8816,-6.85,7.95,-0.09,31.44
20296,0.2122,-0.0283,0.8767,-6.84,7.8,-0.09,31.42
20306,0.2194,-0.0176,0.8833,-6.72,7.65,0.02,31.44
20316,0.2241,-0.0087,0.8983,-6.89,7.86,0.06,31.4
20326,0.2203,-0.0074,0.8976,-6.87,8.14,0.03,31.43
20336,0.217,-0.0127,0.8872,-6.85,8.05,0.0,31.44
20346,0.2162,-0.0117,0.8885,-6.73,7.92,-0.05,31.42
20356,0.2161,-0.0189,0.8906,-6.89,8.06,-0.21,31.43
20366,0.214,-0.0264,0.8876,-6.85,8.11,-0.08,31.45
20376,0.212,-0.0271,0.8868,-6.93,7.85,-0.03,31.44
20386,0.2147,-0.0281,0.901,-6.84,7.85,-0.02,31.44
20396,0.2151,-0.0228,0.9056,-6.84,7.97,0.06,31.41
20406,0.2183,-0.0168,0.9065,-6.76,7.94,0.05,31.43
20416,0.2141,-0.0085,0.8978,-6.78,8.06,-0.06,31.42
20426,0.2186,-0.0065,0.8944,-6.85,7.98,-0.11,31.43
20436,0.2184,-0.0128,0.8866,-6.95,8.11,-0.11,31.44
20446,0.2158,-0.0157,0.8861,-6.98,8.17,-0.15,31.46
20456,0.2135,-0.0212,0.8809,-6.85,8.11,-0.12,31.45
20466,0.2122,-0.0209,0.879,-6.87,8.06,-0.03,31.42
20476,0.2108,-0.0242,0.8778,-6.87,8.02,0.0,31.43
20486,0.204,-0.0299,0.8759,-6.85,8.09,0.02,31.44
20496,0.1992,-0.0244,0.873,-6.85,7.92,0.06,31.45
20506,0.1975,-0.0195,0.8787,-6.82,7.97,0.05,31.42
20516,0.2003,-0.0149,0.8842,-6.95,7.95,0.03,31.43
20526,0.2073,-0.0139,0.8917,-6.87,7.92,-0.08,31.43
20536,0.2134,-0.0112,0.9003,-6.84,7.88,-0.15,31.43
20546,0.2157,-0.0145,0.9053,-6.72,8.02,-0.05,31.42
20556,0.2186,-0.0178,0.9033,-6.85,7.86,-0.15,31.43
20566,0.2169,-0.0245,0.9037,-6.76,7.92,-0.18,31.43
20576,0.2195,-0.0201,0.8975,-6.85,7.98,-0.03,31.45
20586,0.2188,-0.02,0.8915,-6.79,8.0,0.0,31.44
20596,0.215,-0.0221,0.8857,-6.85,8.05,-0.02,31.45
20607,0.2169,-0.0201,0.8845,-6.9,8.02,0.08,31.45
20617,0.2145,-0.0189,0.8834,-6.79,8.05,0.06,31.42
20627,0.2202,-0.0183,0.8842,-6.87,8.02,0.0,31.42
20637,0.2196,-0.0188,0.8898,-6.81,7.98,-0.03,31.45
20647,0.2097,-0.0286,0.8929,-6.78,8.17,-0.09,31.43
20658,0.2131,-0.0271,0.8763,-6.93,7.86,-0.08,31.44
20668,0.2065,-0.0211,0.9064,-6.6,8.2,-0.11,31.44
20678,0.2178,-0.0225,0.8744,-6.87,7.97,0.0,31.44
20688,0.2097,-0.015,0.9011,-6.7,8.11,0.06,31.43
20698,0.2128,-0.0111,0.8928,-6.89,7.95,-0.02,31.43
20708,0.2156,-0.0062,0.9015,-6.9,8.08,-0.06,31.42
20718,0.2178,-0.009,0.901,-6.89,8.03,-0.02,31.41
20728,0.2145,-0.0118,0.8982,-6.98,8.11,0.08,31.46
20738,0.2135,-0.019,0.8945,-6.89,8.06,-0.02,31.44
20748,0.2108,-0.0184,0.8805,-6.95,7.95,0.03,31.46
20758,0.2057,-0.0227,0.873,-6.89,7.98,0.0,31.46
20768,0.2013,-0.0234,0.8605,-6.96,8.08,-0.05,31.45
20778,0.2064,-0.0273,0.864,-6.95,7.89,-0.03,31.48
20788,0.2076,-0.028,0.8676,-6.85,8.0,-0.02,31.45
20798,0.2103,-0.0283,0.881,-6.93,7.94,-0.03,31.47
20808,0.2152,-0.0322,0.8947,-6.79,7.85,0.06,31.46
20818,0.2108,-0.0205,0.8973,-6.75,7.86,-0.08,31.44
20828,0.2109,-0.021,0.9031,-6.75,7.85,-0.06,31.43
20838,0.2092,-0.0106,0.8942,-6.72,7.91,-0.03,31.43
20848,0.2111,-0.0032,0.8944,-6.76,7.88,0.05,31.44
20858,0.2118,-0.0111,0.9004,-6.79,7.88,-0.02,31.44
20868,0.2155,-0.0051,0.8993,-6.78,7.95,-0.05,31.45
20878,0.2158,-0.0067,0.8956,-6.89,7.95,-0.12,31.44
20888,0.218,-0.0144,0.8907,-6.9,8.0,-0.03,31.45
20898,0.2164,-0.0149,0.8893,-6.84,8.09,-0.09,31.46
20908,0.2142,-0.0209,0.8801,-6.85,7.95,-0.06,31.43
20918,0.2156,-0.0211,0.8805,-6.76,7.95,0.0,31.42
20928,0.2163,-0.0229,0.8789,-6.9,8.05,0.02,31.42
20938,0.2172,-0.0275,0.8801,-6.85,7.89,-0.03,31.49
20948,0.2222,-0.0291,0.8883,-6.92,7.85,0.02,31.44
20958,0.2229,-0.0303,0.8931,-6.95,7.98,0.09,31.45
20968,0.2195,-0.0269,0.8928,-6.75,7.91,-0.12,31.44
20978,0.2161,-0.0225,0.8934,-6.73,7.95,0.0,31.44
20988,0.2146,-0.019,0.8929,-6.79,8.12,-0.05,31.44
20998,0.2114,-0.0164,0.8938,-6.7,8.12,0.0,31.45
21008,0.2096,-0.0126,0.892,-6.75,7.95,-0.08,31.44
21019,0.2092,-0.0109,0.8867,-6.81,8.06,0.03,31.42
21030,0.2078,-0.0129,0.8905,-6.95,8.02,-0.02,31.42
21040,0.2103,-0.0116,0.8883,-6.99,7.95,-0.05,31.46
21050,0.2079,-0.0149,0.8879,-6.9,7.89,-0.05,31.44
21060,0.208,-0.0155,0.8866,-6.93,7.89,-0.02,31.44
21070,0.2146,-0.019,0.8865,-6.9,7.94,-0.06,31.45
21080,0.2145,-0.0199,0.8834,-6.96,8.03,-0.05,31.45
21090,0.2114,-0.0198,0.89,-6.85,7.98,-0.09,31.46
21100,0.21,-0.0258,0.889,-6.78,8.0,-0.12,31.44
21110,0.2107,-0.0253,0.8877,-6.78,7.86,-0.02,31.46
21120,0.2161,-0.0223,0.8888,-6.84,7.92,-0.03,31.42
21130,0.218,-0.0219,0.8918,-6.84,7.98,-0.11,31.44
21140,0.2161,-0.0157,0.8954,-6.85,7.92,-0.02,31.46
21150,0.214,-0.0132,0.8955,-6.79,8.02,-0.06,31.45
21160,0.2163,-0.0111,0.8933,-6.72,8.02,0.03,31.45
21170,0.215,-0.0155,0.8966,-6.79,8.0,-0.08,31.44
21180,0.2131,-0.0189,0.8872,-6.79,8.11,-0.12,31.46
21190,0.2122,-0.0177,0.8856,-6.9,8.08,-0.05,31.43
21200,0.2095,-0.021,0.884,-6.78,7.98,-0.03,31.47
21210,0.2115,-0.0255,0.891,-6.89,8.0,-0.06,31.45
21220,0.212,-0.0219,0.8868,-6.85,8.03,-0.06,31.43
21230,0.2073,-0.0226,0.8898,-6.75,7.94,-0.14,31.44
21240,0.2098,-0.017,0.885,-6.84,8.0,0.0,31.45
21250,0.2136,-0.0181,0.8842,-6.78,7.98,-0.09,31.46
21260,0.2153,-0.0175,0.8898,-6.85,7.95,-0.06,31.47
21270,0.2114,-0.0166,0.8901,-6.82,8.05,-0.05,31.44
21280,0.2124,-0.0189,0.8904,-6.89,7.95,-0.09,31.44
21296,0.2134,-0.0227,0.8927,-6.81,8.0,-0.11,31.45
21306,0.2131,-0.0232,0.8879,-6.76,7.86,0.03,31.43
21316,0.2126,-0.0199,0.8921,-6.85,7.91,-0.06,31.44
21326,0.2213,-0.0216,0.891,-6.84,7.98,-0.06,31.47
21336,0.2196,-0.0181,0.8915,-6.85,7.97,-0.02,31.44
21346,0.222,-0.0175,0.8885,-6.84,7.95,-0.06,31.45
21356,0.2203,-0.0199,0.8955,-6.78,7.97,-0.08,31.47
21366,0.214,-0.0166,0.8916,-6.9,8.08,0.0,31.44
21376,0.2129,-0.0157,0.8861,-6.93,8.06,-0.08,31.45
21386,0.2073,-0.0349,0.8895,-6.84,8.0,-0.02,31.44
21396,0.2035,-0.0256,0.8527,-6.35,8.76,-0.15,31.42
21406,0.215,0.0072,0.8645,-7.5,4.79,0.49,31.44
21416,0.2614,-0.0375,0.9,-6.08,6.6,0.26,31.44
21426,0.2246,-0.0183,0.8777,-7.63,7.4,-0.09,31.47
21436,0.2349,0.0121,0.8334,-6.53,7.82,-0.12,31.48
21446,0.2034,-0.028,0.9156,-6.93,7.91,-0.08,31.46
21456,0.2303,-0.0454,0.8763,-6.99,7.77,-0.15,31.45
21466,0.2114,-0.0061,0.8967,-6.79,8.23,-0.08,31.47
21476,0.2223,-0.0212,0.8804,-6.89,7.77,0.12,31.49
21486,0.2167,-0.0347,0.9069,-6.72,8.06,0.08,31.47
21496,0.2164,-0.0142,0.8893,-6.81,8.11,-0.06,31.45
21506,0.2186,-0.0077,0.8822,-6.69,8.0,0.06,31.43
21516,0.2156,-0.0221,0.8977,-6.81,8.05,-0.03,31.48
21526,0.2234,-0.0161,0.8942,-6.84,8.27,-0.15,31.47
21536,0.2123,-0.0098,0.8821,-6.84,8.18,0.02,31.45
21546,0.2153,-0.0211,0.8872,-6.76,7.95,0.03,31.44
21556,0.2091,-0.025,0.8875,-6.79,8.08,0.02,31.44
21566,0.1959,-0.009,0.8656,-6.89,7.98,0.0,31.46
21576,0.1823,-0.0111,0.8612,-6.61,7.68,0.09,31.45
21586,0.1675,-0.0148,0.8533,-6.7,7.68,0.02,31.47
21596,0.1687,-0.0013,0.8579,-6.82,7.73,-0.14,31.46
21606,0.1887,-0.0012,0.874,-6.89,7.53,-0.14,31.47
21616,0.2137,-0.0168,0.9159,-6.92,7.66,-0.21,31.46
21626,0.2372,-0.0188,0.9419,-6.98,7.88,-0.2,31.45
21636,0.2424,-0.0249,0.9403,-6.89,7.92,-0.12,31.46
21646,0.2474,-0.0337,0.9343,-6.81,8.0,-0.14,31.46
21656,0.2476,-0.0287,0.9136,-6.85,8.08,-0.15,31.48
21666,0.2402,-0.0321,0.8949,-6.82,8.21,-0.12,31.45
21676,0.2281,-0.025,0.8875,-6.82,8.26,0.05,31.45
21686,0.2185,-0.0194,0.8915,-6.81,8.02,0.03,31.48
21696,0.2164,-0.0127,0.8801,-6.81,7.97,0.09,31.47
21706,0.2081,-0.0157,0.8625,-6.79,8.14,0.0,31.47
21716,0.21,-0.0175,0.8669,-6.81,8.06,-0.02,31.45
21726,0.2007,-0.0145,0.8668,-6.85,8.2,0.02,31.47
21736,0.198,-0.0138,0.8618,-6.85,8.11,-0.03,31.48
21746,0.2017,-0.016,0.8721,-6.82,7.98,-0.06,31.48
21756,0.205,-0.0197,0.8835,-6.72,7.94,0.05,31.48
21766,0.2058,-0.0162,0.8951,-6.84,7.98,-0.11,31.47
21776,0.2063,-0.0232,0.9045,-6.95,7.97,-0.09,31.47
21786,0.2117,-0.0225,0.9071,-6.93,7.82,-0.02,31.49
21796,0.2124,-0.0176,0.9059,-6.85,7.86,0.02,31.47
21806,0.214,-0.0142,0.9041,-6.9,7.94,-0.05,31.44
21816,0.213,-0.0189,0.8982,-6.87,8.06,-0.06,31.45
21827,0.218,-0.0134,0.8932,-6.82,7.98,-0.09,31.46
21837,0.2191,-0.0149,0.8889,-6.82,8.05,-0.05,31.48
21847,0.2168,-0.0221,0.8865,-6.82,8.02,-0.17,31.45
21858,0.2162,-0.0255,0.8787,-6.92,8.08,-0.23,31.47
21868,0.2145,-0.0231,0.8763,-6.78,7.98,-0.03,31.47
21878,0.2144,-0.0245,0.8809,-6.76,8.02,0.06,31.47
21888,0.2151,-0.0173,0.8824,-6.69,7.95,0.02,31.45
21898,0.2122,-0.0123,0.8926,-6.79,7.95,0.02,31.48
21908,0.2112,-0.0133,0.8939,-6.82,8.03,0.14,31.46
21918,0.2128,-0.0172,0.8972,-6.89,8.05,-0.06,31.48
21928,0.2123,-0.0105,0.8945,-6.92,7.98,0.02,31.44
21938,0.212,-0.0164,0.8932,-6.81,8.05,-0.06,31.41
21948,0.2069,-0.0205,0.8988,-6.78,7.98,0.0,31.47
21958,0.2106,-0.0189,0.889,-6.78,8.05,-0.09,31.46
21968,0.2095,-0.0205,0.8896,-6.85,8.05,-0.02,31.46
21978,0.2097,-0.0182,0.885,-6.92,7.85,-0.14,31.45
21988,0.209,-0.0189,0.8871,-6.75,7.94,-0.09,31.44
21998,0.2135,-0.0221,0.8835,-6.9,7.94,-0.05,31.46
22008,0.2128,-0.0201,0.8846,-6.92,7.92,-0.03,31.47
22018,0.2142,-0.0198,0.8854,-6.84,8.08,-0.06,31.47
22028,0.2195,-0.0175,0.8901,-6.92,8.03,-0.05,31.46
22038,0.2153,-0.0181,0.89,-6.87,8.03,-0.09,31.47
22048,0.219,-0.0184,0.8914,-6.96,7.97,0.0,31.46
22058,0.2128,-0.0192,0.8949,-6.82,7.97,0.0,31.44
22068,0.2144,-0.0184,0.8955,-6.84,8.03,-0.05,31.45
22078,0.2152,-0.0142,0.8943,-6.75,7.97,-0.03,31.47
22088,0.2153,-0.0167,0.8921,-6.81,7.94,0.08,31.44
22098,0.2155,-0.0165,0.8884,-6.75,8.0,0.02,31.47
22108,0.214,-0.0184,0.8892,-6.82,7.91,0.02,31.45
22118,0.2125,-0.0206,0.8866,-6.87,8.05,0.02,31.47
22128,0.2104,-0.0192,0.8846,-6.84,7.95,-0.03,31.43
22138,0.215,-0.0193,0.8871,-6.85,7.98,0.03,31.47
22148,0.2147,-0.0178,0.8793,-6.92,7.91,0.02,31.45
22158,0.2112,-0.0146,0.8857,-6.85,8.0,0.05,31.47
22168,0.2097,-0.015,0.8898,-6.87,7.95,-0.05,31.48
22178,0.2109,-0.0138,0.8904,-6.82,7.94,-0.06,31.46
22188,0.2096,-0.0151,0.8906,-6.87,7.98,-0.05,31.44
22198,0.2113,-0.0195,0.8907,-6.85,8.0,-0.06,31.47
22208,0.212,-0.0176,0.8931,-6.92,7.92,-0.03,31.44
22218,0.2124,-0.019,0.8934,-6.87,8.06,0.0,31.46
22228,0.2133,-0.0193,0.8872,-6.84,7.92,-0.05,31.46
22238,0.2122,-0.0194,0.8892,-6.85,7.86,-0.09,31.49
22248,0.2131,-0.0204,0.8926,-6.79,7.88,-0.09,31.47
22258,0.2152,-0.0171,0.8909,-6.79,7.97,-0.06,31.47
22268,0.2179,-0.017,0.89,-6.85,8.03,-0.05,31.47
22278,0.2157,-0.0186,0.8856,-6.82,8.0,0.0,31.47
22288,0.2158,-0.0194,0.8866,-6.84,8.09,-0.02,31.46
22298,0.2139,-0.0168,0.8833,-6.84,8.05,-0.12,31.46
22308,0.2117,-0.0181,0.8883,-6.87,7.94,-0.08,31.48
22318,0.21,-0.0181,0.8893,-6.87,7.98,0.05,31.47
22328,0.212,-0.0201,0.8944,-6.84,7.98,0.0,31.47
22338,0.2124,-0.0193,0.8877,-6.87,8.0,0.05,31.44
22348,0.2142,-0.0192,0.892,-6.76,8.02,-0.03,31.44
22358,0.2139,-0.0197,0.8911,-6.9,7.97,-0.06,31.47
22368,0.2158,-0.0216,0.8918,-6.85,8.06,-0.02,31.48
22378,0.2158,-0.0221,0.8887,-6.89,7.94,0.0,31.49
22388,0.2155,-0.0184,0.8925,-6.79,8.05,-0.02,31.45
22398,0.2137,-0.0184,0.89,-6.92,7.97,-0.02,31.46
22408,0.2141,-0.0162,0.89,-6.76,8.09,-0.06,31.47
22418,0.2111,-0.0116,0.8899,-6.78,8.08,-0.11,31.47
22428,0.2111,-0.0123,0.8859,-6.9,8.0,-0.03,31.48
22438,0.2147,-0.0172,0.8876,-6.93,8.02,-0.05,31.48
22448,0.2091,-0.0106,0.8883,-6.76,7.95,0.03,31.48
22458,0.2113,-0.0352,0.8967,-6.64,8.69,-0.14,31.47
22468,0.2325,-0.0248,0.855,-7.25,7.59,-0.06,31.49
22478,0.1968,0.0259,0.8677,-6.66,7.98,0.03,31.45
22488,0.151,-0.0199,0.8701,-6.61,7.98,-0.02,31.48
22498,0.1638,-0.0245,0.9265,-6.69,8.06,-0.02,31.44
22508,0.2122,-0.0198,0.8287,-7.6,6.52,-0.09,31.47
22518,0.2104,-0.0044,0.9052,-6.09,8.14,-0.09,31.48
22528,0.2335,-0.0211,0.9169,-7.15,7.74,0.14,31.48
22538,0.2168,-0.0132,0.9166,-6.56,8.78,0.06,31.49
22548,0.2206,-0.0056,0.8649,-6.92,7.86,-0.2,31.49
22558,0.2288,-0.0062,0.9091,-6.63,8.0,-0.11,31.47
22568,0.2177,-0.0272,0.9203,-7.11,8.24,0.02,31.47
22578,0.2148,-0.0332,0.8862,-6.81,8.21,-0.05,31.47
22588,0.212,-0.0157,0.9022,-6.87,8.0,0.0,31.49
22598,0.2212,-0.0122,0.8818,-6.75,8.09,0.09,31.47
22608,0.2144,-0.022,0.8856,-6.81,8.21,0.03,31.48
22618,0.2131,-0.0144,0.8666,-6.9,8.09,-0.08,31.47
22628,0.2025,-0.0107,0.874,-6.84,8.02,-0.05,31.48
22638,0.2046,-0.0198,0.8591,-7.05,7.98,-0.06,31.48
22648,0.1971,-0.0199,0.8668,-6.67,8.03,-0.05,31.46
22658,0.2015,-0.0219,0.8838,-6.89,7.66,-0.02,31.47
22668,0.2045,-0.0186,0.9005,-6.87,8.02,0.06,31.47
22678,0.2075,-0.0198,0.9026,-6.85,7.94,0.09,31.48
22688,0.2062,-0.0201,0.8983,-6.79,7.85,-0.06,31.47
22698,0.2112,-0.0253,0.9044,-6.79,7.95,-0.08,31.47
22708,0.2178,-0.0131,0.8999,-7.01,7.69,-0.09,31.47
22718,0.2075,-0.0172,0.8943,-6.69,8.11,-0.11,31.48
22728,0.2125,-0.0192,0.8987,-6.93,7.89,-0.12,31.44
22738,0.2159,-0.0164,0.8895,-6.7,8.0,-0.15,31.49
22748,0.2153,-0.0189,0.8885,-6.84,8.02,-0.2,31.48
22758,0.2148,-0.0149,0.8804,-6.84,8.06,-0.08,31.47
22768,0.2174,-0.0157,0.8844,-6.84,8.09,-0.05,31.47
22778,0.218,-0.0165,0.8812,-6.9,7.97,0.03,31.49
22788,0.22,-0.0153,0.8866,-6.85,7.85,-0.02,31.49
22798,0.2162,-0.015,0.8872,-6.96,7.92,0.0,31.46
22808,0.2146,-0.0155,0.8923,-6.85,8.02,0.0,31.45
22818,0.2164,-0.0188,0.8938,-6.87,8.11,0.05,31.46
22828,0.2136,-0.0209,0.8951,-6.98,8.09,0.0,31.46
22838,0.2134,-0.0238,0.8859,-6.87,8.09,-0.05,31.47
22848,0.2078,-0.028,0.8885,-6.79,8.09,-0.06,31.47
22858,0.2091,-0.0309,0.8853,-6.79,7.97,-0.06,31.47
22868,0.2076,-0.036,0.8796,-6.89,7.88,-0.14,31.46
22878,0.2092,-0.0204,0.8844,-6.69,7.97,-0.06,31.47
22888,0.2079,-0.0065,0.8909,-6.66,8.08,0.05,31.49
22898,0.2111,-0.0115,0.8944,-6.78,7.94,0.02,31.48
22908,0.2078,-0.0037,0.8967,-6.84,7.94,-0.03,31.47
22918,0.2134,-0.0044,0.894,-6.93,7.92,-0.05,31.45
22928,0.2122,-0.0179,0.8953,-6.87,8.06,-0.08,31.49
22938,0.2131,-0.022,0.8944,-6.84,7.98,-0.08,31.49
22948,0.2141,-0.0239,0.8911,-6.9,8.06,-0.02,31.47
22958,0.2153,-0.0243,0.8922,-6.95,8.03,0.02,31.49
22968,0.2134,-0.0244,0.8856,-6.82,8.06,-0.02,31.48
22978,0.2126,-0.0153,0.8896,-6.85,7.95,-0.03,31.48
22988,0.2156,-0.0171,0.8922,-6.79,7.92,-0.03,31.47
22998,0.2145,-0.0188,0.8934,-6.84,8.03,-0.14,31.5
23008,0.2137,-0.0198,0.8918,-6.9,8.05,-0.12,31.46
23018,0.2139,-0.0178,0.8918,-6.85,7.98,-0.06,31.49
23028,0.2125,-0.0234,0.8895,-6.95,8.05,-0.08,31.48
23038,0.2103,-0.0183,0.8844,-6.87,8.05,0.0,31.48
23048,0.2117,-0.0138,0.8864,-6.87,8.0,0.03,31.5
23059,0.2098,-0.021,0.8861,-6.95,8.06,-0.09,31.48
23070,0.2073,-0.015,0.8862,-6.93,7.95,0.02,31.47
23080,0.2112,-0.0186,0.8912,-6.82,7.94,0.02,31.48
23090,0.2084,-0.0197,0.8973,-6.92,8.0,-0.05,31.47
23100,0.2106,-0.0227,0.8926,-6.84,8.02,-0.09,31.47
23110,0.2144,-0.0187,0.8966,-6.85,8.05,-0.17,31.49
23120,0.2173,-0.0212,0.8923,-6.84,7.98,-0.03,31.48
23130,0.2161,-0.0206,0.8909,-6.84,8.0,-0.11,31.48
23140,0.2172,-0.0187,0.8882,-6.75,8.0,-0.05,31.47
23150,0.2162,-0.0198,0.8867,-6.78,7.97,-0.02,31.48
23160,0.2117,-0.0179,0.8906,-6.82,8.05,-0.05,31.49
23170,0.2137,-0.0149,0.8895,-6.76,8.02,-0.02,31.48
23180,0.2067,-0.0183,0.8904,-6.89,8.05,-0.08,31.48
23190,0.2097,-0.0201,0.8888,-6.82,7.98,-0.05,31.43
23200,0.2135,-0.0123,0.8837,-6.84,7.88,-0.02,31.5
23210,0.2079,-0.0204,0.8978,-6.76,8.2,-0.05,31.47
23220,0.2241,-0.0171,0.8708,-7.02,7.66,-0.03,31.49
23230,0.207,-0.0195,0.8989,-6.75,8.15,-0.05,31.48
23240,0.217,-0.0203,0.8816,-6.98,7.83,0.03,31.48
23250,0.2104,-0.0206,0.8914,-6.87,8.12,0.02,31.48
23260,0.2106,-0.0212,0.8842,-6.82,7.91,-0.03,31.49
23270,0.2101,-0.0226,0.8873,-6.76,8.11,-0.09,31.46
23280,0.2119,-0.0219,0.8822,-6.84,7.95,-0.06,31.47
23290,0.2136,-0.0178,0.8873,-6.85,7.91,-0.05,31.48
23300,0.2136,-0.0186,0.8865,-6.89,7.88,-0.05,31.5
23310,0.2119,-0.0155,0.8912,-6.9,7.97,-0.14,31.46
23320,0.2095,-0.0192,0.8849,-6.82,8.0,-0.05,31.48
23330,0.2134,-0.0162,0.8912,-6.87,7.94,-0.02,31.51
23340,0.2122,-0.0199,0.8899,-6.79,8.0,0.11,31.47
23350,0.2107,-0.0165,0.8955,-6.93,7.95,-0.05,31.49
23361,0.2111,-0.0211,0.8899,-6.67,8.03,0.05,31.49
23371,0.2161,-0.0165,0.8861,-6.87,7.91,-0.02,31.47
23382,0.2097,-0.0183,0.8892,-6.75,8.05,-0.05,31.49
23392,0.2131,-0.0173,0.8895,-7.02,7.94,0.03,31.49
23402,0.2115,-0.0162,0.8928,-6.82,8.02,-0.11,31.47
23412,0.2131,-0.0184,0.8921,-6.82,7.88,-0.05,31.47
23422,0.2145,-0.0203,0.8933,-6.89,7.98,-0.05,31.48
23432,0.2119,-0.022,0.8911,-6.89,8.06,-0.06,31.47
23442,0.2125,-0.0188,0.8882,-6.89,7.98,0.06,31.48
23452,0.212,-0.0179,0.8855,-6.87,8.05,0.0,31.51
23462,0.2159,-0.0177,0.8821,-6.95,7.92,0.0,31.49
23472,0.2136,-0.021,0.8878,-6.73,7.97,-0.08,31.49
23482,0.2108,-0.019,0.8881,-7.01,7.94,-0.12,31.48
23492,0.2097,-0.0168,0.89,-6.76,8.09,-0.06,31.49
23502,0.2123,-0.0189,0.8904,-6.87,7.94,-0.06,31.47
23512,0.2102,-0.0094,0.8998,-6.82,7.95,-0.02,31.48
23522,0.2267,-0.0181,0.8845,-6.76,7.53,-0.05,31.48
23532,0.2461,-0.0271,0.8645,-6.96,7.86,-0.02,31.46
23542,0.2313,-0.0189,0.8621,-6.75,7.63,0.0,31.49
23552,0.2098,-0.0197,0.8979,-6.73,8.31,-0.08,31.48
23562,0.2188,-0.0186,0.8824,-6.9,8.0,0.0,31.46
23572,0.2096,-0.0162,0.8967,-6.78,8.15,-0.06,31.48
23582,0.2125,-0.0184,0.8882,-6.85,7.98,-0.11,31.49
23592,0.2202,-0.0203,0.8879,-6.81,7.88,-0.08,31.48
23602,0.2131,-0.0217,0.8881,-6.76,7.98,-0.05,31.52
23612,0.2123,-0.0217,0.8898,-6.85,8.05,0.02,31.5
23622,0.2107,-0.0194,0.8875,-6.84,7.98,0.05,31.47
23632,0.2084,-0.0211,0.89,-6.89,8.02,-0.06,31.49
23642,0.2126,-0.0159,0.8917,-6.89,7.98,-0.06,31.49
23652,0.2108,-0.0134,0.8887,-6.84,7.95,-0.03,31.48
23663,0.2108,-0.0186,0.8933,-6.78,8.06,0.02,31.48
23673,0.2163,-0.014,0.8903,-6.81,8.08,-0.06,31.49
23684,0.2166,-0.0142,0.8878,-6.98,7.97,0.02,31.49
23694,0.214,-0.0186,0.8887,-6.79,7.97,-0.11,31.5
23704,0.2122,-0.0194,0.891,-6.79,8.0,-0.06,31.5
23714,0.2166,-0.022,0.8883,-6.9,7.85,-0.06,31.46
23724,0.2133,-0.0206,0.8866,-6.85,7.97,0.05,31.48
23734,0.2117,-0.0223,0.8868,-6.9,8.03,0.03,31.51
23745,0.2111,-0.0272,0.8903,-6.9,8.09,0.03,31.49
23755,0.2057,-0.026,0.8894,-6.81,8.06,-0.05,31.48
23765,0.2094,-0.0272,0.8896,-6.81,7.98,-0.08,31.5
23775,0.2008,-0.0192,0.8894,-6.7,8.06,-0.02,31.46
23785,0.2043,-0.0208,0.8893,-6.9,7.86,-0.09,31.5
23795,0.2126,-0.0175,0.8739,-6.85,7.6,0.06,31.48
23805,0.2056,0.0012,0.9,-6.63,8.2,-0.03,31.48
23815,0.2185,-0.0071,0.8837,-7.07,7.79,-0.06,31.48
23826,0.2168,-0.0105,0.9012,-6.89,7.91,-0.15,31.53
23836,0.2242,-0.0122,0.8881,-6.96,7.91,-0.08,31.5
23846,0.2166,-0.0211,0.891,-6.79,8.14,-0.15,31.5
23856,0.2175,-0.0239,0.8831,-6.93,7.89,-0.11,31.51
23866,0.2195,-0.0239,0.8921,-6.73,8.08,0.0,31.49
23876,0.2145,-0.0302,0.8939,-6.85,8.03,0.02,31.51
23886,0.2112,-0.0228,0.8916,-6.81,8.02,-0.03,31.49
23896,0.2123,-0.0192,0.8921,-6.73,8.09,-0.08,31.5
23906,0.2113,-0.0193,0.8893,-6.81,8.05,-0.02,31.51
23916,0.2094,-0.0182,0.8888,-6.81,8.02,-0.02,31.48
23926,0.2113,-0.0122,0.8866,-6.87,7.97,-0.05,31.48
23936,0.2062,-0.0156,0.8861,-6.76,8.03,-0.05,31.53
23946,0.2046,-0.0144,0.8822,-6.87,8.12,-0.08,31.51
23956,0.209,-0.0135,0.8812,-6.78,7.92,-0.03,31.52
23966,0.2086,-0.015,0.8857,-6.82,7.89,-0.02,31.52
23976,0.213,-0.0165,0.8888,-6.79,7.94,-0.06,31.49
23986,0.2158,-0.0172,0.8865,-6.87,7.94,-0.05,31.48
23996,0.2156,-0.0199,0.8929,-6.84,7.92,-0.08,31.5
24006,0.2185,-0.0289,0.8942,-6.87,7.98,-0.02,31.51
24016,0.2202,-0.0283,0.9,-6.89,8.02,-0.06,31.51
24026,0.2207,-0.0233,0.8995,-6.78,7.95,0.03,31.51
24036,0.2198,-0.0214,0.9026,-6.84,7.98,-0.03,31.52
24046,0.224,-0.0184,0.8992,-6.79,8.12,-0.02,31.51
24056,0.2207,-0.0132,0.8931,-6.9,8.11,-0.06,31.51
24066,0.215,-0.0146,0.8904,-6.85,8.15,0.03,31.52
24076,0.2113,-0.0188,0.8871,-6.89,8.06,-0.08,31.5
24086,0.2046,-0.0171,0.8845,-6.9,8.06,0.02,31.5
24096,0.207,-0.0187,0.8833,-6.75,8.05,-0.09,31.5
24106,0.2101,-0.0183,0.8879,-6.84,8.06,0.0,31.5
24116,0.2089,-0.016,0.8783,-6.85,8.11,-0.11,31.52
24126,0.202,-0.0162,0.8771,-6.82,8.09,0.05,31.52
24136,0.2067,-0.0204,0.8854,-6.84,7.98,0.06,31.52
24146,0.2047,-0.019,0.8901,-6.87,7.94,0.05,31.52
24156,0.2068,-0.0145,0.8896,-6.81,7.95,0.0,31.5
24166,0.2123,-0.0146,0.8877,-6.85,8.05,0.03,31.5
24176,0.2155,-0.0123,0.8966,-6.9,7.95,-0.05,31.49
24186,0.2161,-0.0151,0.8944,-6.87,8.0,-0.08,31.51
24196,0.2177,-0.0183,0.8943,-6.87,7.97,-0.03,31.51
24206,0.21,-0.0222,0.8922,-6.84,7.94,0.02,31.5
24216,0.212,-0.024,0.8885,-6.9,8.0,0.02,31.51
24226,0.213,-0.0208,0.8918,-6.89,7.98,-0.02,31.49
24236,0.2172,-0.0194,0.8926,-6.87,8.0,-0.05,31.51
24246,0.2207,-0.0198,0.8892,-6.69,7.98,-0.08,31.52
24256,0.2158,-0.0181,0.8909,-6.82,7.98,-0.06,31.5
24266,0.2161,-0.0209,0.8949,-6.92,8.0,-0.03,31.51
24276,0.2191,-0.0225,0.8929,-6.92,8.05,-0.05,31.52
24286,0.2146,-0.0205,0.8921,-6.81,8.06,0.03,31.51
24296,0.2079,-0.02,0.8866,-6.89,8.05,-0.08,31.49
24306,0.2039,-0.0193,0.8802,-6.73,8.02,-0.05,31.51
24316,0.1987,-0.0149,0.881,-6.78,7.92,0.05,31.49
24326,0.2056,-0.0149,0.8857,-6.82,7.91,0.05,31.49
24336,0.222,-0.0133,0.911,-6.78,8.11,0.02,31.5
24346,0.2328,-0.0106,0.9136,-6.85,8.06,-0.02,31.52
24356,0.2312,-0.0146,0.9073,-6.93,8.14,-0.08,31.5
24366,0.1683,-0.0271,0.8369,-6.69,7.71,-0.12,31.5
24376,0.1411,-0.0159,0.8147,-6.6,7.97,-0.23,31.49
24386,0.198,-0.0275,0.882,-6.66,7.89,-0.08,31.51
24396,0.2466,-0.0278,0.912,-6.78,7.33,0.08,31.51
24406,0.2463,0.005,0.9272,-6.93,7.45,0.0,31.51
24416,0.2484,-0.0002,0.9218,-6.79,7.98,-0.15,31.49
24426,0.2339,0.0015,0.905,-6.9,8.46,-0.21,31.48
24436,0.2344,-0.0288,0.9014,-6.79,8.27,-0.14,31.49
24446,0.2365,-0.0406,0.9032,-6.87,8.08,-0.03,31.48
24456,0.2209,-0.042,0.8932,-7.05,8.2,-0.02,31.47
24466,0.212,-0.0487,0.8762,-6.85,8.12,0.18,31.5
24476,0.2103,-0.037,0.8774,-6.76,7.95,0.21,31.5
24486,0.2074,-0.0155,0.875,-6.76,7.97,0.23,31.49
24496,0.205,-0.0159,0.8723,-6.73,7.98,0.15,31.51
24506,0.1959,0.0033,0.876,-6.73,8.0,0.03,31.5
24516,0.1956,0.0049,0.8788,-6.84,7.95,-0.09,31.49
24526,0.1942,-0.0048,0.8801,-6.87,8.0,-0.21,31.5
24536,0.1945,-0.0068,0.8893,-6.92,8.02,-0.15,31.51
24546,0.2,-0.0198,0.8873,-6.82,8.03,-0.12,31.51
24556,0.1973,-0.0201,0.8927,-6.78,7.92,-0.06,31.5
24566,0.2059,-0.0195,0.8958,-6.85,7.85,-0.06,31.51
24576,0.2141,-0.0198,0.8951,-6.93,7.82,-0.02,31.49
24586,0.2197,-0.0159,0.9001,-6.96,7.91,0.0,31.5
24596,0.224,-0.0221,0.9041,-6.92,7.89,-0.03,31.49
24606,0.2261,-0.0258,0.8981,-6.87,7.94,-0.03,31.5
24616,0.23,-0.0179,0.8947,-6.82,7.95,-0.05,31.51
24626,0.2267,-0.0209,0.8884,-6.85,8.09,-0.02,31.5
24636,0.2233,-0.0223,0.886,-6.92,8.15,-0.08,31.5
24646,0.2202,-0.0216,0.881,-6.82,8.17,0.0,31.5
24656,0.2141,-0.0262,0.8773,-6.76,8.12,-0.02,31.51
24666,0.2102,-0.0221,0.879,-6.85,8.06,0.0,31.51
24676,0.2058,-0.022,0.8799,-6.92,7.97,0.02,31.52
24686,0.2065,-0.0188,0.8851,-6.84,7.97,0.03,31.52
24696,0.2122,-0.0162,0.8938,-6.87,7.98,0.05,31.49
24706,0.2107,-0.0142,0.8971,-6.81,7.92,0.02,31.51
24716,0.2115,-0.0168,0.8989,-6.9,7.98,0.05,31.52
24726,0.213,-0.0145,0.8949,-6.78,7.97,0.03,31.52
24736,0.2083,-0.0114,0.8954,-6.92,7.98,-0.09,31.49
24746,0.2091,-0.0149,0.8927,-6.79,8.06,-0.06,31.51
24756,0.2097,-0.0186,0.8885,-6.76,8.12,-0.05,31.51
24766,0.2024,-0.0164,0.88,-6.87,8.0,-0.11,31.51
24776,0.2073,-0.0216,0.8777,-6.87,7.95,-0.15,31.5
24786,0.2087,-0.0208,0.8802,-6.89,7.97,-0.08,31.5
24796,0.2114,-0.0187,0.881,-6.85,7.92,-0.08,31.51
24806,0.2158,-0.0176,0.8931,-6.84,7.91,-0.05,31.53
24816,0.2168,-0.0155,0.8943,-6.92,7.98,-0.12,31.51
24826,0.2207,-0.0192,0.8927,-6.9,7.98,-0.12,31.54
24836,0.2247,-0.0186,0.8959,-6.82,8.05,-0.08,31.52
24846,0.2233,-0.0187,0.8971,-6.72,8.02,-0.08,31.51
24856,0.2249,-0.0229,0.8948,-6.81,7.98,-0.09,31.48
24866,0.2236,-0.0199,0.8925,-6.87,8.06,-0.08,31.5
24876,0.2191,-0.0227,0.8925,-6.85,7.98,-0.05,31.52
24886,0.2122,-0.0195,0.889,-6.79,8.03,0.09,31.52
24896,0.2085,-0.0176,0.8838,-6.85,7.97,0.02,31.51
24906,0.2078,-0.0167,0.8893,-6.76,7.97,-0.06,31.51
24916,0.2076,-0.0125,0.8903,-6.82,8.12,0.0,31.52
24926,0.2001,-0.0167,0.8864,-6.89,8.05,-0.02,31.51
24936,0.1965,-0.0176,0.8818,-6.9,8.08,-0.02,31.51
24946,0.2023,-0.0183,0.88,-6.76,7.97,0.09,31.52
24956,0.2059,-0.0208,0.8859,-6.85,8.09,0.02,31.5
24966,0.2148,-0.0205,0.8895,-6.78,7.97,-0.11,31.5
24976,0.2183,-0.02,0.8948,-6.78,8.05,-0.03,31.52
24986,0.2151,-0.024,0.9058,-6.73,7.95,-0.03,31.52
24996,0.2111,-0.0186,0.9005,-6.92,7.91,-0.06,31.51
25006,0.202,-0.0171,0.896,-6.82,8.06,-0.09,31.5
25016,0.1915,-0.0135,0.8787,-6.84,8.12,0.02,31.51
25026,0.2039,-0.0055,0.8639,-6.92,7.91,0.02,31.52
25036,0.2153,0.0005,0.8735,-6.87,7.73,-0.02,31.5
25046,0.2267,-0.0012,0.885,-6.92,7.83,-0.18,31.49
25056,0.2306,-0.0159,0.8911,-6.82,7.98,-0.08,31.51
25066,0.2261,-0.0298,0.9054,-6.76,7.85,-0.08,31.52
25076,0.2272,-0.0382,0.9067,-6.72,7.97,-0.11,31.52
25086,0.2244,-0.0386,0.9083,-6.87,8.17,0.03,31.49
25096,0.2139,-0.0355,0.8909,-6.78,8.06,0.03,31.52
25106,0.2074,-0.0203,0.8853,-6.87,8.12,0.08,31.5
25116,0.2091,-0.0165,0.881,-6.85,8.03,0.0,31.49
25126,0.2046,-0.0131,0.8806,-6.81,8.09,-0.02,31.51
25136,0.2043,-0.0171,0.8816,-6.81,8.0,-0.06,31.52
25146,0.204,-0.0137,0.8833,-6.73,7.91,-0.08,31.51
25156,0.2101,-0.015,0.8894,-6.84,7.94,-0.15,31.49
25166,0.2089,-0.0132,0.892,-6.76,8.03,-0.11,31.52
25176,0.2119,-0.0165,0.8871,-6.79,7.98,-0.06,31.49
25186,0.2163,-0.0126,0.8885,-6.79,8.0,-0.08,31.51
25196,0.2147,-0.0156,0.8877,-6.87,8.05,-0.05,31.52
25206,0.215,-0.0226,0.8838,-6.9,8.06,-0.08,31.52
25216,0.2122,-0.0255,0.8912,-6.89,8.02,-0.17,31.52
25226,0.2125,-0.0315,0.8973,-6.82,7.91,0.02,31.52
25236,0.2192,-0.0282,0.9055,-6.85,8.0,0.08,31.51
25246,0.2249,-0.0237,0.9119,-6.79,8.0,0.0,31.53
25256,0.2246,-0.0159,0.9133,-6.7,8.21,-0.06,31.51
25266,0.2201,-0.017,0.9012,-6.72,8.2,0.02,31.5
25276,0.1605,-0.0426,0.7352,-6.43,7.42,0.08,31.52
25286,0.1642,-0.0261,0.8154,-6.99,7.74,0.0,31.52
25296,0.2211,-0.0181,0.9209,-7.05,7.65,-0.12,31.48
25306,0.2418,-0.0135,0.9438,-6.9,8.29,0.05,31.53
25316,0.235,-0.0211,0.8933,-6.73,7.6,0.11,31.5
25326,0.2328,-0.0052,0.9233,-6.56,7.79,0.0,31.52
25336,0.2302,0.0,0.9359,-6.84,8.37,0.0,31.52
25346,0.2037,-0.0135,0.8705,-6.98,8.43,-0.06,31.52
25356,0.1859,-0.0309,0.8588,-6.78,7.95,-0.03,31.49
25366,0.193,-0.0338,0.874,-6.9,7.8,-0.03,31.51
25376,0.1924,-0.0297,0.877,-7.02,8.08,-0.03,31.48
25386,0.1948,-0.0402,0.8717,-6.92,7.8,-0.02,31.5
25396,0.2145,-0.0231,0.8889,-6.63,7.56,0.0,31.53
25406,0.2318,-0.0076,0.9056,-6.75,7.92,-0.05,31.52
25416,0.23,-0.0087,0.8956,-6.89,8.17,-0.06,31.51
25426,0.2324,-0.0095,0.8944,-6.85,8.0,-0.12,31.51
25436,0.2361,-0.0103,0.8997,-6.82,8.05,-0.15,31.5
25446,0.2247,-0.0232,0.9022,-6.78,8.31,-0.23,31.52
25456,0.2163,-0.0297,0.8877,-6.81,8.26,-0.08,31.54
25466,0.2123,-0.025,0.8843,-6.92,8.0,-0.02,31.5
25476,0.2137,-0.0209,0.8857,-6.87,7.98,0.05,31.5
25486,0.2114,-0.0264,0.8831,-6.89,8.03,0.06,31.5
25496,0.2079,-0.0199,0.8793,-6.64,7.82,0.06,31.52
25506,0.2026,-0.0132,0.8843,-6.72,7.88,0.09,31.5
25516,0.203,-0.0084,0.8899,-6.85,8.06,0.14,31.49
25527,0.1987,-0.0079,0.8911,-6.95,8.08,0.03,31.53
25537,0.2024,-0.0094,0.8842,-6.82,8.0,-0.09,31.5
25547,0.208,-0.0156,0.8893,-6.81,8.06,-0.11,31.49
25557,0.2114,-0.0228,0.8925,-6.92,8.05,-0.18,31.5
25567,0.2184,-0.0255,0.896,-6.93,8.06,-0.15,31.52
25577,0.2233,-0.0288,0.8954,-6.75,7.94,-0.03,31.49
25587,0.2247,-0.0298,0.8971,-6.82,7.92,-0.06,31.51
25597,0.2246,-0.0214,0.8914,-6.87,8.0,-0.06,31.53
25607,0.2145,-0.0146,0.8846,-6.79,8.03,0.02,31.48
25617,0.2051,-0.0142,0.8772,-6.85,7.95,-0.02,31.5
25627,0.2024,-0.0175,0.8766,-6.89,7.97,-0.05,31.49
25637,0.1976,-0.0115,0.8751,-6.81,7.97,-0.08,31.49
25647,0.2141,-0.0151,0.9009,-6.84,8.17,-0.09,31.5
25657,0.2246,-0.0222,0.9095,-6.99,8.0,-0.11,31.49
25667,0.218,-0.0292,0.8961,-6.87,7.94,0.0,31.49
25677,0.1653,-0.0331,0.8096,-6.69,7.53,0.02,31.51
25687,0.1642,-0.0083,0.856,-6.64,7.77,-0.18,31.51
25697,0.2092,0.0035,0.916,-6.78,7.94,-0.12,31.49
25707,0.2404,-0.0049,0.9347,-6.98,7.76,-0.23,31.48
25717,0.2471,-0.0087,0.9242,-6.95,7.79,-0.2,31.5
25727,0.2542,-0.0181,0.9137,-6.9,7.92,-0.08,31.49
25737,0.2517,-0.0426,0.9095,-6.9,8.31,-0.09,31.52
25747,0.2424,-0.0389,0.8939,-6.93,8.12,0.05,31.5
25757,0.2299,-0.0254,0.8906,-6.84,8.11,0.09,31.52
25767,0.2161,-0.0212,0.8854,-6.96,8.17,0.12,31.49
25777,0.2086,-0.0254,0.8678,-6.81,8.26,0.14,31.48
25787,0.2062,-0.0167,0.8678,-6.81,8.08,0.06,31.51
25797,0.2018,-0.0153,0.8741,-6.95,7.97,0.02,31.49
25807,0.1946,-0.0197,0.8752,-6.89,8.06,0.08,31.5
25817,0.1895,-0.0195,0.8772,-6.72,8.03,-0.02,31.52
25828,0.1897,-0.0104,0.8843,-6.75,7.94,-0.06,31.5
25838,0.1924,-0.0067,0.8889,-6.79,7.92,0.02,31.5
25848,0.198,-0.0126,0.8929,-6.81,7.86,-0.03,31.51
25858,0.2024,-0.0083,0.8928,-6.84,7.79,-0.17,31.51
25868,0.2073,-0.0148,0.8954,-6.78,7.92,-0.17,31.49
25878,0.213,-0.0182,0.9047,-6.75,7.83,-0.14,31.5
25888,0.22,-0.0223,0.9016,-6.81,7.91,-0.11,31.54
25898,0.2223,-0.0183,0.8958,-6.9,7.89,-0.05,31.49
25908,0.2252,-0.0208,0.8983,-6.89,8.0,-0.09,31.51
25918,0.2294,-0.0194,0.8944,-6.96,8.03,-0.08,31.5
25928,0.2271,-0.0182,0.8824,-6.95,8.05,-0.03,31.52
25938,0.2238,-0.0194,0.8795,-6.85,8.09,-0.05,31.53
25948,0.2214,-0.0173,0.8796,-6.81,8.0,0.02,31.51
25958,0.2164,-0.0203,0.8817,-6.82,8.08,-0.02,31.5
25968,0.2155,-0.0247,0.8842,-6.95,8.02,-0.12,31.51
25978,0.2097,-0.0281,0.8911,-6.84,7.97,-0.02,31.51
25988,0.2086,-0.0283,0.8873,-6.84,8.0,0.08,31.49
25998,0.2092,-0.0219,0.8905,-6.82,8.05,0.05,31.49
26008,0.2087,-0.0195,0.891,-6.82,7.98,0.05,31.51
26018,0.2063,-0.0153,0.8959,-6.79,8.02,0.05,31.49
26028,0.2074,-0.0173,0.9015,-6.98,8.03,0.02,31.48
26038,0.2069,-0.0122,0.8977,-6.84,8.05,0.05,31.52
26048,0.2068,-0.0125,0.8927,-6.85,8.03,-0.03,31.49
26058,0.2114,-0.0166,0.8861,-6.76,8.05,-0.09,31.48
26068,0.2098,-0.0193,0.8868,-6.89,8.0,-0.11,31.52
26078,0.2078,-0.02,0.8816,-6.82,7.95,0.02,31.52
26088,0.2106,-0.0181,0.8794,-6.89,7.95,-0.09,31.51
26098,0.2153,-0.0198,0.8873,-6.87,8.0,-0.08,31.51
26108,0.2175,-0.0199,0.8861,-6.93,8.06,-0.14,31.54
26118,0.2175,-0.0214,0.8843,-6.87,7.98,-0.03,31.52
26128,0.2186,-0.0183,0.8867,-6.85,7.97,0.05,31.52
26138,0.2133,-0.0177,0.8937,-6.89,8.03,-0.03,31.52
26148,0.2122,-0.0176,0.8926,-6.78,8.09,0.02,31.52
26158,0.212,-0.0203,0.8916,-6.82,7.97,-0.02,31.52
26168,0.2129,-0.0197,0.8951,-6.9,8.02,-0.02,31.53
26178,0.2119,-0.0176,0.8962,-6.81,8.0,-0.05,31.51
26188,0.2119,-0.0208,0.8876,-6.78,7.91,0.02,31.51
26198,0.2114,-0.017,0.8868,-6.9,8.0,-0.05,31.51
26208,0.2097,-0.0181,0.8872,-6.84,7.95,-0.09,31.51
26218,0.2114,-0.0166,0.8843,-6.84,8.02,-0.02,31.53
26228,0.2139,-0.0171,0.8845,-6.76,8.11,0.03,31.52
26238,0.2122,-0.0198,0.8838,-6.92,8.0,-0.08,31.52
26248,0.2125,-0.0208,0.8839,-6.92,7.98,-0.05,31.52
26258,0.213,-0.0189,0.8881,-6.82,8.02,-0.05,31.52
26268,0.2151,-0.0165,0.8934,-6.81,8.02,-0.05,31.5
26278,0.2152,-0.0148,0.8969,-6.76,7.95,-0.02,31.54
26288,0.2118,-0.0172,0.8962,-6.9,7.92,-0.02,31.52
26298,0.2139,-0.0219,0.8929,-6.89,8.02,-0.09,31.52
26308,0.2145,-0.0198,0.892,-6.92,8.02,-0.14,31.52
26318,0.2135,-0.0232,0.8894,-6.85,8.02,-0.02,31.52
26328,0.2103,-0.0161,0.8879,-6.84,7.92,0.0,31.5
26338,0.2118,-0.0166,0.8864,-6.79,8.02,0.05,31.54
26348,0.2111,-0.0126,0.8896,-6.98,8.02,0.0,31.52
26358,0.2136,-0.0134,0.886,-6.89,8.0,-0.11,31.54
26368,0.2133,-0.0137,0.8866,-6.78,7.98,-0.12,31.52
26378,0.2145,-0.0179,0.8893,-6.85,8.0,-0.03,31.51
26388,0.2168,-0.0183,0.8887,-7.01,7.97,-0.03,31.51
26398,0.2135,-0.0184,0.8878,-6.76,7.98,-0.02,31.51
26408,0.213,-0.0189,0.8895,-6.84,7.97,0.0,31.5
26418,0.2124,-0.0197,0.891,-6.92,8.02,0.03,31.52
26428,0.2097,-0.0211,0.8856,-6.87,8.03,0.03,31.53
26438,0.2109,-0.022,0.8906,-6.92,8.05,0.0,31.49
26448,0.2136,-0.0205,0.8925,-6.82,8.06,-0.09,31.52
26458,0.2137,-0.0222,0.892,-6.85,7.92,-0.05,31.53
26468,0.2139,-0.0183,0.8904,-6.82,8.03,-0.02,31.52
26478,0.2117,-0.0199,0.8871,-6.76,8.09,-0.05,31.52
26488,0.2125,-0.0179,0.8926,-6.85,7.95,-0.08,31.51
26498,0.2137,-0.0156,0.8895,-6.89,8.06,-0.05,31.55
26508,0.213,-0.0145,0.8873,-6.79,7.95,0.06,31.52
26518,0.2119,-0.0135,0.8878,-6.81,7.95,-0.06,31.52
26528,0.2145,-0.0193,0.8914,-6.85,8.02,0.0,31.52
26538,0.2113,-0.0175,0.8851,-6.85,7.97,-0.03,31.55
26548,0.212,-0.022,0.8849,-6.85,8.06,0.02,31.53
26558,0.2119,-0.0214,0.8883,-6.82,7.95,-0.05,31.51
26568,0.2118,-0.0179,0.8885,-6.84,7.98,-0.08,31.51
26578,0.2085,-0.0214,0.8901,-6.79,7.92,0.0,31.53
26588,0.2144,-0.0214,0.8892,-6.82,7.94,-0.08,31.5
26598,0.2134,-0.0211,0.8914,-6.81,7.94,-0.11,31.53
26608,0.2152,-0.0166,0.8914,-6.9,8.02,0.0,31.52
26619,0.2144,-0.0194,0.8881,-6.87,8.0,-0.02,31.53
26629,0.2137,-0.0189,0.8916,-6.82,7.98,-0.06,31.54
26640,0.2122,-0.0189,0.8865,-6.81,8.02,0.03,31.53
26650,0.215,-0.0176,0.8888,-6.85,8.0,-0.03,31.52
26660,0.2137,-0.0167,0.8875,-6.79,8.08,-0.03,31.51
26670,0.2122,-0.0164,0.8844,-6.76,7.92,-0.14,31.52
26680,0.2119,-0.0173,0.8892,-6.85,7.95,0.06,31.55
26690,0.2101,-0.0192,0.8925,-6.78,7.92,0.03,31.53
26700,0.2119,-0.0192,0.8896,-6.92,8.05,-0.2,31.53
26710,0.2123,-0.0166,0.8937,-6.93,8.05,-0.05,31.54
26720,0.213,-0.0194,0.8918,-6.89,8.03,0.03,31.52
26730,0.2137,-0.0214,0.8872,-6.95,8.03,-0.06,31.54
26740,0.214,-0.0173,0.8861,-6.89,8.02,-0.05,31.54
26750,0.2107,-0.02,0.8857,-6.79,8.0,0.03,31.55
26760,0.2124,-0.0189,0.892,-6.85,8.03,-0.09,31.53
26770,0.2111,-0.02,0.8909,-6.81,8.03,0.03,31.54
26780,0.2092,-0.0177,0.8895,-6.81,8.02,-0.08,31.53
26790,0.2118,-0.0167,0.8905,-6.9,8.02,-0.02,31.53
26800,0.2131,-0.0156,0.8892,-6.87,8.12,-0.03,31.54
26810,0.214,-0.0178,0.8905,-6.9,7.98,0.03,31.54
26820,0.2114,-0.0182,0.8927,-6.79,8.02,-0.05,31.52
26830,0.2131,-0.0155,0.8911,-6.89,7.98,-0.05,31.56
26840,0.213,-0.0162,0.8916,-6.81,7.95,-0.11,31.54
26850,0.2142,-0.0177,0.8899,-6.89,7.97,-0.06,31.54
26860,0.2108,-0.0201,0.8928,-6.78,7.95,-0.06,31.54
26870,0.2128,-0.0236,0.8868,-6.81,8.05,0.0,31.54
26880,0.2108,-0.0205,0.8867,-6.92,8.06,-0.03,31.55
26890,0.2106,-0.0209,0.8879,-6.84,8.02,0.0,31.53
26900,0.2122,-0.02,0.8861,-6.82,8.0,0.05,31.56
26910,0.2087,-0.0182,0.8937,-6.84,7.95,-0.02,31.54
26920,0.2142,-0.0193,0.8873,-6.84,7.95,0.03,31.52
26930,0.2141,-0.0159,0.8896,-6.76,7.95,-0.06,31.52
26940,0.2128,-0.014,0.8907,-6.87,8.08,-0.06,31.52
26950,0.2139,-0.0148,0.8899,-6.79,8.03,-0.02,31.52
26960,0.2164,-0.0175,0.8926,-6.82,8.06,-0.05,31.53
26970,0.2148,-0.0186,0.8959,-6.9,8.02,-0.14,31.56
26980,0.2155,-0.0149,0.8928,-6.87,8.05,-0.08,31.54
26990,0.2129,-0.0161,0.8933,-6.93,7.95,-0.06,31.52
27000,0.2145,-0.0164,0.8928,-6.89,8.02,-0.03,31.54
27010,0.2133,-0.02,0.8896,-6.89,8.05,0.02,31.52
27020,0.2094,-0.0186,0.8875,-6.87,8.05,-0.02,31.55
27030,0.21,-0.0223,0.8892,-6.81,8.0,-0.05,31.54
27040,0.2111,-0.0234,0.8872,-6.81,7.95,0.02,31.51
27050,0.2113,-0.0208,0.8856,-6.85,8.05,-0.05,31.54
27060,0.2124,-0.0199,0.8875,-6.87,7.94,-0.02,31.54
27070,0.2114,-0.0178,0.8879,-6.87,8.05,-0.11,31.55
27080,0.2145,-0.0175,0.8887,-6.87,7.94,-0.03,31.54
27090,0.2153,-0.0173,0.8875,-6.84,7.97,0.0,31.54
27100,0.2147,-0.0156,0.8843,-6.82,7.98,-0.08,31.53
27110,0.2148,-0.0189,0.8887,-6.87,7.98,0.06,31.55
27120,0.2126,-0.0195,0.8921,-6.89,7.98,-0.03,31.53
27130,0.2158,-0.0197,0.8912,-6.92,8.06,-0.05,31.53
27140,0.2128,-0.0193,0.8893,-6.79,8.06,-0.02,31.54
27150,0.212,-0.0181,0.8866,-6.93,7.98,0.02,31.56
27160,0.2098,-0.0183,0.889,-6.87,8.09,-0.03,31.56
27170,0.2102,-0.0178,0.8905,-6.79,7.95,-0.03,31.56
27180,0.2129,-0.0186,0.8884,-6.82,8.0,-0.05,31.54
27190,0.2146,-0.0203,0.8877,-6.89,7.95,-0.09,31.52
27200,0.2114,-0.0173,0.8907,-6.9,8.05,-0.03,31.53
27210,0.2136,-0.02,0.892,-6.82,8.0,-0.09,31.55
27220,0.2153,-0.0198,0.891,-6.93,7.98,0.05,31.55
27230,0.2109,-0.019,0.889,-6.79,8.06,-0.05,31.58
27240,0.214,-0.0175,0.8887,-6.87,7.94,-0.11,31.54
27250,0.2104,-0.017,0.8866,-7.04,8.03,-0.11,31.52
27260,0.2125,-0.017,0.8896,-6.89,7.94,-0.02,31.53
27270,0.2142,-0.0212,0.8915,-6.81,7.95,-0.03,31.52
27280,0.2125,-0.02,0.8922,-6.82,7.94,-0.03,31.53
27291,0.214,-0.0193,0.887,-6.9,8.02,-0.03,31.53
27301,0.2133,-0.0187,0.8879,-6.89,8.05,-0.05,31.54
27311,0.2103,-0.022,0.8881,-6.81,7.89,0.0,31.54
27321,0.2134,-0.0262,0.8866,-6.85,8.05,0.0,31.54
27331,0.2133,-0.0258,0.887,-6.82,7.92,-0.05,31.53
27341,0.208,-0.0187,0.8857,-6.84,7.94,-0.05,31.51
27351,0.2094,-0.0127,0.8917,-6.81,7.92,-0.08,31.51
27361,0.2135,-0.0146,0.8959,-6.85,7.88,-0.03,31.53
27372,0.2142,-0.0214,0.8884,-6.79,8.0,-0.11,31.53
27382,0.2147,-0.0226,0.8866,-6.79,7.95,-0.02,31.53
27392,0.2126,-0.0243,0.8965,-6.81,8.05,-0.02,31.53
27402,0.2137,-0.0276,0.8839,-6.75,8.05,0.02,31.54
27412,0.2136,-0.0209,0.8854,-6.7,7.98,-0.03,31.57
27422,0.2141,0.0005,0.8866,-6.82,7.91,0.12,31.54
27432,0.2177,0.0031,0.8998,-6.92,8.11,0.12,31.54
27442,0.2139,0.0059,0.8982,-6.9,8.08,-0.09,31.53
27452,0.217,-0.0027,0.8984,-6.92,8.02,-0.11,31.54
27462,0.212,-0.0153,0.891,-6.81,8.06,-0.15,31.53
