t_ms,accel_x_g,accel_y_g,accel_z_g,gyro_x_dps,gyro_y_dps,gyro_z_dps,imu_temp_c
3279,0.2052,-0.1403,0.8715,-6.09,7.73,-0.11,20.24
3290,0.2045,-0.1438,0.876,-6.11,7.71,-0.02,20.25
3301,0.2073,-0.1449,0.8705,-6.06,7.71,0.0,20.25
3311,0.2073,-0.1475,0.8745,-6.08,7.79,0.0,20.26
3321,0.2052,-0.1421,0.8727,-6.02,7.74,-0.14,20.27
3331,0.2045,-0.145,0.8749,-6.05,7.79,-0.06,20.25
3341,0.2067,-0.1427,0.8723,-6.05,7.69,-0.08,20.23
3351,0.2111,-0.1418,0.8743,-6.02,7.73,-0.15,20.29
3361,0.208,-0.1428,0.8734,-6.12,7.71,-0.11,20.27
3371,0.21,-0.1431,0.8724,-6.08,7.79,0.03,20.26
3381,0.2063,-0.1417,0.8795,-6.14,7.74,0.0,20.26
3391,0.2053,-0.1429,0.8783,-6.14,7.76,-0.02,20.28
3401,0.2059,-0.1429,0.8741,-5.98,7.66,-0.12,20.25
3411,0.2092,-0.1432,0.873,-6.0,7.66,-0.03,20.26
3421,0.2064,-0.1437,0.8756,-6.05,7.8,0.06,20.29
3431,0.2079,-0.1433,0.8746,-6.08,7.83,0.02,20.27
3441,0.205,-0.144,0.8716,-6.11,7.8,-0.02,20.28
3451,0.2076,-0.1451,0.8749,-6.06,7.77,0.06,20.29
3461,0.2085,-0.1416,0.8706,-5.95,7.71,-0.09,20.26
3471,0.2065,-0.1411,0.8723,-6.02,7.69,-0.06,20.28
3481,0.2064,-0.1421,0.8743,-5.94,7.65,-0.03,20.29
3491,0.2045,-0.1438,0.8746,-6.02,7.71,-0.02,20.3
3501,0.2075,-0.1418,0.8767,-6.06,7.73,-0.03,20.29
3511,0.2074,-0.1442,0.8737,-6.15,7.76,-0.02,20.29
3521,0.2072,-0.1429,0.8733,-6.05,7.74,-0.11,20.28
3531,0.2089,-0.1398,0.8702,-6.08,7.71,-0.09,20.31
3541,0.2062,-0.1442,0.8698,-6.06,7.68,-0.08,20.31
3551,0.207,-0.1428,0.87,-6.11,7.77,-0.05,20.27
3561,0.2051,-0.1429,0.874,-6.02,7.82,0.0,20.29
3571,0.2087,-0.1459,0.8748,-6.09,7.74,-0.06,20.28
3581,0.2086,-0.1439,0.8754,-6.18,7.79,-0.08,20.29
3591,0.2073,-0.1422,0.8726,-6.11,7.73,-0.05,20.28
3601,0.2054,-0.142,0.8712,-6.12,7.73,-0.06,20.27
3611,0.2063,-0.1426,0.8726,-6.05,7.83,-0.08,20.29
3621,0.2079,-0.1421,0.8713,-5.97,7.79,-0.05,20.31
3631,0.2058,-0.1459,0.8677,-6.0,7.69,0.0,20.28
3641,0.2048,-0.1451,0.8743,-5.86,7.74,-0.03,20.29
3651,0.208,-0.1438,0.874,-5.94,7.69,-0.06,20.3
3661,0.2065,-0.1423,0.8744,-6.17,7.65,-0.06,20.27
3671,0.2074,-0.1429,0.8735,-6.21,7.68,-0.15,20.3
3681,0.2072,-0.1448,0.8733,-6.26,7.82,-0.08,20.3
3691,0.2045,-0.1454,0.8738,-6.09,7.85,-0.06,20.27
3701,0.2067,-0.1442,0.8744,-6.05,7.82,-0.02,20.29
3711,0.2072,-0.1425,0.8707,-6.05,7.74,-0.06,20.3
3721,0.2069,-0.1454,0.8724,-6.0,7.68,-0.05,20.29
3731,0.2074,-0.144,0.8739,-6.0,7.71,-0.12,20.3
3741,0.2065,-0.1426,0.8748,-6.05,7.73,-0.11,20.29
3751,0.2103,-0.1443,0.8732,-6.17,7.77,-0.03,20.28
3761,0.2092,-0.1444,0.8738,-6.08,7.76,-0.02,20.32
3771,0.2073,-0.1409,0.873,-6.0,7.74,-0.08,20.29
3781,0.2067,-0.1447,0.8737,-5.97,7.66,-0.02,20.28
3791,0.2069,-0.1431,0.8717,-5.89,7.66,-0.08,20.3
3801,0.2076,-0.1433,0.8718,-6.05,7.73,-0.08,20.28
3811,0.2064,-0.1434,0.8737,-6.06,7.76,-0.09,20.29
3821,0.2072,-0.1426,0.8759,-6.23,7.88,-0.06,20.3
3831,0.2047,-0.1432,0.8733,-6.14,7.88,-0.08,20.32
3841,0.2067,-0.1403,0.8715,-6.02,7.76,-0.03,20.29
3851,0.2065,-0.1444,0.8739,-6.03,7.69,-0.03,20.3
3861,0.2041,-0.1448,0.8713,-6.02,7.66,-0.09,20.3
3871,0.2057,-0.1456,0.8754,-5.95,7.71,-0.06,20.3
3881,0.2085,-0.142,0.8738,-6.05,7.77,-0.02,20.3
3891,0.2079,-0.1469,0.873,-6.14,7.79,-0.06,20.3
3901,0.2094,-0.145,0.8745,-6.09,7.77,-0.02,20.29
3911,0.2068,-0.141,0.8735,-6.02,7.71,-0.06,20.31
3921,0.2112,-0.1448,0.8734,-5.97,7.71,-0.09,20.3
3931,0.2075,-0.1451,0.8746,-5.94,7.65,-0.08,20.31
3941,0.2064,-0.1434,0.8754,-5.89,7.74,-0.08,20.31
3951,0.2069,-0.1417,0.8771,-6.02,7.74,-0.03,20.3
3961,0.21,-0.141,0.8818,-6.05,7.71,-0.03,20.3
3971,0.2086,-0.1416,0.8776,-6.06,7.69,-0.08,20.33
3981,0.2075,-0.1426,0.8711,-6.15,7.79,-0.06,20.32
3991,0.2051,-0.1427,0.8757,-6.11,7.82,-0.03,20.32
4001,0.2084,-0.1437,0.8765,-6.09,7.73,-0.02,20.29
4011,0.2069,-0.1447,0.8746,-6.14,7.79,-0.08,20.31
4021,0.2061,-0.1453,0.8712,-6.06,7.69,-0.08,20.31
4031,0.2065,-0.1453,0.8701,-6.09,7.79,-0.06,20.33
4041,0.205,-0.1455,0.8735,-6.05,7.8,-0.08,20.3
4051,0.2051,-0.1417,0.8691,-5.97,7.74,-0.02,20.31
4061,0.2063,-0.1447,0.8744,-5.95,7.73,-0.06,20.32
4071,0.207,-0.1426,0.8749,-6.08,7.73,-0.06,20.33
4081,0.2068,-0.1429,0.8717,-6.17,7.73,-0.05,20.32
4091,0.2089,-0.1436,0.8687,-6.17,7.8,-0.02,20.35
4101,0.2067,-0.1453,0.8661,-6.21,7.74,-0.06,20.34
4111,0.2092,-0.144,0.8683,-6.0,7.8,-0.03,20.3
4121,0.2051,-0.1437,0.8739,-5.85,7.82,-0.06,20.33
4131,0.2054,-0.1426,0.8737,-5.82,7.71,-0.05,20.33
4141,0.208,-0.1416,0.8715,-6.02,7.65,-0.02,20.33
4152,0.2078,-0.144,0.8752,-6.18,7.68,-0.06,20.33
4162,0.2075,-0.1426,0.8751,-6.21,7.92,-0.03,20.34
4172,0.2063,-0.1449,0.8743,-6.18,8.0,0.0,20.32
4182,0.2046,-0.1467,0.8707,-6.15,7.89,-0.02,20.32
4192,0.2057,-0.1449,0.8748,-5.94,7.74,0.0,20.31
4202,0.2079,-0.1436,0.8751,-5.92,7.59,0.0,20.33
4212,0.2059,-0.1437,0.8772,-5.92,7.62,-0.11,20.31
4222,0.2075,-0.1418,0.8754,-6.11,7.6,-0.08,20.32
4232,0.2078,-0.1428,0.875,-6.09,7.77,0.02,20.33
4242,0.2051,-0.1421,0.8762,-6.08,7.95,0.05,20.31
4252,0.2073,-0.1462,0.8778,-6.09,7.82,-0.15,20.33
4262,0.2037,-0.1447,0.8757,-6.08,7.69,-0.09,20.32
4272,0.208,-0.1431,0.8787,-6.12,7.62,-0.06,20.33
4282,0.2056,-0.1425,0.8754,-6.14,7.69,-0.05,20.32
4292,0.2101,-0.1455,0.8755,-6.14,7.88,0.02,20.33
4302,0.2065,-0.1469,0.8695,-6.08,7.97,-0.05,20.35
4312,0.2091,-0.1418,0.8701,-6.03,7.79,-0.06,20.36
4322,0.2051,-0.1422,0.8737,-5.88,7.54,-0.05,20.34
4332,0.209,-0.1392,0.87,-5.86,7.44,-0.06,20.33
4342,0.2096,-0.1411,0.8694,-6.11,7.5,-0.09,20.32
4352,0.2101,-0.1418,0.8698,-6.17,7.77,0.0,20.34
4362,0.2117,-0.1465,0.8662,-6.26,7.86,0.31,20.32
4372,0.2118,-0.1448,0.8688,-6.29,7.97,-0.02,20.32
4383,0.2043,-0.1416,0.8739,-5.95,7.82,-0.02,20.34
4394,0.2061,-0.1428,0.8695,-5.76,7.54,0.0,20.34
4404,0.2053,-0.1426,0.8717,-5.97,7.62,0.0,20.32
4414,0.2019,-0.1433,0.8745,-6.18,7.77,-0.03,20.34
4424,0.2025,-0.146,0.8722,-6.37,7.86,-0.06,20.34
4434,0.2065,-0.1444,0.8672,-6.41,7.88,-0.05,20.34
4444,0.204,-0.1449,0.8682,-6.12,7.79,-0.02,20.35
4454,0.2043,-0.1436,0.8694,-5.77,7.68,0.03,20.33
4464,0.2057,-0.1399,0.8809,-5.57,7.68,0.02,20.32
4474,0.2029,-0.1407,0.8838,-5.71,7.54,0.05,20.33
4484,0.204,-0.1361,0.8744,-6.06,7.3,-0.12,20.35
4494,0.2152,-0.1404,0.8745,-6.32,7.28,-0.17,20.34
4504,0.2197,-0.1472,0.8748,-6.46,7.73,-0.17,20.33
4514,0.2214,-0.1461,0.8774,-6.11,8.31,0.02,20.33
4524,0.2128,-0.147,0.8866,-5.76,8.4,0.11,20.31
4534,0.2065,-0.1455,0.889,-5.57,7.95,0.0,20.33
4544,0.2056,-0.1427,0.8805,-5.98,7.15,-0.11,20.33
4554,0.2096,-0.141,0.8698,-6.66,7.05,-0.12,20.33
4564,0.2124,-0.1445,0.8574,-6.84,7.83,-0.15,20.34
4574,0.2075,-0.1453,0.8586,-6.53,8.66,-0.05,20.33
4584,0.2039,-0.149,0.8649,-6.02,8.75,0.02,20.33
4594,0.1976,-0.1469,0.869,-5.48,7.83,-0.02,20.32
4604,0.1996,-0.1432,0.8743,-5.18,6.85,-0.12,20.35
4614,0.2034,-0.1388,0.8789,-5.44,6.64,-0.14,20.34
4624,0.2078,-0.1394,0.8783,-6.06,7.5,-0.11,20.35
4634,0.205,-0.1398,0.8711,-6.58,8.41,-0.06,20.34
4644,0.2037,-0.141,0.873,-6.75,8.69,0.0,20.36
4654,0.2018,-0.1449,0.8741,-6.47,8.05,0.02,20.33
4664,0.2018,-0.1443,0.8721,-5.95,7.27,-0.08,20.34
4674,0.21,-0.1409,0.8679,-5.63,6.95,-0.05,20.32
4684,0.2125,-0.1405,0.8727,-5.68,7.34,0.0,20.34
4694,0.2113,-0.1412,0.8721,-5.89,8.14,0.05,20.35
4704,0.2074,-0.1438,0.8773,-6.24,8.43,0.11,20.34
4714,0.2036,-0.1415,0.8782,-6.4,8.05,-0.08,20.34
4724,0.207,-0.1405,0.8751,-6.26,7.44,-0.03,20.33
4734,0.2089,-0.1406,0.8716,-6.14,7.19,-0.09,20.35
4744,0.2102,-0.145,0.8726,-5.98,7.57,-0.03,20.33
4754,0.2097,-0.1453,0.8711,-5.89,8.11,0.02,20.35
4764,0.2078,-0.144,0.8746,-5.85,8.2,0.05,20.36
4774,0.2028,-0.145,0.8827,-6.11,7.85,0.05,20.34
4784,0.2047,-0.1436,0.8785,-6.21,7.4,-0.08,20.34
4794,0.2102,-0.1434,0.8768,-6.26,7.36,-0.09,20.35
4804,0.2103,-0.1425,0.8748,-6.15,7.71,-0.02,20.34
4814,0.2102,-0.1436,0.8754,-5.83,7.98,-0.06,20.37
4824,0.2067,-0.1434,0.8809,-5.8,7.94,0.05,20.37
4834,0.2056,-0.1437,0.8839,-5.77,7.57,0.0,20.36
4844,0.2084,-0.1427,0.8821,-6.02,7.42,-0.18,20.35
4854,0.2107,-0.142,0.8761,-6.27,7.54,-0.15,20.35
4864,0.2101,-0.1429,0.8744,-6.5,7.98,-0.06,20.37
4874,0.2083,-0.1478,0.8702,-6.46,8.2,0.02,20.37
4884,0.2085,-0.1467,0.8715,-6.08,8.02,0.0,20.36
4894,0.2072,-0.1471,0.8721,-5.89,7.62,-0.08,20.34
4904,0.208,-0.1432,0.8772,-5.74,7.3,-0.06,20.34
4914,0.2064,-0.1405,0.8745,-5.82,7.33,-0.08,20.35
4924,0.2101,-0.1422,0.8744,-6.03,7.74,-0.08,20.34
4934,0.2085,-0.1432,0.8721,-6.2,8.06,-0.06,20.34
4944,0.2063,-0.1404,0.87,-6.26,8.09,-0.06,20.36
4954,0.2031,-0.1401,0.8695,-6.18,7.89,-0.09,20.36
4964,0.2037,-0.14,0.8687,-6.08,7.54,-0.03,20.35
4974,0.2032,-0.1416,0.8649,-6.06,7.47,-0.11,20.37
4984,0.2028,-0.1431,0.8683,-6.06,7.65,-0.11,20.35
4994,0.205,-0.1432,0.8679,-6.08,7.86,-0.02,20.35
5004,0.1985,-0.1453,0.874,-6.14,8.11,0.02,20.36
5014,0.198,-0.1498,0.8728,-6.09,7.98,0.08,20.35
5024,0.2032,-0.146,0.8767,-6.08,7.63,-0.06,20.34
5034,0.204,-0.142,0.8755,-5.95,7.44,-0.05,20.34
5044,0.2122,-0.1401,0.8766,-5.54,7.42,-0.02,20.39
5054,0.2146,-0.1362,0.8866,-5.45,7.68,-0.06,20.37
5064,0.2106,-0.1394,0.8894,-5.82,7.79,0.08,20.34
5074,0.212,-0.1422,0.887,-6.34,7.74,-0.11,20.35
5084,0.2113,-0.1498,0.8799,-6.89,7.89,-0.03,20.33
5094,0.2096,-0.1481,0.8629,-7.08,7.94,-0.14,20.36
5104,0.2117,-0.1492,0.8594,-6.82,7.91,-0.14,20.4
5114,0.2119,-0.1499,0.8607,-6.03,7.91,0.05,20.37
5124,0.2111,-0.1438,0.8652,-5.1,7.86,0.17,20.37
5134,0.2067,-0.1379,0.8787,-4.79,7.6,0.03,20.36
5144,0.2012,-0.1366,0.8744,-5.42,6.85,0.03,20.37
5154,0.2058,-0.1299,0.8763,-6.53,6.69,-0.24,20.35
5164,0.2168,-0.1389,0.8656,-7.05,7.53,-0.23,20.35
5174,0.2224,-0.1471,0.8705,-6.87,8.85,0.02,20.39
5184,0.2106,-0.1512,0.8746,-6.0,9.08,0.17,20.39
5194,0.2039,-0.1516,0.8845,-5.5,8.29,0.0,20.37
5204,0.1982,-0.1455,0.8888,-5.37,6.85,-0.11,20.38
5214,0.2002,-0.1421,0.8788,-5.83,6.32,-0.21,20.37
5224,0.2046,-0.1439,0.8684,-6.38,7.18,-0.11,20.34
5234,0.2054,-0.1423,0.8671,-6.76,8.69,0.02,20.37
5244,0.199,-0.1415,0.863,-6.6,8.98,0.03,20.37
5254,0.1971,-0.1429,0.87,-6.08,8.2,0.05,20.35
5264,0.2007,-0.1405,0.8701,-5.47,6.87,-0.05,20.36
5274,0.2069,-0.1398,0.8671,-5.4,6.49,-0.12,20.39
5284,0.2109,-0.1388,0.8683,-5.88,7.18,-0.08,20.38
5294,0.2104,-0.1388,0.8672,-6.46,8.46,0.02,20.35
5304,0.2024,-0.1458,0.8718,-6.73,9.04,-0.02,20.36
5314,0.201,-0.1473,0.8749,-6.56,8.38,0.02,20.38
5324,0.2039,-0.1501,0.8751,-6.08,7.25,-0.02,20.37
5334,0.2101,-0.1462,0.8741,-5.6,6.66,-0.11,20.36
5344,0.2128,-0.1439,0.8755,-5.48,7.08,0.05,20.38
5354,0.2153,-0.1428,0.8778,-5.57,8.05,0.05,20.4
5364,0.2089,-0.1443,0.8851,-6.03,8.53,0.08,20.4
5374,0.2026,-0.141,0.8868,-6.52,8.26,-0.11,20.4
5384,0.2072,-0.1429,0.8771,-6.82,7.51,-0.09,20.38
5394,0.2112,-0.1444,0.8699,-6.7,7.18,-0.24,20.36
5404,0.2125,-0.1438,0.8624,-6.27,7.4,-0.12,20.39
5414,0.214,-0.1418,0.864,-5.62,7.95,0.02,20.39
5424,0.2119,-0.1428,0.8776,-5.19,8.2,0.09,20.38
5434,0.209,-0.142,0.8866,-5.3,7.86,0.08,20.39
5444,0.2073,-0.1407,0.8876,-5.63,7.48,-0.06,20.4
5454,0.21,-0.1385,0.8873,-6.21,7.39,-0.08,20.39
5464,0.2073,-0.1379,0.8774,-6.85,7.6,-0.17,20.4
5474,0.2072,-0.1451,0.8693,-7.15,7.94,-0.08,20.39
5484,0.2085,-0.1512,0.8568,-6.82,8.26,-0.06,20.39
5494,0.2113,-0.1514,0.864,-6.03,8.26,-0.05,20.39
5504,0.2068,-0.15,0.8746,-5.21,7.94,0.06,20.4
5514,0.207,-0.1437,0.8817,-4.96,7.5,0.05,20.38
5524,0.2023,-0.1394,0.8856,-5.4,7.36,0.02,20.38
5535,0.198,-0.1346,0.8789,-6.37,7.48,-0.18,20.4
5547,0.2023,-0.1382,0.8605,-7.25,7.88,-0.23,20.37
5557,0.2043,-0.1492,0.8611,-7.08,8.14,-0.09,20.37
5568,0.2086,-0.1482,0.8567,-6.21,8.26,0.03,20.4
5578,0.2041,-0.1443,0.8708,-5.25,8.05,-0.03,20.36
5588,0.2013,-0.1443,0.8826,-5.05,7.4,-0.06,20.41
5598,0.1974,-0.1442,0.8872,-5.4,7.3,0.06,20.4
5608,0.1903,-0.1368,0.8723,-6.32,7.31,-0.15,20.41
5618,0.2017,-0.1389,0.8658,-7.4,6.92,-0.34,20.39
5628,0.2233,-0.1467,0.8569,-7.57,7.34,-0.24,20.39
5638,0.2354,-0.1527,0.8607,-6.31,8.61,0.03,20.39
5648,0.2277,-0.1486,0.8812,-4.5,9.24,0.32,20.37
5658,0.2163,-0.1436,0.9095,-3.69,8.2,0.2,20.39
5668,0.2058,-0.1389,0.9131,-4.75,6.47,-0.09,20.37
5678,0.207,-0.139,0.8927,-6.81,5.86,-0.29,20.4
5688,0.2178,-0.142,0.8628,-8.64,7.4,-0.37,20.38
5698,0.2142,-0.1509,0.84,-8.82,9.4,-0.02,20.37
5708,0.209,-0.1569,0.8372,-7.47,10.41,0.18,20.38
5718,0.1956,-0.152,0.8555,-5.1,9.31,0.29,20.41
5728,0.192,-0.1483,0.8771,-3.37,6.7,0.03,20.41
5738,0.1962,-0.1375,0.8937,-3.28,4.89,-0.18,20.38
5748,0.2083,-0.1294,0.8944,-4.92,5.54,-0.32,20.4
5758,0.2136,-0.125,0.8866,-6.98,8.02,-0.12,20.4
5768,0.2041,-0.1378,0.8761,-8.34,10.11,0.0,20.39
5778,0.1912,-0.1455,0.8678,-8.4,10.09,0.0,20.41
5788,0.1869,-0.1515,0.8583,-7.3,8.11,-0.11,20.42
5798,0.1954,-0.1523,0.8556,-5.6,5.98,-0.29,20.41
5808,0.2155,-0.1519,0.8615,-4.21,5.76,-0.03,20.42
5818,0.2231,-0.1475,0.8749,-3.95,7.22,0.23,20.41
5828,0.2175,-0.1368,0.9001,-4.55,8.89,0.31,20.38
5838,0.2053,-0.1342,0.9121,-5.77,8.99,0.18,20.39
5848,0.2007,-0.1318,0.8986,-7.16,7.73,-0.14,20.43
5859,0.2097,-0.1432,0.8729,-8.17,6.67,-0.4,20.41
5870,0.2224,-0.1487,0.8491,-7.39,7.51,-0.27,20.43
5880,0.2212,-0.1564,0.845,-6.14,8.72,0.03,20.4
5890,0.2128,-0.1543,0.8555,-5.05,9.22,0.23,20.43
5900,0.1852,-0.1406,0.8619,-5.11,7.77,0.11,20.41
5910,0.1968,-0.1371,0.8657,-5.74,5.92,-0.24,20.42
5921,0.2212,-0.1389,0.8593,-6.09,6.29,-0.24,20.41
5931,0.2258,-0.1332,0.8711,-5.98,8.46,0.06,20.39
5941,0.2128,-0.1417,0.8867,-5.54,9.86,0.32,20.41
5951,0.1957,-0.1414,0.9038,-5.45,9.11,0.17,20.38
5961,0.1866,-0.1432,0.9034,-5.82,6.93,-0.17,20.4
5971,0.1976,-0.1409,0.8915,-6.56,5.83,-0.26,20.4
5981,0.2057,-0.1434,0.8682,-7.1,6.78,-0.2,20.4
5991,0.2048,-0.1447,0.8577,-7.25,8.67,-0.05,20.42
6002,0.2017,-0.147,0.8556,-6.55,9.47,0.09,20.42
6012,0.2009,-0.1475,0.8712,-5.36,8.5,0.21,20.42
6022,0.2015,-0.1462,0.8865,-4.61,6.76,-0.06,20.41
6032,0.2102,-0.1404,0.8838,-4.98,5.59,-0.2,20.42
6042,0.2227,-0.1356,0.8755,-5.86,6.37,-0.21,20.39
6052,0.2202,-0.1371,0.868,-6.81,8.26,-0.06,20.42
6062,0.2174,-0.1415,0.8671,-7.28,9.6,0.03,20.4
6072,0.2045,-0.1462,0.8682,-6.93,9.16,-0.03,20.41
6082,0.2012,-0.1516,0.871,-6.09,7.8,-0.02,20.41
6092,0.2073,-0.1454,0.8696,-5.19,6.52,-0.11,20.42
6102,0.2103,-0.1443,0.8722,-5.05,6.6,-0.15,20.42
6112,0.2142,-0.142,0.8765,-5.5,7.57,0.05,20.4
6122,0.2086,-0.1396,0.8792,-6.27,8.55,0.02,20.41
6132,0.2029,-0.1449,0.8837,-6.79,8.78,0.05,20.41
6142,0.2018,-0.1475,0.8785,-6.82,8.05,-0.06,20.42
6152,0.2032,-0.1458,0.8727,-6.43,7.22,-0.18,20.44
6162,0.2079,-0.1467,0.864,-5.85,6.92,-0.17,20.4
6172,0.2114,-0.1432,0.865,-5.45,7.39,-0.06,20.42
6182,0.2078,-0.1428,0.8644,-5.53,8.02,-0.03,20.43
6192,0.2057,-0.1395,0.8766,-5.89,8.2,0.03,20.44
6202,0.2053,-0.1404,0.8751,-6.37,7.91,-0.08,20.4
6212,0.2059,-0.1423,0.874,-6.66,7.54,-0.09,20.42
6222,0.2097,-0.1398,0.87,-6.55,7.57,-0.09,20.41
6232,0.2109,-0.1437,0.8617,-6.14,7.82,0.05,20.41
6242,0.2078,-0.1442,0.8701,-5.68,7.92,0.09,20.41
6252,0.2058,-0.1455,0.879,-5.56,7.83,0.0,20.4
6262,0.2032,-0.1426,0.8834,-5.63,7.54,-0.09,20.42
6272,0.2067,-0.1437,0.8829,-6.17,7.47,-0.03,20.43
6282,0.2118,-0.1434,0.8763,-6.55,7.66,-0.05,20.45
6292,0.208,-0.1458,0.8716,-6.58,8.06,0.05,20.41
6302,0.2075,-0.147,0.8735,-6.26,8.18,-0.02,20.4
6312,0.2065,-0.1426,0.8759,-5.82,7.76,0.02,20.43
6322,0.2061,-0.1429,0.8749,-5.73,7.37,-0.11,20.42
6332,0.2103,-0.1406,0.8763,-5.65,7.13,-0.17,20.43
6342,0.2123,-0.1404,0.8783,-5.82,7.42,-0.15,20.41
6352,0.2108,-0.1375,0.8801,-6.23,7.92,-0.05,20.41
6362,0.2073,-0.1379,0.876,-6.46,8.24,-0.02,20.43
6372,0.2057,-0.1405,0.8732,-6.31,8.15,-0.06,20.44
6382,0.2043,-0.1425,0.8765,-6.06,7.76,-0.03,20.45
6392,0.2081,-0.1385,0.8721,-5.95,7.5,-0.11,20.44
6402,0.2098,-0.1418,0.8738,-5.71,7.5,-0.03,20.44
6412,0.208,-0.1425,0.8768,-5.83,7.77,-0.03,20.42
6422,0.2076,-0.1425,0.8763,-6.05,8.02,0.08,20.44
6432,0.2104,-0.1422,0.8785,-6.29,7.97,-0.02,20.44
6446,0.207,-0.1448,0.8713,-6.41,7.59,-0.2,20.41
6456,0.2096,-0.1483,0.8691,-6.37,7.47,-0.14,20.43
6466,0.2069,-0.1426,0.8691,-6.11,7.6,0.02,20.44
6476,0.2089,-0.1455,0.8661,-5.92,7.89,-0.09,20.41
6486,0.2079,-0.14,0.8724,-5.76,7.92,0.02,20.42
6496,0.2083,-0.1418,0.8729,-5.77,7.59,0.02,20.44
6506,0.207,-0.1403,0.8789,-5.92,7.45,-0.05,20.43
6516,0.2101,-0.1406,0.8745,-6.31,7.62,-0.06,20.44
6526,0.2107,-0.1449,0.8734,-6.38,7.86,-0.09,20.43
6536,0.2058,-0.1421,0.8689,-6.37,8.08,-0.03,20.44
6546,0.208,-0.1437,0.8741,-6.18,8.05,0.02,20.46
6556,0.2063,-0.1432,0.8761,-5.94,7.74,-0.03,20.44
6566,0.203,-0.1426,0.8772,-5.89,7.51,-0.08,20.44
6577,0.207,-0.1436,0.876,-5.94,7.48,-0.08,20.43
6587,0.2094,-0.145,0.8767,-6.05,7.65,-0.08,20.45
6597,0.2078,-0.1404,0.8771,-6.11,7.92,-0.14,20.45
6607,0.2056,-0.1429,0.8752,-6.26,8.0,-0.06,20.44
6617,0.2053,-0.1432,0.879,-6.18,7.85,-0.05,20.46
6627,0.2063,-0.1432,0.8759,-6.08,7.59,-0.05,20.44
6637,0.2115,-0.1448,0.8774,-5.95,7.45,-0.12,20.44
6647,0.2092,-0.1417,0.8695,-5.95,7.68,-0.06,20.45
6657,0.2111,-0.1426,0.8737,-6.06,7.85,0.0,20.43
6667,0.2086,-0.1432,0.8739,-6.15,7.94,0.0,20.44
6677,0.2057,-0.1426,0.8719,-6.26,7.92,-0.03,20.43
6687,0.2034,-0.1438,0.8702,-6.17,7.76,-0.11,20.45
6697,0.2064,-0.1416,0.8733,-6.12,7.65,0.02,20.46
6707,0.207,-0.1422,0.8728,-6.03,7.71,-0.05,20.45
6717,0.2079,-0.141,0.8705,-6.11,7.77,-0.06,20.44
6727,0.2036,-0.1455,0.8729,-6.14,7.8,-0.06,20.46
6737,0.207,-0.1465,0.8734,-6.11,7.8,-0.11,20.44
6747,0.2072,-0.1471,0.8715,-6.29,7.8,-0.06,20.44
6757,0.2068,-0.1453,0.8743,-6.09,7.79,-0.06,20.43
6767,0.2097,-0.1442,0.8724,-6.02,7.73,0.0,20.44
6777,0.2068,-0.1432,0.8733,-5.95,7.65,-0.08,20.45
6787,0.2076,-0.1444,0.87,-5.89,7.6,-0.05,20.44
6797,0.2117,-0.1429,0.8712,-5.79,7.59,-0.05,20.43
6807,0.2108,-0.1406,0.875,-5.97,7.73,-0.03,20.46
6817,0.2091,-0.1396,0.8738,-6.14,7.86,-0.09,20.43
6827,0.2103,-0.1425,0.8694,-6.17,7.86,-0.02,20.45
6837,0.2059,-0.1469,0.8716,-6.14,7.89,-0.05,20.45
6847,0.2039,-0.1428,0.8749,-6.08,7.71,0.02,20.47
6857,0.2068,-0.1426,0.877,-5.94,7.66,-0.03,20.47
6867,0.2019,-0.1439,0.8759,-5.89,7.62,-0.05,20.45
6877,0.2056,-0.1456,0.8759,-6.05,7.83,-0.06,20.45
6887,0.2039,-0.1423,0.8727,-6.18,7.94,0.0,20.44
6897,0.2051,-0.1412,0.8733,-6.24,7.85,-0.02,20.47
6907,0.2059,-0.1429,0.8765,-6.14,7.63,-0.08,20.47
6917,0.2057,-0.1437,0.8691,-6.15,7.63,-0.06,20.46
6927,0.207,-0.1423,0.8682,-5.98,7.62,0.0,20.46
6937,0.2115,-0.1411,0.8719,-5.94,7.71,-0.09,20.47
6947,0.2083,-0.139,0.8726,-5.89,7.77,-0.02,20.44
6957,0.2095,-0.1399,0.8774,-6.02,7.76,-0.09,20.46
6967,0.209,-0.1433,0.8727,-6.2,7.69,-0.12,20.46
6977,0.2089,-0.142,0.8737,-6.32,7.66,-0.11,20.47
6987,0.2092,-0.1436,0.8727,-6.34,7.8,-0.05,20.46
6997,0.2083,-0.1458,0.8649,-6.11,7.85,-0.06,20.44
7007,0.2057,-0.1427,0.8674,-5.97,7.76,0.03,20.46
7017,0.2047,-0.1437,0.8712,-5.76,7.71,0.02,20.46
7027,0.2039,-0.1425,0.8748,-5.71,7.65,-0.06,20.47
7037,0.2012,-0.139,0.8768,-6.05,7.54,-0.08,20.47
7047,0.2043,-0.1396,0.8756,-6.27,7.71,-0.06,20.44
7057,0.2089,-0.1433,0.8733,-6.31,7.91,-0.05,20.47
7067,0.2078,-0.1434,0.8749,-6.27,7.92,-0.05,20.49
7077,0.209,-0.1436,0.8752,-6.21,7.83,-0.08,20.46
7087,0.2079,-0.1443,0.8723,-6.17,7.54,-0.02,20.46
7097,0.2086,-0.1438,0.8679,-6.11,7.44,-0.12,20.49
7107,0.212,-0.1449,0.8715,-6.0,7.68,0.0,20.45
7117,0.2074,-0.1453,0.8752,-5.95,7.91,0.05,20.44
7127,0.2061,-0.1423,0.8765,-6.0,7.95,0.0,20.44
7138,0.2067,-0.1423,0.8776,-6.02,7.74,-0.11,20.44
7148,0.2068,-0.1447,0.8732,-6.2,7.47,0.02,20.45
7159,0.2114,-0.147,0.8779,-5.97,7.86,-0.08,20.43
7169,0.2058,-0.1405,0.8785,-6.02,7.91,-0.09,20.46
7179,0.2037,-0.1454,0.8767,-6.4,7.6,-0.09,20.44
7189,0.2075,-0.1455,0.8674,-6.69,7.47,-0.15,20.44
7199,0.212,-0.1497,0.8674,-6.46,7.88,-0.11,20.44
7209,0.2096,-0.1499,0.8669,-6.11,8.23,0.05,20.46
7219,0.2048,-0.1478,0.8728,-5.5,8.18,0.11,20.44
7229,0.201,-0.1416,0.8839,-5.4,7.48,-0.05,20.43
7239,0.2053,-0.1403,0.8815,-5.66,6.99,-0.05,20.4
7249,0.2086,-0.1393,0.8779,-6.21,7.11,-0.15,20.44
7259,0.2083,-0.145,0.8707,-6.56,7.74,-0.15,20.48
7269,0.2087,-0.1443,0.8704,-6.67,8.5,-0.05,20.46
7279,0.2035,-0.1456,0.8724,-6.29,8.53,0.0,20.47
7289,0.2067,-0.1461,0.8744,-5.91,7.89,-0.05,20.47
7299,0.2064,-0.1451,0.8795,-5.59,7.25,0.0,20.46
7309,0.2078,-0.1429,0.8739,-5.68,6.99,-0.06,20.45
7319,0.2097,-0.1379,0.8745,-5.94,7.44,-0.02,20.44
7329,0.2087,-0.1426,0.8722,-6.35,8.09,-0.03,20.47
7339,0.205,-0.1427,0.8711,-6.61,8.41,0.0,20.44
7349,0.2035,-0.141,0.8719,-6.38,8.11,-0.05,20.45
7359,0.2062,-0.1416,0.8683,-6.05,7.57,-0.05,20.43
7369,0.2067,-0.1478,0.8739,-5.69,7.28,-0.06,20.42
7379,0.2096,-0.1444,0.8741,-5.62,7.53,-0.08,20.45
7389,0.2092,-0.1456,0.8818,-5.68,7.94,0.06,20.45
7399,0.2087,-0.1405,0.886,-6.0,8.2,-0.05,20.45
7409,0.2052,-0.1429,0.8832,-6.23,8.02,-0.08,20.45
7419,0.2074,-0.1432,0.8757,-6.37,7.53,-0.09,20.47
7429,0.2074,-0.1401,0.8713,-6.49,7.36,-0.09,20.47
7439,0.2095,-0.1401,0.8649,-6.23,7.66,-0.11,20.46
7449,0.2052,-0.1388,0.8674,-5.98,8.03,-0.03,20.44
7459,0.2029,-0.1414,0.8711,-5.68,8.17,0.03,20.46
7469,0.2039,-0.1383,0.8746,-5.65,7.85,0.03,20.47
7479,0.2017,-0.1407,0.8831,-5.89,7.4,-0.11,20.43
7489,0.2063,-0.1404,0.8789,-6.23,7.39,-0.14,20.47
7499,0.2087,-0.1426,0.8696,-6.52,7.68,-0.06,20.46
7509,0.2101,-0.1444,0.8676,-6.55,8.12,-0.03,20.48
7519,0.2087,-0.1465,0.8674,-6.24,8.17,0.03,20.47
7529,0.2061,-0.1478,0.8732,-5.94,7.85,0.0,20.46
7539,0.2057,-0.1448,0.8713,-5.79,7.36,-0.05,20.47
7549,0.2075,-0.1434,0.8663,-5.94,7.22,-0.09,20.45
7559,0.2124,-0.1456,0.8711,-6.0,7.56,0.03,20.47
7569,0.2109,-0.1431,0.8726,-6.06,8.14,-0.03,20.47
7579,0.2075,-0.1425,0.882,-5.98,8.34,0.05,20.52
7589,0.2043,-0.1443,0.8879,-6.03,7.95,0.0,20.47
7599,0.2091,-0.144,0.8795,-6.05,7.31,-0.23,20.49
7609,0.2098,-0.1451,0.8778,-6.31,7.16,-0.17,20.46
7619,0.215,-0.1459,0.8734,-6.35,7.54,-0.11,20.46
7629,0.2114,-0.1421,0.87,-6.32,8.11,-0.11,20.48
7639,0.2076,-0.1412,0.8651,-6.06,8.24,0.09,20.47
7649,0.2057,-0.1381,0.8716,-5.88,8.0,0.0,20.49
7659,0.2064,-0.1368,0.8727,-5.76,7.51,0.03,20.46
7669,0.2073,-0.1353,0.8749,-5.77,7.24,-0.09,20.45
7679,0.209,-0.1378,0.8746,-5.86,7.54,-0.14,20.49
7689,0.2062,-0.1415,0.8793,-6.12,8.05,-0.02,20.47
7699,0.2042,-0.1447,0.877,-6.41,8.44,-0.02,20.46
7709,0.1987,-0.1492,0.882,-6.52,8.2,0.02,20.49
7719,0.2013,-0.1488,0.875,-6.31,7.68,-0.08,20.47
7729,0.2076,-0.1505,0.8676,-6.15,7.42,-0.05,20.47
7739,0.2065,-0.1489,0.8705,-5.91,7.54,-0.08,20.47
7749,0.2081,-0.147,0.8741,-5.77,7.88,0.06,20.49
7759,0.2063,-0.1459,0.876,-5.83,7.92,-0.06,20.47
7769,0.2047,-0.1438,0.8763,-6.02,7.74,-0.06,20.48
7779,0.209,-0.1444,0.874,-6.26,7.48,-0.09,20.47
7789,0.208,-0.1444,0.8678,-6.31,7.44,-0.11,20.48
7799,0.2074,-0.1415,0.8649,-6.23,7.68,-0.03,20.48
7809,0.1973,-0.1256,0.8652,-6.12,8.02,-0.03,20.51
7819,0.1716,-0.1237,0.8564,-7.01,7.5,-0.18,20.47
7829,0.1846,-0.137,0.8395,-7.18,6.47,-0.2,20.49
7839,0.2223,-0.1426,0.8511,-5.76,7.27,-0.15,20.49
7849,0.2349,-0.1487,0.8931,-3.86,8.76,0.27,20.49
7859,0.2252,-0.1475,0.9359,-3.05,8.89,0.35,20.49
7869,0.2157,-0.1427,0.9496,-4.09,7.79,0.2,20.48
7879,0.2109,-0.1383,0.9309,-6.34,6.18,-0.29,20.46
7889,0.2101,-0.1425,0.8877,-9.04,6.37,-0.43,20.5
7899,0.2115,-0.1483,0.8407,-10.38,8.24,-0.27,20.48
7909,0.2031,-0.1547,0.8083,-9.4,9.95,-0.06,20.47
7919,0.193,-0.1541,0.8073,-6.82,9.94,0.15,20.47
7929,0.1886,-0.1495,0.8314,-3.76,8.2,0.21,20.48
7939,0.1947,-0.1404,0.8752,-2.02,5.92,0.11,20.47
7949,0.2065,-0.1294,0.8992,-2.32,5.02,-0.08,20.47
7959,0.2147,-0.1281,0.9084,-4.46,6.06,-0.17,20.49
7969,0.2155,-0.1255,0.9053,-7.31,8.27,-0.12,20.49
7979,0.2096,-0.1348,0.8923,-9.24,9.91,-0.11,20.49
7989,0.1996,-0.1495,0.8688,-9.37,9.63,-0.05,20.5
7999,0.2,-0.1552,0.8579,-7.68,7.98,-0.18,20.49
8009,0.2085,-0.1522,0.8571,-5.04,6.38,-0.11,20.49
8019,0.2195,-0.1528,0.875,-3.4,6.14,0.03,20.5
8029,0.2227,-0.1436,0.8955,-3.36,7.11,0.06,20.49
8039,0.2159,-0.1361,0.9117,-4.85,8.46,0.14,20.5
8049,0.2025,-0.1378,0.9067,-7.24,8.78,0.06,20.49
8059,0.1968,-0.1368,0.8726,-9.04,8.26,-0.21,20.49
8069,0.194,-0.1443,0.8428,-9.19,7.54,-0.43,20.49
8079,0.2083,-0.1556,0.8267,-7.56,7.22,-0.31,20.49
8089,0.2173,-0.1554,0.8337,-5.16,7.82,0.03,20.49
8099,0.213,-0.1469,0.859,-3.24,8.26,0.26,20.47
8109,0.2006,-0.1406,0.8876,-2.99,7.69,0.21,20.48
8119,0.2023,-0.1359,0.9045,-4.44,6.87,0.08,20.5
8129,0.2078,-0.1311,0.9052,-6.72,6.78,-0.09,20.51
8139,0.2139,-0.1372,0.8793,-8.46,7.73,-0.26,20.47
8149,0.2169,-0.1459,0.8658,-8.7,9.02,-0.21,20.48
8159,0.21,-0.1533,0.8574,-7.3,9.3,-0.02,20.48
8169,0.2037,-0.1552,0.8646,-5.44,8.34,0.08,20.49
8179,0.2032,-0.1499,0.8756,-4.06,6.78,0.0,20.48
8189,0.2052,-0.1415,0.8822,-4.2,5.89,-0.06,20.49
8199,0.2104,-0.1384,0.8783,-5.66,6.56,-0.14,20.49
8209,0.2081,-0.1353,0.8694,-7.16,8.4,0.06,20.5
8219,0.2053,-0.1393,0.8638,-7.83,9.6,0.05,20.51
8229,0.1976,-0.1455,0.8712,-7.22,9.19,0.0,20.5
8239,0.2004,-0.1464,0.8687,-5.98,7.57,-0.11,20.51
8249,0.2048,-0.1466,0.8767,-4.81,6.14,-0.21,20.5
8259,0.2166,-0.1472,0.877,-4.55,6.17,-0.15,20.5
8269,0.2198,-0.1399,0.8843,-5.34,7.31,-0.05,20.52
8279,0.2131,-0.1421,0.8826,-6.53,8.75,-0.08,20.5
8289,0.2058,-0.1425,0.8813,-7.44,9.11,0.02,20.49
8299,0.2009,-0.1483,0.869,-7.39,8.34,-0.08,20.49
8309,0.2059,-0.1483,0.8627,-6.58,7.36,-0.17,20.49
8319,0.2092,-0.1455,0.8607,-5.45,6.85,-0.09,20.49
8329,0.212,-0.1387,0.8708,-4.78,7.08,-0.03,20.5
8339,0.2137,-0.1381,0.8777,-4.9,7.71,0.05,20.48
8349,0.2035,-0.1372,0.8765,-5.77,7.95,0.03,20.51
8359,0.2,-0.1396,0.8778,-6.79,7.95,-0.05,20.51
8369,0.2047,-0.1414,0.8733,-7.13,7.97,-0.12,20.51
8379,0.2101,-0.1447,0.8668,-6.66,7.98,0.02,20.49
8389,0.2113,-0.1437,0.8782,-5.71,8.06,0.02,20.49
8399,0.2106,-0.1445,0.8878,-5.02,7.76,0.09,20.49
8409,0.2063,-0.1415,0.8921,-4.9,7.15,-0.02,20.48
8419,0.2113,-0.1362,0.8906,-5.68,6.89,-0.14,20.48
8429,0.2173,-0.1353,0.8842,-6.72,7.25,-0.2,20.48
8439,0.2172,-0.1377,0.8635,-7.44,8.11,-0.2,20.48
8449,0.2107,-0.1393,0.8512,-7.57,8.73,-0.06,20.49
8459,0.2045,-0.1428,0.8495,-6.76,8.73,-0.08,20.51
8469,0.2048,-0.1439,0.8578,-5.57,8.02,-0.05,20.5
8480,0.2023,-0.1459,0.8766,-4.55,7.13,-0.06,20.49
8490,0.2046,-0.1432,0.8817,-4.82,7.15,0.0,20.51
8500,0.2032,-0.1412,0.8932,-5.62,7.51,-0.05,20.48
8510,0.2014,-0.1428,0.8865,-6.82,8.05,0.02,20.51
8520,0.1982,-0.1477,0.8784,-7.39,8.32,-0.14,20.52
8530,0.1975,-0.1488,0.8673,-7.33,8.15,-0.11,20.51
8540,0.1974,-0.1443,0.8611,-6.37,7.66,-0.03,20.53
8550,0.1917,-0.1394,0.8564,-5.42,7.05,-0.05,20.49
8560,0.1945,-0.1427,0.8672,-5.19,6.95,-0.14,20.49
8570,0.2084,-0.1443,0.8762,-5.31,7.05,-0.06,20.49
8580,0.2169,-0.1486,0.8894,-5.65,7.82,0.03,20.51
8590,0.2156,-0.1456,0.8922,-6.17,8.35,0.02,20.49
8600,0.2148,-0.1443,0.884,-6.76,8.18,-0.15,20.51
8610,0.2146,-0.1431,0.8728,-6.98,7.47,-0.08,20.5
8620,0.2192,-0.1425,0.8617,-6.73,7.37,-0.15,20.51
8630,0.2213,-0.1412,0.8549,-6.05,7.63,0.0,20.47
8640,0.217,-0.1431,0.8621,-5.28,7.95,0.12,20.47
8650,0.2139,-0.1421,0.8762,-5.22,8.23,0.08,20.49
8660,0.2108,-0.1443,0.8832,-5.77,8.05,0.0,20.48
8670,0.2051,-0.1465,0.881,-6.55,7.51,-0.12,20.49
8680,0.2079,-0.1487,0.8698,-7.13,7.39,-0.15,20.49
8690,0.2076,-0.1466,0.8619,-7.11,7.92,-0.12,20.49
8700,0.2061,-0.1514,0.86,-6.44,8.37,0.03,20.48
8710,0.2034,-0.1451,0.8663,-5.44,8.46,0.14,20.5
8720,0.199,-0.1442,0.8787,-4.81,7.65,0.11,20.5
8730,0.1985,-0.1348,0.8926,-4.75,6.63,-0.02,20.5
8740,0.2042,-0.132,0.8896,-5.34,6.34,-0.18,20.51
8750,0.2096,-0.1351,0.8845,-6.41,7.27,-0.2,20.49
8760,0.2086,-0.1427,0.8776,-7.37,8.66,-0.03,20.48
8770,0.2075,-0.1499,0.8695,-7.51,9.39,0.06,20.49
8780,0.2013,-0.1516,0.8699,-6.85,8.52,0.02,20.52
8790,0.2036,-0.1472,0.8662,-5.69,6.99,-0.14,20.51
8800,0.2107,-0.1393,0.8643,-4.96,6.29,-0.11,20.5
8810,0.2159,-0.1351,0.8708,-4.87,6.56,-0.05,20.51
8820,0.2146,-0.1338,0.8759,-5.42,7.85,0.0,20.5
8830,0.2097,-0.1356,0.8774,-6.31,8.56,0.02,20.51
8840,0.2052,-0.142,0.8794,-6.89,8.69,-0.03,20.48
8850,0.2039,-0.1443,0.877,-6.99,8.0,-0.11,20.48
8860,0.2046,-0.1487,0.8722,-6.66,7.42,-0.11,20.51
8870,0.2056,-0.1473,0.864,-5.97,7.45,-0.11,20.49
8880,0.2041,-0.1484,0.8667,-5.44,7.77,0.0,20.48
8890,0.2047,-0.1444,0.8794,-5.3,7.94,0.09,20.51
8900,0.2001,-0.1418,0.8864,-5.53,7.77,-0.02,20.51
8911,0.1989,-0.1392,0.8834,-6.21,7.34,-0.09,20.52
8921,0.2062,-0.1372,0.8754,-6.56,7.28,-0.11,20.51
8931,0.2111,-0.1395,0.87,-6.7,7.73,-0.17,20.5
8941,0.2115,-0.1407,0.8607,-6.31,8.17,0.08,20.52
8951,0.2103,-0.1415,0.8676,-5.77,8.17,0.03,20.48
8961,0.2039,-0.1427,0.8768,-5.47,7.74,0.05,20.49
8971,0.2095,-0.142,0.881,-5.57,7.25,-0.09,20.52
8981,0.2113,-0.1409,0.8821,-6.06,7.16,-0.11,20.51
8991,0.2126,-0.142,0.8743,-6.56,7.68,-0.08,20.51
9001,0.2113,-0.1432,0.8735,-6.7,8.21,-0.11,20.49
9011,0.2102,-0.1448,0.8683,-6.41,8.4,0.03,20.51
9021,0.2072,-0.1439,0.871,-5.95,7.97,-0.02,20.5
9031,0.2051,-0.1434,0.8756,-5.57,7.37,-0.06,20.53
9041,0.2096,-0.1421,0.8759,-5.54,7.11,-0.06,20.52
9051,0.2097,-0.1412,0.8796,-5.77,7.42,-0.09,20.5
9061,0.2087,-0.1429,0.879,-6.38,7.98,-0.17,20.51
9071,0.2073,-0.1459,0.8738,-6.73,8.29,-0.12,20.5
9081,0.2036,-0.1466,0.8691,-6.61,8.21,-0.09,20.53
9091,0.2039,-0.147,0.871,-6.37,7.82,-0.05,20.51
9101,0.2051,-0.145,0.87,-5.91,7.45,-0.08,20.51
9111,0.2031,-0.1461,0.869,-5.57,7.39,-0.12,20.51
9121,0.21,-0.1399,0.8707,-5.57,7.51,-0.08,20.51
9131,0.2036,-0.1421,0.8784,-5.83,7.77,-0.06,20.5
9141,0.2064,-0.1416,0.8766,-6.31,7.8,-0.02,20.52
9151,0.2095,-0.1436,0.871,-6.52,7.83,-0.11,20.5
9161,0.2083,-0.1442,0.8737,-6.47,7.79,-0.08,20.51
9171,0.2072,-0.144,0.8663,-6.21,7.77,-0.06,20.5
9181,0.2057,-0.1453,0.8688,-5.92,7.8,-0.03,20.51
9191,0.2037,-0.1449,0.8765,-5.77,7.73,-0.05,20.51
9201,0.203,-0.1433,0.8807,-5.82,7.71,-0.05,20.52
9211,0.2042,-0.1417,0.8768,-6.14,7.63,-0.06,20.53
9221,0.2074,-0.1415,0.8761,-6.37,7.69,-0.08,20.5
9231,0.2112,-0.146,0.8701,-6.26,7.76,-0.08,20.53
9241,0.2104,-0.1476,0.8698,-6.21,7.89,-0.05,20.5
9251,0.2073,-0.147,0.8702,-6.03,7.85,0.0,20.5
9261,0.2067,-0.1418,0.8748,-5.71,7.74,0.02,20.52
9271,0.2073,-0.1398,0.8768,-5.82,7.57,-0.03,20.52
9289,0.2114,-0.1384,0.8772,-6.18,7.66,-0.11,20.5
9299,0.2089,-0.1426,0.8755,-6.44,7.76,-0.08,20.5
9309,0.2074,-0.145,0.8754,-6.5,7.94,-0.14,20.49
9319,0.2073,-0.1477,0.8734,-6.31,7.91,-0.06,20.52
9329,0.2083,-0.1475,0.8723,-6.0,7.74,0.05,20.52
9339,0.2091,-0.1459,0.8713,-5.76,7.62,0.03,20.5
9349,0.2103,-0.1378,0.8763,-5.63,7.59,0.02,20.5
9359,0.2067,-0.139,0.8783,-5.66,7.69,-0.08,20.53
9369,0.2094,-0.139,0.8796,-5.98,7.76,-0.11,20.5
9379,0.2054,-0.1373,0.8792,-6.21,7.85,-0.08,20.51
9389,0.2054,-0.1378,0.8773,-6.5,7.83,-0.17,20.51
9399,0.2052,-0.1406,0.8715,-6.52,7.82,-0.17,20.52
9409,0.2056,-0.1479,0.87,-6.37,7.76,-0.12,20.51
9419,0.2057,-0.146,0.8696,-6.09,7.73,-0.02,20.54
9429,0.2051,-0.146,0.8713,-5.92,7.76,0.0,20.51
9439,0.2048,-0.1412,0.8702,-5.77,7.69,0.03,20.51
9449,0.2058,-0.1422,0.8707,-5.89,7.65,0.02,20.53
9459,0.2061,-0.1409,0.875,-5.92,7.69,-0.06,20.51
9469,0.2039,-0.1377,0.8739,-5.98,7.62,-0.06,20.49
9479,0.2081,-0.1404,0.8779,-6.15,7.71,0.0,20.51
9489,0.2085,-0.1398,0.8746,-6.29,7.86,-0.06,20.52
9499,0.2087,-0.1409,0.8744,-6.27,7.94,-0.06,20.52
9509,0.2042,-0.1461,0.8737,-6.2,7.8,-0.08,20.52
9519,0.21,-0.145,0.873,-6.14,7.71,-0.05,20.51
9529,0.2075,-0.1445,0.8694,-6.11,7.71,-0.09,20.51
9539,0.2078,-0.1462,0.8767,-6.02,8.03,-0.08,20.51
9549,0.2057,-0.1437,0.8767,-5.89,7.79,0.03,20.52
9559,0.2031,-0.1414,0.8734,-5.94,7.47,-0.08,20.53
9569,0.2103,-0.1409,0.8735,-6.12,7.19,-0.17,20.52
9579,0.2131,-0.1436,0.8693,-6.17,7.54,-0.05,20.51
9589,0.2148,-0.1456,0.8713,-6.31,8.15,-0.06,20.53
9599,0.2063,-0.1445,0.8715,-6.05,8.41,0.03,20.53
9609,0.2046,-0.1453,0.8785,-5.89,7.95,0.0,20.5
9619,0.2054,-0.142,0.881,-5.82,7.27,-0.12,20.5
9629,0.2072,-0.1426,0.874,-6.12,7.3,-0.23,20.52
9639,0.2113,-0.1432,0.8768,-6.26,7.6,-0.09,20.5
9649,0.2107,-0.1451,0.8721,-6.4,8.08,0.0,20.52
9659,0.2061,-0.1472,0.8717,-6.26,8.26,0.05,20.52
9669,0.2051,-0.1448,0.8696,-6.03,7.97,-0.06,20.5
9679,0.2054,-0.1422,0.8727,-5.76,7.4,-0.08,20.53
9689,0.207,-0.1425,0.8707,-5.92,7.24,-0.08,20.52
9699,0.2089,-0.145,0.8735,-6.03,7.56,-0.05,20.55
9709,0.2097,-0.1405,0.8739,-6.12,8.0,-0.06,20.5
9719,0.2086,-0.1436,0.8728,-6.29,8.14,0.05,20.53
9729,0.2058,-0.1437,0.8721,-6.14,7.98,0.06,20.51
9739,0.2064,-0.1444,0.8728,-6.06,7.6,-0.06,20.5
9749,0.2081,-0.1392,0.8685,-5.86,7.39,-0.14,20.51
9759,0.2095,-0.1426,0.876,-5.71,7.56,-0.03,20.52
9769,0.2119,-0.14,0.8782,-5.79,7.83,-0.05,20.52
9779,0.2039,-0.1401,0.8799,-6.15,8.06,0.0,20.51
9789,0.2045,-0.1444,0.8811,-6.4,7.89,0.0,20.53
9799,0.2039,-0.1427,0.8724,-6.47,7.74,-0.09,20.52
9809,0.2069,-0.1445,0.8665,-6.37,7.65,-0.2,20.51
9819,0.2079,-0.1443,0.8694,-6.08,7.8,-0.06,20.53
9829,0.2068,-0.144,0.873,-5.86,7.82,0.02,20.56
9839,0.2039,-0.1416,0.8774,-5.6,7.73,0.0,20.53
9849,0.2059,-0.1403,0.8763,-5.76,7.51,-0.08,20.54
9859,0.2084,-0.1412,0.8773,-6.18,7.44,-0.05,20.5
9869,0.2075,-0.1416,0.8774,-6.44,7.79,-0.11,20.52
9879,0.2065,-0.1428,0.8696,-6.66,8.09,-0.05,20.53
9889,0.2036,-0.1403,0.8671,-6.43,8.14,-0.03,20.54
9899,0.2037,-0.1407,0.8619,-5.91,7.94,0.0,20.51
9909,0.2029,-0.1396,0.8728,-5.65,7.4,-0.05,20.51
9919,0.2059,-0.1399,0.8762,-5.51,7.27,-0.11,20.53
9929,0.2084,-0.1379,0.8789,-5.82,7.45,-0.08,20.52
9939,0.2141,-0.1431,0.8756,-6.31,7.68,-0.12,20.53
9949,0.2135,-0.144,0.8788,-6.63,8.05,-0.14,20.52
9959,0.2059,-0.1445,0.8701,-6.81,8.23,-0.15,20.53
9969,0.2078,-0.1476,0.8641,-6.49,7.98,-0.03,20.52
9979,0.2046,-0.1445,0.8615,-5.94,7.73,-0.03,20.55
9989,0.203,-0.1438,0.8645,-5.57,7.48,0.0,20.52
9999,0.2045,-0.1375,0.8723,-5.42,7.54,0.03,20.54
10009,0.2057,-0.1357,0.8761,-5.66,7.65,-0.02,20.54
10019,0.204,-0.1351,0.8809,-6.2,7.8,-0.06,20.54
10029,0.2048,-0.1414,0.8815,-6.5,7.8,-0.11,20.53
10039,0.2069,-0.1467,0.8778,-6.55,7.65,-0.05,20.51
10049,0.209,-0.1439,0.8777,-6.47,7.65,-0.11,20.51
10059,0.2065,-0.1458,0.8732,-6.15,7.77,-0.06,20.52
10069,0.2072,-0.1451,0.8732,-5.92,7.83,0.0,20.54
10079,0.2062,-0.1477,0.8744,-5.85,7.85,-0.06,20.54
10089,0.2072,-0.1406,0.8804,-5.79,8.09,0.09,20.53
10099,0.199,-0.1422,0.8828,-5.94,7.54,0.03,20.52
10109,0.198,-0.1388,0.877,-6.37,7.15,-0.15,20.54
10119,0.2131,-0.1401,0.8666,-6.82,6.98,-0.35,20.54
10129,0.2168,-0.1425,0.858,-6.44,7.59,-0.09,20.52
10139,0.2206,-0.1531,0.8667,-5.88,8.56,0.08,20.51
10149,0.2058,-0.1443,0.8724,-5.62,8.55,0.08,20.53
10159,0.208,-0.1416,0.8837,-5.39,7.4,-0.02,20.53
10169,0.2063,-0.1422,0.8806,-5.54,6.6,-0.2,20.51
10179,0.2156,-0.1423,0.8763,-6.08,7.11,-0.15,20.52
10189,0.2122,-0.1409,0.8738,-6.76,8.23,-0.12,20.54
10199,0.2094,-0.14,0.8695,-6.7,8.84,-0.03,20.54
10209,0.2024,-0.1459,0.8774,-6.29,8.5,0.03,20.55
10219,0.1996,-0.1458,0.8806,-5.95,7.73,-0.08,20.52
10229,0.2051,-0.1458,0.8794,-5.62,6.9,-0.15,20.54
10239,0.2065,-0.1431,0.8716,-5.73,6.99,-0.17,20.53
10249,0.21,-0.1462,0.8712,-6.06,7.66,-0.09,20.56
10259,0.2103,-0.1425,0.8704,-6.53,8.52,-0.05,20.53
10269,0.2041,-0.1444,0.8718,-6.44,8.29,-0.02,20.52
10279,0.2062,-0.149,0.8702,-6.27,7.71,-0.02,20.52
10289,0.2069,-0.1432,0.8706,-5.92,7.18,-0.08,20.57
10299,0.2065,-0.1416,0.8732,-5.63,7.13,-0.12,20.54
10309,0.2102,-0.1416,0.8733,-5.59,7.56,0.02,20.52
10319,0.2056,-0.1414,0.8738,-5.88,8.06,0.06,20.54
10329,0.204,-0.1393,0.877,-6.37,8.15,-0.03,20.54
10339,0.2065,-0.1423,0.8743,-6.53,7.82,-0.09,20.54
10349,0.2062,-0.1448,0.8743,-6.38,7.51,-0.06,20.54
10359,0.2117,-0.1472,0.8694,-6.17,7.56,-0.11,20.54
10369,0.2133,-0.1443,0.8708,-5.74,7.71,-0.02,20.54
10379,0.2089,-0.1433,0.8776,-5.66,7.8,0.08,20.53
10389,0.2058,-0.1404,0.8809,-5.8,7.8,0.05,20.53
10399,0.2039,-0.1406,0.8781,-6.11,7.71,-0.06,20.53
10409,0.2042,-0.1417,0.8701,-6.41,7.53,-0.03,20.56
10419,0.2091,-0.1412,0.8678,-6.53,7.73,-0.05,20.52
10429,0.2089,-0.1453,0.865,-6.43,7.95,-0.05,20.55
10439,0.2075,-0.1434,0.8696,-6.02,8.02,-0.06,20.51
10449,0.2052,-0.1445,0.8724,-5.56,7.76,0.03,20.53
10459,0.205,-0.142,0.8801,-5.59,7.53,-0.09,20.54
10469,0.2083,-0.1421,0.8785,-5.91,7.4,-0.08,20.52
10479,0.2104,-0.1415,0.8795,-6.37,7.69,-0.08,20.54
10489,0.2089,-0.1414,0.8763,-6.6,7.98,-0.08,20.52
10499,0.2079,-0.1434,0.8721,-6.46,8.11,-0.02,20.54
10509,0.207,-0.1425,0.8698,-6.18,8.05,-0.02,20.54
10519,0.2057,-0.1427,0.8723,-5.8,7.63,-0.11,20.55
10529,0.2052,-0.1417,0.8778,-5.63,7.3,0.02,20.55
10539,0.2073,-0.1426,0.8745,-5.95,7.4,-0.02,20.54
10549,0.2068,-0.1405,0.8774,-6.24,7.69,-0.05,20.54
10559,0.2054,-0.1439,0.875,-6.5,8.17,-0.02,20.52
10569,0.205,-0.146,0.8694,-6.53,8.17,-0.06,20.55
10579,0.2019,-0.1476,0.87,-6.21,7.89,0.06,20.54
10589,0.2052,-0.1497,0.8707,-5.8,7.56,-0.06,20.53
10599,0.2051,-0.1439,0.8739,-5.51,7.3,-0.06,20.56
10609,0.208,-0.1425,0.8744,-5.54,7.39,-0.08,20.55
10619,0.2086,-0.1398,0.8763,-5.95,7.8,0.03,20.55
10629,0.2068,-0.1417,0.8827,-6.24,7.95,-0.06,20.52
10639,0.2061,-0.1422,0.8768,-6.5,7.97,-0.02,20.54
10649,0.2048,-0.1403,0.8706,-6.55,7.83,-0.08,20.51
10659,0.2073,-0.1453,0.8684,-6.32,7.76,-0.05,20.55
10669,0.2067,-0.1455,0.8672,-5.95,7.69,-0.02,20.52
10679,0.2072,-0.1433,0.8706,-5.68,7.71,-0.06,20.55
10689,0.2062,-0.1418,0.8757,-5.66,7.74,0.02,20.57
10699,0.205,-0.1438,0.881,-5.91,7.74,-0.02,20.55
10709,0.2083,-0.1434,0.8853,-6.11,7.68,-0.05,20.54
10719,0.2083,-0.1421,0.879,-6.43,7.69,0.03,20.52
10729,0.2084,-0.1443,0.8733,-6.47,7.8,-0.12,20.54
10739,0.2102,-0.1434,0.8694,-6.27,7.91,-0.12,20.55
10749,0.2069,-0.1461,0.8748,-6.09,7.79,-0.05,20.56
10759,0.2086,-0.1433,0.8704,-5.82,7.62,-0.11,20.58
10769,0.2087,-0.1449,0.8728,-5.76,7.56,-0.11,20.55
10779,0.2079,-0.1409,0.8743,-6.0,7.59,-0.12,20.56
10789,0.2089,-0.1417,0.8774,-6.21,7.76,-0.05,20.55
10799,0.2075,-0.1405,0.8762,-6.31,7.91,-0.03,20.54
10809,0.2069,-0.1422,0.8757,-6.24,8.0,-0.06,20.54
10819,0.2069,-0.1421,0.8732,-6.09,7.77,-0.09,20.53
10829,0.2063,-0.1412,0.8767,-5.88,7.59,-0.11,20.56
10839,0.2053,-0.141,0.8781,-5.94,7.57,-0.03,20.58
10849,0.2056,-0.1414,0.8694,-6.0,7.73,-0.08,20.56
10859,0.204,-0.145,0.8759,-6.09,7.98,-0.03,20.54
10869,0.204,-0.1436,0.8733,-6.21,8.0,-0.03,20.56
10879,0.2025,-0.1443,0.8754,-6.15,7.8,-0.09,20.57
10889,0.2067,-0.1459,0.8735,-6.21,7.65,-0.05,20.54
10899,0.2068,-0.142,0.8735,-6.02,7.53,-0.11,20.55
10909,0.2073,-0.1407,0.8722,-6.14,7.57,-0.09,20.54
10919,0.2069,-0.1414,0.8729,-6.06,7.74,-0.03,20.54
10929,0.207,-0.1436,0.8724,-6.09,7.88,-0.05,20.55
10939,0.2073,-0.1436,0.8671,-6.17,7.89,-0.05,20.56
10949,0.2058,-0.142,0.87,-6.12,7.79,0.0,20.57
10959,0.2065,-0.1387,0.8655,-6.05,7.69,-0.11,20.56
10969,0.2075,-0.1411,0.8737,-6.05,7.79,-0.08,20.57
10979,0.2076,-0.1428,0.8754,-5.97,7.86,0.02,20.57
10989,0.2073,-0.142,0.8787,-5.94,7.8,-0.06,20.55
10999,0.2085,-0.1406,0.8821,-6.06,7.76,-0.05,20.55
11009,0.2061,-0.1433,0.8802,-6.2,7.71,-0.12,20.55
11019,0.209,-0.1427,0.8798,-6.38,7.73,0.02,20.56
11029,0.2098,-0.1432,0.8762,-6.31,7.71,-0.02,20.55
11039,0.2073,-0.1416,0.8717,-6.11,7.8,-0.02,20.56
11049,0.2098,-0.1428,0.8748,-6.02,7.83,-0.08,20.56
11059,0.2097,-0.1422,0.8748,-5.92,7.69,-0.12,20.55
11069,0.2102,-0.1451,0.8765,-5.98,7.65,-0.05,20.55
11079,0.2114,-0.1472,0.8816,-6.05,8.2,0.03,20.54
11089,0.2031,-0.1398,0.8716,-6.27,8.03,0.0,20.57
11099,0.2059,-0.1403,0.8716,-6.46,7.66,-0.12,20.57
11109,0.203,-0.134,0.8668,-6.18,7.39,-0.2,20.55
11119,0.2095,-0.142,0.8712,-5.89,7.59,-0.09,20.53
11129,0.2107,-0.142,0.8734,-5.95,8.05,-0.03,20.56
11139,0.2114,-0.1437,0.8781,-5.95,8.09,-0.06,20.57
11149,0.2029,-0.1479,0.8749,-6.26,7.69,-0.08,20.57
11159,0.2064,-0.1469,0.876,-6.31,7.51,-0.08,20.55
11169,0.2067,-0.1451,0.8684,-6.38,7.66,-0.18,20.54
11179,0.2061,-0.1436,0.8652,-6.18,7.95,-0.03,20.57
11189,0.2047,-0.1479,0.8685,-5.92,8.05,0.08,20.55
11199,0.2046,-0.1443,0.8776,-5.69,7.82,-0.03,20.57
11209,0.2045,-0.1433,0.8757,-5.63,7.37,-0.08,20.57
11219,0.2058,-0.1425,0.874,-5.77,7.13,-0.09,20.55
11229,0.2095,-0.1436,0.8754,-6.26,7.53,-0.08,20.57
11239,0.2107,-0.1436,0.8689,-6.55,7.97,-0.06,20.58
11249,0.2035,-0.146,0.8705,-6.58,8.31,-0.06,20.55
11259,0.2072,-0.147,0.8711,-6.26,8.12,-0.02,20.57
11269,0.2054,-0.1466,0.8732,-5.85,7.56,-0.03,20.56
11279,0.2091,-0.1438,0.8738,-5.54,7.19,-0.03,20.56
11289,0.2075,-0.1392,0.8777,-5.45,7.31,-0.03,20.57
11299,0.2097,-0.1401,0.8831,-5.66,7.68,-0.03,20.55
11309,0.2096,-0.1384,0.8782,-6.2,8.0,-0.05,20.55
11319,0.2052,-0.1368,0.8767,-6.61,8.08,0.02,20.54
11329,0.2067,-0.1417,0.8729,-6.72,7.91,-0.05,20.57
11339,0.2096,-0.1464,0.8693,-6.47,7.74,-0.2,20.56
11349,0.2112,-0.1465,0.8645,-6.14,7.6,-0.06,20.55
11359,0.2126,-0.1464,0.8708,-5.73,7.77,-0.06,20.57
11369,0.212,-0.1433,0.875,-5.57,7.69,-0.03,20.57
11379,0.2076,-0.1449,0.8783,-5.69,7.63,-0.03,20.57
11389,0.2059,-0.1421,0.8795,-6.08,7.54,-0.03,20.56
11399,0.2092,-0.1412,0.8723,-6.43,7.71,-0.06,20.57
11409,0.2085,-0.1384,0.8705,-6.53,7.91,-0.08,20.57
11419,0.2047,-0.1409,0.8676,-6.43,8.02,0.03,20.57
11429,0.2067,-0.1436,0.8668,-6.0,7.95,-0.06,20.57
11439,0.2021,-0.1431,0.8734,-5.74,7.6,0.02,20.59
11449,0.2024,-0.1416,0.8776,-5.73,7.54,-0.08,20.56
11459,0.2056,-0.1434,0.8807,-6.02,7.54,-0.03,20.56
11469,0.2081,-0.1449,0.8772,-6.27,7.66,-0.06,20.57
11479,0.2074,-0.1423,0.8761,-6.5,7.98,-0.06,20.6
11489,0.2054,-0.1433,0.8754,-6.43,8.02,-0.03,20.56
11499,0.205,-0.1448,0.8728,-6.14,7.76,-0.03,20.57
11509,0.2047,-0.1427,0.8715,-5.88,7.59,-0.08,20.55
11519,0.2063,-0.1445,0.8735,-5.69,7.48,-0.14,20.57
11529,0.2098,-0.1434,0.8774,-5.83,7.57,0.0,20.59
11539,0.2092,-0.1443,0.8771,-6.08,7.83,-0.06,20.59
11549,0.2072,-0.1426,0.8761,-6.27,7.97,-0.05,20.57
11559,0.2073,-0.1422,0.8761,-6.31,7.92,-0.03,20.56
11569,0.2069,-0.1459,0.8739,-6.24,7.85,-0.06,20.55
11579,0.2076,-0.1434,0.8743,-6.08,7.66,-0.03,20.57
11589,0.2069,-0.1422,0.8751,-5.85,7.6,-0.09,20.59
11599,0.2076,-0.1411,0.8784,-5.8,7.62,-0.03,20.58
11609,0.2089,-0.1432,0.88,-6.02,7.79,0.0,20.56
11619,0.2089,-0.1432,0.8783,-6.26,7.85,-0.02,20.58
11629,0.2073,-0.1429,0.8788,-6.41,7.73,-0.03,20.59
11640,0.2057,-0.1436,0.871,-6.41,7.86,-0.03,20.58
11650,0.2072,-0.1465,0.8727,-6.18,7.8,-0.11,20.57
11660,0.2065,-0.1458,0.8696,-6.0,7.73,-0.08,20.55
11670,0.2086,-0.1459,0.8728,-5.74,7.63,-0.09,20.57
11680,0.2054,-0.1466,0.8773,-5.79,7.48,-0.11,20.56
11690,0.2063,-0.1418,0.875,-5.91,7.57,-0.06,20.57
11700,0.2086,-0.1412,0.8726,-6.12,7.69,-0.02,20.56
11710,0.208,-0.1398,0.8704,-6.37,7.88,-0.02,20.56
11720,0.2048,-0.1428,0.8701,-6.38,7.92,-0.05,20.57
11730,0.2059,-0.1393,0.8685,-6.24,7.85,-0.06,20.54
11740,0.2041,-0.1398,0.8682,-6.11,7.71,-0.02,20.55
11750,0.2059,-0.1427,0.875,-5.95,7.65,-0.08,20.59
11760,0.2083,-0.1438,0.8711,-5.8,7.63,-0.06,20.56
11770,0.2059,-0.1427,0.875,-6.02,7.71,-0.08,20.58
11780,0.2068,-0.1455,0.8793,-6.12,7.8,-0.08,20.58
11790,0.2051,-0.1412,0.8762,-6.23,7.88,0.05,20.57
11800,0.207,-0.1437,0.8759,-6.21,7.77,0.03,20.57
11810,0.209,-0.1426,0.8726,-6.2,7.73,-0.06,20.58
11820,0.2057,-0.1436,0.8726,-6.15,7.74,-0.06,20.57
11830,0.2064,-0.1423,0.8811,-5.98,7.74,-0.09,20.57
11840,0.2069,-0.1428,0.8782,-5.89,7.74,-0.05,20.59
11850,0.2072,-0.1436,0.8787,-5.94,7.71,-0.09,20.59
11860,0.209,-0.1416,0.8755,-6.15,7.71,-0.08,20.56
11870,0.2073,-0.1411,0.8765,-6.31,7.79,-0.09,20.55
11880,0.2073,-0.1459,0.8741,-6.31,7.77,-0.03,20.55
11890,0.2108,-0.1444,0.8723,-6.21,7.89,-0.09,20.55
11900,0.2072,-0.1434,0.873,-6.15,7.8,-0.08,20.59
11910,0.2068,-0.1405,0.873,-5.83,7.74,-0.03,20.57
11920,0.2062,-0.1442,0.875,-5.82,7.68,-0.05,20.54
11930,0.2069,-0.1412,0.8766,-6.03,7.6,-0.03,20.55
11940,0.207,-0.1421,0.8735,-6.17,7.71,-0.05,20.55
11950,0.2074,-0.1426,0.8726,-6.15,7.85,-0.14,20.57
11960,0.2059,-0.1439,0.8734,-6.32,7.88,-0.14,20.57
11971,0.2054,-0.145,0.8719,-6.2,7.85,-0.06,20.6
11981,0.2046,-0.1436,0.8729,-6.06,7.69,-0.06,20.58
11991,0.2065,-0.1449,0.8773,-5.94,7.59,-0.08,20.59
12001,0.2063,-0.1401,0.8739,-5.95,7.59,0.02,20.59
12011,0.2081,-0.1396,0.8746,-5.98,7.74,0.02,20.59
12021,0.2067,-0.1411,0.8739,-6.08,7.89,-0.03,20.59
12031,0.2075,-0.1434,0.8735,-6.08,7.94,-0.02,20.59
12041,0.2057,-0.1458,0.875,-6.21,7.79,-0.03,20.59
12051,0.2079,-0.1458,0.8729,-6.27,7.69,-0.08,20.6
12061,0.2069,-0.1445,0.8733,-6.24,7.68,-0.05,20.59
12071,0.2073,-0.1439,0.8691,-6.17,7.66,-0.05,20.58
12081,0.2081,-0.1443,0.8691,-6.12,7.79,0.0,20.58
12091,0.2064,-0.1432,0.8739,-6.09,7.82,-0.05,20.59
12101,0.2061,-0.1418,0.8718,-6.02,7.8,0.02,20.57
12111,0.2079,-0.1389,0.8724,-6.06,7.63,-0.05,20.57
12121,0.208,-0.1432,0.8715,-6.03,7.59,-0.09,20.58
12131,0.2084,-0.141,0.875,-5.97,7.57,-0.08,20.58
12141,0.2096,-0.1453,0.8735,-6.12,7.65,-0.08,20.61
12151,0.2076,-0.142,0.8726,-6.14,7.86,0.0,20.57
12161,0.2089,-0.1447,0.8744,-6.02,7.94,-0.06,20.58
12171,0.2056,-0.1433,0.8719,-6.02,7.8,-0.02,20.6
12181,0.2078,-0.1427,0.876,-6.06,7.73,-0.08,20.58
12191,0.2084,-0.141,0.8796,-6.08,7.63,-0.06,20.57
12201,0.2083,-0.1431,0.8774,-6.02,7.66,-0.02,20.57
12211,0.21,-0.1423,0.8787,-6.06,7.76,0.0,20.56
12221,0.2089,-0.1398,0.874,-6.08,7.86,-0.02,20.55
12231,0.2087,-0.1421,0.8774,-6.15,7.79,-0.06,20.59
12241,0.2107,-0.1466,0.8772,-6.18,7.79,-0.09,20.58
12251,0.2078,-0.1425,0.8748,-6.14,7.73,-0.06,20.58
12261,0.2086,-0.1412,0.8748,-6.11,7.69,-0.11,20.58
12271,0.2079,-0.1437,0.87,-6.05,7.74,-0.03,20.58
12281,0.2086,-0.1433,0.8701,-6.03,7.83,-0.02,20.59
12291,0.2039,-0.1396,0.8735,-6.03,7.74,-0.05,20.58
12301,0.2047,-0.142,0.8706,-6.03,7.69,-0.08,20.59
12311,0.2074,-0.1415,0.8727,-6.09,7.69,-0.06,20.57
12321,0.2073,-0.1379,0.8792,-6.14,7.71,-0.09,20.57
12331,0.208,-0.1432,0.8734,-6.17,7.8,-0.06,20.58
12341,0.2072,-0.1438,0.879,-6.2,7.8,-0.06,20.59
12351,0.2074,-0.1409,0.8719,-6.14,7.85,0.03,20.57
12361,0.2052,-0.1449,0.8737,-6.14,7.74,-0.02,20.59
12371,0.2079,-0.1426,0.8771,-6.02,7.69,-0.05,20.58
12381,0.2078,-0.1415,0.871,-5.94,7.68,-0.05,20.59
12391,0.2051,-0.1423,0.8733,-5.95,7.69,-0.03,20.58
12401,0.2017,-0.1414,0.8765,-6.0,7.69,-0.03,20.58
12411,0.2067,-0.1407,0.8759,-6.17,7.76,-0.03,20.56
12421,0.2056,-0.1412,0.873,-6.23,7.76,-0.09,20.58
12431,0.2085,-0.1427,0.8719,-6.21,7.79,0.02,20.6
12441,0.2048,-0.1383,0.8718,-6.17,7.79,-0.03,20.59
12451,0.2057,-0.1439,0.8726,-6.12,7.76,0.05,20.59
12461,0.203,-0.1437,0.8741,-6.08,7.62,0.03,20.59
12471,0.2059,-0.1421,0.8745,-6.0,7.69,-0.06,20.58
12481,0.2073,-0.1436,0.8763,-6.05,7.69,-0.11,20.58
12491,0.2095,-0.1436,0.8834,-5.98,7.59,-0.02,20.6
12501,0.2086,-0.1434,0.8778,-6.02,7.79,0.02,20.59
12511,0.2109,-0.1447,0.8776,-6.2,7.82,-0.08,20.58
12521,0.2107,-0.1454,0.8726,-6.2,7.77,-0.05,20.58
12531,0.2059,-0.1417,0.8771,-6.18,7.8,-0.08,20.59
12541,0.2091,-0.1464,0.8701,-6.15,7.76,0.02,20.57
12551,0.2084,-0.1428,0.8738,-6.15,7.79,-0.05,20.57
12562,0.2048,-0.1427,0.8761,-6.03,7.74,-0.08,20.6
12572,0.2045,-0.1436,0.875,-6.09,7.71,-0.03,20.59
12582,0.2091,-0.1415,0.8756,-5.98,7.73,0.0,20.6
12592,0.2053,-0.1425,0.8751,-5.97,7.69,-0.02,20.59
12602,0.2057,-0.1414,0.8726,-6.11,7.66,-0.06,20.57
12612,0.2061,-0.1438,0.8749,-6.12,7.79,-0.06,20.57
12622,0.2076,-0.1454,0.8762,-6.11,7.8,-0.08,20.61
12632,0.2097,-0.1459,0.8727,-6.08,7.83,-0.08,20.58
12642,0.2073,-0.1422,0.8732,-6.15,7.79,-0.06,20.59
12652,0.2047,-0.1416,0.8722,-6.09,7.68,-0.05,20.58
12662,0.204,-0.1454,0.8759,-6.06,7.66,-0.08,20.6
12672,0.2092,-0.1433,0.873,-6.08,7.74,-0.11,20.62
12682,0.2078,-0.1417,0.8741,-6.14,7.8,-0.08,20.59
12692,0.2057,-0.1409,0.8649,-6.18,7.76,-0.03,20.58
12702,0.2041,-0.1443,0.8713,-6.21,7.77,-0.05,20.61
12712,0.2073,-0.1417,0.8721,-6.08,7.77,-0.02,20.57
12722,0.2061,-0.1431,0.8722,-6.05,7.71,-0.06,20.58
12732,0.2074,-0.1439,0.8745,-5.89,7.68,0.03,20.59
12742,0.2081,-0.1432,0.8757,-6.02,7.73,0.02,20.57
12752,0.2086,-0.1431,0.8738,-6.08,7.79,-0.06,20.59
12762,0.2075,-0.1461,0.8743,-6.17,7.8,0.03,20.59
12772,0.2062,-0.1466,0.8765,-6.2,7.79,-0.05,20.59
12782,0.2073,-0.1406,0.873,-6.06,7.77,-0.08,20.58
12792,0.2075,-0.1432,0.8739,-6.05,7.71,0.0,20.59
12802,0.2059,-0.1436,0.8737,-5.98,7.73,-0.02,20.6
12812,0.2097,-0.1453,0.873,-5.92,7.73,-0.08,20.6
12823,0.2084,-0.1445,0.8733,-6.02,7.71,-0.05,20.59
12833,0.2097,-0.1466,0.8783,-6.14,7.76,-0.02,20.59
12843,0.207,-0.146,0.8737,-6.18,7.79,-0.09,20.59
12853,0.21,-0.1447,0.8732,-6.17,7.76,-0.08,20.59
12863,0.2067,-0.1405,0.8719,-5.98,7.82,-0.08,20.6
12873,0.2068,-0.1462,0.8765,-5.97,7.69,0.0,20.59
12883,0.207,-0.1405,0.8785,-6.03,7.68,0.0,20.58
12893,0.2052,-0.1403,0.8771,-6.11,7.65,-0.06,20.6
12903,0.2085,-0.1429,0.8755,-6.08,7.77,-0.06,20.61
12913,0.2074,-0.1423,0.8739,-6.17,7.8,-0.06,20.6
12923,0.2067,-0.1453,0.8767,-6.26,7.89,-0.05,20.59
12933,0.2042,-0.1418,0.8744,-6.17,7.82,0.02,20.59
12943,0.2064,-0.1464,0.8715,-6.21,7.73,-0.05,20.6
12953,0.2054,-0.1459,0.8738,-6.03,7.69,-0.03,20.59
12963,0.2065,-0.1425,0.8711,-6.0,7.76,-0.02,20.58
12973,0.2111,-0.1415,0.8682,-5.88,7.66,0.0,20.57
12983,0.2069,-0.1422,0.8744,-5.97,7.77,0.06,20.6
12993,0.2057,-0.1412,0.8708,-6.0,7.82,0.03,20.59
13003,0.2069,-0.1406,0.8754,-6.06,7.73,-0.05,20.58
13013,0.2051,-0.14,0.8701,-6.18,7.76,-0.09,20.59
13023,0.2052,-0.1392,0.8738,-6.23,7.82,-0.05,20.57
13033,0.2067,-0.1422,0.8759,-6.14,7.85,-0.03,20.58
13043,0.2041,-0.144,0.8767,-6.09,7.82,-0.08,20.59
13053,0.2064,-0.1427,0.8784,-5.97,7.76,0.02,20.58
13063,0.2051,-0.1427,0.8784,-6.02,7.66,-0.05,20.61
13073,0.2085,-0.1438,0.8807,-6.08,7.69,-0.08,20.59
13083,0.2079,-0.145,0.8773,-6.21,7.82,-0.12,20.59
13093,0.2097,-0.1449,0.8749,-6.31,7.77,-0.02,20.57
13103,0.2097,-0.1443,0.8774,-6.2,7.79,-0.06,20.6
13113,0.2085,-0.1492,0.8713,-6.12,7.68,-0.11,20.58
13123,0.2091,-0.1477,0.8733,-5.98,7.62,-0.06,20.59
13133,0.2112,-0.1456,0.8756,-5.98,7.68,-0.03,20.6
13143,0.2113,-0.142,0.8773,-6.03,7.69,-0.02,20.61
13153,0.2115,-0.1416,0.8752,-6.09,7.77,-0.06,20.58
13163,0.2056,-0.1437,0.877,-6.18,7.79,-0.06,20.6
13173,0.2092,-0.1436,0.8774,-6.17,7.68,0.02,20.6
13183,0.2072,-0.1422,0.8688,-6.23,7.66,-0.06,20.61
13193,0.2085,-0.1409,0.8738,-6.12,7.8,0.0,20.6
13203,0.2073,-0.1406,0.8726,-6.05,7.77,0.0,20.59
13213,0.2061,-0.1436,0.8745,-6.02,7.8,0.0,20.61
13223,0.2051,-0.1461,0.8726,-6.08,7.73,-0.05,20.62
13233,0.2085,-0.1443,0.8739,-6.18,7.8,-0.08,20.59
13243,0.2064,-0.1416,0.8752,-6.24,7.83,-0.05,20.61
13253,0.2084,-0.1467,0.8699,-6.29,7.8,-0.03,20.62
13263,0.2072,-0.1445,0.8702,-6.14,7.82,-0.02,20.61
13273,0.2083,-0.145,0.8673,-5.95,7.73,-0.02,20.62
13283,0.205,-0.1416,0.8722,-5.94,7.66,-0.05,20.64
13293,0.2058,-0.1439,0.8721,-5.94,7.68,0.0,20.62
13303,0.2091,-0.1439,0.8777,-6.02,7.68,-0.09,20.59
13313,0.2067,-0.1427,0.8777,-6.11,7.69,0.05,20.6
13323,0.2074,-0.1439,0.8757,-6.26,7.88,0.0,20.59
13333,0.2062,-0.1451,0.8762,-6.23,7.92,-0.02,20.59
13343,0.2064,-0.1445,0.8754,-6.12,7.83,-0.03,20.59
13353,0.2028,-0.1437,0.8746,-6.06,7.71,0.0,20.62
13363,0.2072,-0.1403,0.8737,-6.03,7.63,-0.05,20.62
13373,0.2089,-0.1426,0.8741,-6.03,7.73,-0.08,20.6
13383,0.2079,-0.1431,0.8766,-6.08,7.76,-0.02,20.61
13393,0.2085,-0.1405,0.8717,-6.17,7.86,-0.08,20.64
13403,0.2073,-0.1428,0.8728,-6.21,7.85,0.03,20.6
13413,0.2075,-0.1426,0.8715,-6.11,7.74,-0.06,20.62
13423,0.209,-0.1415,0.8755,-6.05,7.74,0.0,20.62
13433,0.205,-0.1416,0.8757,-5.97,7.77,-0.08,20.62
13443,0.2074,-0.145,0.8733,-6.09,7.69,0.02,20.62
13453,0.2102,-0.1392,0.8716,-6.03,7.69,-0.05,20.61
13463,0.2083,-0.1415,0.8735,-6.23,7.76,0.0,20.62
13473,0.207,-0.1434,0.8766,-6.21,7.77,-0.03,20.61
13483,0.2079,-0.1439,0.8708,-6.23,7.82,-0.03,20.62
13493,0.2072,-0.1445,0.8719,-6.18,7.82,-0.03,20.61
13503,0.2067,-0.141,0.8708,-6.0,7.8,-0.03,20.62
13513,0.2068,-0.1425,0.8734,-5.98,7.76,-0.06,20.62
13523,0.209,-0.1447,0.8743,-6.05,7.74,0.0,20.62
13533,0.2079,-0.1438,0.8743,-6.02,7.74,-0.03,20.62
13543,0.2068,-0.1445,0.8771,-6.23,7.73,-0.09,20.59
13553,0.2072,-0.1416,0.8718,-6.2,7.8,-0.05,20.6
13563,0.2094,-0.1401,0.8767,-6.34,7.77,-0.06,20.62
13573,0.2085,-0.1444,0.8722,-6.15,7.79,-0.12,20.62
13583,0.2073,-0.146,0.8727,-6.0,7.69,-0.09,20.61
13593,0.2067,-0.1445,0.875,-5.95,7.71,-0.09,20.62
13603,0.2072,-0.1438,0.8757,-5.95,7.76,-0.08,20.62
13613,0.2072,-0.1418,0.8773,-6.05,7.71,-0.06,20.62
13623,0.2078,-0.1416,0.8748,-6.24,7.82,-0.11,20.63
13633,0.2085,-0.141,0.8735,-6.31,7.8,-0.08,20.63
13643,0.2064,-0.1434,0.8761,-6.31,7.8,-0.08,20.62
13653,0.2073,-0.1427,0.8761,-6.17,7.77,-0.05,20.62
13663,0.2072,-0.1439,0.8707,-5.98,7.77,-0.08,20.62
13673,0.2091,-0.1447,0.8717,-5.97,7.68,0.02,20.63
13683,0.2078,-0.1437,0.8767,-5.94,7.71,-0.11,20.61
13693,0.2065,-0.1418,0.8759,-6.08,7.73,-0.05,20.62
13703,0.2097,-0.1436,0.8751,-6.2,7.63,-0.09,20.61
13713,0.2084,-0.1432,0.8746,-6.14,7.77,-0.11,20.62
13723,0.2079,-0.1439,0.874,-6.17,7.79,-0.05,20.64
13733,0.2096,-0.1426,0.8713,-6.06,7.74,-0.03,20.62
13743,0.2065,-0.1437,0.871,-6.03,7.66,0.0,20.6
13753,0.2086,-0.1383,0.874,-5.92,7.71,-0.09,20.63
13763,0.2081,-0.1416,0.8721,-6.02,7.74,-0.03,20.62
13773,0.2063,-0.1407,0.8743,-6.21,7.85,-0.05,20.62
13783,0.2057,-0.141,0.8734,-6.27,7.86,0.0,20.63
13793,0.2054,-0.1414,0.8762,-6.29,7.89,-0.06,20.62
13803,0.2031,-0.1417,0.8688,-6.17,7.85,-0.03,20.61
13813,0.2072,-0.1448,0.8737,-6.03,7.69,-0.02,20.62
13823,0.2069,-0.1421,0.8787,-5.92,7.68,-0.02,20.64
13833,0.2067,-0.1461,0.8752,-5.88,7.59,-0.03,20.62
13843,0.2089,-0.1436,0.8767,-6.08,7.71,0.02,20.61
13853,0.2096,-0.142,0.8782,-6.14,7.82,-0.08,20.63
13863,0.2064,-0.1418,0.8789,-6.29,7.83,-0.03,20.62
13873,0.2075,-0.1461,0.8772,-6.23,7.88,-0.06,20.64
13883,0.2057,-0.1411,0.8776,-6.08,7.82,-0.06,20.63
13893,0.2089,-0.1414,0.8768,-5.92,7.68,-0.05,20.61
13903,0.208,-0.144,0.8784,-6.02,7.69,-0.08,20.63
13913,0.2073,-0.1399,0.8802,-6.11,7.68,-0.05,20.62
13923,0.2064,-0.1404,0.8726,-6.17,7.8,-0.08,20.62
13933,0.2073,-0.1415,0.8757,-6.26,7.79,-0.06,20.62
13943,0.2086,-0.1447,0.8691,-6.29,7.85,-0.05,20.62
13953,0.2059,-0.142,0.8717,-6.17,7.8,-0.08,20.61
13963,0.2094,-0.1426,0.87,-5.98,7.69,-0.02,20.62
13973,0.2041,-0.1423,0.8737,-5.94,7.68,0.0,20.61
13983,0.2031,-0.1431,0.8727,-5.86,7.6,-0.12,20.62
13993,0.2076,-0.1425,0.874,-6.15,7.74,-0.05,20.63
14003,0.2053,-0.1404,0.8722,-6.26,7.74,-0.02,20.61
14013,0.2067,-0.144,0.8673,-6.35,7.77,-0.11,20.63
14023,0.2067,-0.1444,0.868,-6.27,7.8,-0.06,20.64
14033,0.2065,-0.1449,0.868,-6.06,7.68,-0.08,20.62
14043,0.2059,-0.1421,0.8702,-5.98,7.66,-0.02,20.62
14053,0.2073,-0.1447,0.8705,-5.8,7.62,-0.06,20.63
14063,0.2065,-0.1443,0.8728,-5.94,7.76,-0.03,20.61
14073,0.2075,-0.1447,0.8726,-6.23,7.74,-0.09,20.62
14083,0.2056,-0.1418,0.8756,-6.32,7.79,-0.17,20.62
14093,0.2021,-0.1444,0.8732,-6.27,7.8,-0.02,20.63
14103,0.2068,-0.1443,0.8701,-6.2,7.82,-0.03,20.63
14113,0.2058,-0.145,0.8741,-6.11,7.71,-0.09,20.62
14123,0.2067,-0.1445,0.8776,-5.91,7.76,-0.05,20.62
14133,0.207,-0.1416,0.8741,-5.83,7.65,-0.05,20.63
14143,0.2092,-0.1431,0.8774,-5.94,7.71,-0.06,20.64
14153,0.2062,-0.1406,0.8784,-6.18,7.76,-0.06,20.62
14163,0.2078,-0.1462,0.8762,-6.27,7.85,-0.06,20.61
14173,0.2107,-0.1442,0.8754,-6.31,7.94,-0.02,20.62
14183,0.2089,-0.1418,0.8723,-6.32,7.79,-0.03,20.62
14193,0.2045,-0.1459,0.8774,-6.08,7.66,-0.05,20.64
14203,0.2097,-0.1439,0.8735,-5.92,7.77,-0.06,20.64
14213,0.2078,-0.1434,0.8757,-5.98,7.69,-0.05,20.64
14223,0.2086,-0.1447,0.8799,-6.08,7.71,-0.12,20.64
14233,0.2046,-0.141,0.8752,-6.15,7.71,-0.06,20.62
14243,0.2075,-0.1477,0.874,-6.18,7.85,-0.14,20.65
14253,0.21,-0.1409,0.8711,-6.17,7.86,-0.05,20.63
14263,0.2092,-0.1415,0.8694,-6.15,7.8,0.0,20.62
14273,0.2089,-0.1411,0.8722,-6.03,7.74,-0.12,20.61
14283,0.2054,-0.1448,0.8701,-6.06,7.66,-0.05,20.61
14293,0.2097,-0.1436,0.8705,-5.94,7.69,-0.11,20.62
14303,0.2068,-0.1415,0.8708,-6.06,7.68,-0.06,20.62
14313,0.2058,-0.1403,0.8719,-6.09,7.65,-0.06,20.62
14323,0.2053,-0.1412,0.871,-6.15,7.77,-0.08,20.62
14333,0.2091,-0.1418,0.8677,-6.12,7.83,-0.06,20.61
14343,0.205,-0.1412,0.875,-6.21,7.82,-0.05,20.65
14353,0.2086,-0.1417,0.8757,-6.08,7.71,-0.02,20.63
14363,0.2067,-0.1428,0.8727,-6.06,7.69,0.0,20.63
14373,0.2045,-0.1414,0.8718,-6.08,7.69,-0.06,20.63
14383,0.2062,-0.1404,0.8735,-6.14,7.66,-0.09,20.64
14393,0.2086,-0.1417,0.8801,-6.09,7.73,-0.02,20.61
14403,0.2089,-0.1465,0.8716,-6.08,7.83,-0.02,20.63
14413,0.2036,-0.1455,0.8744,-6.14,7.73,-0.06,20.64
14423,0.2067,-0.1417,0.874,-6.09,7.65,-0.06,20.62
14433,0.2085,-0.1436,0.8778,-6.05,7.65,0.05,20.64
14443,0.2115,-0.1431,0.8724,-6.03,7.66,-0.03,20.62
14453,0.2111,-0.1432,0.876,-6.05,7.85,-0.03,20.63
14463,0.2045,-0.1439,0.8766,-6.17,7.85,-0.09,20.64
14473,0.2074,-0.1422,0.8757,-6.11,7.73,0.09,20.63
14483,0.2046,-0.1428,0.8751,-6.15,7.68,-0.02,20.62
14493,0.2053,-0.1428,0.8715,-6.27,7.65,0.0,20.63
14503,0.2091,-0.1415,0.875,-6.15,7.73,0.0,20.62
14513,0.2037,-0.1448,0.868,-6.12,7.85,-0.08,20.62
14523,0.2056,-0.1455,0.8754,-6.06,7.82,-0.05,20.62
14533,0.2037,-0.1437,0.873,-6.0,7.77,-0.08,20.64
14543,0.2045,-0.1434,0.8734,-6.06,7.63,-0.09,20.63
14553,0.2069,-0.145,0.8745,-6.0,7.63,-0.03,20.6
14563,0.2078,-0.1438,0.8766,-6.08,7.73,-0.08,20.62
14573,0.2083,-0.1437,0.8748,-6.11,7.76,-0.03,20.63
14583,0.2101,-0.1454,0.8744,-6.2,7.8,-0.08,20.63
14593,0.2084,-0.1432,0.8732,-6.11,7.82,-0.06,20.64
14603,0.2075,-0.1461,0.8733,-6.14,7.73,-0.09,20.62
14613,0.2063,-0.1433,0.8708,-6.15,7.73,-0.09,20.62
14623,0.205,-0.1444,0.8743,-6.08,7.8,-0.05,20.62
14633,0.207,-0.1433,0.8707,-5.92,7.8,-0.08,20.61
14643,0.2069,-0.1406,0.8728,-6.11,7.85,-0.06,20.62
14653,0.2069,-0.1427,0.8719,-6.03,7.69,-0.05,20.63
14663,0.2069,-0.1421,0.8743,-6.14,7.63,-0.02,20.6
14673,0.2106,-0.1436,0.8694,-6.09,7.8,-0.08,20.62
14683,0.2065,-0.1429,0.8741,-6.06,7.85,-0.02,20.62
14693,0.2098,-0.1417,0.8752,-6.02,7.91,-0.05,20.62
14703,0.2065,-0.1466,0.8822,-5.97,7.74,0.02,20.64
14713,0.2073,-0.1439,0.8779,-5.91,7.63,-0.03,20.64
14723,0.2078,-0.1425,0.884,-5.95,7.65,-0.06,20.62
14733,0.2107,-0.1439,0.8809,-6.18,7.69,-0.06,20.63
14743,0.2075,-0.1447,0.8798,-6.26,7.91,-0.08,20.63
14753,0.208,-0.14,0.8732,-6.31,7.83,-0.05,20.63
14763,0.2064,-0.1442,0.8734,-6.24,7.77,-0.06,20.64
14773,0.2089,-0.1412,0.8739,-6.09,7.74,-0.02,20.68
14783,0.2061,-0.1448,0.8728,-6.05,7.65,-0.14,20.62
14793,0.2067,-0.1396,0.8749,-6.0,7.65,-0.02,20.64
14803,0.2083,-0.1409,0.8743,-6.06,7.82,-0.02,20.64
14813,0.2051,-0.146,0.8756,-6.02,7.89,0.0,20.64
14823,0.2053,-0.1412,0.8724,-6.15,7.68,-0.05,20.64
14833,0.2059,-0.1417,0.8734,-6.2,7.6,-0.12,20.66
14843,0.2047,-0.141,0.8713,-6.23,7.63,-0.12,20.63
14853,0.2051,-0.1428,0.874,-6.11,7.73,-0.09,20.63
14863,0.2026,-0.1447,0.8723,-6.24,7.83,0.0,20.64
14873,0.2072,-0.145,0.8729,-6.09,7.91,0.02,20.63
14883,0.2051,-0.1417,0.8722,-5.92,7.82,-0.03,20.66
14893,0.2048,-0.1451,0.8755,-5.98,7.71,0.0,20.64
14903,0.2036,-0.1437,0.876,-6.05,7.62,-0.05,20.63
14913,0.2046,-0.1425,0.8772,-6.11,7.69,-0.09,20.64
14923,0.2061,-0.1448,0.8772,-6.29,7.73,-0.08,20.66
14933,0.2081,-0.1445,0.8737,-6.34,7.74,-0.02,20.62
14943,0.2074,-0.1436,0.873,-6.18,7.83,-0.06,20.65
14953,0.2076,-0.1425,0.8718,-6.09,7.82,-0.03,20.64
14963,0.2083,-0.1455,0.8745,-5.95,7.63,-0.06,20.66
14973,0.2114,-0.1421,0.8752,-5.88,7.48,-0.08,20.65
14983,0.2111,-0.1416,0.8739,-6.02,7.57,-0.11,20.67
14993,0.2152,-0.1418,0.8756,-6.14,7.79,-0.03,20.67
15003,0.2169,-0.1422,0.8755,-6.18,7.86,0.03,20.65
15013,0.2136,-0.1423,0.8751,-6.32,8.0,-0.02,20.62
15023,0.2112,-0.1409,0.8737,-6.23,7.95,-0.08,20.65
15033,0.2062,-0.144,0.8733,-6.2,7.86,-0.12,20.64
15043,0.2064,-0.145,0.8729,-6.09,7.88,-0.08,20.62
15053,0.2019,-0.1458,0.8734,-6.05,7.94,-0.02,20.66
15063,0.2012,-0.1434,0.8799,-6.08,7.88,-0.05,20.64
15073,0.203,-0.145,0.8784,-6.11,7.76,-0.05,20.63
15083,0.199,-0.1456,0.8776,-6.18,7.65,-0.05,20.67
15093,0.2008,-0.1431,0.8728,-6.17,7.5,-0.08,20.64
15103,0.2057,-0.1438,0.8708,-6.15,7.63,-0.09,20.66
15113,0.2048,-0.1426,0.873,-5.97,7.74,-0.11,20.64
15123,0.207,-0.1432,0.8733,-5.85,7.79,-0.11,20.65
15133,0.2095,-0.1439,0.8782,-5.76,7.69,-0.08,20.66
15143,0.2125,-0.1428,0.8782,-5.83,7.56,-0.09,20.67
15153,0.2095,-0.1409,0.8781,-6.02,7.53,-0.15,20.65
15163,0.2097,-0.1406,0.8784,-6.31,7.56,-0.09,20.63
15173,0.2137,-0.1411,0.8727,-6.41,7.83,-0.08,20.64
15183,0.2092,-0.1428,0.8701,-6.43,7.98,-0.06,20.66
15193,0.2078,-0.1425,0.8707,-6.24,8.06,-0.02,20.65
15203,0.2041,-0.1464,0.8654,-6.0,7.86,-0.03,20.67
15213,0.204,-0.1434,0.8711,-5.77,7.6,0.03,20.66
15223,0.2058,-0.1416,0.8701,-5.83,7.5,-0.09,20.65
15233,0.2042,-0.1434,0.873,-6.0,7.54,-0.03,20.66
15243,0.203,-0.1411,0.8756,-6.14,7.83,-0.06,20.66
15253,0.2057,-0.1418,0.8741,-6.27,7.95,-0.03,20.66
15263,0.2037,-0.1427,0.871,-6.23,7.88,-0.03,20.67
15273,0.2078,-0.1404,0.871,-6.09,7.63,0.03,20.64
15283,0.2095,-0.139,0.8744,-5.97,7.53,-0.08,20.65
15293,0.2097,-0.1405,0.8738,-5.94,7.47,-0.12,20.64
15303,0.212,-0.142,0.8778,-5.91,7.8,0.0,20.67
15313,0.2141,-0.1423,0.8768,-6.12,7.94,-0.03,20.66
15323,0.2065,-0.1428,0.876,-6.26,7.98,-0.09,20.64
15333,0.2065,-0.142,0.8761,-6.26,7.94,-0.02,20.66
15343,0.2076,-0.1423,0.8711,-6.15,7.8,-0.05,20.64
15353,0.2067,-0.1442,0.8745,-6.23,7.68,-0.12,20.64
15363,0.2072,-0.1434,0.8763,-6.08,7.8,-0.06,20.65
15373,0.2039,-0.1444,0.8792,-6.14,7.79,-0.09,20.66
15383,0.207,-0.1469,0.8784,-6.02,7.82,-0.09,20.65
15393,0.2041,-0.1438,0.8738,-6.08,7.63,-0.11,20.64
15403,0.2039,-0.1406,0.8756,-6.02,7.56,-0.06,20.64
15413,0.2068,-0.1418,0.8741,-6.11,7.65,-0.12,20.64
15423,0.2085,-0.1416,0.8749,-6.08,7.68,-0.02,20.67
15433,0.2085,-0.1444,0.8746,-6.12,7.85,-0.05,20.68
15443,0.2074,-0.1423,0.8743,-6.12,7.85,-0.05,20.67
15453,0.2112,-0.1405,0.8757,-6.12,7.79,-0.08,20.67
15463,0.2052,-0.1404,0.8687,-6.14,7.69,-0.06,20.65
15473,0.2072,-0.1437,0.8708,-6.24,7.74,-0.11,20.65
15483,0.2091,-0.1422,0.8719,-6.29,7.82,-0.09,20.64
15493,0.2052,-0.1442,0.8672,-6.17,7.97,-0.02,20.67
15503,0.2067,-0.1407,0.869,-6.08,7.89,0.0,20.64
15513,0.2058,-0.1428,0.8658,-6.06,7.82,0.03,20.65
15523,0.203,-0.1432,0.8687,-5.98,7.63,-0.09,20.68
15533,0.207,-0.1438,0.8707,-5.95,7.63,-0.05,20.65
15543,0.2096,-0.1445,0.874,-6.09,7.66,0.02,20.66
15553,0.2083,-0.1416,0.8756,-6.03,7.82,-0.09,20.68
15563,0.2096,-0.1428,0.8746,-6.15,7.82,-0.05,20.67
15573,0.2068,-0.1438,0.8718,-6.03,7.76,-0.06,20.67
15583,0.2079,-0.1427,0.8802,-6.02,7.69,-0.02,20.67
15593,0.2089,-0.1449,0.8789,-5.91,7.66,-0.02,20.66
15603,0.2114,-0.1432,0.8813,-5.94,7.69,-0.03,20.64
15613,0.2079,-0.144,0.8783,-6.09,7.68,-0.11,20.63
15623,0.2086,-0.1439,0.8835,-6.26,7.79,-0.05,20.65
15633,0.2072,-0.1444,0.8776,-6.31,7.83,-0.11,20.65
15643,0.2069,-0.1454,0.876,-6.37,7.79,-0.06,20.67
15653,0.2052,-0.1476,0.8745,-6.18,7.69,-0.15,20.66
15663,0.2063,-0.1442,0.8712,-6.15,7.65,0.0,20.66
15673,0.2051,-0.1459,0.8695,-6.06,7.74,-0.06,20.68
15683,0.2053,-0.1453,0.8705,-6.02,7.68,-0.02,20.65
15693,0.2057,-0.1421,0.8728,-6.06,7.73,-0.05,20.64
15703,0.2063,-0.1421,0.8706,-6.09,7.69,-0.12,20.65
15713,0.2069,-0.1394,0.8705,-6.15,7.63,-0.08,20.65
15723,0.2039,-0.1353,0.8695,-6.12,7.77,-0.08,20.66
15733,0.2043,-0.141,0.8678,-6.14,7.8,-0.11,20.66
15743,0.2067,-0.1434,0.876,-6.08,7.69,-0.05,20.65
15753,0.2048,-0.1381,0.8718,-6.02,7.74,-0.08,20.64
15763,0.2056,-0.1411,0.8704,-6.03,7.74,-0.03,20.65
15773,0.2084,-0.1416,0.8748,-6.26,7.73,0.03,20.66
15783,0.2067,-0.1453,0.8728,-6.27,7.85,-0.08,20.67
15793,0.209,-0.1454,0.8766,-6.14,7.91,-0.02,20.66
15803,0.2054,-0.1437,0.8726,-6.15,7.79,0.03,20.68
15813,0.2025,-0.1432,0.8739,-6.02,7.77,0.0,20.65
15823,0.2057,-0.1429,0.8777,-5.89,7.63,-0.03,20.65
15833,0.2059,-0.1429,0.8813,-6.05,7.65,-0.11,20.65
15843,0.2069,-0.1431,0.8778,-6.02,7.73,-0.06,20.66
15853,0.2054,-0.1427,0.8767,-6.12,7.79,-0.11,20.64
15863,0.2075,-0.1426,0.8821,-6.15,7.8,-0.06,20.69
15873,0.204,-0.1414,0.8789,-6.15,7.74,-0.05,20.66
15883,0.2061,-0.1399,0.8761,-6.23,7.69,-0.06,20.69
15893,0.2084,-0.1439,0.8798,-6.18,7.62,-0.09,20.66
15903,0.2102,-0.144,0.8755,-6.23,7.69,-0.06,20.67
15913,0.2068,-0.1432,0.8779,-6.09,7.86,0.0,20.67
15923,0.2059,-0.1425,0.8756,-6.15,7.88,-0.03,20.69
15933,0.2072,-0.1422,0.8761,-6.08,7.88,-0.02,20.67
15943,0.208,-0.1426,0.8754,-6.09,7.68,-0.03,20.66
15953,0.2097,-0.1445,0.8766,-6.12,7.68,-0.09,20.67
15963,0.2091,-0.1455,0.8754,-6.18,7.77,-0.03,20.7
15973,0.2087,-0.1428,0.8734,-6.14,7.91,-0.05,20.69
15983,0.208,-0.144,0.8716,-6.11,7.88,-0.06,20.68
15993,0.204,-0.1428,0.8698,-6.14,7.73,0.0,20.67
16003,0.2061,-0.1415,0.8707,-6.15,7.63,-0.09,20.66
16013,0.2076,-0.1418,0.8677,-6.06,7.62,-0.15,20.66
16023,0.2067,-0.1432,0.8721,-6.06,7.76,-0.03,20.67
16033,0.2079,-0.1438,0.8701,-5.89,7.76,-0.08,20.67
16043,0.2078,-0.1436,0.8798,-5.97,7.73,-0.06,20.67
16053,0.2053,-0.1423,0.8765,-6.05,7.68,-0.02,20.67
16063,0.2078,-0.1403,0.8807,-6.18,7.54,-0.11,20.69
16073,0.2072,-0.1433,0.8774,-6.26,7.66,-0.05,20.67
16083,0.2058,-0.1454,0.8728,-6.37,7.83,-0.05,20.68
16093,0.2045,-0.1443,0.8727,-6.18,7.92,-0.11,20.68
16103,0.205,-0.1444,0.8719,-6.05,7.89,-0.08,20.69
16113,0.2053,-0.1415,0.8726,-5.95,7.66,-0.06,20.67
16123,0.2068,-0.1379,0.8708,-5.89,7.56,-0.03,20.67
16133,0.2075,-0.1429,0.8735,-6.03,7.66,-0.05,20.65
16143,0.2089,-0.1409,0.8752,-6.09,7.76,-0.05,20.68
16153,0.2083,-0.1427,0.8772,-6.35,7.94,-0.09,20.68
16163,0.2069,-0.1423,0.8782,-6.35,7.95,-0.11,20.68
16173,0.2098,-0.145,0.87,-6.18,7.85,-0.02,20.67
16183,0.2048,-0.1453,0.8699,-6.06,7.62,0.0,20.68
16193,0.2083,-0.1449,0.8783,-5.89,7.66,-0.03,20.66
16203,0.2065,-0.1418,0.879,-5.97,7.76,0.03,20.67
16213,0.2067,-0.1418,0.8743,-6.05,7.86,-0.05,20.7
16223,0.2047,-0.1416,0.8748,-6.18,7.89,-0.03,20.69
16233,0.2052,-0.1434,0.8783,-6.2,7.83,-0.02,20.66
16243,0.2083,-0.1411,0.8719,-6.12,7.74,-0.06,20.69
16253,0.2053,-0.1423,0.873,-6.12,7.68,-0.11,20.65
16263,0.21,-0.1423,0.8772,-6.05,7.69,-0.08,20.67
16273,0.2062,-0.1417,0.8755,-6.0,7.74,0.0,20.66
16283,0.207,-0.1416,0.8755,-6.17,7.79,-0.02,20.66
16293,0.2083,-0.1409,0.8743,-6.18,7.79,-0.06,20.67
16303,0.2065,-0.1372,0.8729,-6.26,7.85,0.0,20.71
16313,0.2068,-0.1414,0.877,-6.2,7.83,-0.02,20.69
16323,0.2021,-0.1449,0.8734,-6.15,7.79,0.06,20.7
16333,0.2068,-0.1434,0.8716,-6.08,7.77,-0.03,20.67
16343,0.2064,-0.1426,0.8717,-5.92,7.69,-0.05,20.67
16353,0.2054,-0.1396,0.8734,-6.09,7.66,-0.06,20.68
16363,0.2061,-0.1415,0.8738,-6.23,7.68,-0.03,20.67
16373,0.2075,-0.1414,0.8745,-6.24,7.79,-0.02,20.68
16383,0.2084,-0.1421,0.8745,-6.41,7.86,-0.06,20.67
16393,0.2074,-0.1461,0.8702,-6.12,7.88,-0.03,20.68
16403,0.2079,-0.1437,0.8743,-5.95,7.79,-0.03,20.69
16413,0.2067,-0.1445,0.8771,-5.82,7.68,-0.03,20.69
16423,0.2061,-0.1425,0.8773,-5.97,7.65,-0.02,20.67
16433,0.2081,-0.1437,0.876,-6.02,7.6,-0.05,20.68
16443,0.2068,-0.1428,0.8722,-6.23,7.76,-0.14,20.67
16453,0.2059,-0.1438,0.8724,-6.34,7.79,-0.06,20.67
16463,0.205,-0.1438,0.8715,-6.32,7.88,-0.11,20.65
16473,0.2067,-0.1443,0.8679,-6.14,7.83,-0.03,20.66
16483,0.2045,-0.1431,0.8713,-5.95,7.71,-0.11,20.69
16493,0.2052,-0.1426,0.8719,-5.89,7.56,-0.05,20.69
16503,0.2078,-0.1405,0.8766,-5.94,7.56,-0.11,20.68
16513,0.2067,-0.1414,0.8767,-6.05,7.63,-0.05,20.66
16523,0.2072,-0.1439,0.8713,-6.2,7.77,0.02,20.69
16533,0.2061,-0.1432,0.8718,-6.14,7.82,-0.05,20.67
16543,0.2096,-0.1445,0.8745,-6.21,7.83,-0.08,20.68
16553,0.2095,-0.1436,0.8765,-6.08,7.71,-0.12,20.64
16563,0.21,-0.1406,0.8754,-6.02,7.66,-0.12,20.67
16573,0.2094,-0.1436,0.8745,-5.98,7.76,-0.05,20.69
16583,0.2103,-0.1462,0.8772,-6.12,7.76,-0.02,20.66
16593,0.2084,-0.1448,0.8726,-6.12,7.86,-0.05,20.66
16603,0.2076,-0.145,0.8741,-6.27,7.77,0.0,20.65
16613,0.2085,-0.146,0.8726,-6.18,7.82,-0.05,20.68
16623,0.2064,-0.1417,0.8727,-6.11,7.68,-0.03,20.69
16633,0.2075,-0.1396,0.8712,-5.91,7.73,0.02,20.67
16643,0.2062,-0.1382,0.876,-5.94,7.73,0.0,20.67
16653,0.204,-0.1409,0.8746,-5.97,7.79,0.05,20.66
16663,0.2052,-0.1393,0.8762,-6.11,7.77,-0.05,20.67
16673,0.2069,-0.1431,0.8717,-6.24,7.79,-0.05,20.67
16683,0.2076,-0.145,0.8743,-6.32,7.8,-0.09,20.67
16693,0.2075,-0.1428,0.8708,-6.31,7.8,-0.06,20.65
16703,0.2048,-0.1411,0.8699,-6.17,7.85,-0.05,20.67
16713,0.207,-0.1423,0.8739,-5.88,7.74,-0.03,20.68
16723,0.2045,-0.1426,0.8788,-5.86,7.66,0.02,20.67
16733,0.2086,-0.1412,0.8738,-5.97,7.69,0.03,20.68
16743,0.2075,-0.1421,0.8795,-6.15,7.71,-0.03,20.67
16753,0.2058,-0.1429,0.8766,-6.35,7.8,-0.12,20.69
16763,0.2085,-0.1444,0.871,-6.46,7.77,-0.03,20.68
16773,0.2083,-0.1447,0.8682,-6.27,7.79,-0.08,20.68
16783,0.2069,-0.1426,0.8668,-6.08,7.74,0.02,20.69
16793,0.2059,-0.144,0.8715,-5.91,7.59,-0.03,20.67
16803,0.2073,-0.1436,0.8735,-5.8,7.59,-0.03,20.69
16813,0.2063,-0.1415,0.8755,-5.86,7.6,-0.12,20.67
16823,0.2058,-0.14,0.8757,-6.11,7.69,-0.08,20.64
16833,0.2076,-0.1432,0.877,-6.38,7.74,-0.08,20.7
16843,0.2073,-0.1384,0.8737,-6.43,7.91,-0.12,20.69
16853,0.2084,-0.1438,0.8729,-6.41,7.92,-0.06,20.71
16863,0.2048,-0.1453,0.8705,-6.18,7.89,-0.14,20.69
16873,0.2091,-0.1443,0.8755,-5.95,7.79,-0.05,20.69
16883,0.2075,-0.1445,0.8766,-5.88,7.65,-0.08,20.68
16893,0.209,-0.1418,0.8784,-6.05,7.51,-0.17,20.69
16903,0.2068,-0.1462,0.8829,-6.17,7.66,0.0,20.66
16913,0.2096,-0.1429,0.8734,-6.21,7.82,-0.08,20.65
16923,0.2072,-0.1428,0.8724,-6.26,7.86,-0.15,20.68
16933,0.2104,-0.1416,0.8726,-6.05,7.76,-0.05,20.71
16943,0.2074,-0.1456,0.8706,-5.97,7.69,0.03,20.68
16953,0.2064,-0.1414,0.8756,-5.85,7.57,-0.03,20.7
16963,0.207,-0.1417,0.8738,-6.03,7.6,-0.03,20.69
16973,0.2062,-0.1418,0.8728,-6.2,7.73,-0.02,20.68
16983,0.2075,-0.1426,0.8766,-6.26,7.89,0.03,20.69
16993,0.2061,-0.1396,0.8728,-6.35,7.95,-0.03,20.68
17003,0.2054,-0.1442,0.8744,-6.12,7.92,0.02,20.69
17013,0.2037,-0.1453,0.8727,-6.05,7.79,0.05,20.7
17023,0.2069,-0.1418,0.8724,-5.92,7.69,-0.03,20.68
17033,0.2079,-0.1426,0.8761,-5.95,7.69,-0.11,20.69
17043,0.2097,-0.1444,0.8793,-5.95,7.76,-0.03,20.7
17053,0.2059,-0.1438,0.8794,-6.21,7.86,-0.03,20.69
17063,0.2087,-0.1421,0.8766,-6.26,7.85,-0.03,20.68
17073,0.2035,-0.145,0.8751,-6.32,7.82,-0.06,20.69
17083,0.2062,-0.1443,0.8712,-6.14,7.68,0.0,20.71
17093,0.2057,-0.1439,0.8737,-6.02,7.63,-0.05,20.68
17103,0.2078,-0.1407,0.871,-5.86,7.63,-0.03,20.67
17113,0.2064,-0.1409,0.8782,-5.85,7.69,-0.02,20.7
17123,0.207,-0.1377,0.8782,-5.98,7.71,0.08,20.68
17133,0.2085,-0.1396,0.8712,-6.09,7.74,-0.14,20.69
17143,0.2058,-0.1412,0.8749,-6.24,7.76,-0.08,20.69
17153,0.2063,-0.1417,0.8749,-6.32,7.86,-0.05,20.68
17163,0.2097,-0.1451,0.8734,-6.23,7.85,-0.11,20.66
17173,0.2051,-0.1433,0.8737,-6.2,7.79,-0.06,20.7
17183,0.2065,-0.1469,0.8696,-6.09,7.71,-0.03,20.67
17193,0.2034,-0.1423,0.876,-6.14,7.68,-0.03,20.7
17203,0.2069,-0.1427,0.8729,-6.0,7.73,-0.11,20.65
17213,0.2074,-0.1459,0.8773,-6.08,7.83,-0.12,20.68
17223,0.2098,-0.1425,0.8729,-6.15,7.73,-0.05,20.71
17233,0.208,-0.1418,0.8757,-6.17,7.76,-0.09,20.7
17243,0.2064,-0.1423,0.8737,-6.09,7.69,-0.09,20.68
17253,0.2068,-0.1445,0.8748,-6.02,7.65,-0.06,20.7
17263,0.2058,-0.1421,0.8794,-6.06,7.71,0.0,20.69
17273,0.2069,-0.1415,0.8739,-6.09,7.77,-0.08,20.71
17283,0.2075,-0.142,0.8761,-6.17,7.8,-0.11,20.7
17293,0.2046,-0.144,0.8751,-6.29,7.74,-0.06,20.69
17303,0.2076,-0.144,0.8712,-6.21,7.85,-0.08,20.69
17313,0.2094,-0.1426,0.8743,-6.11,7.77,0.03,20.71
17323,0.209,-0.1437,0.875,-6.18,7.66,-0.05,20.69
17333,0.2064,-0.1421,0.871,-6.08,7.76,-0.08,20.69
17343,0.2059,-0.1443,0.8729,-6.0,7.69,-0.05,20.69
17353,0.2086,-0.1445,0.8763,-6.06,7.76,-0.02,20.72
17363,0.2085,-0.141,0.8777,-6.08,7.73,-0.08,20.69
17373,0.2057,-0.1458,0.8748,-6.17,7.74,0.0,20.69
17383,0.2056,-0.1426,0.8755,-6.17,7.83,-0.12,20.68
17393,0.2107,-0.1459,0.8738,-6.06,7.85,-0.05,20.68
17403,0.2075,-0.1444,0.8737,-6.06,7.74,-0.03,20.69
17413,0.2046,-0.1451,0.8741,-6.0,7.76,-0.05,20.69
17423,0.2065,-0.1458,0.8732,-6.03,7.69,-0.03,20.7
17433,0.2081,-0.1438,0.8727,-6.12,7.71,-0.03,20.69
17443,0.2061,-0.1434,0.8777,-6.15,7.82,-0.02,20.68
17453,0.207,-0.1401,0.8676,-6.24,7.88,-0.09,20.68
17463,0.2063,-0.142,0.873,-6.09,7.85,-0.11,20.7
17473,0.2063,-0.1405,0.8727,-6.06,7.71,0.0,20.71
17483,0.2068,-0.1422,0.8689,-6.02,7.71,-0.03,20.69
17493,0.2067,-0.1407,0.8767,-5.97,7.73,0.0,20.71
17503,0.2056,-0.1439,0.8744,-5.92,7.77,-0.03,20.69
17513,0.2075,-0.1436,0.8776,-6.11,7.8,-0.05,20.69
17523,0.2065,-0.1431,0.875,-6.15,7.74,-0.03,20.7
17533,0.2032,-0.1426,0.8723,-6.17,7.76,-0.08,20.69
17543,0.2051,-0.1428,0.8727,-6.26,7.79,-0.05,20.71
17553,0.207,-0.144,0.8716,-6.11,7.73,-0.03,20.69
17563,0.2067,-0.1439,0.8733,-6.06,7.76,-0.03,20.69
17573,0.2075,-0.1429,0.8779,-6.05,7.71,-0.06,20.69
17583,0.2074,-0.1431,0.8755,-6.02,7.73,-0.03,20.69
17593,0.2061,-0.1428,0.8729,-6.15,7.63,-0.02,20.71
17603,0.2057,-0.1428,0.8749,-6.12,7.76,0.06,20.69
17613,0.2061,-0.1427,0.8748,-6.27,7.79,-0.05,20.72
17623,0.2065,-0.1431,0.8785,-6.12,7.8,-0.09,20.7
17633,0.2051,-0.1428,0.8749,-6.06,7.8,-0.03,20.69
17643,0.2058,-0.1416,0.8737,-5.92,7.79,-0.02,20.69
17653,0.205,-0.1437,0.8765,-5.98,7.73,-0.06,20.69
17663,0.2064,-0.1444,0.8766,-6.11,7.65,-0.12,20.68
17673,0.2086,-0.1429,0.8773,-6.2,7.68,-0.06,20.67
17683,0.2087,-0.1427,0.8773,-6.2,7.8,-0.06,20.71
17693,0.208,-0.1445,0.8745,-6.23,7.79,-0.05,20.72
17703,0.2119,-0.1426,0.8713,-6.14,7.77,-0.08,20.71
17713,0.208,-0.1428,0.8784,-6.03,7.65,-0.11,20.69
17723,0.207,-0.1405,0.8745,-5.91,7.73,-0.11,20.69
17733,0.2083,-0.1426,0.8765,-5.97,7.73,-0.09,20.7
17743,0.2108,-0.1425,0.871,-6.12,7.8,0.02,20.69
17753,0.2059,-0.1396,0.8711,-6.2,7.85,0.02,20.69
17763,0.2085,-0.1434,0.8689,-6.31,7.88,-0.03,20.7
17773,0.2034,-0.1445,0.8682,-6.23,7.85,-0.05,20.69
17783,0.2032,-0.1465,0.8724,-6.11,7.83,-0.03,20.7
17793,0.2053,-0.1432,0.8735,-6.02,7.73,-0.06,20.69
17803,0.2051,-0.1449,0.8783,-5.97,7.65,-0.06,20.69
17813,0.2074,-0.1449,0.8743,-6.0,7.69,-0.03,20.7
17823,0.2078,-0.1422,0.8765,-6.06,7.73,-0.05,20.7
17833,0.2068,-0.144,0.879,-6.17,7.79,-0.03,20.69
17843,0.2087,-0.1414,0.8729,-6.24,7.8,-0.03,20.69
17853,0.2072,-0.1434,0.8745,-6.21,7.83,-0.03,20.7
17863,0.2059,-0.1422,0.8729,-6.05,7.74,-0.05,20.69
17873,0.2074,-0.1436,0.8761,-5.94,7.77,-0.08,20.72
17883,0.2075,-0.1405,0.8751,-6.06,7.74,-0.06,20.68
17893,0.2075,-0.142,0.8778,-5.98,7.8,0.02,20.69
17903,0.2103,-0.1415,0.8777,-5.98,7.73,-0.02,20.71
17913,0.208,-0.1431,0.8755,-6.06,7.71,-0.06,20.71
17923,0.2106,-0.1417,0.8761,-6.14,7.83,-0.02,20.72
17933,0.2086,-0.1423,0.8774,-6.03,7.79,-0.02,20.7
17943,0.2091,-0.1417,0.8752,-6.09,7.8,-0.03,20.69
17953,0.2103,-0.1422,0.8765,-6.15,7.73,-0.09,20.7
17963,0.2097,-0.1436,0.8804,-6.15,7.8,-0.08,20.7
17973,0.2063,-0.1428,0.8762,-6.15,7.79,-0.05,20.73
17983,0.2076,-0.1427,0.8699,-6.26,7.83,-0.06,20.7
17993,0.2072,-0.1428,0.8726,-6.26,7.82,-0.06,20.7
18003,0.2081,-0.1448,0.8704,-6.24,7.79,-0.09,20.67
18013,0.2084,-0.1436,0.8705,-5.98,7.77,-0.03,20.71
18023,0.2059,-0.1448,0.8738,-5.95,7.76,-0.08,20.69
18033,0.2075,-0.1428,0.8724,-5.98,7.73,0.0,20.7
18043,0.2052,-0.1404,0.8741,-5.97,7.73,-0.11,20.7
18053,0.2085,-0.1447,0.8755,-6.03,7.73,-0.05,20.7
18063,0.2058,-0.1404,0.8732,-6.17,7.71,-0.03,20.71
18073,0.2073,-0.14,0.8762,-6.15,7.69,-0.08,20.72
18083,0.2085,-0.1433,0.8711,-6.17,7.83,-0.08,20.7
18093,0.2074,-0.1425,0.8699,-6.17,7.85,-0.06,20.7
18103,0.2061,-0.1448,0.8724,-6.12,7.8,-0.06,20.7
18113,0.2079,-0.1439,0.8759,-5.98,7.8,-0.06,20.71
18123,0.2079,-0.1429,0.8761,-5.88,7.73,-0.08,20.7
18133,0.2052,-0.1436,0.877,-5.92,7.71,-0.15,20.73
18143,0.2052,-0.1426,0.8787,-6.08,7.62,-0.11,20.7
18153,0.2118,-0.1409,0.8799,-6.23,7.69,-0.06,20.72
18163,0.2073,-0.1436,0.8734,-6.27,7.8,-0.09,20.69
18173,0.2081,-0.1415,0.8711,-6.24,7.85,-0.03,20.69
18183,0.2076,-0.1434,0.8699,-6.15,7.8,-0.02,20.69
18193,0.2032,-0.1412,0.8713,-6.05,7.77,-0.02,20.68
18203,0.2051,-0.1448,0.8768,-5.97,7.69,-0.12,20.7
18213,0.207,-0.1418,0.8762,-6.0,7.63,-0.11,20.71
18223,0.2083,-0.144,0.8765,-6.2,7.62,-0.11,20.69
18233,0.2057,-0.1436,0.8732,-6.24,7.76,-0.09,20.7
18243,0.2081,-0.1411,0.87,-6.29,7.76,-0.12,20.69
18253,0.2095,-0.1449,0.8719,-6.17,7.8,-0.03,20.72
18263,0.208,-0.1429,0.8693,-6.05,7.76,-0.05,20.71
18273,0.2094,-0.142,0.8727,-5.97,7.66,0.02,20.72
18283,0.2074,-0.1395,0.8739,-5.94,7.68,-0.11,20.72
18293,0.2096,-0.1431,0.8746,-6.05,7.74,-0.11,20.72
18303,0.209,-0.1443,0.8734,-6.17,7.8,-0.09,20.71
18313,0.2076,-0.1469,0.877,-6.31,7.86,0.02,20.72
18323,0.2067,-0.1425,0.8696,-6.27,7.95,-0.09,20.71
18333,0.2104,-0.1459,0.8696,-6.11,7.68,-0.03,20.69
18343,0.2109,-0.1417,0.8702,-5.92,7.59,-0.11,20.7
18353,0.2072,-0.1377,0.8795,-5.82,7.65,0.03,20.72
18363,0.2045,-0.1389,0.8765,-5.92,7.71,0.03,20.73
18373,0.2067,-0.1382,0.8781,-6.11,7.79,-0.11,20.73
18383,0.2094,-0.141,0.8821,-6.32,7.89,-0.05,20.7
18393,0.2068,-0.1416,0.8738,-6.4,7.92,0.0,20.72
18403,0.2045,-0.1437,0.8706,-6.32,7.85,-0.05,20.7
18413,0.2061,-0.1422,0.8744,-6.2,7.86,-0.05,20.7
18423,0.2068,-0.1434,0.8762,-6.06,7.71,-0.05,20.68
18433,0.2094,-0.1445,0.8712,-5.98,7.68,-0.02,20.72
18443,0.2069,-0.1469,0.8748,-6.03,7.71,-0.05,20.73
18453,0.207,-0.1451,0.8765,-6.17,7.77,0.02,20.71
18463,0.2078,-0.142,0.8737,-6.37,7.91,-0.02,20.73
18473,0.2068,-0.1434,0.8735,-6.4,7.86,-0.06,20.7
18483,0.2091,-0.1467,0.8682,-6.26,7.85,-0.05,20.71
18493,0.2107,-0.1449,0.8721,-6.03,7.8,-0.08,20.72
18503,0.2039,-0.1431,0.8744,-5.86,7.74,-0.09,20.72
18513,0.21,-0.1439,0.8785,-5.8,7.57,-0.06,20.72
18523,0.205,-0.1451,0.8746,-5.89,7.53,-0.02,20.71
18533,0.2084,-0.1475,0.8817,-6.03,7.73,0.0,20.72
18543,0.2091,-0.1428,0.8811,-5.95,7.77,-0.03,20.7
18553,0.2113,-0.1414,0.8846,-5.91,7.82,-0.06,20.72
18563,0.2115,-0.1443,0.8906,-5.89,7.82,0.02,20.71
18573,0.2111,-0.1469,0.8884,-5.97,7.74,-0.06,20.73
18583,0.2083,-0.1489,0.8823,-6.24,7.66,-0.12,20.71
18593,0.2089,-0.1487,0.8783,-6.43,7.71,-0.12,20.74
18603,0.2072,-0.1487,0.8719,-6.6,7.85,-0.15,20.71
18613,0.2069,-0.1515,0.8655,-6.47,7.83,-0.12,20.7
18623,0.2101,-0.1478,0.8596,-6.23,7.82,-0.08,20.71
18633,0.2068,-0.1486,0.8601,-5.76,7.62,-0.03,20.73
18643,0.2036,-0.1426,0.8629,-5.47,7.51,-0.08,20.71
18653,0.205,-0.1387,0.8657,-5.45,7.45,0.0,20.72
18663,0.2065,-0.1373,0.871,-5.69,7.42,-0.12,20.7
18673,0.2106,-0.1365,0.8716,-6.03,7.68,-0.11,20.71
18683,0.2062,-0.1346,0.8708,-6.34,7.85,-0.08,20.7
18693,0.2078,-0.1349,0.8679,-6.32,7.83,-0.11,20.72
18703,0.2048,-0.1385,0.873,-6.18,7.86,-0.03,20.72
18713,0.2037,-0.1415,0.8732,-5.85,7.69,-0.05,20.72
18723,0.2063,-0.1425,0.8728,-5.85,7.73,-0.02,20.7
18733,0.203,-0.1376,0.8761,-5.97,7.77,-0.02,20.73
18743,0.2056,-0.1414,0.8788,-6.18,7.83,0.0,20.71
18753,0.2062,-0.1431,0.8759,-6.41,8.0,-0.06,20.7
18763,0.2061,-0.1447,0.8757,-6.52,8.05,-0.05,20.72
18773,0.2051,-0.1448,0.8691,-6.31,7.77,-0.14,20.71
18783,0.2052,-0.1461,0.8739,-6.05,7.71,-0.05,20.72
18793,0.2069,-0.1455,0.8782,-5.68,7.57,-0.05,20.73
18803,0.2101,-0.1399,0.8845,-5.54,7.54,-0.03,20.71
18813,0.2109,-0.1384,0.886,-5.69,7.56,-0.06,20.71
18823,0.2075,-0.1387,0.8856,-5.97,7.69,-0.02,20.74
18833,0.209,-0.137,0.8844,-6.37,7.79,-0.11,20.74
18843,0.2067,-0.1339,0.8777,-6.49,7.88,-0.11,20.73
18853,0.2084,-0.1405,0.8757,-6.4,7.88,-0.06,20.72
18863,0.2069,-0.1411,0.8782,-6.17,7.82,-0.08,20.72
18873,0.2081,-0.1414,0.8763,-6.0,7.68,-0.03,20.73
18883,0.2056,-0.1454,0.877,-5.97,7.63,-0.09,20.74
18893,0.2104,-0.1421,0.874,-6.06,7.56,-0.09,20.72
18903,0.2109,-0.1427,0.8712,-6.23,7.79,-0.06,20.7
18913,0.2094,-0.1431,0.8689,-6.47,8.03,-0.05,20.73
18923,0.2069,-0.1461,0.8695,-6.35,8.08,-0.11,20.72
18933,0.2052,-0.1456,0.8646,-6.17,7.88,-0.11,20.7
18943,0.2061,-0.1434,0.8665,-5.97,7.65,-0.12,20.72
18953,0.2051,-0.1414,0.8671,-5.74,7.5,-0.06,20.73
18963,0.2081,-0.1428,0.8713,-5.83,7.59,-0.03,20.72
18973,0.2062,-0.1412,0.871,-6.02,7.83,0.0,20.74
18983,0.2037,-0.1381,0.8727,-6.31,7.94,-0.05,20.74
18993,0.2045,-0.1426,0.8715,-6.41,7.92,-0.15,20.74
19003,0.2041,-0.144,0.8687,-6.47,7.88,-0.12,20.72
19013,0.2034,-0.1454,0.8696,-6.29,7.73,-0.09,20.74
19023,0.2043,-0.1476,0.8711,-6.08,7.74,-0.02,20.74
19033,0.205,-0.1429,0.8717,-5.98,7.69,0.0,20.73
19043,0.2118,-0.1432,0.8777,-5.92,7.8,0.05,20.73
19053,0.2083,-0.1427,0.8796,-5.94,7.79,-0.06,20.73
19063,0.2046,-0.1381,0.8763,-6.11,7.69,-0.08,20.72
19073,0.2065,-0.1437,0.8798,-6.12,7.68,-0.12,20.73
19083,0.2106,-0.1464,0.876,-6.11,7.48,-0.11,20.73
19093,0.2115,-0.1473,0.8728,-6.18,7.76,-0.02,20.72
19103,0.2131,-0.1492,0.8767,-6.08,8.02,-0.06,20.71
19113,0.2119,-0.145,0.8816,-6.05,7.76,0.03,20.73
19123,0.21,-0.152,0.8811,-5.95,7.73,-0.14,20.73
19133,0.208,-0.1475,0.8844,-5.86,7.45,-0.08,20.73
19143,0.2117,-0.1447,0.8751,-6.02,7.47,-0.06,20.71
19153,0.2124,-0.1451,0.8762,-6.09,7.77,-0.02,20.71
19163,0.2042,-0.1427,0.8733,-6.23,8.02,0.02,20.72
19173,0.2036,-0.1381,0.8788,-6.31,8.0,-0.09,20.72
19183,0.2067,-0.1437,0.8716,-6.29,7.71,-0.08,20.74
19193,0.2051,-0.1416,0.8772,-6.49,7.66,0.08,20.72
19203,0.1855,-0.1548,0.8978,-6.46,7.42,-0.32,20.74
19213,0.1893,-0.1213,0.8644,-6.35,8.4,0.0,20.72
19223,0.2166,-0.1548,0.8627,-5.48,7.56,-0.11,20.73
19233,0.2072,-0.1357,0.8655,-5.37,7.19,0.05,20.72
19243,0.2064,-0.1383,0.8781,-5.88,7.53,0.0,20.7
19253,0.199,-0.1444,0.8651,-6.21,7.63,0.0,20.75
19263,0.207,-0.1281,0.8666,-6.7,8.06,-0.15,20.73
19273,0.2084,-0.1281,0.8483,-6.44,8.18,-0.02,20.72
19283,0.2083,-0.1296,0.8577,-5.74,7.77,0.17,20.7
19293,0.1969,-0.1428,0.8806,-5.44,7.65,-0.03,20.73
19303,0.2063,-0.1509,0.8842,-5.18,7.71,-0.05,20.74
19313,0.2092,-0.1307,0.8859,-5.76,7.88,-0.11,20.75
19323,0.2126,-0.1454,0.8865,-6.2,7.56,0.11,20.75
19333,0.204,-0.1456,0.8889,-6.61,8.05,-0.08,20.72
19343,0.1975,-0.1401,0.8895,-6.89,8.35,-0.15,20.73
19353,0.202,-0.1417,0.8794,-6.49,7.91,-0.06,20.73
19363,0.2087,-0.1455,0.8773,-6.08,7.86,-0.05,20.71
19373,0.2064,-0.1428,0.8807,-5.97,7.76,0.0,20.72
19383,0.2042,-0.1453,0.8843,-6.02,7.66,-0.05,20.72
19393,0.205,-0.1444,0.8755,-6.06,7.54,-0.12,20.74
19403,0.2108,-0.1434,0.8802,-6.17,7.44,-0.12,20.73
19413,0.2104,-0.1412,0.8741,-6.43,7.68,-0.06,20.72
19423,0.2114,-0.139,0.8665,-6.27,7.88,-0.06,20.72
19433,0.2068,-0.1462,0.8704,-6.14,7.89,-0.03,20.74
19443,0.2086,-0.1426,0.8662,-5.92,7.69,-0.06,20.73
19453,0.2065,-0.1357,0.8704,-5.85,7.51,-0.03,20.74
19463,0.2058,-0.1404,0.8738,-5.98,7.57,-0.08,20.7
19473,0.2075,-0.1394,0.874,-6.27,7.77,-0.05,20.72
19483,0.2078,-0.1399,0.8676,-6.56,8.17,-0.05,20.74
19493,0.2083,-0.1469,0.8673,-6.52,8.17,-0.08,20.72
19503,0.201,-0.1454,0.8588,-6.43,7.86,-0.11,20.74
19513,0.2068,-0.1472,0.8641,-6.08,7.65,-0.06,20.75
19523,0.2057,-0.1437,0.8717,-5.77,7.45,-0.05,20.72
19533,0.2081,-0.1406,0.8704,-5.65,7.59,0.0,20.71
19543,0.2059,-0.1412,0.8766,-5.82,7.74,0.0,20.72
19553,0.2062,-0.1409,0.8776,-6.08,7.83,-0.05,20.73
19563,0.2085,-0.1431,0.8806,-6.26,7.69,-0.08,20.72
19573,0.2064,-0.144,0.8777,-6.34,7.74,-0.11,20.74
19583,0.2083,-0.1442,0.8738,-6.29,7.66,-0.11,20.73
19593,0.2059,-0.1425,0.8706,-6.12,7.88,-0.05,20.74
19603,0.2063,-0.1418,0.8781,-5.98,7.85,0.03,20.73
19613,0.2015,-0.1426,0.8768,-5.95,7.77,-0.03,20.74
19623,0.2059,-0.144,0.8789,-5.95,7.65,-0.06,20.76
19633,0.2064,-0.1449,0.8805,-6.14,7.57,-0.09,20.72
19643,0.2095,-0.1433,0.8787,-6.29,7.76,-0.03,20.72
19653,0.2091,-0.1458,0.8759,-6.37,7.83,-0.12,20.73
19663,0.2087,-0.145,0.8768,-6.34,7.89,-0.03,20.73
19673,0.2083,-0.1434,0.8727,-6.11,7.79,0.02,20.74
19683,0.2087,-0.1415,0.8719,-6.05,7.63,-0.03,20.75
19693,0.2115,-0.1447,0.8723,-6.06,7.6,-0.05,20.73
19703,0.2107,-0.141,0.8768,-6.06,7.66,-0.05,20.73
19713,0.2092,-0.1401,0.875,-6.12,7.82,-0.02,20.73
19723,0.2089,-0.1395,0.8727,-6.18,7.89,-0.09,20.75
19733,0.2102,-0.1388,0.8718,-6.09,7.76,-0.03,20.74
19743,0.2085,-0.14,0.8744,-6.11,7.62,0.02,20.74
19753,0.2098,-0.14,0.871,-6.08,7.69,-0.02,20.73
19763,0.2079,-0.1431,0.8746,-6.17,7.95,-0.05,20.74
19773,0.2065,-0.1415,0.8754,-6.31,8.08,0.03,20.76
19783,0.2051,-0.1418,0.8722,-6.18,7.94,-0.06,20.75
19793,0.2069,-0.1396,0.8756,-6.18,7.62,-0.06,20.73
19803,0.2059,-0.1405,0.8749,-6.11,7.56,-0.02,20.73
19813,0.2059,-0.139,0.8748,-6.03,7.66,-0.09,20.76
19823,0.207,-0.1398,0.8784,-6.05,7.79,-0.03,20.75
19833,0.2073,-0.1426,0.8782,-6.11,7.83,-0.05,20.75
19843,0.205,-0.1442,0.8789,-6.23,7.79,-0.14,20.75
19853,0.2048,-0.1432,0.8748,-6.32,7.66,-0.11,20.74
19863,0.2075,-0.1494,0.8701,-6.4,7.79,-0.11,20.74
19873,0.208,-0.1442,0.8687,-6.4,7.95,-0.05,20.72
19883,0.2032,-0.144,0.8652,-6.24,7.98,-0.03,20.76
19893,0.2021,-0.1418,0.8705,-5.85,7.82,0.0,20.75
19903,0.2051,-0.1394,0.8773,-5.65,7.53,-0.03,20.74
19913,0.2064,-0.1372,0.8782,-5.77,7.42,-0.08,20.72
19923,0.2094,-0.1431,0.8824,-6.18,7.69,-0.05,20.72
19933,0.2108,-0.1448,0.8833,-6.46,7.85,-0.08,20.78
19943,0.2074,-0.1476,0.8745,-6.66,8.02,-0.08,20.77
19953,0.2072,-0.1506,0.8743,-6.72,7.97,-0.05,20.73
19963,0.2047,-0.1506,0.8663,-6.38,7.83,-0.08,20.74
19973,0.2078,-0.1472,0.8644,-6.06,7.69,0.02,20.72
19983,0.2047,-0.1445,0.8727,-5.69,7.59,0.06,20.75
19993,0.2072,-0.1428,0.8738,-5.69,7.66,-0.02,20.74
20003,0.2102,-0.1431,0.8806,-5.79,7.6,0.05,20.76
20013,0.2078,-0.1428,0.8826,-5.94,7.71,-0.08,20.75
20023,0.2104,-0.1455,0.8822,-6.41,7.77,-0.09,20.74
20033,0.2114,-0.1482,0.8807,-6.66,7.85,-0.12,20.74
20043,0.2064,-0.1481,0.8718,-6.61,7.88,0.0,20.76
20053,0.209,-0.1484,0.8716,-6.29,7.77,-0.14,20.74
20063,0.2087,-0.1494,0.8646,-5.95,7.91,-0.12,20.76
20073,0.2079,-0.1449,0.869,-5.69,7.73,-0.03,20.75
20083,0.2108,-0.1431,0.8759,-5.57,7.59,0.09,20.74
20093,0.2104,-0.1396,0.8774,-5.77,7.65,-0.02,20.74
20103,0.2084,-0.1366,0.8761,-6.17,7.69,-0.05,20.76
20113,0.2067,-0.141,0.8759,-6.4,7.83,-0.11,20.76
20123,0.2067,-0.1421,0.8693,-6.63,7.98,-0.08,20.76
20133,0.2081,-0.1445,0.8665,-6.56,7.83,-0.06,20.74
20143,0.2091,-0.1434,0.8658,-6.11,7.76,-0.05,20.73
20153,0.2057,-0.1459,0.865,-5.97,7.63,0.08,20.74
20163,0.2085,-0.1451,0.8688,-5.8,7.63,-0.02,20.75
20173,0.2059,-0.1427,0.8689,-5.92,7.56,0.0,20.74
20183,0.2103,-0.142,0.8754,-5.92,7.69,-0.06,20.72
20193,0.2074,-0.1421,0.8767,-5.94,7.88,0.02,20.74
20203,0.2069,-0.1405,0.8789,-6.12,7.89,0.0,20.76
20213,0.2042,-0.1381,0.8757,-6.15,7.82,-0.03,20.75
20223,0.2087,-0.1422,0.8779,-6.14,7.76,-0.06,20.78
20233,0.2096,-0.1454,0.8772,-6.0,7.76,-0.03,20.75
20243,0.2097,-0.1427,0.8762,-6.06,7.77,-0.15,20.75
20253,0.2069,-0.1404,0.88,-6.17,7.82,0.0,20.75
20263,0.2064,-0.1423,0.881,-6.06,7.74,0.03,20.78
20273,0.2085,-0.1431,0.8816,-5.98,7.86,-0.02,20.76
20283,0.2064,-0.1392,0.8816,-6.03,7.69,-0.08,20.76
20293,0.2076,-0.1392,0.8832,-6.17,7.63,-0.03,20.75
20303,0.2079,-0.141,0.8781,-6.27,7.65,-0.05,20.75
20313,0.2073,-0.1433,0.8739,-6.29,7.77,-0.02,20.77
20323,0.2051,-0.1461,0.8766,-6.32,7.86,-0.14,20.74
20333,0.2052,-0.1448,0.8712,-6.29,7.8,-0.05,20.74
20343,0.2092,-0.1429,0.8668,-6.11,7.68,-0.08,20.76
20353,0.2096,-0.14,0.8685,-6.12,7.66,-0.06,20.75
20363,0.207,-0.1421,0.8678,-6.05,7.68,-0.15,20.77
20373,0.2079,-0.1429,0.8685,-6.09,7.69,-0.06,20.77
20383,0.208,-0.1414,0.8662,-6.21,7.74,-0.08,20.76
20393,0.2056,-0.1411,0.8667,-6.29,7.8,-0.03,20.76
20403,0.2067,-0.1395,0.8695,-6.27,7.82,-0.11,20.78
20413,0.207,-0.142,0.8679,-6.14,7.73,0.0,20.75
20423,0.2047,-0.1425,0.8685,-6.08,7.77,-0.08,20.74
20433,0.2069,-0.1434,0.8704,-6.02,7.79,-0.03,20.77
20443,0.2064,-0.144,0.877,-5.91,7.86,0.03,20.74
20453,0.2059,-0.1438,0.8787,-6.05,7.79,-0.08,20.75
20463,0.208,-0.146,0.88,-6.15,7.85,-0.03,20.74
20473,0.2048,-0.145,0.8806,-6.32,7.97,-0.09,20.75
20483,0.2117,-0.1493,0.8774,-6.21,7.79,-0.06,20.77
20493,0.2042,-0.1462,0.8798,-6.2,7.86,0.0,20.75
20503,0.205,-0.1501,0.8807,-6.0,7.71,-0.02,20.76
20513,0.2094,-0.1464,0.8757,-5.89,7.65,-0.09,20.75
20523,0.2101,-0.1421,0.8798,-5.83,7.62,-0.12,20.75
20533,0.2089,-0.1438,0.8865,-5.92,7.65,-0.03,20.74
20543,0.2103,-0.1421,0.8861,-6.14,7.79,0.02,20.77
20553,0.2106,-0.1472,0.8839,-6.29,7.83,-0.11,20.77
20563,0.2104,-0.1498,0.8818,-6.52,7.88,-0.08,20.77
20573,0.2285,-0.1484,0.8622,-6.37,7.74,-0.06,20.74
20583,0.22,-0.1509,0.8616,-6.15,7.69,-0.03,20.74
20593,0.2041,-0.1504,0.8716,-6.0,8.09,-0.06,20.78
20603,0.208,-0.1484,0.8669,-5.86,7.54,-0.12,20.75
20613,0.2043,-0.1427,0.8732,-5.68,7.6,-0.02,20.78
20623,0.2063,-0.1385,0.8719,-5.66,7.44,-0.11,20.76
20633,0.2064,-0.134,0.8688,-5.92,7.47,-0.11,20.75
20643,0.2106,-0.1361,0.8705,-6.24,7.71,-0.08,20.75
20653,0.2037,-0.1317,0.8632,-6.49,8.12,-0.14,20.76
20663,0.2074,-0.1364,0.8641,-6.5,8.17,-0.11,20.77
20673,0.2036,-0.1389,0.8579,-6.49,7.88,-0.06,20.77
20683,0.2064,-0.1406,0.8607,-6.2,7.56,-0.05,20.76
20693,0.2084,-0.1456,0.863,-5.86,7.6,0.02,20.79
20703,0.2081,-0.1418,0.8706,-5.76,7.77,0.06,20.78
20713,0.203,-0.1385,0.8759,-5.83,7.91,0.09,20.76
20723,0.2017,-0.1403,0.8784,-5.94,7.83,0.02,20.78
20733,0.2031,-0.1411,0.881,-6.17,7.65,-0.03,20.76
20743,0.2063,-0.1404,0.8813,-6.34,7.63,-0.09,20.75
20753,0.2101,-0.1429,0.8811,-6.46,7.83,-0.02,20.75
20763,0.2092,-0.1477,0.8789,-6.34,8.0,-0.02,20.76
20773,0.2075,-0.1471,0.8832,-6.12,7.97,-0.05,20.78
20783,0.209,-0.1462,0.8824,-5.94,7.74,-0.03,20.74
20793,0.21,-0.1462,0.8855,-5.85,7.44,0.0,20.75
20803,0.2107,-0.1429,0.8865,-5.91,7.39,-0.08,20.76
20813,0.2126,-0.1407,0.8801,-6.06,7.68,0.0,20.74
20823,0.2124,-0.1395,0.8828,-6.21,7.8,-0.11,20.77
20833,0.2081,-0.1407,0.8806,-6.17,7.85,-0.12,20.77
20843,0.2087,-0.139,0.8813,-6.23,7.76,-0.11,20.77
20853,0.2085,-0.142,0.879,-6.12,7.6,-0.15,20.78
20863,0.2114,-0.1422,0.8752,-6.26,7.66,-0.18,20.78
20873,0.2098,-0.1414,0.8735,-6.27,7.77,-0.06,20.75
20883,0.2095,-0.1443,0.8669,-6.41,7.98,-0.11,20.75
20893,0.2073,-0.1437,0.864,-6.38,7.97,-0.11,20.77
20903,0.2046,-0.1437,0.865,-6.21,7.79,-0.09,20.77
20913,0.2063,-0.1426,0.8654,-6.02,7.6,-0.11,20.75
20923,0.2078,-0.1422,0.8627,-5.92,7.68,-0.08,20.74
20933,0.2064,-0.1409,0.8685,-5.79,7.69,-0.06,20.77
20943,0.2079,-0.1415,0.8752,-5.97,7.79,0.0,20.75
20953,0.2021,-0.1398,0.8711,-6.18,7.82,-0.03,20.77
20963,0.2039,-0.1401,0.8704,-6.46,7.82,-0.11,20.76
20973,0.2026,-0.1415,0.8644,-6.5,7.92,-0.11,20.75
20983,0.2063,-0.1465,0.8679,-6.4,7.85,-0.05,20.77
20993,0.201,-0.1456,0.8679,-6.03,7.85,0.03,20.74
21003,0.205,-0.1428,0.8743,-5.82,7.6,0.02,20.77
21013,0.2052,-0.141,0.8796,-5.53,7.51,0.03,20.76
21023,0.2076,-0.1425,0.8845,-5.76,7.47,-0.02,20.77
21033,0.2089,-0.1405,0.8835,-6.24,7.65,-0.12,20.75
21043,0.2097,-0.1429,0.88,-6.67,7.88,-0.02,20.77
21053,0.2078,-0.1459,0.8719,-6.85,8.12,-0.06,20.75
21063,0.2048,-0.1464,0.8644,-6.66,8.02,0.0,20.76
21073,0.208,-0.1466,0.87,-6.23,7.82,-0.03,20.76
21083,0.2177,-0.1489,0.8743,-5.63,7.36,-0.14,20.75
21093,0.2214,-0.1443,0.8772,-5.21,7.21,0.0,20.77
21103,0.2272,-0.1449,0.8929,-5.24,7.36,-0.09,20.79
21113,0.2242,-0.1389,0.8854,-5.82,7.73,-0.08,20.77
21123,0.2185,-0.1418,0.8861,-6.52,8.14,-0.14,20.76
21133,0.2144,-0.1433,0.8706,-7.16,8.37,-0.26,20.75
21143,0.2084,-0.1467,0.8604,-7.01,8.31,-0.11,20.76
21153,0.2065,-0.1462,0.8618,-6.37,8.17,-0.15,20.76
21163,0.2041,-0.1473,0.8629,-5.59,7.88,-0.14,20.75
21173,0.2054,-0.1455,0.8734,-4.85,7.6,-0.03,20.79
21183,0.2068,-0.1414,0.8855,-4.85,7.53,-0.03,20.76
21193,0.2062,-0.1407,0.8931,-5.51,7.51,-0.08,20.78
21203,0.2026,-0.1418,0.8909,-6.5,7.74,-0.23,20.76
21213,0.2014,-0.1422,0.8804,-7.21,8.03,-0.18,20.76
21223,0.1986,-0.1429,0.8672,-7.15,8.34,-0.14,20.74
21233,0.1985,-0.1464,0.8594,-6.6,8.27,-0.06,20.77
21243,0.1959,-0.1428,0.8577,-5.76,7.92,-0.14,20.74
21253,0.1975,-0.1414,0.8715,-5.01,7.39,-0.02,20.78
21263,0.1978,-0.1395,0.8751,-4.79,7.1,0.0,20.74
21273,0.2014,-0.1362,0.882,-5.47,7.36,-0.15,20.77
21283,0.2034,-0.1305,0.8834,-6.4,7.74,-0.03,20.75
21293,0.2065,-0.1381,0.8812,-6.89,7.83,-0.08,20.76
21303,0.2129,-0.139,0.8745,-6.89,8.11,0.0,20.78
21313,0.2092,-0.1462,0.8715,-6.66,8.05,-0.05,20.77
21323,0.2085,-0.1445,0.8634,-6.21,7.86,-0.02,20.78
21333,0.2024,-0.1417,0.87,-5.89,7.66,0.0,20.77
21343,0.1995,-0.1423,0.8671,-5.86,7.66,0.05,20.75
21353,0.2031,-0.141,0.8724,-6.11,7.74,0.03,20.75
21363,0.2039,-0.1393,0.8749,-6.24,7.79,0.05,20.77
21373,0.2062,-0.1389,0.8783,-6.21,7.83,0.02,20.76
21383,0.2076,-0.1423,0.882,-6.21,7.83,0.03,20.77
21393,0.2096,-0.1417,0.8835,-6.05,7.65,-0.03,20.77
21403,0.208,-0.1438,0.8833,-6.06,7.6,-0.08,20.77
21413,0.2102,-0.1434,0.8855,-6.18,7.69,0.0,20.76
21423,0.2087,-0.1423,0.8815,-6.37,7.73,-0.11,20.79
21433,0.2061,-0.1467,0.8771,-6.38,7.76,-0.12,20.77
21443,0.204,-0.1439,0.8728,-6.27,7.71,-0.09,20.76
21453,0.2113,-0.1429,0.8711,-6.05,7.65,-0.09,20.77
21463,0.2114,-0.1407,0.8727,-5.85,7.65,-0.08,20.77
21473,0.2135,-0.144,0.873,-5.92,7.73,-0.06,20.78
21483,0.2089,-0.142,0.8774,-6.03,7.86,-0.02,20.79
21493,0.2098,-0.144,0.8735,-6.43,7.94,-0.14,20.78
21503,0.2072,-0.1461,0.8755,-6.61,7.88,-0.18,20.77
21513,0.2084,-0.1493,0.868,-6.41,7.73,-0.12,20.79
21523,0.2108,-0.1479,0.8674,-6.08,7.54,-0.15,20.79
21533,0.2103,-0.1453,0.8699,-5.76,7.45,-0.05,20.77
21543,0.2072,-0.1407,0.871,-5.5,7.54,0.03,20.75
21553,0.2074,-0.1401,0.8746,-5.53,7.83,0.0,20.74
21563,0.2059,-0.1388,0.8707,-5.97,8.0,0.05,20.78
21573,0.2028,-0.1401,0.8749,-6.37,7.95,-0.03,20.77
21583,0.2013,-0.1415,0.8724,-6.49,7.85,-0.03,20.77
21593,0.2057,-0.1422,0.8711,-6.38,7.71,-0.06,20.79
21603,0.2031,-0.1461,0.8694,-6.11,7.59,-0.11,20.77
21613,0.2069,-0.1453,0.869,-5.83,7.66,-0.03,20.77
21623,0.2068,-0.1443,0.8722,-5.77,7.71,0.0,20.77
21633,0.2031,-0.1412,0.8756,-5.97,7.85,0.02,20.78
21643,0.2068,-0.1399,0.8783,-6.17,7.77,0.0,20.79
21653,0.2086,-0.1409,0.8734,-6.34,7.91,0.03,20.76
21663,0.2097,-0.1444,0.871,-6.41,7.97,0.03,20.77
21673,0.2096,-0.1423,0.8763,-6.2,7.92,-0.02,20.8
21683,0.2079,-0.1425,0.876,-6.06,7.82,-0.02,20.79
21693,0.2061,-0.1454,0.8781,-6.03,7.73,-0.05,20.78
21703,0.2063,-0.1448,0.8793,-6.03,7.62,-0.03,20.78
21713,0.2089,-0.1437,0.8823,-6.09,7.65,-0.05,20.79
21723,0.2052,-0.1434,0.8765,-6.14,7.83,-0.03,20.78
21733,0.2076,-0.1431,0.874,-6.15,7.91,-0.06,20.78
21743,0.2068,-0.14,0.8815,-6.08,7.79,0.02,20.8
21753,0.2075,-0.1395,0.8761,-5.91,7.68,-0.02,20.8
21763,0.21,-0.1417,0.8774,-5.89,7.51,-0.15,20.77
21773,0.2103,-0.1417,0.8801,-6.08,7.68,-0.02,20.79
21783,0.2117,-0.1393,0.8727,-6.18,7.76,-0.09,20.76
21793,0.2103,-0.1425,0.8745,-6.46,7.98,-0.11,20.77
21803,0.2063,-0.1427,0.8676,-6.47,8.05,-0.08,20.79
21813,0.2057,-0.1427,0.8684,-6.15,7.94,-0.03,20.8
21823,0.2041,-0.1417,0.8734,-5.95,7.74,-0.09,20.8
21833,0.2051,-0.1407,0.8752,-5.69,7.62,-0.12,20.78
21843,0.2052,-0.1394,0.8765,-5.68,7.57,-0.08,20.76
21853,0.2074,-0.1395,0.8757,-5.82,7.68,-0.05,20.75
21863,0.2056,-0.1357,0.8771,-6.12,7.76,-0.03,20.76
21873,0.207,-0.1377,0.8788,-6.23,7.83,-0.11,20.77
21883,0.2051,-0.1395,0.8743,-6.32,7.83,-0.14,20.79
21893,0.2087,-0.1431,0.8739,-6.17,7.69,-0.08,20.78
21903,0.2092,-0.1418,0.8796,-6.06,7.63,-0.08,20.77
21913,0.2113,-0.1439,0.8726,-6.21,7.77,-0.02,20.78
21923,0.2123,-0.1466,0.8765,-6.29,8.34,0.02,20.77
21933,0.2018,-0.1394,0.8704,-6.34,8.12,-0.06,20.79
21943,0.202,-0.1459,0.8685,-6.53,7.62,-0.11,20.77
21953,0.2076,-0.144,0.8591,-6.56,7.36,-0.12,20.78
21963,0.2124,-0.1492,0.855,-6.03,7.71,0.03,20.75
21973,0.2056,-0.1458,0.8685,-5.73,8.23,0.08,20.78
21983,0.2019,-0.1434,0.8772,-5.47,8.21,0.09,20.81
21993,0.2025,-0.1403,0.8807,-5.31,7.5,-0.03,20.79
22003,0.2028,-0.1376,0.8901,-5.57,7.05,-0.2,20.8
22013,0.2068,-0.1382,0.8828,-6.31,7.51,-0.14,20.78
22023,0.2067,-0.1394,0.8771,-6.92,8.24,-0.03,20.77
22033,0.2046,-0.1427,0.8715,-7.01,8.6,-0.03,20.76
22043,0.2017,-0.1476,0.8716,-6.6,8.46,0.02,20.77
22053,0.2021,-0.1503,0.8744,-6.0,7.8,-0.03,20.78
22063,0.2051,-0.1456,0.8737,-5.34,7.18,-0.06,20.8
22073,0.2095,-0.1451,0.8798,-5.3,7.05,-0.03,20.8
22083,0.209,-0.1416,0.8812,-5.66,7.63,-0.02,20.79
22093,0.2106,-0.1407,0.8829,-6.21,8.17,0.14,20.79
22103,0.2072,-0.1403,0.8801,-6.49,8.41,0.03,20.78
22113,0.2056,-0.142,0.8772,-6.44,8.12,-0.11,20.77
22123,0.2065,-0.1401,0.8762,-6.35,7.66,-0.06,20.76
22133,0.2122,-0.1415,0.8728,-6.11,7.36,-0.14,20.75
22143,0.2129,-0.1405,0.8732,-5.73,7.5,-0.08,20.76
22153,0.2135,-0.1437,0.8757,-5.68,7.86,0.02,20.79
22163,0.2103,-0.1447,0.8787,-5.98,7.98,-0.02,20.79
22173,0.2083,-0.1418,0.882,-6.24,7.88,-0.02,20.78
22183,0.2117,-0.1422,0.8799,-6.34,7.77,0.0,20.77
22193,0.2114,-0.1432,0.8737,-6.44,7.74,-0.11,20.78
22203,0.2084,-0.1409,0.8726,-6.23,7.82,0.0,20.79
22213,0.2104,-0.1398,0.8665,-6.03,7.89,0.02,20.79
22223,0.2029,-0.1388,0.8724,-6.05,7.98,0.05,20.79
22233,0.2041,-0.1388,0.874,-6.17,7.82,-0.09,20.78
22243,0.2054,-0.1388,0.8663,-6.4,7.66,-0.08,20.77
22253,0.2042,-0.1428,0.8645,-6.4,7.62,-0.11,20.78
22263,0.2062,-0.1414,0.8632,-6.41,7.76,-0.09,20.78
22273,0.2046,-0.1434,0.8658,-6.05,7.88,-0.09,20.77
22283,0.2031,-0.1433,0.8699,-5.85,7.91,0.0,20.78
22293,0.2007,-0.1421,0.8739,-5.74,7.73,-0.02,20.79
22303,0.203,-0.1401,0.8774,-5.83,7.54,-0.09,20.78
22313,0.2045,-0.1411,0.8788,-6.12,7.5,-0.06,20.8
22323,0.203,-0.1396,0.8771,-6.34,7.68,-0.06,20.79
22333,0.2062,-0.1432,0.8707,-6.47,7.92,-0.06,20.8
22343,0.2065,-0.1464,0.8685,-6.43,8.05,-0.08,20.79
22353,0.2051,-0.145,0.8734,-6.21,7.88,-0.02,20.77
22363,0.2046,-0.1489,0.876,-5.89,7.59,-0.02,20.79
22373,0.205,-0.1465,0.8804,-5.8,7.57,-0.02,20.79
22383,0.208,-0.1459,0.8789,-5.89,7.62,0.03,20.78
22393,0.2069,-0.1461,0.8845,-5.98,7.63,0.02,20.8
22403,0.2072,-0.1434,0.8818,-6.18,7.73,-0.08,20.79
22413,0.208,-0.145,0.8872,-6.31,7.77,-0.11,20.79
22423,0.2101,-0.1462,0.879,-6.2,7.59,-0.08,20.81
22433,0.2101,-0.1434,0.8812,-6.15,7.51,-0.14,20.8
22443,0.2069,-0.1433,0.877,-6.02,7.65,-0.15,20.76
22453,0.2084,-0.1418,0.877,-6.03,7.74,-0.08,20.8
22463,0.2112,-0.142,0.8773,-6.11,7.8,-0.02,20.8
22473,0.2095,-0.1445,0.8776,-6.03,7.79,-0.06,20.81
22483,0.2054,-0.1404,0.875,-6.05,7.83,-0.06,20.79
22493,0.2111,-0.1416,0.8746,-6.2,7.74,-0.11,20.79
22503,0.2062,-0.1429,0.8749,-6.21,7.74,-0.05,20.81
22513,0.2029,-0.141,0.8698,-6.17,7.89,-0.05,20.8
22523,0.203,-0.1425,0.8687,-6.11,7.82,0.0,20.8
22533,0.2036,-0.1426,0.8677,-6.18,7.82,0.02,20.79
22543,0.204,-0.1431,0.8677,-6.14,7.83,-0.08,20.79
22553,0.205,-0.1433,0.8674,-6.14,7.83,0.03,20.75
22563,0.2062,-0.1406,0.8693,-6.06,7.82,0.02,20.78
22573,0.2045,-0.1445,0.8713,-6.08,7.74,-0.05,20.77
22583,0.2056,-0.1414,0.8717,-6.14,7.77,-0.09,20.79
22593,0.2036,-0.1429,0.8726,-6.06,7.76,-0.05,20.79
22603,0.2057,-0.1427,0.8717,-6.09,7.8,-0.03,20.8
22613,0.2023,-0.1418,0.8718,-6.06,7.79,-0.02,20.78
22623,0.2068,-0.142,0.8712,-6.05,7.83,0.05,20.8
22633,0.2048,-0.1423,0.8754,-6.09,7.76,-0.03,20.81
22643,0.2072,-0.1405,0.8748,-6.03,7.77,0.02,20.82
22653,0.2119,-0.1453,0.8813,-5.91,7.85,-0.03,20.79
22663,0.2107,-0.1437,0.8779,-6.11,7.98,-0.02,20.79
22673,0.208,-0.14,0.8757,-6.31,8.0,-0.02,20.79
22683,0.2069,-0.1423,0.8717,-6.46,8.0,-0.11,20.79
22693,0.2006,-0.145,0.8639,-6.49,8.14,-0.02,20.78
22703,0.1986,-0.1431,0.8641,-6.23,8.06,0.0,20.79
22713,0.2006,-0.1396,0.8644,-5.8,7.91,0.03,20.79
22723,0.1996,-0.1417,0.8707,-5.34,7.68,-0.02,20.82
22733,0.2028,-0.1385,0.8783,-5.25,7.54,0.0,20.79
22743,0.208,-0.1384,0.8921,-5.34,7.5,-0.03,20.8
22753,0.2102,-0.1382,0.8956,-5.91,7.66,-0.03,20.79
22763,0.2104,-0.1409,0.8945,-6.46,8.02,-0.08,20.8
22773,0.2137,-0.1466,0.8972,-6.7,8.27,-0.14,20.77
22783,0.2024,-0.149,0.8909,-6.84,8.37,-0.03,20.79
22793,0.1984,-0.1588,0.8826,-6.79,8.08,-0.18,20.79
22803,0.2035,-0.1565,0.8759,-6.55,7.62,-0.11,20.83
22813,0.2112,-0.151,0.8678,-5.69,7.13,-0.08,20.79
22823,0.2078,-0.1411,0.8677,-5.27,7.37,0.05,20.82
22833,0.2064,-0.1292,0.8774,-5.18,7.51,0.0,20.79
22843,0.2048,-0.1309,0.8855,-5.5,7.71,0.0,20.78
22853,0.2046,-0.1326,0.8855,-6.27,7.79,-0.09,20.79
22863,0.203,-0.1326,0.8741,-7.15,7.85,-0.15,20.78
22873,0.2089,-0.1365,0.8641,-7.25,7.83,-0.24,20.79
22883,0.207,-0.1421,0.8597,-6.93,7.92,-0.12,20.8
22893,0.2047,-0.1471,0.859,-6.34,8.05,0.0,20.8
22903,0.2062,-0.1478,0.8601,-5.82,7.77,-0.03,20.81
22913,0.2048,-0.1467,0.866,-5.25,7.22,-0.02,20.8
22923,0.2075,-0.1439,0.8732,-5.39,7.01,0.02,20.79
22933,0.2122,-0.1378,0.8712,-5.92,7.37,0.0,20.83
22943,0.2137,-0.139,0.8667,-6.58,8.02,-0.05,20.82
22953,0.2109,-0.1375,0.866,-6.73,8.47,-0.06,20.81
22963,0.2052,-0.1433,0.8607,-6.75,8.37,-0.12,20.79
22973,0.2064,-0.1448,0.8611,-6.43,7.83,-0.2,20.82
22983,0.2018,-0.1472,0.861,-5.95,7.48,-0.15,20.79
22993,0.2054,-0.1475,0.8605,-5.62,7.33,-0.09,20.82
23003,0.2058,-0.1483,0.8678,-5.74,7.82,-0.03,20.83
23013,0.2069,-0.145,0.8718,-6.0,8.09,-0.02,20.8
23023,0.2026,-0.1471,0.8759,-6.06,8.06,-0.08,20.81
23033,0.2032,-0.1451,0.8826,-6.08,7.79,-0.05,20.82
23043,0.2023,-0.1479,0.8787,-5.98,7.57,0.0,20.8
23053,0.2037,-0.1448,0.8799,-5.68,7.51,-0.06,20.8
23063,0.2064,-0.1438,0.8907,-5.53,7.73,-0.06,20.81
23073,0.2052,-0.1406,0.8925,-5.62,7.88,0.02,20.8
23083,0.209,-0.1488,0.8975,-5.92,7.79,-0.14,20.82
23093,0.2045,-0.1451,0.9026,-6.4,7.83,-0.14,20.82
23103,0.2041,-0.1448,0.8898,-6.69,7.82,-0.12,20.8
23113,0.2114,-0.1499,0.8824,-6.72,7.86,-0.11,20.82
23123,0.2115,-0.1478,0.8762,-6.32,7.95,-0.08,20.82
23133,0.21,-0.1484,0.8768,-5.71,7.8,-0.05,20.81
23143,0.2079,-0.1464,0.8851,-5.51,7.51,-0.02,20.83
23153,0.2094,-0.1447,0.8833,-5.51,7.19,-0.06,20.79
23163,0.2103,-0.1373,0.8831,-5.91,7.31,-0.08,20.8
23173,0.2098,-0.1383,0.8752,-6.43,7.73,0.0,20.84
23183,0.2128,-0.1393,0.8705,-6.81,8.02,-0.05,20.82
23193,0.2056,-0.1364,0.8611,-6.69,8.2,0.0,20.81
23203,0.2086,-0.1377,0.8582,-6.4,8.05,-0.03,20.83
23213,0.2079,-0.1399,0.8535,-5.95,7.77,-0.11,20.81
23223,0.2053,-0.1399,0.8566,-5.73,7.6,-0.11,20.79
23233,0.2061,-0.1393,0.8589,-5.86,7.59,-0.05,20.81
23243,0.2032,-0.1399,0.8621,-6.08,7.88,0.0,20.81
23253,0.2031,-0.1385,0.8593,-6.31,8.0,-0.03,20.8
23263,0.2021,-0.1379,0.8594,-6.47,8.02,0.03,20.8
23273,0.2017,-0.1362,0.8621,-6.27,7.86,-0.03,20.79
23283,0.2034,-0.1395,0.8613,-5.92,7.73,0.0,20.82
23293,0.2004,-0.1364,0.8723,-5.68,7.65,0.0,20.82
23303,0.2026,-0.1373,0.873,-5.74,7.62,0.05,20.82
23313,0.2013,-0.1373,0.8776,-5.95,7.83,-0.09,20.81
23323,0.2008,-0.1438,0.8813,-6.37,7.97,-0.02,20.8
23333,0.2026,-0.145,0.8849,-6.55,7.85,-0.15,20.82
23343,0.2004,-0.1486,0.8799,-6.47,7.74,-0.15,20.78
23353,0.2046,-0.1479,0.8778,-6.24,7.68,-0.15,20.81
23363,0.2073,-0.1495,0.879,-5.95,7.66,-0.11,20.79
23373,0.2047,-0.147,0.8832,-5.63,7.73,-0.03,20.79
23383,0.2084,-0.1482,0.8854,-5.68,7.74,0.0,20.8
23393,0.2052,-0.1422,0.8832,-6.09,7.65,-0.09,20.8
23403,0.2013,-0.1427,0.8751,-6.5,7.8,-0.08,20.81
23413,0.1993,-0.1418,0.8666,-6.56,7.95,-0.06,20.82
23423,0.2023,-0.1423,0.8643,-6.32,7.95,-0.09,20.82
23433,0.207,-0.139,0.8761,-5.71,7.71,-0.06,20.82
23443,0.2064,-0.1406,0.8799,-5.42,7.59,-0.03,20.81
23453,0.2079,-0.1398,0.8905,-5.44,7.31,-0.03,20.8
23463,0.2112,-0.1432,0.8882,-5.77,7.47,-0.11,20.82
23473,0.2118,-0.1429,0.8876,-6.53,7.91,-0.14,20.82
23483,0.2095,-0.1476,0.8829,-6.87,8.29,-0.03,20.85
23493,0.2091,-0.1499,0.8732,-7.1,8.29,-0.09,20.83
23503,0.2059,-0.149,0.8663,-6.72,8.11,-0.06,20.82
23513,0.2073,-0.1495,0.8658,-6.02,7.59,-0.09,20.82
23523,0.2068,-0.1454,0.8671,-5.42,7.24,-0.03,20.8
23533,0.212,-0.1405,0.8707,-5.15,7.19,-0.06,20.84
23543,0.2092,-0.1398,0.8738,-5.42,7.54,-0.02,20.81
23553,0.209,-0.1338,0.8755,-6.11,7.83,-0.05,20.81
23563,0.2064,-0.1367,0.8684,-6.61,8.12,0.02,20.8
23573,0.2073,-0.1375,0.8633,-6.92,8.14,0.02,20.81
23583,0.2045,-0.1384,0.8607,-6.69,8.02,-0.02,20.8
23593,0.2032,-0.1449,0.8599,-6.2,7.85,0.05,20.82
23603,0.2017,-0.1432,0.8597,-5.89,7.74,-0.06,20.81
23613,0.2073,-0.1438,0.87,-5.69,7.56,-0.03,20.83
23623,0.2067,-0.1449,0.8728,-5.83,7.53,0.0,20.84
23633,0.2057,-0.1437,0.8774,-6.06,7.65,-0.05,20.82
23643,0.207,-0.1403,0.8772,-6.26,7.74,-0.11,20.86
23653,0.2043,-0.1449,0.8756,-6.38,7.8,0.02,20.82
23663,0.2048,-0.1448,0.8785,-6.2,7.88,-0.05,20.82
23673,0.2054,-0.144,0.8783,-6.11,7.83,-0.03,20.85
23683,0.2041,-0.1439,0.8777,-5.97,7.66,-0.03,20.81
23693,0.2019,-0.142,0.8798,-5.92,7.56,-0.08,20.83
23703,0.2031,-0.1438,0.8796,-5.97,7.65,-0.12,20.82
23713,0.2058,-0.1444,0.8748,-6.11,7.74,-0.17,20.82
23723,0.2025,-0.1448,0.8755,-6.21,7.92,-0.06,20.84
23733,0.205,-0.1439,0.8792,-6.12,7.82,-0.05,20.82
23743,0.208,-0.145,0.882,-6.05,7.62,-0.06,20.82
23753,0.205,-0.1439,0.8812,-5.89,7.57,-0.03,20.84
23763,0.2081,-0.1448,0.8816,-5.86,7.48,-0.06,20.81
23773,0.2095,-0.1426,0.8832,-6.02,7.56,-0.02,20.83
23783,0.2065,-0.1481,0.8806,-6.21,7.68,-0.08,20.83
23793,0.205,-0.1469,0.8809,-6.38,7.8,-0.09,20.79
23803,0.2086,-0.1492,0.8734,-6.38,7.77,-0.05,20.82
23813,0.2075,-0.1433,0.87,-6.26,7.71,-0.12,20.82
23823,0.2056,-0.1429,0.8687,-6.14,7.68,-0.15,20.8
23833,0.2073,-0.1414,0.87,-5.98,7.73,0.0,20.79
23843,0.2065,-0.1359,0.8682,-5.92,7.69,-0.08,20.82
23853,0.2053,-0.1395,0.8706,-5.95,7.74,-0.03,20.83
23863,0.2059,-0.1382,0.8673,-6.2,7.69,-0.09,20.82
23873,0.2065,-0.1366,0.8647,-6.32,7.76,-0.09,20.82
23883,0.2085,-0.1366,0.8662,-6.37,7.85,-0.03,20.8
23893,0.2075,-0.1398,0.8616,-6.35,7.89,-0.09,20.82
23903,0.2029,-0.1434,0.866,-6.15,7.92,0.0,20.83
23913,0.2007,-0.1432,0.8683,-5.95,7.92,-0.02,20.82
23923,0.2039,-0.1427,0.8726,-5.95,7.86,-0.03,20.82
23933,0.2029,-0.1466,0.8739,-6.02,7.76,-0.08,20.82
23943,0.2032,-0.1436,0.877,-6.14,7.82,-0.09,20.82
23953,0.2068,-0.1459,0.8718,-6.17,7.76,-0.06,20.85
23963,0.2052,-0.1429,0.8749,-6.2,7.89,0.05,20.8
23973,0.204,-0.1456,0.8748,-6.08,7.89,-0.06,20.82
23983,0.2017,-0.1439,0.8755,-5.95,7.79,-0.05,20.82
23993,0.2023,-0.1455,0.8748,-5.94,7.71,-0.06,20.83
24003,0.2059,-0.1437,0.8783,-5.89,7.65,-0.09,20.82
24013,0.2035,-0.1429,0.8771,-6.02,7.73,-0.11,20.82
24023,0.2073,-0.1407,0.8806,-6.09,7.83,-0.14,20.85
24033,0.2056,-0.141,0.8865,-5.98,8.05,-0.03,20.82
24043,0.2061,-0.1449,0.8872,-6.03,8.14,-0.06,20.8
24053,0.204,-0.1456,0.8783,-6.44,8.09,-0.15,20.84
24063,0.194,-0.1473,0.8679,-6.99,7.92,-0.21,20.85
24073,0.1953,-0.1511,0.8564,-7.22,7.88,-0.29,20.79
24083,0.2004,-0.1499,0.8455,-6.7,7.85,-0.11,20.83
24093,0.2043,-0.1479,0.8522,-5.62,7.98,0.0,20.83
24103,0.2086,-0.1406,0.8695,-4.4,7.71,0.14,20.83
24113,0.2079,-0.132,0.896,-4.0,7.33,0.12,20.81
24123,0.2074,-0.1301,0.9092,-4.52,6.96,0.03,20.82
24133,0.2074,-0.1249,0.9041,-6.14,7.18,-0.03,20.82
24143,0.2114,-0.1296,0.897,-7.57,7.89,-0.29,20.82
24153,0.2094,-0.1378,0.8788,-8.31,8.66,-0.09,20.8
24163,0.2034,-0.1498,0.8662,-7.97,9.11,-0.11,20.82
24173,0.2001,-0.1553,0.8617,-6.73,8.46,-0.03,20.82
24183,0.2029,-0.1571,0.8679,-5.3,7.34,0.0,20.79
24193,0.2061,-0.15,0.8788,-4.52,6.56,-0.03,20.82
24203,0.2098,-0.1425,0.8853,-4.7,6.69,0.0,20.82
24213,0.2136,-0.1349,0.8851,-5.63,7.53,0.0,20.8
24223,0.2095,-0.1313,0.8813,-6.96,8.31,-0.03,20.82
24233,0.2051,-0.1315,0.8717,-7.47,8.44,-0.05,20.81
24243,0.2065,-0.135,0.8649,-7.1,8.0,-0.09,20.83
24253,0.2061,-0.1393,0.8615,-6.27,7.37,-0.08,20.84
24263,0.2085,-0.1378,0.8667,-5.45,7.22,-0.12,20.8
24273,0.2101,-0.1384,0.8711,-5.34,7.47,-0.11,20.85
24293,0.2009,-0.1432,0.8773,-6.79,8.18,-0.05,20.81
24303,0.2002,-0.1466,0.8644,-7.36,8.14,-0.11,20.81
24313,0.2037,-0.1512,0.8621,-7.18,7.88,-0.08,20.83
24323,0.2032,-0.1505,0.8567,-6.43,7.66,-0.02,20.82
24333,0.2043,-0.1482,0.8605,-5.56,7.4,-0.06,20.8
24343,0.2068,-0.1462,0.87,-4.92,7.3,-0.09,20.8
24353,0.2069,-0.1404,0.8798,-4.96,7.19,-0.05,20.85
24363,0.208,-0.1372,0.8854,-5.69,7.34,-0.05,20.82
24373,0.2056,-0.1393,0.882,-6.58,7.74,-0.17,20.82
24383,0.2067,-0.1427,0.8726,-7.18,8.11,-0.14,20.83
24393,0.2058,-0.1453,0.8678,-7.01,8.32,-0.03,20.84
24403,0.2058,-0.1461,0.8658,-6.32,8.2,-0.08,20.84
24413,0.2045,-0.1487,0.8687,-5.53,7.65,0.02,20.82
24423,0.2094,-0.1464,0.8795,-5.05,7.27,0.05,20.83
24433,0.2065,-0.147,0.8856,-5.28,7.25,-0.05,20.8
24443,0.2097,-0.147,0.8868,-5.97,7.56,-0.08,20.84
24453,0.2069,-0.1475,0.8855,-6.64,8.09,-0.12,20.8
24463,0.2059,-0.1488,0.8755,-6.84,8.29,-0.02,20.84
24473,0.2068,-0.1483,0.874,-6.58,8.09,-0.05,20.84
24483,0.204,-0.1454,0.8745,-5.95,7.66,-0.08,20.86
24493,0.2073,-0.146,0.8792,-5.33,7.31,0.06,20.83
24503,0.208,-0.142,0.8804,-5.28,7.28,-0.14,20.84
24513,0.2074,-0.1355,0.879,-5.74,7.44,-0.05,20.82
24523,0.209,-0.136,0.8768,-6.32,7.8,-0.03,20.81
24533,0.2061,-0.1399,0.8719,-6.73,8.11,-0.02,20.84
24543,0.2064,-0.1431,0.8667,-6.76,8.09,0.03,20.83
24553,0.2054,-0.1387,0.8627,-6.38,7.94,0.05,20.82
24563,0.2067,-0.1399,0.8689,-5.76,7.65,-0.03,20.83
24573,0.2065,-0.1436,0.8669,-5.36,7.47,0.03,20.83
24583,0.2054,-0.1392,0.8771,-5.42,7.48,0.03,20.83
24593,0.2056,-0.1414,0.8821,-5.98,7.62,-0.08,20.85
24603,0.2042,-0.1409,0.8828,-6.44,7.76,-0.08,20.85
24613,0.2062,-0.1422,0.8749,-6.7,7.94,0.02,20.84
24623,0.203,-0.1417,0.869,-6.64,7.86,-0.05,20.84
24633,0.2072,-0.1459,0.8729,-6.21,7.74,0.0,20.82
24643,0.2042,-0.1437,0.8687,-5.77,7.6,0.0,20.82
24653,0.2056,-0.14,0.8781,-5.45,7.44,-0.03,20.85
24663,0.2074,-0.14,0.8798,-5.66,7.48,-0.09,20.84
24673,0.2062,-0.1404,0.881,-6.21,7.63,-0.06,20.84
24683,0.2034,-0.1376,0.8737,-6.72,7.88,-0.06,20.84
24693,0.1995,-0.1409,0.8656,-6.95,8.05,-0.15,20.82
24703,0.2023,-0.1414,0.8644,-6.58,7.95,-0.15,20.82
24713,0.2007,-0.1426,0.8564,-6.11,7.71,-0.11,20.81
24723,0.1974,-0.1453,0.8687,-5.59,7.45,-0.14,20.83
24733,0.2031,-0.1437,0.8715,-5.36,7.4,-0.12,20.83
24743,0.2029,-0.144,0.8827,-5.56,7.47,-0.06,20.82
24753,0.205,-0.1387,0.8839,-5.97,7.65,-0.08,20.84
24763,0.2047,-0.14,0.8805,-6.38,7.85,-0.11,20.84
24773,0.2048,-0.1433,0.8762,-6.5,7.91,-0.15,20.83
24783,0.2084,-0.1416,0.8707,-6.53,7.85,-0.08,20.84
24793,0.205,-0.1431,0.8673,-6.29,7.8,-0.06,20.83
24803,0.207,-0.1437,0.8729,-6.03,7.65,-0.09,20.85
24813,0.2061,-0.144,0.8718,-5.85,7.57,-0.05,20.85
24823,0.212,-0.1422,0.8718,-5.88,7.73,-0.03,20.83
24833,0.2084,-0.1444,0.8702,-6.02,7.88,0.06,20.83
24843,0.209,-0.141,0.8778,-6.17,8.0,0.0,20.83
24853,0.2056,-0.1428,0.8762,-6.26,7.98,0.09,20.83
24863,0.2039,-0.1455,0.8766,-6.26,7.83,-0.08,20.84
24873,0.2067,-0.1439,0.8757,-6.29,7.74,0.02,20.83
24883,0.2064,-0.1462,0.8765,-6.15,7.73,-0.06,20.84
24893,0.208,-0.1459,0.8783,-5.97,7.83,-0.11,20.84
24903,0.209,-0.1473,0.8829,-5.98,7.79,-0.08,20.84
24913,0.2063,-0.1444,0.8856,-6.03,7.88,-0.05,20.82
24923,0.2115,-0.1466,0.8861,-6.08,7.8,-0.06,20.81
24933,0.2091,-0.1461,0.8861,-6.12,7.66,-0.06,20.83
24943,0.2098,-0.1451,0.8843,-6.17,7.69,-0.08,20.83
24953,0.2067,-0.142,0.8798,-6.23,7.79,-0.05,20.84
24963,0.2063,-0.1416,0.8771,-6.15,7.83,-0.05,20.84
24973,0.207,-0.1427,0.8739,-6.26,7.82,-0.02,20.84
24983,0.2047,-0.1417,0.8688,-6.26,7.85,-0.12,20.84
24993,0.2048,-0.1439,0.8682,-6.26,7.74,-0.08,20.82
25003,0.2018,-0.1429,0.8611,-6.24,7.86,-0.08,20.83
25013,0.2031,-0.1428,0.8608,-6.23,7.85,-0.08,20.84
25023,0.2043,-0.1432,0.8629,-6.06,7.91,0.05,20.82
25033,0.2006,-0.1412,0.8673,-5.97,7.74,-0.11,20.83
25043,0.2025,-0.1399,0.8671,-5.91,7.63,-0.09,20.85
25053,0.2037,-0.1428,0.8696,-5.88,7.6,0.03,20.83
25063,0.2036,-0.1418,0.8712,-5.97,7.65,-0.02,20.84
25073,0.2043,-0.1404,0.873,-6.17,7.74,-0.09,20.85
25083,0.2054,-0.14,0.868,-6.27,7.95,-0.06,20.82
25093,0.2035,-0.1416,0.873,-6.26,7.85,-0.03,20.82
25103,0.2073,-0.1453,0.876,-6.2,7.83,-0.06,20.83
25113,0.2046,-0.1467,0.8724,-6.03,7.73,-0.08,20.84
25123,0.2069,-0.1443,0.8752,-5.83,7.68,-0.06,20.86
25133,0.2048,-0.1437,0.8767,-5.85,7.62,0.05,20.85
25143,0.2025,-0.1444,0.88,-5.92,7.69,-0.05,20.85
25153,0.2034,-0.144,0.8796,-6.14,7.76,-0.05,20.85
25163,0.2026,-0.145,0.8767,-6.31,7.79,-0.06,20.85
25173,0.2032,-0.1447,0.8738,-6.35,7.83,-0.09,20.83
25183,0.2064,-0.1456,0.8719,-6.24,7.76,-0.08,20.84
25193,0.2058,-0.1405,0.8748,-6.03,7.76,-0.06,20.82
25203,0.2047,-0.14,0.8784,-5.91,7.66,-0.06,20.83
25213,0.207,-0.1409,0.8817,-5.79,7.59,-0.08,20.84
25223,0.2085,-0.1421,0.8839,-5.91,7.59,-0.05,20.84
25233,0.2086,-0.1405,0.881,-6.14,7.73,-0.09,20.83
25243,0.2092,-0.1388,0.8787,-6.26,7.85,-0.06,20.84
25253,0.2091,-0.1412,0.8745,-6.44,7.86,-0.05,20.85
25263,0.2085,-0.1436,0.875,-6.26,7.83,-0.08,20.86
25273,0.2111,-0.1396,0.8785,-6.05,7.76,-0.02,20.85
25283,0.2113,-0.1427,0.8784,-6.0,7.71,-0.02,20.86
25293,0.2065,-0.142,0.8788,-5.86,7.63,0.02,20.84
25303,0.2079,-0.1437,0.8781,-6.09,7.73,-0.05,20.85
25313,0.2086,-0.1411,0.879,-6.27,7.83,0.03,20.84
25323,0.2042,-0.1407,0.8757,-6.37,7.86,-0.08,20.82
25333,0.2037,-0.1421,0.8728,-6.38,7.79,-0.05,20.83
25343,0.2041,-0.1399,0.8691,-6.41,7.74,-0.06,20.85
25353,0.2019,-0.1422,0.8685,-6.15,7.69,0.02,20.84
25363,0.2041,-0.1431,0.8693,-5.85,7.56,0.02,20.84
25373,0.205,-0.1443,0.8717,-5.89,7.6,-0.03,20.85
25383,0.2054,-0.1447,0.8716,-5.92,7.6,0.09,20.84
25393,0.2052,-0.1405,0.8704,-6.21,7.68,-0.03,20.82
25403,0.2063,-0.1444,0.87,-6.43,7.74,-0.05,20.83
25413,0.2091,-0.1458,0.8654,-6.35,7.73,-0.02,20.82
25423,0.2059,-0.1453,0.8625,-6.31,7.83,0.02,20.82
25433,0.2035,-0.149,0.856,-6.03,8.03,0.05,20.83
25443,0.1964,-0.1449,0.8555,-6.24,7.98,-0.05,20.82
25453,0.1924,-0.1405,0.848,-6.18,7.85,-0.08,20.82
25463,0.1967,-0.1407,0.8546,-6.03,7.83,-0.06,20.82
25473,0.1957,-0.1393,0.8525,-5.8,7.71,-0.02,20.84
25483,0.2001,-0.1456,0.8594,-5.66,7.63,0.0,20.83
25493,0.2057,-0.1444,0.8705,-5.27,7.5,0.02,20.85
25503,0.2086,-0.1447,0.8926,-5.18,7.4,-0.11,20.85
25513,0.2137,-0.1448,0.9023,-5.44,7.34,-0.05,20.87
25523,0.2126,-0.1459,0.9067,-5.74,7.54,-0.02,20.84
25533,0.2156,-0.1455,0.9053,-6.09,7.85,0.02,20.84
25543,0.2102,-0.149,0.9126,-6.35,8.06,0.0,20.83
25553,0.2069,-0.1497,0.9109,-6.64,8.09,-0.06,20.84
25564,0.2095,-0.1449,0.8979,-6.49,7.63,-0.02,20.85
25574,0.2117,-0.152,0.8961,-6.17,7.27,-0.09,20.86
25584,0.2125,-0.1534,0.8895,-6.02,7.3,-0.11,20.87
25594,0.2124,-0.1437,0.8895,-5.95,7.4,-0.14,20.84
25604,0.2097,-0.1472,0.885,-6.06,7.57,-0.15,20.84
25614,0.213,-0.1411,0.8765,-6.24,7.79,-0.08,20.82
25624,0.2085,-0.1387,0.8673,-6.44,7.76,-0.15,20.85
25634,0.2085,-0.1382,0.8584,-6.56,7.59,-0.18,20.85
25644,0.2074,-0.1334,0.848,-6.64,7.54,-0.08,20.86
25654,0.2061,-0.1329,0.8469,-6.46,7.69,-0.18,20.82
25664,0.205,-0.1332,0.8433,-6.18,7.82,-0.06,20.86
25674,0.2034,-0.1306,0.8462,-5.85,7.76,-0.11,20.85
25684,0.2036,-0.1343,0.8527,-5.74,7.62,-0.12,20.83
25694,0.2028,-0.1344,0.8569,-5.92,7.5,-0.15,20.87
25705,0.2051,-0.1387,0.8545,-6.29,7.53,-0.15,20.86
25715,0.2094,-0.14,0.8573,-6.43,7.74,-0.06,20.87
25725,0.2089,-0.139,0.8619,-6.27,8.09,0.05,20.85
25735,0.2051,-0.1387,0.8663,-5.91,8.2,0.03,20.83
25745,0.202,-0.1389,0.875,-5.68,7.95,0.12,20.84
25755,0.2002,-0.1339,0.8779,-5.62,7.65,-0.03,20.86
25765,0.1949,-0.1339,0.8779,-5.95,7.53,0.08,20.85
25775,0.2012,-0.1394,0.8773,-6.35,7.77,-0.12,20.86
25785,0.1997,-0.1436,0.8784,-6.84,8.18,-0.14,20.88
25795,0.2007,-0.1501,0.8785,-6.78,8.4,-0.14,20.85
25805,0.1996,-0.1552,0.8801,-6.43,8.21,-0.06,20.86
25815,0.2047,-0.1572,0.886,-6.02,7.85,-0.14,20.87
25825,0.2059,-0.1584,0.8921,-5.56,7.51,-0.11,20.84
25835,0.2065,-0.1571,0.892,-5.63,7.48,-0.12,20.88
25845,0.2069,-0.1501,0.8967,-5.8,7.66,-0.08,20.84
25855,0.2061,-0.1489,0.8961,-6.14,7.79,-0.12,20.84
25865,0.2019,-0.1479,0.8932,-6.35,7.86,-0.09,20.85
25875,0.2032,-0.1443,0.8876,-6.23,7.82,-0.17,20.84
25885,0.2037,-0.1453,0.8898,-6.02,7.59,-0.12,20.84
25895,0.2103,-0.1416,0.8801,-5.94,7.54,-0.17,20.84
25905,0.207,-0.1429,0.8805,-5.92,7.69,-0.11,20.85
25915,0.2094,-0.1445,0.879,-6.05,7.77,-0.06,20.87
25925,0.2091,-0.1442,0.8729,-6.34,7.98,-0.11,20.86
25935,0.2063,-0.1444,0.8707,-6.52,8.02,-0.06,20.86
25945,0.2072,-0.1461,0.8613,-6.47,7.95,-0.11,20.87
25955,0.2102,-0.1476,0.859,-6.17,7.8,-0.11,20.85
25965,0.209,-0.139,0.8595,-5.91,7.8,-0.08,20.86
25975,0.209,-0.1414,0.8622,-5.62,7.73,0.0,20.85
25985,0.208,-0.1387,0.8672,-5.74,7.69,0.02,20.86
25995,0.2108,-0.1361,0.8655,-5.97,7.69,-0.08,20.85
26005,0.2073,-0.1396,0.8668,-6.31,7.83,-0.12,20.86
26015,0.2081,-0.136,0.8696,-6.43,7.88,0.0,20.86
26025,0.2102,-0.142,0.8622,-6.43,8.06,0.0,20.89
26035,0.2086,-0.1415,0.8651,-6.24,8.02,-0.05,20.87
26045,0.2072,-0.1432,0.8658,-6.0,7.88,-0.05,20.87
26055,0.2089,-0.1401,0.8754,-5.79,7.79,-0.02,20.87
26065,0.2058,-0.1416,0.8779,-5.92,7.79,-0.05,20.84
26075,0.2075,-0.1398,0.8765,-6.12,7.83,-0.05,20.86
26085,0.2048,-0.1431,0.8813,-6.35,7.91,-0.03,20.84
26095,0.2028,-0.1418,0.8801,-6.43,8.03,-0.06,20.85
26105,0.2015,-0.1428,0.8766,-6.27,7.98,0.02,20.85
26115,0.2001,-0.1453,0.881,-6.09,7.82,-0.03,20.84
26125,0.2004,-0.1439,0.8828,-5.86,7.6,-0.08,20.82
26135,0.2006,-0.1448,0.8864,-5.88,7.63,-0.08,20.87
26145,0.2017,-0.1437,0.8848,-5.95,7.51,-0.14,20.85
26155,0.2051,-0.1447,0.8826,-6.23,7.66,-0.09,20.86
26165,0.2037,-0.1447,0.879,-6.31,7.77,-0.06,20.85
26175,0.205,-0.1455,0.8777,-6.34,7.83,0.02,20.85
26185,0.2068,-0.1475,0.8792,-6.21,7.76,-0.11,20.84
26195,0.2068,-0.1458,0.8779,-6.11,7.62,-0.15,20.84
26205,0.2064,-0.1466,0.882,-6.06,7.59,0.0,20.85
26215,0.2086,-0.1481,0.8768,-6.03,7.69,-0.05,20.84
26225,0.2058,-0.1434,0.8717,-6.09,7.69,-0.06,20.86
26235,0.2047,-0.1469,0.8717,-6.21,7.77,-0.09,20.85
26245,0.2052,-0.1447,0.8715,-6.15,7.71,-0.09,20.84
26255,0.2061,-0.1443,0.8723,-6.05,7.6,-0.11,20.87
26265,0.2076,-0.1433,0.868,-5.92,7.63,-0.02,20.86
26275,0.2058,-0.139,0.8718,-5.85,7.54,-0.08,20.87
26285,0.2048,-0.1409,0.8689,-6.05,7.69,-0.08,20.84
26295,0.2058,-0.139,0.868,-6.0,7.77,-0.02,20.85
26305,0.2063,-0.1414,0.8651,-6.21,7.89,-0.03,20.85
26315,0.2068,-0.1426,0.8639,-6.35,7.88,-0.08,20.84
26325,0.2017,-0.1428,0.8615,-6.32,7.89,-0.06,20.87
26335,0.2001,-0.1436,0.8623,-6.15,7.89,0.0,20.87
26345,0.2047,-0.144,0.8578,-5.83,7.76,0.12,20.85
26355,0.2048,-0.1439,0.8674,-5.62,7.65,0.15,20.87
26365,0.2086,-0.1399,0.8682,-5.47,7.62,0.03,20.89
26375,0.2039,-0.1385,0.8765,-5.62,7.69,0.15,20.87
26385,0.2062,-0.14,0.8837,-5.92,7.66,0.08,20.86
26395,0.2072,-0.1367,0.8877,-5.98,7.68,0.0,20.84
26405,0.2081,-0.141,0.8875,-6.12,7.73,0.06,20.86
26415,0.2081,-0.1442,0.8989,-6.02,7.83,0.0,20.85
26425,0.2091,-0.1442,0.8973,-6.08,7.89,-0.08,20.87
26435,0.2074,-0.1482,0.8976,-6.0,7.71,-0.03,20.87
26445,0.2065,-0.1492,0.8981,-6.32,7.66,-0.08,20.87
26455,0.2054,-0.1521,0.8895,-6.58,7.66,-0.09,20.87
26465,0.2041,-0.1547,0.882,-6.6,7.71,-0.06,20.87
26475,0.2059,-0.1514,0.8748,-6.52,7.69,-0.06,20.82
26485,0.2037,-0.1498,0.8688,-6.09,7.57,-0.11,20.87
26495,0.2034,-0.1472,0.8672,-5.69,7.44,-0.09,20.86
26505,0.2083,-0.1388,0.8691,-5.24,7.19,-0.03,20.87
26515,0.2091,-0.1293,0.8698,-5.3,7.22,-0.15,20.88
26525,0.2092,-0.1266,0.8733,-5.74,7.31,-0.09,20.89
26535,0.2068,-0.1287,0.8735,-6.31,7.5,-0.02,20.86
26545,0.2097,-0.1296,0.8627,-6.85,7.82,-0.09,20.87
26555,0.2052,-0.1324,0.8546,-7.04,8.02,-0.08,20.87
26565,0.2061,-0.1425,0.8528,-6.73,8.03,-0.08,20.85
26575,0.2025,-0.1442,0.8538,-6.2,7.97,-0.02,20.86
26585,0.2053,-0.1455,0.8586,-5.48,7.57,0.06,20.87
26595,0.2086,-0.1417,0.8704,-5.28,7.33,-0.02,20.87
26605,0.2101,-0.1445,0.8794,-5.48,7.3,-0.11,20.87
26615,0.2109,-0.142,0.8765,-6.17,7.59,-0.02,20.89
26625,0.2087,-0.1411,0.8802,-6.61,7.92,-0.06,20.85
26635,0.2061,-0.1416,0.8772,-6.75,8.14,-0.09,20.84
26645,0.2032,-0.1416,0.8706,-6.58,7.97,-0.02,20.87
26655,0.203,-0.1438,0.8712,-6.17,7.73,-0.03,20.86
26665,0.2021,-0.139,0.8713,-5.77,7.48,-0.06,20.87
26675,0.203,-0.1423,0.8763,-5.69,7.44,-0.08,20.87
26685,0.2045,-0.1421,0.8792,-5.77,7.66,0.06,20.88
26695,0.2029,-0.1407,0.8785,-6.21,7.97,-0.03,20.86
26705,0.2041,-0.1423,0.8799,-6.49,8.06,-0.02,20.84
26715,0.2037,-0.1406,0.8799,-6.49,8.09,-0.08,20.86
26725,0.2035,-0.1455,0.877,-6.41,7.77,-0.14,20.86
26735,0.2057,-0.1451,0.8765,-6.15,7.56,-0.06,20.87
26745,0.2064,-0.1422,0.8772,-5.94,7.51,-0.08,20.87
26755,0.2081,-0.1469,0.8787,-5.8,7.71,-0.09,20.88
26765,0.2064,-0.1528,0.8822,-5.89,7.83,-0.12,20.87
26775,0.2061,-0.1458,0.8878,-6.14,7.85,-0.08,20.85
26785,0.2084,-0.145,0.8765,-6.23,7.74,-0.05,20.87
26795,0.2107,-0.1445,0.8727,-6.34,7.79,-0.03,20.87
26805,0.2085,-0.1473,0.8729,-6.17,7.77,-0.06,20.84
26815,0.2078,-0.1447,0.8702,-5.98,7.74,-0.08,20.87
26825,0.2098,-0.1467,0.8745,-5.94,7.71,0.0,20.85
26835,0.2085,-0.1438,0.8701,-5.92,7.68,-0.02,20.88
26845,0.2113,-0.1443,0.8707,-5.98,7.69,-0.03,20.86
26855,0.2095,-0.1443,0.8746,-6.15,7.86,0.02,20.86
26865,0.2068,-0.1437,0.8687,-6.26,7.92,0.02,20.86
26875,0.2058,-0.1425,0.8691,-6.29,7.91,-0.03,20.89
26885,0.2069,-0.1423,0.8633,-6.11,7.86,-0.05,20.85
26895,0.2062,-0.1429,0.866,-6.03,7.71,0.0,20.86
26905,0.2051,-0.1392,0.8701,-5.91,7.69,-0.08,20.87
26915,0.2089,-0.1403,0.8713,-5.89,7.71,-0.06,20.84
26925,0.2074,-0.1393,0.8718,-5.95,7.71,0.02,20.89
26935,0.2078,-0.1399,0.8782,-6.0,7.8,-0.08,20.87
26945,0.2062,-0.1407,0.8793,-6.15,7.83,0.06,20.85
26955,0.2053,-0.1394,0.8793,-6.21,7.85,0.05,20.87
26965,0.2048,-0.1405,0.8795,-6.23,7.82,-0.02,20.88
26975,0.2045,-0.1431,0.8748,-6.23,7.8,0.03,20.86
26985,0.2006,-0.1414,0.876,-6.15,7.74,0.02,20.86
26995,0.205,-0.1451,0.8774,-6.02,7.69,0.0,20.85
27005,0.2069,-0.1426,0.8774,-5.94,7.69,-0.03,20.88
27015,0.2045,-0.1462,0.8834,-5.91,7.62,-0.06,20.86
27025,0.2059,-0.1453,0.8826,-6.0,7.65,-0.02,20.87
27035,0.2043,-0.1431,0.8817,-6.09,7.62,-0.09,20.89
27045,0.2035,-0.1416,0.8806,-6.14,7.68,-0.06,20.86
27055,0.2054,-0.1423,0.8801,-6.09,7.59,-0.12,20.86
27065,0.2058,-0.1434,0.8802,-6.11,7.62,-0.11,20.85
27075,0.2067,-0.1414,0.8774,-6.08,7.66,-0.06,20.87
27085,0.2086,-0.1389,0.8796,-6.15,7.65,-0.15,20.86
27095,0.2091,-0.1403,0.881,-6.2,7.73,-0.09,20.86
27105,0.2078,-0.1375,0.8782,-6.23,7.66,-0.06,20.89
27115,0.2051,-0.14,0.8708,-6.18,7.66,0.0,20.86
27125,0.2089,-0.14,0.8695,-6.15,7.71,-0.11,20.87
27135,0.2073,-0.1406,0.8691,-6.09,7.71,-0.05,20.87
27145,0.2073,-0.1392,0.8687,-6.14,7.73,0.03,20.86
27155,0.2057,-0.1417,0.8669,-6.17,7.74,-0.08,20.89
27165,0.2045,-0.1401,0.8702,-6.2,7.76,-0.06,20.87
27175,0.2061,-0.14,0.8646,-6.2,7.74,-0.06,20.85
27185,0.2035,-0.1458,0.8627,-6.18,7.76,-0.11,20.87
27195,0.2024,-0.1403,0.8634,-6.23,7.74,-0.08,20.85
27205,0.2067,-0.1422,0.8646,-5.98,7.74,0.02,20.86
27215,0.2056,-0.1449,0.8671,-5.91,7.66,-0.06,20.89
27225,0.2051,-0.1423,0.8741,-5.83,7.69,-0.09,20.89
27235,0.2053,-0.1455,0.8737,-6.03,7.71,-0.05,20.87
27245,0.2053,-0.1442,0.8768,-6.08,7.82,-0.08,20.86
27255,0.2057,-0.1445,0.8733,-6.18,7.82,0.03,20.87
27265,0.2057,-0.1443,0.875,-6.32,7.74,-0.02,20.88
27275,0.204,-0.1462,0.8684,-6.31,7.88,-0.05,20.87
27285,0.2042,-0.1478,0.8738,-6.17,7.92,-0.05,20.87
27295,0.2074,-0.1464,0.8811,-5.91,7.83,-0.06,20.87
27305,0.2089,-0.1467,0.8804,-5.82,7.73,0.02,20.87
27315,0.2073,-0.1432,0.8867,-5.89,7.65,-0.06,20.87
27325,0.2095,-0.144,0.8884,-6.11,7.66,-0.08,20.86
27335,0.2092,-0.1434,0.8832,-6.2,7.8,-0.02,20.86
27345,0.2091,-0.1461,0.8789,-6.38,8.05,-0.02,20.86
27355,0.2081,-0.1447,0.8789,-6.37,8.0,0.0,20.86
27365,0.2083,-0.1461,0.8744,-6.14,7.94,-0.05,20.89
