t_ms,accel_x_g,accel_y_g,accel_z_g,gyro_x_dps,gyro_y_dps,gyro_z_dps,imu_temp_c
3283,0.3265,-0.0273,0.8627,-6.56,7.95,0.0,28.12
3294,0.3289,-0.027,0.8636,-6.63,7.94,-0.11,28.12
3304,0.3281,-0.0282,0.8638,-6.53,7.91,-0.08,28.15
3314,0.329,-0.0283,0.8591,-6.53,7.97,-0.09,28.14
3324,0.3306,-0.028,0.8634,-6.47,7.94,-0.09,28.14
3334,0.3281,-0.0264,0.8658,-6.5,7.95,-0.03,28.14
3344,0.3286,-0.0245,0.8657,-6.56,7.94,-0.03,28.14
3354,0.33,-0.0261,0.8618,-6.6,7.97,-0.03,28.14
3364,0.3284,-0.0286,0.8613,-6.6,7.92,-0.02,28.15
3374,0.3267,-0.0251,0.8627,-6.58,7.92,-0.05,28.14
3384,0.3259,-0.0251,0.8624,-6.52,8.02,0.03,28.12
3394,0.3298,-0.0239,0.8635,-6.55,7.89,-0.05,28.13
3404,0.3265,-0.0261,0.8638,-6.61,7.88,0.02,28.16
3414,0.3282,-0.0265,0.8641,-6.58,7.97,-0.09,28.13
3424,0.3289,-0.0245,0.8624,-6.55,7.89,-0.02,28.15
3434,0.3297,-0.0262,0.8627,-6.61,7.98,-0.05,28.15
3444,0.3273,-0.026,0.8615,-6.49,7.94,-0.05,28.13
3454,0.3279,-0.0251,0.8607,-6.6,7.89,-0.05,28.16
3464,0.3285,-0.0282,0.8624,-6.61,7.89,0.02,28.14
3474,0.328,-0.0262,0.8649,-6.6,7.89,-0.02,28.17
3485,0.3252,-0.0272,0.8638,-6.56,7.91,-0.05,28.14
3495,0.3271,-0.0234,0.866,-6.6,7.94,0.02,28.16
3505,0.3265,-0.0238,0.8657,-6.56,7.97,0.0,28.15
3515,0.3264,-0.0244,0.8682,-6.56,7.86,0.0,28.14
3525,0.3273,-0.0238,0.8627,-6.6,7.94,-0.02,28.13
3535,0.3304,-0.0236,0.8644,-6.61,7.94,-0.06,28.16
3545,0.3303,-0.025,0.8663,-6.55,7.94,-0.02,28.17
3555,0.3289,-0.0251,0.8611,-6.6,7.98,-0.03,28.14
3565,0.3329,-0.0275,0.8611,-6.58,7.8,0.0,28.15
3575,0.3323,-0.0254,0.8616,-6.64,7.88,-0.02,28.15
3585,0.3269,-0.028,0.8671,-6.67,7.91,-0.06,28.17
3595,0.3256,-0.0266,0.8678,-6.6,7.92,-0.08,28.16
3605,0.3298,-0.0234,0.8691,-6.55,7.91,-0.05,28.15
3615,0.3301,-0.0233,0.8625,-6.55,7.94,-0.08,28.16
3625,0.3286,-0.0249,0.8629,-6.52,7.89,-0.06,28.17
3635,0.3278,-0.0247,0.8651,-6.63,7.86,0.0,28.18
3645,0.3295,-0.027,0.8627,-6.52,7.94,0.0,28.17
3655,0.3279,-0.0234,0.8636,-6.61,7.94,-0.08,28.16
3665,0.327,-0.0272,0.8656,-6.63,7.98,-0.08,28.16
3675,0.3262,-0.0249,0.8649,-6.63,7.92,-0.11,28.15
3685,0.3279,-0.0258,0.8629,-6.55,7.95,-0.02,28.15
3696,0.329,-0.0248,0.8606,-6.52,7.86,-0.03,28.14
3706,0.3284,-0.0251,0.8617,-6.47,7.94,0.0,28.16
3716,0.3285,-0.0248,0.8645,-6.61,7.95,-0.09,28.13
3726,0.3307,-0.024,0.8646,-6.52,7.97,-0.06,28.18
3736,0.3304,-0.0245,0.865,-6.61,7.94,0.03,28.17
3746,0.3291,-0.0226,0.8638,-6.6,7.89,-0.09,28.16
3756,0.3271,-0.0255,0.8645,-6.58,7.95,0.0,28.19
3766,0.329,-0.0251,0.8643,-6.61,7.85,0.0,28.17
3776,0.3287,-0.0248,0.8666,-6.55,7.94,-0.02,28.18
3786,0.324,-0.0255,0.8627,-6.6,7.95,-0.08,28.17
3796,0.327,-0.0259,0.8624,-6.63,7.92,-0.03,28.15
3806,0.327,-0.0294,0.8606,-6.55,7.91,0.02,28.17
3816,0.329,-0.026,0.8601,-6.55,7.83,0.03,28.18
3826,0.3264,-0.0286,0.8663,-6.58,7.94,-0.02,28.16
3836,0.3284,-0.0251,0.8607,-6.58,7.94,-0.05,28.17
3846,0.329,-0.0258,0.8684,-6.53,7.95,0.0,28.17
3856,0.3317,-0.0245,0.8627,-6.64,7.88,-0.02,28.18
3866,0.3301,-0.0256,0.8655,-6.53,7.92,0.0,28.2
3876,0.3265,-0.0276,0.8627,-6.52,7.94,-0.06,28.19
3886,0.326,-0.027,0.8661,-6.55,7.94,-0.02,28.15
3896,0.3281,-0.028,0.8649,-6.6,7.89,-0.06,28.19
3906,0.3262,-0.025,0.8647,-6.66,7.95,-0.02,28.18
3916,0.3298,-0.025,0.8628,-6.56,7.91,0.02,28.17
3926,0.3279,-0.0258,0.8624,-6.58,7.94,-0.06,28.17
3936,0.3275,-0.0243,0.8616,-6.55,7.89,-0.08,28.19
3946,0.3269,-0.025,0.8625,-6.53,7.97,-0.08,28.19
3956,0.3268,-0.0273,0.8645,-6.55,7.94,-0.06,28.19
3966,0.3303,-0.0259,0.8656,-6.55,7.88,-0.06,28.19
3976,0.3295,-0.0236,0.8583,-6.6,7.91,-0.11,28.17
3986,0.3289,-0.0243,0.8639,-6.61,7.94,-0.03,28.15
3996,0.3271,-0.0266,0.868,-6.63,7.94,-0.05,28.17
4006,0.3295,-0.0253,0.8638,-6.58,7.98,0.0,28.19
4016,0.3302,-0.0261,0.8611,-6.58,7.86,-0.03,28.2
4026,0.3281,-0.0266,0.8608,-6.61,7.91,-0.08,28.2
4036,0.3286,-0.0267,0.8641,-6.58,8.02,-0.05,28.19
4046,0.3295,-0.0288,0.8611,-6.49,7.85,-0.09,28.15
4056,0.3256,-0.0239,0.8656,-6.58,7.95,-0.08,28.18
4066,0.3276,-0.0278,0.8639,-6.61,7.89,-0.03,28.19
4076,0.3275,-0.0281,0.8669,-6.6,7.98,-0.03,28.19
4086,0.3284,-0.0267,0.8649,-6.61,7.89,-0.02,28.18
4096,0.3278,-0.0271,0.8622,-6.66,7.98,0.02,28.2
4106,0.3317,-0.0244,0.8615,-6.56,7.89,-0.02,28.19
4116,0.3296,-0.0281,0.8639,-6.6,7.98,-0.02,28.19
4126,0.3309,-0.0237,0.8657,-6.52,7.88,-0.06,28.18
4136,0.3274,-0.0253,0.8623,-6.52,7.92,-0.12,28.2
4146,0.3259,-0.0277,0.8613,-6.63,7.89,-0.12,28.17
4156,0.3269,-0.0262,0.8647,-6.58,7.92,0.0,28.18
4166,0.3285,-0.0253,0.8618,-6.69,7.85,-0.03,28.17
4176,0.3282,-0.0276,0.861,-6.6,7.89,-0.09,28.19
4186,0.33,-0.0251,0.865,-6.52,7.94,-0.08,28.19
4196,0.3269,-0.0231,0.8645,-6.61,7.91,-0.05,28.2
4206,0.3291,-0.0271,0.8632,-6.61,7.88,-0.02,28.18
4216,0.3263,-0.0277,0.865,-6.52,7.89,0.0,28.19
4226,0.3293,-0.0255,0.8644,-6.6,7.92,-0.02,28.18
4236,0.329,-0.0277,0.8645,-6.53,7.88,-0.02,28.16
4246,0.3279,-0.0256,0.8607,-6.66,7.95,-0.09,28.16
4256,0.3285,-0.0254,0.8627,-6.61,7.91,-0.08,28.21
4266,0.3251,-0.027,0.8604,-6.61,7.83,-0.03,28.2
4276,0.3278,-0.0271,0.8639,-6.61,7.85,0.0,28.22
4286,0.3279,-0.026,0.8632,-6.6,7.88,0.06,28.18
4296,0.3295,-0.0242,0.865,-6.53,7.91,-0.08,28.18
4306,0.3265,-0.0265,0.8617,-6.56,7.91,-0.08,28.19
4316,0.33,-0.0262,0.8607,-6.49,7.92,-0.05,28.2
4326,0.3274,-0.0264,0.8646,-6.66,7.97,-0.08,28.19
4336,0.3242,-0.027,0.8647,-6.67,7.97,0.03,28.19
4346,0.3284,-0.0238,0.8628,-6.61,7.88,0.02,28.18
4356,0.3301,-0.025,0.8645,-6.64,7.85,0.02,28.19
4366,0.3289,-0.0256,0.8605,-6.7,7.91,-0.08,28.2
4376,0.3281,-0.0251,0.8633,-6.61,7.89,-0.02,28.19
4386,0.3278,-0.0228,0.8602,-6.58,7.82,-0.03,28.18
4396,0.3281,-0.0233,0.8618,-6.64,7.97,0.02,28.19
4406,0.3286,-0.0247,0.8636,-6.55,8.0,-0.05,28.18
4416,0.33,-0.0277,0.8607,-6.6,7.95,-0.03,28.18
4426,0.3295,-0.0236,0.864,-6.58,7.94,0.03,28.19
4436,0.328,-0.0256,0.8649,-6.64,7.94,-0.06,28.19
4446,0.3268,-0.0261,0.8629,-6.6,7.91,-0.09,28.22
4456,0.3257,-0.0245,0.8624,-6.61,7.91,-0.09,28.2
4466,0.3295,-0.024,0.8616,-6.55,7.94,-0.02,28.21
4476,0.3285,-0.0251,0.8628,-6.6,7.89,0.0,28.22
4486,0.3252,-0.026,0.861,-6.58,7.92,0.02,28.19
4496,0.3265,-0.026,0.8656,-6.56,7.89,-0.05,28.19
4506,0.326,-0.0265,0.866,-6.5,7.92,-0.03,28.22
4516,0.3276,-0.0271,0.8619,-6.6,7.91,-0.02,28.2
4526,0.3287,-0.0232,0.8644,-6.52,7.89,-0.05,28.19
4536,0.3301,-0.0267,0.8625,-6.58,7.98,-0.09,28.24
4546,0.3259,-0.0281,0.8666,-6.6,7.97,-0.02,28.22
4556,0.3257,-0.024,0.865,-6.49,7.91,-0.08,28.22
4566,0.3286,-0.0261,0.864,-6.5,7.95,-0.03,28.2
4576,0.327,-0.0273,0.863,-6.61,7.92,-0.06,28.22
4586,0.3285,-0.0262,0.8619,-6.56,7.98,0.02,28.23
4596,0.3284,-0.0278,0.8601,-6.66,7.97,0.02,28.22
4606,0.3268,-0.0242,0.8608,-6.49,8.02,-0.02,28.22
4616,0.3309,-0.028,0.8602,-6.56,7.95,-0.05,28.23
4626,0.3275,-0.0259,0.8616,-6.53,7.88,-0.06,28.25
4636,0.328,-0.0251,0.8622,-6.53,7.89,-0.02,28.21
4646,0.3271,-0.027,0.8656,-6.55,7.95,-0.09,28.23
4656,0.3282,-0.0247,0.8613,-6.58,7.98,-0.12,28.23
4666,0.3279,-0.0265,0.8666,-6.64,8.05,-0.02,28.25
4676,0.3286,-0.0254,0.8616,-6.58,7.92,-0.06,28.2
4686,0.3289,-0.0261,0.8615,-6.53,7.92,-0.02,28.21
4696,0.3298,-0.0283,0.8651,-6.61,7.94,0.02,28.23
4706,0.3278,-0.0261,0.8639,-6.61,7.94,-0.05,28.25
4716,0.3293,-0.0245,0.8624,-6.58,7.95,-0.02,28.19
4726,0.3279,-0.0253,0.8636,-6.55,7.98,0.03,28.24
4736,0.3268,-0.0254,0.863,-6.53,7.97,-0.06,28.22
4746,0.328,-0.0253,0.8629,-6.69,7.94,-0.06,28.22
4756,0.326,-0.0282,0.866,-6.47,8.0,0.0,28.21
4766,0.3285,-0.0276,0.8622,-6.53,7.91,-0.03,28.26
4776,0.3271,-0.0258,0.8652,-6.58,7.95,-0.08,28.24
4786,0.329,-0.0269,0.8643,-6.66,7.91,-0.06,28.24
4796,0.3278,-0.026,0.8655,-6.58,7.92,-0.03,28.24
4806,0.3252,-0.0239,0.8634,-6.6,7.92,-0.12,28.23
4816,0.3273,-0.026,0.8613,-6.63,7.92,-0.05,28.22
4826,0.3306,-0.0259,0.866,-6.67,7.95,-0.12,28.23
4836,0.3274,-0.0232,0.8658,-6.63,7.97,-0.03,28.25
4846,0.3284,-0.0245,0.8658,-6.5,7.91,-0.11,28.24
4856,0.3252,-0.0264,0.8667,-6.67,7.95,-0.11,28.24
4866,0.3253,-0.0226,0.866,-6.63,7.94,0.0,28.24
4876,0.3293,-0.0239,0.8651,-6.56,7.97,-0.02,28.24
4886,0.3293,-0.0258,0.8606,-6.63,7.91,-0.09,28.23
4896,0.3308,-0.0249,0.8623,-6.66,7.85,-0.08,28.24
4906,0.3302,-0.0289,0.8647,-6.58,7.95,-0.05,28.24
4916,0.329,-0.025,0.8633,-6.63,7.92,-0.03,28.26
4926,0.3286,-0.0256,0.858,-6.61,7.97,-0.05,28.24
4936,0.3292,-0.0266,0.8649,-6.6,8.03,-0.08,28.25
4946,0.3282,-0.0271,0.8671,-6.6,7.92,0.0,28.26
4956,0.3296,-0.0264,0.8643,-6.55,7.97,-0.06,28.23
4966,0.3276,-0.0248,0.8621,-6.58,7.82,0.02,28.25
4976,0.3268,-0.028,0.8661,-6.53,8.02,-0.03,28.24
4986,0.3306,-0.0278,0.8655,-6.56,8.0,-0.12,28.23
4996,0.3293,-0.0278,0.8652,-6.49,7.98,-0.08,28.25
5006,0.3273,-0.026,0.8649,-6.63,7.97,-0.05,28.26
5016,0.3259,-0.0275,0.8647,-6.56,7.94,-0.03,28.25
5026,0.328,-0.0245,0.865,-6.63,7.92,-0.02,28.25
5036,0.33,-0.0244,0.8615,-6.58,7.98,0.03,28.27
5046,0.3279,-0.0259,0.8641,-6.56,7.91,-0.05,28.25
5056,0.3278,-0.0255,0.8658,-6.66,7.95,0.0,28.27
5066,0.329,-0.0236,0.8651,-6.56,7.89,-0.05,28.26
5076,0.328,-0.0264,0.8646,-6.58,8.0,-0.05,28.25
5086,0.33,-0.0254,0.86,-6.63,7.89,0.02,28.26
5096,0.3262,-0.0255,0.8617,-6.46,7.97,0.0,28.25
5106,0.327,-0.0258,0.8627,-6.58,7.97,-0.06,28.25
5117,0.329,-0.0265,0.8657,-6.64,7.94,-0.08,28.24
5127,0.328,-0.0261,0.8622,-6.64,7.97,-0.08,28.24
5137,0.3258,-0.0264,0.8617,-6.55,7.95,0.02,28.22
5147,0.3276,-0.0281,0.8612,-6.64,7.97,0.03,28.24
5157,0.3286,-0.0271,0.8615,-6.6,7.92,-0.08,28.26
5167,0.3271,-0.0265,0.8628,-6.55,7.95,-0.06,28.23
5177,0.3302,-0.0249,0.863,-6.64,7.91,-0.03,28.27
5187,0.3319,-0.0233,0.8623,-6.63,7.91,0.03,28.26
5197,0.3267,-0.0258,0.863,-6.61,7.95,0.0,28.27
5207,0.3301,-0.025,0.8636,-6.63,7.95,-0.06,28.27
5217,0.3287,-0.0253,0.8635,-6.56,7.92,-0.09,28.27
5227,0.3269,-0.0238,0.864,-6.61,7.97,-0.03,28.26
5237,0.3268,-0.026,0.865,-6.6,7.98,-0.11,28.26
5247,0.3265,-0.0245,0.8622,-6.6,7.91,0.03,28.25
5257,0.3286,-0.024,0.8667,-6.61,7.92,-0.11,28.26
5267,0.3259,-0.0226,0.8651,-6.61,7.94,-0.03,28.27
5277,0.3286,-0.0272,0.8619,-6.55,7.95,-0.02,28.25
5287,0.327,-0.0242,0.8608,-6.49,7.89,-0.06,28.25
5297,0.3269,-0.025,0.8625,-6.6,7.92,-0.14,28.27
5307,0.3287,-0.027,0.8643,-6.6,7.94,-0.11,28.24
5317,0.3276,-0.0251,0.8639,-6.52,7.92,0.03,28.25
5327,0.329,-0.026,0.8646,-6.66,7.95,-0.03,28.24
5337,0.327,-0.027,0.8634,-6.55,7.94,0.0,28.26
5347,0.3274,-0.0247,0.8628,-6.56,7.86,0.03,28.26
5357,0.3284,-0.0275,0.8638,-6.56,7.88,0.03,28.26
5367,0.3287,-0.0261,0.8604,-6.56,7.91,0.02,28.26
5377,0.3282,-0.026,0.8602,-6.55,7.88,0.0,28.25
5387,0.3315,-0.0238,0.8636,-6.56,7.97,-0.08,28.29
5397,0.3265,-0.0237,0.865,-6.64,7.89,-0.06,28.27
5407,0.324,-0.0261,0.8651,-6.64,7.92,-0.03,28.27
5417,0.3265,-0.0254,0.8627,-6.56,7.91,-0.08,28.25
5427,0.3323,-0.0289,0.864,-6.55,7.89,-0.02,28.27
5437,0.3303,-0.0251,0.8619,-6.66,7.92,-0.09,28.26
5447,0.3307,-0.0277,0.8633,-6.55,7.95,-0.05,28.25
5457,0.3269,-0.0231,0.8638,-6.53,7.91,0.02,28.26
5467,0.3278,-0.0266,0.861,-6.66,7.91,0.0,28.29
5477,0.3263,-0.0273,0.8629,-6.63,7.88,-0.06,28.29
5487,0.3268,-0.0251,0.8599,-6.6,7.86,0.0,28.28
5497,0.328,-0.0258,0.8617,-6.55,7.89,-0.03,28.29
5507,0.3291,-0.0258,0.8643,-6.56,7.89,0.05,28.27
5517,0.3267,-0.0283,0.8615,-6.63,7.92,-0.05,28.27
5527,0.326,-0.0282,0.8607,-6.61,7.98,-0.02,28.29
5537,0.3265,-0.0253,0.861,-6.66,7.95,-0.08,28.26
5547,0.3267,-0.0265,0.8613,-6.67,7.94,0.0,28.27
5557,0.3245,-0.0258,0.8639,-6.61,7.94,0.02,28.28
5567,0.3282,-0.0248,0.8622,-6.61,7.88,-0.02,28.27
5577,0.3308,-0.026,0.8632,-6.66,7.91,-0.06,28.27
5587,0.3279,-0.0242,0.8602,-6.58,7.91,-0.09,28.27
5597,0.3273,-0.0264,0.8673,-6.58,7.88,-0.05,28.27
5607,0.3274,-0.0256,0.8613,-6.64,7.91,-0.08,28.29
5617,0.3287,-0.0275,0.8655,-6.61,7.97,-0.09,28.28
5627,0.3287,-0.027,0.8639,-6.64,8.02,-0.06,28.28
5637,0.3287,-0.0272,0.8684,-6.66,7.89,-0.06,28.27
5647,0.3323,-0.0264,0.8665,-6.61,7.91,-0.09,28.27
5657,0.3271,-0.0267,0.8658,-6.64,7.94,-0.09,28.29
5667,0.3274,-0.0258,0.865,-6.66,7.94,-0.06,28.27
5677,0.3302,-0.0243,0.8665,-6.61,7.92,-0.08,28.29
5687,0.3279,-0.028,0.8634,-6.66,7.97,-0.03,28.31
5697,0.3292,-0.0258,0.8628,-6.61,7.91,-0.06,28.27
5707,0.3273,-0.0237,0.8617,-6.52,7.94,-0.09,28.26
5717,0.3324,-0.0258,0.8604,-6.56,7.98,-0.03,28.27
5727,0.3291,-0.0275,0.8638,-6.72,7.86,-0.09,28.27
5737,0.3279,-0.0256,0.865,-6.61,7.91,-0.06,28.29
5747,0.3258,-0.0245,0.8618,-6.56,7.94,-0.03,28.29
5757,0.3296,-0.0244,0.8627,-6.64,7.95,-0.08,28.26
5767,0.3298,-0.0258,0.8621,-6.6,7.97,-0.06,28.29
5777,0.3289,-0.0256,0.8647,-6.63,7.92,-0.03,28.29
5787,0.326,-0.0286,0.8661,-6.58,7.89,-0.11,28.29
5797,0.3291,-0.0229,0.866,-6.56,7.91,-0.03,28.29
5807,0.3285,-0.0256,0.8602,-6.56,7.95,-0.11,28.3
5817,0.326,-0.0256,0.8655,-6.56,7.94,0.05,28.28
5827,0.3262,-0.0259,0.8613,-6.63,7.91,-0.08,28.26
5837,0.3301,-0.0237,0.8624,-6.63,7.98,-0.02,28.29
5847,0.3297,-0.0269,0.8639,-6.61,7.97,-0.09,28.26
5857,0.3271,-0.0251,0.8638,-6.64,7.91,-0.02,28.29
5867,0.3286,-0.0269,0.8624,-6.61,7.91,-0.03,28.29
5877,0.3276,-0.0258,0.8623,-6.66,7.86,-0.06,28.27
5887,0.3259,-0.0284,0.8639,-6.56,7.92,0.02,28.27
5897,0.3284,-0.024,0.865,-6.66,7.91,-0.03,28.27
5907,0.3284,-0.025,0.866,-6.64,7.92,-0.03,28.28
5917,0.3264,-0.0258,0.8611,-6.53,7.85,0.0,28.29
5927,0.3265,-0.0256,0.8621,-6.55,8.0,0.0,28.3
5937,0.3253,-0.0249,0.8652,-6.58,7.95,-0.11,28.29
5947,0.3289,-0.0265,0.8638,-6.63,7.92,-0.11,28.3
5957,0.3296,-0.027,0.8632,-6.56,7.88,-0.05,28.29
5967,0.3298,-0.0277,0.8638,-6.6,7.89,-0.03,28.29
5977,0.3291,-0.0237,0.8633,-6.55,7.98,-0.02,28.29
5987,0.3286,-0.0259,0.865,-6.67,7.95,0.0,28.3
5997,0.3279,-0.0249,0.8668,-6.67,7.86,-0.11,28.29
6007,0.33,-0.0278,0.8644,-6.6,7.92,-0.09,28.27
6017,0.3258,-0.0256,0.8635,-6.69,7.89,-0.03,28.32
6027,0.3286,-0.0253,0.864,-6.64,7.88,-0.02,28.3
6037,0.3297,-0.0251,0.8654,-6.66,7.94,-0.15,28.28
6048,0.3273,-0.0237,0.8647,-6.58,7.91,-0.03,28.29
6058,0.3302,-0.0237,0.8627,-6.58,7.94,-0.08,28.29
6068,0.3263,-0.024,0.8662,-6.61,7.94,-0.02,28.31
6078,0.328,-0.024,0.859,-6.56,7.95,-0.03,28.29
6088,0.3248,-0.0247,0.8612,-6.53,7.94,-0.08,28.29
6098,0.3278,-0.0237,0.8617,-6.56,8.03,-0.03,28.31
6108,0.3284,-0.028,0.8652,-6.56,7.89,0.02,28.33
6118,0.329,-0.0248,0.8667,-6.63,7.95,-0.05,28.29
6128,0.3271,-0.0254,0.8627,-6.64,7.92,-0.06,28.32
6138,0.3285,-0.024,0.861,-6.58,7.86,-0.05,28.3
6148,0.3291,-0.027,0.8657,-6.58,7.88,-0.05,28.28
6158,0.3289,-0.0254,0.8641,-6.66,7.91,0.03,28.3
6168,0.327,-0.026,0.8606,-6.61,7.95,-0.03,28.31
6178,0.3279,-0.0277,0.8625,-6.67,7.95,-0.06,28.3
6188,0.3256,-0.0264,0.8612,-6.52,7.95,-0.08,28.29
6198,0.3262,-0.0277,0.8632,-6.58,7.94,-0.05,28.3
6208,0.3265,-0.0232,0.8638,-6.66,7.92,-0.08,28.32
6218,0.3257,-0.0266,0.8634,-6.69,7.89,-0.06,28.31
6228,0.3275,-0.0266,0.8678,-6.69,7.91,-0.09,28.31
6238,0.3296,-0.0247,0.8651,-6.66,7.91,0.02,28.3
6248,0.3286,-0.026,0.8635,-6.66,7.97,-0.05,28.3
6258,0.3263,-0.0251,0.8611,-6.6,7.89,0.03,28.3
6268,0.3265,-0.0266,0.863,-6.56,7.98,-0.06,28.29
6278,0.3267,-0.0276,0.8644,-6.66,7.91,-0.11,28.32
6288,0.327,-0.0255,0.8639,-6.63,8.0,-0.08,28.3
6298,0.3296,-0.0269,0.8633,-6.7,7.92,-0.03,28.3
6308,0.3268,-0.025,0.8624,-6.6,7.92,-0.08,28.3
6318,0.3267,-0.0251,0.8608,-6.6,7.95,-0.03,28.32
6328,0.3271,-0.0273,0.8633,-6.53,7.89,-0.09,28.33
6338,0.3282,-0.0269,0.8656,-6.58,7.88,0.02,28.32
6348,0.33,-0.0264,0.8646,-6.63,7.91,-0.02,28.3
6358,0.3274,-0.0269,0.864,-6.63,7.91,-0.05,28.32
6368,0.3273,-0.025,0.8634,-6.63,7.88,-0.03,28.29
6378,0.3284,-0.0265,0.8622,-6.52,7.91,-0.11,28.3
6388,0.3267,-0.0281,0.8596,-6.58,7.97,-0.02,28.32
6398,0.3295,-0.0254,0.8608,-6.53,7.94,0.02,28.33
6408,0.3276,-0.0276,0.8635,-6.61,7.95,-0.03,28.3
6418,0.3279,-0.0267,0.8636,-6.6,7.94,-0.08,28.31
6428,0.3278,-0.0237,0.864,-6.61,7.94,-0.06,28.33
6445,0.3307,-0.0264,0.8612,-6.56,7.83,-0.27,28.34
6455,0.3271,-0.0256,0.8636,-6.53,8.06,-0.09,28.33
6465,0.3258,-0.0245,0.8645,-6.58,7.97,-0.09,28.31
6475,0.3293,-0.0243,0.8615,-6.61,7.89,-0.05,28.31
6485,0.329,-0.0247,0.8662,-6.61,7.86,-0.05,28.32
6495,0.3262,-0.0271,0.864,-6.61,7.97,-0.05,28.33
6505,0.3291,-0.0271,0.8676,-6.6,7.91,-0.03,28.34
6515,0.3289,-0.0253,0.8635,-6.58,7.98,-0.05,28.32
6525,0.3254,-0.0276,0.8623,-6.58,7.98,-0.02,28.3
6535,0.3311,-0.0244,0.8638,-6.72,8.0,-0.05,28.31
6545,0.3256,-0.0261,0.8665,-6.55,7.95,-0.03,28.31
6555,0.3268,-0.0242,0.8623,-6.63,7.94,-0.05,28.32
6565,0.3262,-0.024,0.8612,-6.64,8.0,-0.05,28.33
6576,0.3278,-0.0245,0.8634,-6.61,7.94,-0.05,28.32
6586,0.3285,-0.0254,0.864,-6.63,7.92,-0.03,28.32
6596,0.3265,-0.0233,0.8655,-6.58,7.91,0.03,28.31
6606,0.3282,-0.0248,0.8629,-6.63,7.98,0.0,28.37
6616,0.3252,-0.0231,0.8651,-6.53,8.0,-0.03,28.32
6626,0.3278,-0.0254,0.8613,-6.56,7.97,-0.11,28.32
6637,0.3276,-0.022,0.8629,-6.64,7.94,-0.08,28.32
6647,0.3293,-0.0249,0.8644,-6.63,7.94,-0.03,28.34
6657,0.3281,-0.0266,0.8656,-6.56,7.98,-0.06,28.32
6667,0.3282,-0.0259,0.8672,-6.63,7.88,-0.06,28.33
6677,0.3271,-0.0243,0.8646,-6.56,7.97,-0.09,28.31
6687,0.3282,-0.0256,0.8623,-6.55,7.97,-0.02,28.32
6697,0.3307,-0.0249,0.8652,-6.56,7.91,-0.06,28.34
6707,0.3295,-0.0239,0.8617,-6.55,7.95,-0.05,28.34
6717,0.3281,-0.0275,0.8628,-6.66,7.91,0.05,28.33
6727,0.3246,-0.0267,0.8623,-6.6,7.92,-0.08,28.35
6737,0.3276,-0.0256,0.8641,-6.55,7.92,0.0,28.3
6747,0.3297,-0.0236,0.8641,-6.61,7.92,0.0,28.33
6757,0.3318,-0.0243,0.8639,-6.6,7.97,0.0,28.32
6767,0.3307,-0.0219,0.8639,-6.58,7.88,0.0,28.32
6777,0.329,-0.0259,0.8585,-6.64,7.89,-0.06,28.34
6787,0.3264,-0.025,0.864,-6.6,7.91,-0.08,28.32
6797,0.3313,-0.0266,0.8654,-6.64,7.88,-0.08,28.34
6807,0.3257,-0.0272,0.8654,-6.63,7.92,-0.08,28.32
6817,0.3295,-0.0254,0.864,-6.63,7.92,-0.09,28.34
6827,0.3275,-0.0243,0.8658,-6.61,7.95,0.02,28.32
6837,0.3246,-0.0278,0.8646,-6.6,7.92,0.03,28.32
6847,0.3284,-0.0243,0.8627,-6.6,7.94,-0.06,28.32
6857,0.3265,-0.024,0.8661,-6.58,7.92,-0.09,28.34
6867,0.3269,-0.0251,0.8629,-6.63,7.98,-0.03,28.31
6877,0.3298,-0.0267,0.8645,-6.66,7.92,0.06,28.32
6887,0.3306,-0.0276,0.8636,-6.64,7.98,0.02,28.32
6897,0.3276,-0.0273,0.8635,-6.56,7.94,-0.05,28.34
6907,0.3281,-0.0264,0.8666,-6.55,7.89,-0.02,28.33
6917,0.3297,-0.0249,0.8602,-6.63,7.95,-0.05,28.32
6927,0.3297,-0.0272,0.8687,-6.63,7.95,-0.08,28.32
6937,0.3273,-0.0276,0.8674,-6.63,7.91,-0.11,28.34
6947,0.33,-0.0256,0.8665,-6.64,7.98,0.02,28.34
6957,0.329,-0.0272,0.8647,-6.67,7.94,-0.05,28.34
6967,0.3278,-0.0234,0.8638,-6.55,7.89,-0.05,28.32
6977,0.3271,-0.0239,0.8652,-6.56,7.95,-0.05,28.35
6987,0.3287,-0.0258,0.8623,-6.6,7.94,-0.09,28.32
6997,0.3324,-0.0265,0.8612,-6.58,7.94,-0.08,28.32
7007,0.329,-0.025,0.8624,-6.63,7.85,-0.08,28.33
7017,0.3284,-0.0244,0.8665,-6.52,7.86,0.02,28.35
7027,0.3315,-0.0275,0.8617,-6.6,7.92,-0.05,28.34
7037,0.3287,-0.0275,0.8655,-6.67,7.86,-0.03,28.33
7047,0.3278,-0.027,0.8591,-6.6,7.97,-0.05,28.34
7057,0.3296,-0.0255,0.8647,-6.61,7.95,0.0,28.34
7067,0.3273,-0.0272,0.8645,-6.66,7.92,-0.03,28.34
7077,0.3293,-0.0253,0.8597,-6.66,7.97,-0.03,28.34
7087,0.3275,-0.0242,0.8611,-6.6,7.92,-0.05,28.33
7097,0.3268,-0.0242,0.8625,-6.66,7.98,-0.02,28.35
7107,0.3268,-0.027,0.8634,-6.64,7.95,0.0,28.34
7117,0.3276,-0.027,0.8632,-6.61,7.97,0.06,28.35
7127,0.3285,-0.0267,0.8657,-6.6,7.94,0.0,28.34
7137,0.328,-0.0261,0.864,-6.63,7.95,-0.05,28.36
7147,0.3264,-0.0244,0.8621,-6.61,7.91,-0.02,28.34
7157,0.3264,-0.0262,0.863,-6.63,7.92,-0.06,28.32
7167,0.3292,-0.0251,0.8652,-6.6,7.89,-0.03,28.35
7177,0.3293,-0.026,0.8644,-6.56,7.89,0.0,28.36
7187,0.3295,-0.0256,0.8628,-6.61,7.92,-0.02,28.34
7197,0.3287,-0.0245,0.8638,-6.6,7.88,-0.02,28.34
7207,0.3281,-0.024,0.8633,-6.52,7.95,-0.03,28.32
7217,0.3279,-0.0264,0.8647,-6.67,7.94,-0.06,28.36
7227,0.3275,-0.0259,0.8673,-6.64,7.91,-0.08,28.36
7237,0.3286,-0.0275,0.8628,-6.61,7.85,-0.05,28.35
7247,0.3287,-0.0267,0.8647,-6.58,7.94,-0.06,28.36
7257,0.3311,-0.0251,0.8657,-6.61,7.88,-0.02,28.33
7267,0.3296,-0.0259,0.8666,-6.69,7.89,-0.05,28.34
7277,0.3308,-0.0229,0.8668,-6.63,7.91,-0.06,28.33
7287,0.3278,-0.0236,0.8646,-6.64,7.97,-0.11,28.32
7297,0.3263,-0.0275,0.8674,-6.58,7.89,-0.03,28.33
7307,0.326,-0.0242,0.8627,-6.63,7.95,-0.05,28.33
7317,0.3282,-0.0254,0.8629,-6.6,7.85,-0.02,28.33
7327,0.3274,-0.0247,0.8602,-6.73,7.89,-0.05,28.34
7337,0.3289,-0.0249,0.8627,-6.6,7.97,-0.05,28.35
7347,0.33,-0.0271,0.8643,-6.63,7.94,-0.06,28.32
7357,0.3259,-0.0256,0.8632,-6.72,7.88,-0.08,28.34
7367,0.3278,-0.025,0.8667,-6.64,7.92,-0.06,28.36
7377,0.3263,-0.0254,0.8663,-6.66,7.94,-0.05,28.32
7387,0.3276,-0.0256,0.8633,-6.64,7.94,0.03,28.34
7397,0.329,-0.0273,0.8646,-6.6,7.98,-0.06,28.33
7407,0.326,-0.0242,0.8661,-6.64,7.91,-0.03,28.35
7417,0.3275,-0.0265,0.8633,-6.63,7.95,-0.03,28.35
7427,0.3306,-0.0264,0.8602,-6.64,7.91,-0.05,28.36
7437,0.3275,-0.0262,0.8638,-6.56,7.94,-0.06,28.33
7447,0.33,-0.0251,0.8635,-6.56,7.92,-0.02,28.34
7457,0.3262,-0.0261,0.8644,-6.58,7.89,-0.09,28.37
7467,0.3291,-0.0267,0.8668,-6.67,7.97,-0.03,28.36
7477,0.3279,-0.0266,0.8616,-6.61,7.97,-0.05,28.38
7487,0.3267,-0.0281,0.865,-6.6,7.98,-0.05,28.33
7497,0.3273,-0.0255,0.8668,-6.61,7.92,-0.03,28.34
7507,0.3253,-0.0266,0.8616,-6.58,7.8,-0.08,28.36
7518,0.328,-0.0295,0.8691,-6.61,7.94,-0.05,28.35
7528,0.3254,-0.0238,0.8665,-6.69,7.89,-0.02,28.34
7538,0.3312,-0.0261,0.8665,-6.64,7.94,-0.05,28.35
7548,0.3267,-0.0259,0.8632,-6.63,7.95,-0.06,28.36
7558,0.328,-0.0262,0.8652,-6.61,7.89,0.02,28.36
7568,0.3252,-0.0228,0.8654,-6.66,7.92,-0.06,28.36
7578,0.3291,-0.0233,0.8641,-6.55,7.92,-0.02,28.38
7588,0.3256,-0.0261,0.8617,-6.6,7.94,-0.03,28.37
7598,0.3242,-0.0287,0.8634,-6.58,7.91,-0.02,28.35
7608,0.326,-0.0236,0.8605,-6.58,7.98,0.0,28.37
7618,0.3279,-0.0249,0.8618,-6.66,7.89,-0.05,28.34
7628,0.3284,-0.0234,0.8612,-6.63,7.95,0.0,28.35
7638,0.327,-0.0271,0.8638,-6.64,7.92,-0.06,28.35
7648,0.3263,-0.0248,0.8647,-6.67,7.95,0.03,28.36
7658,0.3275,-0.0248,0.8611,-6.63,7.97,-0.05,28.36
7668,0.3284,-0.027,0.8641,-6.73,7.95,-0.11,28.36
7678,0.3273,-0.0253,0.864,-6.66,7.88,-0.06,28.35
7688,0.3284,-0.0245,0.86,-6.55,7.89,-0.03,28.34
7699,0.329,-0.0258,0.8647,-6.58,7.94,-0.02,28.36
7710,0.3269,-0.0247,0.866,-6.61,7.86,-0.08,28.35
7720,0.3269,-0.0253,0.8654,-6.58,7.86,-0.03,28.36
7730,0.3257,-0.0262,0.8638,-6.56,7.95,-0.05,28.36
7740,0.3275,-0.027,0.8608,-6.53,7.86,-0.06,28.37
7750,0.3323,-0.0258,0.8638,-6.63,7.95,-0.08,28.35
7760,0.3293,-0.0258,0.8622,-6.66,7.94,0.02,28.37
7770,0.3297,-0.0265,0.8617,-6.56,7.92,-0.08,28.36
7780,0.3269,-0.0255,0.8646,-6.61,7.94,-0.06,28.32
7790,0.3287,-0.0265,0.8616,-6.64,7.97,-0.05,28.34
7800,0.3303,-0.0262,0.8643,-6.72,7.92,-0.05,28.35
7810,0.3297,-0.026,0.8601,-6.63,7.88,-0.06,28.38
7820,0.3254,-0.0266,0.8636,-6.58,7.98,-0.08,28.35
7830,0.3281,-0.0272,0.8638,-6.63,7.89,0.0,28.34
7840,0.3289,-0.0253,0.8639,-6.61,7.88,-0.05,28.36
7850,0.3297,-0.0254,0.8636,-6.63,7.92,0.0,28.38
7860,0.3293,-0.0284,0.8638,-6.6,7.95,0.03,28.38
7870,0.3303,-0.0247,0.8643,-6.66,7.97,-0.02,28.37
7880,0.3275,-0.0251,0.8629,-6.58,7.89,-0.03,28.38
7890,0.3298,-0.0249,0.8647,-6.67,7.89,-0.02,28.35
7900,0.3251,-0.0245,0.8636,-6.61,7.91,-0.05,28.34
7910,0.3247,-0.025,0.8643,-6.64,7.94,0.05,28.37
7920,0.3276,-0.0264,0.8617,-6.61,7.95,-0.06,28.37
7930,0.3306,-0.0283,0.8611,-6.61,7.88,-0.03,28.36
7940,0.3297,-0.0251,0.865,-6.63,7.92,-0.08,28.36
7950,0.328,-0.026,0.8608,-6.67,7.91,-0.06,28.38
7960,0.3265,-0.0264,0.8632,-6.61,7.95,-0.15,28.36
7970,0.3267,-0.0226,0.8628,-6.63,8.0,0.03,28.35
7980,0.3281,-0.0244,0.863,-6.6,8.0,-0.03,28.37
7990,0.3291,-0.0253,0.8628,-6.66,7.91,-0.06,28.36
8000,0.3308,-0.0256,0.8661,-6.63,7.91,-0.06,28.37
8010,0.328,-0.0255,0.8673,-6.63,7.88,-0.03,28.37
8020,0.33,-0.0277,0.8604,-6.67,7.92,-0.06,28.37
8030,0.3311,-0.0253,0.8644,-6.63,7.95,0.05,28.37
8040,0.3257,-0.0248,0.8602,-6.66,7.97,-0.03,28.35
8050,0.3264,-0.0255,0.8608,-6.67,7.86,-0.05,28.37
8060,0.3289,-0.0248,0.8628,-6.67,7.89,-0.03,28.38
8070,0.3303,-0.0248,0.8638,-6.67,7.91,-0.03,28.36
8080,0.3309,-0.0266,0.863,-6.7,7.91,-0.03,28.37
8090,0.3275,-0.0267,0.8635,-6.66,7.91,-0.03,28.34
8100,0.3274,-0.0255,0.8617,-6.61,7.97,-0.05,28.39
8110,0.329,-0.0272,0.8663,-6.49,7.97,-0.14,28.37
8120,0.3256,-0.0237,0.8627,-6.6,7.94,-0.08,28.37
8130,0.3308,-0.0248,0.866,-6.6,7.95,-0.03,28.37
8140,0.3295,-0.0276,0.8649,-6.69,7.89,-0.02,28.37
8150,0.3279,-0.0267,0.8649,-6.55,7.85,-0.03,28.36
8160,0.329,-0.0265,0.8638,-6.66,7.94,-0.05,28.37
8170,0.3286,-0.0227,0.8605,-6.63,7.89,-0.06,28.38
8180,0.3282,-0.0271,0.8638,-6.6,7.88,-0.03,28.37
8190,0.3304,-0.0275,0.8646,-6.58,7.92,-0.06,28.38
8200,0.3287,-0.0242,0.8647,-6.69,7.95,-0.03,28.4
8210,0.328,-0.028,0.8655,-6.66,7.92,-0.03,28.36
8220,0.3259,-0.026,0.8622,-6.63,7.94,-0.08,28.4
8230,0.3276,-0.0253,0.8588,-6.64,7.97,-0.03,28.4
8240,0.3282,-0.027,0.8649,-6.6,7.91,-0.02,28.38
8250,0.3265,-0.0262,0.8666,-6.55,7.97,-0.08,28.39
8260,0.3267,-0.0249,0.8645,-6.67,7.98,-0.03,28.37
8270,0.3252,-0.0243,0.8666,-6.56,7.91,-0.09,28.39
8280,0.3273,-0.0261,0.8632,-6.63,7.91,-0.06,28.38
8290,0.3295,-0.0238,0.8661,-6.67,7.88,-0.12,28.36
8300,0.3262,-0.0267,0.8612,-6.63,7.94,-0.06,28.35
8310,0.3289,-0.0273,0.8655,-6.64,7.95,0.0,28.38
8320,0.3275,-0.0283,0.8622,-6.63,7.97,0.0,28.38
8330,0.3271,-0.0265,0.8593,-6.61,7.91,-0.05,28.35
8340,0.3289,-0.0249,0.8636,-6.64,7.88,-0.06,28.36
8350,0.3264,-0.0249,0.8636,-6.6,7.92,-0.05,28.38
8360,0.328,-0.0253,0.861,-6.64,7.98,0.0,28.37
8370,0.3282,-0.0256,0.8668,-6.63,7.95,0.02,28.39
8380,0.3276,-0.0238,0.865,-6.58,7.94,-0.03,28.39
8390,0.33,-0.0258,0.8621,-6.67,7.86,-0.03,28.39
8400,0.3304,-0.0276,0.8645,-6.6,8.02,-0.05,28.41
8410,0.3312,-0.0262,0.863,-6.58,7.98,-0.03,28.39
8420,0.3287,-0.0229,0.8668,-6.58,7.94,-0.02,28.38
8430,0.3287,-0.0264,0.8618,-6.67,7.92,-0.11,28.38
8440,0.3274,-0.0278,0.863,-6.67,7.97,-0.05,28.37
8450,0.3286,-0.0226,0.8641,-6.6,7.92,-0.02,28.4
8460,0.3286,-0.0237,0.8645,-6.61,7.92,0.06,28.36
8470,0.3267,-0.0271,0.866,-6.58,7.95,-0.08,28.38
8480,0.3295,-0.027,0.8636,-6.67,7.88,-0.05,28.38
8490,0.3318,-0.025,0.8611,-6.69,7.95,-0.11,28.39
8500,0.3309,-0.0254,0.86,-6.64,7.95,-0.05,28.37
8510,0.3289,-0.0233,0.8645,-6.56,7.97,-0.05,28.37
8520,0.3285,-0.0254,0.8646,-6.63,7.91,-0.02,28.37
8530,0.3281,-0.0272,0.8645,-6.63,7.91,0.0,28.37
8540,0.3262,-0.0264,0.865,-6.66,7.95,-0.03,28.37
8550,0.326,-0.0269,0.8629,-6.64,8.02,-0.08,28.38
8560,0.3263,-0.0278,0.8629,-6.53,7.95,-0.08,28.38
8570,0.3247,-0.0262,0.8658,-6.63,7.94,-0.03,28.36
8580,0.3279,-0.0282,0.8635,-6.6,7.91,0.0,28.37
8590,0.3273,-0.0249,0.8656,-6.56,7.95,-0.02,28.38
8600,0.3304,-0.0255,0.8658,-6.61,7.95,-0.05,28.36
8610,0.3285,-0.0271,0.8656,-6.63,7.92,-0.05,28.36
8620,0.3284,-0.0253,0.8612,-6.6,7.97,-0.05,28.38
8630,0.3275,-0.0253,0.8643,-6.56,7.98,-0.02,28.39
8640,0.3274,-0.024,0.8607,-6.58,7.91,-0.11,28.38
8650,0.3281,-0.028,0.8602,-6.58,7.89,0.0,28.37
8660,0.3285,-0.0283,0.8632,-6.72,7.88,-0.05,28.37
8670,0.3275,-0.0245,0.8655,-6.61,7.89,-0.05,28.38
8680,0.327,-0.0265,0.8617,-6.55,7.95,-0.02,28.37
8690,0.3269,-0.0269,0.8662,-6.61,7.89,-0.08,28.38
8700,0.3306,-0.0256,0.8606,-6.64,7.97,-0.03,28.38
8710,0.3281,-0.0277,0.8613,-6.6,7.92,-0.06,28.4
8720,0.3303,-0.0269,0.8652,-6.63,7.91,-0.09,28.38
8730,0.3258,-0.0238,0.8644,-6.61,7.95,-0.11,28.39
8740,0.3297,-0.0239,0.8655,-6.64,7.91,-0.06,28.41
8750,0.3301,-0.0234,0.8635,-6.6,7.91,-0.08,28.39
8760,0.3284,-0.0232,0.868,-6.61,7.98,-0.02,28.39
8770,0.3284,-0.0229,0.8641,-6.64,7.89,-0.11,28.4
8780,0.3268,-0.026,0.8613,-6.66,7.89,-0.03,28.41
8790,0.3274,-0.0256,0.8627,-6.58,7.94,-0.02,28.39
8800,0.3269,-0.0253,0.8621,-6.6,7.89,-0.12,28.39
8810,0.3298,-0.0265,0.8643,-6.63,7.94,-0.12,28.42
8820,0.3291,-0.0284,0.8638,-6.61,7.89,-0.08,28.4
8830,0.3313,-0.024,0.8649,-6.56,7.94,-0.09,28.4
8840,0.3263,-0.0236,0.8639,-6.66,7.95,-0.08,28.4
8850,0.3276,-0.0231,0.8676,-6.58,7.91,0.02,28.41
8860,0.33,-0.0254,0.8641,-6.64,7.94,0.02,28.41
8870,0.3313,-0.0278,0.8618,-6.64,7.94,-0.05,28.39
8880,0.3268,-0.0251,0.8641,-6.64,7.98,-0.03,28.4
8890,0.328,-0.0248,0.8611,-6.6,7.95,-0.03,28.38
8900,0.3269,-0.0251,0.8636,-6.61,7.89,-0.03,28.4
8910,0.3285,-0.0242,0.8613,-6.61,7.98,0.0,28.39
8920,0.325,-0.0245,0.8639,-6.58,7.97,0.02,28.4
8930,0.3279,-0.0271,0.8612,-6.6,7.95,-0.12,28.39
8940,0.3282,-0.0251,0.8674,-6.66,7.94,-0.09,28.38
8950,0.3304,-0.0256,0.8649,-6.61,7.89,0.02,28.41
8960,0.3309,-0.0242,0.8643,-6.61,7.97,-0.05,28.39
8970,0.3275,-0.0284,0.8661,-6.72,8.02,-0.09,28.4
8980,0.3298,-0.0233,0.8619,-6.67,7.94,-0.02,28.42
8990,0.33,-0.0242,0.8636,-6.64,7.94,0.02,28.4
9000,0.3247,-0.0242,0.8601,-6.66,7.95,-0.11,28.39
9010,0.3297,-0.0239,0.8621,-6.63,7.83,0.0,28.38
9020,0.3304,-0.0251,0.8627,-6.67,8.02,-0.02,28.39
9030,0.3308,-0.0231,0.8674,-6.64,7.95,-0.06,28.4
9040,0.3279,-0.026,0.8678,-6.64,7.94,-0.09,28.4
9050,0.3313,-0.0239,0.8651,-6.63,7.91,-0.06,28.43
9060,0.3304,-0.0265,0.8636,-6.64,7.92,-0.08,28.38
9070,0.3258,-0.025,0.8625,-6.63,7.94,0.0,28.42
9080,0.3303,-0.027,0.8615,-6.66,7.97,-0.06,28.41
9090,0.3295,-0.0272,0.8639,-6.56,7.92,-0.08,28.4
9100,0.3276,-0.0243,0.8645,-6.66,7.97,0.0,28.4
9110,0.3301,-0.0242,0.8573,-6.69,7.95,-0.06,28.42
9120,0.3297,-0.0282,0.8613,-6.6,7.95,-0.05,28.39
9130,0.3252,-0.0261,0.8636,-6.61,7.97,-0.05,28.4
9140,0.3307,-0.0273,0.8643,-6.56,8.0,-0.08,28.4
9150,0.3298,-0.0277,0.8621,-6.56,7.94,-0.03,28.41
9160,0.3275,-0.024,0.8578,-6.55,7.91,-0.05,28.4
9170,0.33,-0.0255,0.8649,-6.6,7.92,-0.05,28.4
9180,0.328,-0.0254,0.8639,-6.55,7.94,-0.06,28.39
9190,0.3259,-0.0261,0.8577,-6.53,7.95,0.02,28.38
9200,0.3269,-0.0264,0.8619,-6.67,7.91,0.02,28.41
9210,0.3278,-0.0256,0.8668,-6.58,7.94,-0.03,28.4
9220,0.3281,-0.0273,0.8622,-6.64,7.98,0.03,28.39
9230,0.3275,-0.0249,0.8624,-6.69,7.95,-0.02,28.38
9240,0.3306,-0.0271,0.8668,-6.67,7.95,0.02,28.38
9250,0.3281,-0.0262,0.8612,-6.7,7.95,-0.09,28.4
9260,0.3289,-0.0253,0.8628,-6.67,7.94,-0.03,28.42
9270,0.3265,-0.0243,0.8638,-6.72,7.92,-0.02,28.43
9280,0.3251,-0.0254,0.8612,-6.66,7.94,-0.11,28.42
9290,0.3258,-0.0254,0.8657,-6.58,7.95,-0.14,28.41
9300,0.3296,-0.0243,0.8668,-6.6,7.98,-0.03,28.36
9310,0.3309,-0.0245,0.8646,-6.6,8.0,-0.08,28.38
9320,0.3267,-0.0255,0.863,-6.55,7.89,0.0,28.42
9330,0.3289,-0.0248,0.8611,-6.61,7.97,-0.02,28.41
9340,0.3306,-0.024,0.8611,-6.58,7.95,0.0,28.42
9350,0.3285,-0.025,0.8662,-6.63,8.05,-0.05,28.42
9360,0.3302,-0.0291,0.8656,-6.63,7.89,-0.11,28.42
9370,0.3262,-0.028,0.86,-6.61,7.94,0.03,28.39
9380,0.329,-0.0242,0.8607,-6.61,7.92,-0.06,28.41
9390,0.3281,-0.0248,0.8657,-6.58,7.88,-0.03,28.41
9400,0.3269,-0.026,0.8665,-6.58,7.94,0.03,28.42
9410,0.3286,-0.025,0.8633,-6.66,7.89,-0.03,28.42
9420,0.3295,-0.0248,0.8633,-6.64,7.97,-0.02,28.43
9430,0.3271,-0.0249,0.8643,-6.6,7.94,0.02,28.43
9440,0.3281,-0.0259,0.8647,-6.61,7.89,-0.03,28.42
9450,0.3268,-0.0281,0.8656,-6.64,7.97,-0.03,28.41
9460,0.3293,-0.025,0.8658,-6.69,7.92,-0.09,28.42
9470,0.328,-0.0254,0.8627,-6.67,7.97,-0.05,28.4
9480,0.3276,-0.0281,0.8621,-6.63,7.94,-0.05,28.41
9490,0.3273,-0.0275,0.864,-6.63,7.97,-0.05,28.41
9500,0.3279,-0.0265,0.8651,-6.61,7.94,-0.08,28.41
9511,0.3265,-0.0255,0.866,-6.61,7.86,-0.03,28.41
9521,0.327,-0.0294,0.8629,-6.66,7.94,-0.05,28.43
9531,0.3278,-0.0277,0.8651,-6.67,7.95,-0.05,28.42
9541,0.3292,-0.0273,0.8658,-6.61,7.95,-0.05,28.43
9551,0.3297,-0.026,0.864,-6.61,7.91,0.0,28.42
9561,0.3267,-0.0251,0.8661,-6.67,7.94,-0.06,28.42
9571,0.3309,-0.0249,0.8607,-6.58,7.92,0.03,28.39
9581,0.3267,-0.0269,0.8612,-6.66,7.92,-0.06,28.39
9591,0.3293,-0.0242,0.8635,-6.58,7.92,0.0,28.38
9601,0.3273,-0.0256,0.8632,-6.52,7.95,0.0,28.42
9611,0.3275,-0.0237,0.8629,-6.6,7.92,0.0,28.43
9621,0.329,-0.0249,0.8619,-6.61,7.97,-0.08,28.41
9631,0.3285,-0.026,0.864,-6.63,7.97,0.0,28.4
9641,0.3302,-0.0255,0.8641,-6.69,7.94,-0.02,28.43
9651,0.3284,-0.0248,0.8676,-6.64,7.95,-0.05,28.42
9661,0.3297,-0.0259,0.8639,-6.56,7.97,-0.03,28.42
9671,0.3287,-0.0261,0.8628,-6.67,7.95,-0.06,28.39
9681,0.33,-0.0265,0.8654,-6.64,7.97,-0.12,28.39
9691,0.3295,-0.0262,0.8641,-6.66,7.91,0.0,28.41
9701,0.3269,-0.0269,0.8668,-6.63,7.91,-0.02,28.41
9711,0.3267,-0.0276,0.8641,-6.56,7.91,-0.03,28.38
9721,0.3282,-0.0233,0.8651,-6.61,7.86,-0.03,28.41
9731,0.3267,-0.0272,0.8617,-6.72,7.88,-0.11,28.4
9741,0.3262,-0.0298,0.8635,-6.58,7.94,-0.06,28.42
9751,0.3281,-0.0259,0.8633,-6.61,7.91,0.0,28.42
9761,0.3278,-0.0249,0.8663,-6.63,7.86,-0.05,28.41
9771,0.3285,-0.0244,0.8623,-6.63,7.91,-0.12,28.44
9781,0.3269,-0.0283,0.8655,-6.66,7.92,-0.06,28.43
9791,0.3274,-0.0254,0.8622,-6.61,7.83,-0.06,28.4
9801,0.3278,-0.0272,0.863,-6.56,7.98,-0.14,28.43
9811,0.3279,-0.0272,0.8639,-6.6,7.94,-0.03,28.39
9821,0.3275,-0.028,0.8611,-6.64,7.95,-0.05,28.42
9831,0.3271,-0.0266,0.8607,-6.58,7.91,-0.12,28.43
9841,0.3289,-0.024,0.863,-6.63,7.98,0.05,28.44
9851,0.3278,-0.0264,0.8633,-6.61,7.89,-0.03,28.43
9861,0.3264,-0.0255,0.8623,-6.56,7.85,0.0,28.43
9871,0.3269,-0.0267,0.8655,-6.6,7.91,-0.02,28.43
9881,0.3265,-0.0259,0.8636,-6.63,7.94,-0.08,28.41
9891,0.329,-0.0269,0.858,-6.6,7.95,-0.06,28.45
9901,0.3251,-0.0258,0.8619,-6.69,7.92,-0.02,28.42
9911,0.3257,-0.0243,0.8655,-6.61,7.91,-0.02,28.41
9921,0.326,-0.0277,0.8644,-6.6,7.92,0.0,28.42
9931,0.3251,-0.0258,0.8634,-6.64,7.91,0.03,28.42
9941,0.327,-0.0242,0.8685,-6.63,7.86,-0.02,28.44
9951,0.3289,-0.0237,0.8635,-6.58,7.92,0.0,28.43
9961,0.3297,-0.0254,0.8638,-6.6,7.94,-0.14,28.43
9971,0.3297,-0.0216,0.8613,-6.6,7.91,-0.03,28.42
9981,0.3279,-0.0271,0.8624,-6.66,7.91,-0.02,28.44
9991,0.3282,-0.0234,0.8634,-6.64,7.92,-0.03,28.43
10001,0.3264,-0.0272,0.8655,-6.56,7.98,0.05,28.42
10011,0.328,-0.0297,0.8635,-6.66,7.91,-0.03,28.42
10021,0.3285,-0.0261,0.8617,-6.6,7.91,-0.02,28.43
10031,0.3285,-0.0273,0.8629,-6.61,7.91,0.0,28.45
10041,0.3287,-0.0265,0.8615,-6.63,7.92,-0.05,28.44
10051,0.3289,-0.0265,0.8636,-6.55,7.94,0.0,28.44
10062,0.3287,-0.0249,0.8661,-6.58,8.0,-0.02,28.44
10072,0.3286,-0.0258,0.8619,-6.6,7.91,-0.03,28.44
10082,0.3276,-0.0253,0.8641,-6.6,7.91,-0.05,28.44
10092,0.329,-0.0266,0.8597,-6.64,7.89,-0.11,28.44
10102,0.3301,-0.026,0.8599,-6.69,7.95,-0.11,28.44
10112,0.3271,-0.0256,0.8608,-6.7,7.86,-0.02,28.43
10122,0.3271,-0.0271,0.8641,-6.61,7.92,-0.08,28.42
10132,0.3317,-0.0242,0.8641,-6.55,7.94,-0.02,28.43
10142,0.3292,-0.0247,0.8601,-6.63,7.95,-0.03,28.42
10152,0.3287,-0.0237,0.8656,-6.56,8.0,-0.11,28.45
10162,0.3245,-0.0281,0.8633,-6.63,7.97,0.0,28.44
10172,0.3268,-0.0239,0.8619,-6.66,7.91,-0.12,28.41
10182,0.3291,-0.0259,0.8649,-6.66,7.92,-0.02,28.43
10192,0.3313,-0.025,0.8647,-6.66,7.91,-0.08,28.42
10202,0.3253,-0.0271,0.8645,-6.52,7.89,-0.06,28.43
10212,0.3267,-0.0287,0.8654,-6.6,7.92,-0.14,28.44
10222,0.3301,-0.0275,0.8628,-6.7,7.91,-0.05,28.44
10232,0.3287,-0.0264,0.859,-6.64,7.94,-0.05,28.44
10242,0.3256,-0.0273,0.8684,-6.63,7.91,-0.02,28.45
10252,0.3271,-0.0267,0.8629,-6.63,7.97,-0.08,28.46
10262,0.3293,-0.026,0.8596,-6.61,7.85,-0.02,28.42
10272,0.3263,-0.0261,0.8649,-6.58,7.91,-0.02,28.43
10282,0.329,-0.0264,0.8676,-6.61,7.95,-0.11,28.44
10292,0.3295,-0.0259,0.8654,-6.63,7.95,0.0,28.44
10302,0.3263,-0.0266,0.8655,-6.58,7.92,-0.03,28.42
10312,0.3281,-0.0253,0.8655,-6.61,7.95,-0.05,28.44
10322,0.3237,-0.026,0.8621,-6.64,7.95,-0.08,28.42
10332,0.3279,-0.0253,0.8625,-6.63,7.82,-0.11,28.42
10342,0.3245,-0.0271,0.8629,-6.55,7.98,-0.08,28.45
10352,0.3251,-0.0255,0.8604,-6.67,7.92,-0.11,28.43
10362,0.3293,-0.0261,0.8593,-6.67,7.89,-0.08,28.43
10372,0.3297,-0.0261,0.8643,-6.61,7.89,-0.08,28.41
10382,0.3274,-0.025,0.8656,-6.6,7.83,-0.05,28.43
10392,0.3259,-0.027,0.8641,-6.66,7.94,-0.03,28.44
10402,0.328,-0.0267,0.8619,-6.64,7.94,-0.09,28.47
10412,0.3262,-0.0245,0.8588,-6.56,7.94,-0.02,28.43
10422,0.326,-0.0248,0.8652,-6.64,7.92,-0.05,28.41
10432,0.3298,-0.0284,0.8589,-6.61,7.86,-0.08,28.42
10443,0.3292,-0.0292,0.8657,-6.64,7.94,-0.03,28.44
10453,0.3292,-0.0282,0.8628,-6.66,7.98,0.0,28.43
10463,0.3258,-0.0255,0.8658,-6.69,7.94,-0.05,28.43
10473,0.3284,-0.0259,0.8658,-6.63,7.95,0.03,28.43
10483,0.3273,-0.0247,0.8663,-6.53,7.97,-0.05,28.47
10493,0.328,-0.025,0.8621,-6.66,7.91,-0.09,28.43
10503,0.3301,-0.0229,0.8624,-6.64,7.92,-0.08,28.41
10513,0.328,-0.0251,0.8632,-6.69,7.95,-0.08,28.44
10523,0.3262,-0.0258,0.8628,-6.61,7.97,0.0,28.44
10533,0.3295,-0.0281,0.8634,-6.6,7.92,-0.06,28.44
10543,0.3289,-0.0299,0.8612,-6.63,7.92,-0.09,28.43
10553,0.325,-0.0286,0.8662,-6.6,7.97,-0.08,28.43
10563,0.3258,-0.0276,0.8674,-6.61,8.0,-0.09,28.44
10573,0.3271,-0.0272,0.8605,-6.58,7.95,0.0,28.44
10583,0.3256,-0.0247,0.8629,-6.61,7.95,-0.02,28.45
10593,0.3286,-0.0248,0.8617,-6.63,7.95,-0.06,28.44
10603,0.3246,-0.0258,0.8641,-6.63,7.94,-0.05,28.44
10613,0.3271,-0.0273,0.8646,-6.58,7.95,-0.05,28.43
10623,0.3284,-0.0281,0.8623,-6.58,7.97,-0.05,28.43
10633,0.3259,-0.0249,0.8613,-6.56,7.94,-0.05,28.44
10643,0.3291,-0.0249,0.8693,-6.63,7.92,-0.03,28.47
10653,0.3302,-0.0276,0.8617,-6.66,7.95,0.02,28.43
10663,0.3301,-0.0242,0.8611,-6.6,7.95,-0.03,28.44
10673,0.3236,-0.0253,0.8671,-6.66,8.09,-0.18,28.46
10683,0.3245,-0.0262,0.8673,-6.72,8.0,-0.05,28.42
10693,0.3273,-0.0227,0.8688,-6.56,7.92,-0.09,28.43
10703,0.3273,-0.0278,0.861,-6.64,7.89,-0.06,28.42
10713,0.3287,-0.0269,0.8616,-6.6,7.91,0.02,28.45
10723,0.3284,-0.0275,0.8623,-6.69,7.88,0.03,28.45
10733,0.3268,-0.0251,0.8613,-6.63,7.97,-0.02,28.44
10743,0.3287,-0.0271,0.8656,-6.61,7.97,-0.03,28.45
10753,0.3246,-0.0261,0.8646,-6.6,7.95,-0.12,28.43
10763,0.329,-0.0266,0.8627,-6.56,7.89,-0.05,28.42
10773,0.3282,-0.0262,0.8641,-6.55,8.0,-0.12,28.44
10783,0.329,-0.0256,0.8613,-6.56,7.91,-0.02,28.44
10793,0.3284,-0.0238,0.8625,-6.64,7.95,-0.05,28.45
10803,0.3292,-0.0239,0.8607,-6.6,8.03,-0.06,28.46
10813,0.33,-0.0247,0.8629,-6.61,7.92,-0.02,28.42
10823,0.3289,-0.027,0.8624,-6.56,7.94,0.0,28.44
10833,0.3308,-0.0271,0.8588,-6.66,7.95,-0.02,28.44
10843,0.3304,-0.0269,0.8634,-6.64,7.97,0.02,28.43
10853,0.3302,-0.0277,0.8599,-6.55,7.95,0.0,28.44
10863,0.3263,-0.0278,0.8612,-6.55,7.94,-0.05,28.44
10873,0.3295,-0.0276,0.8601,-6.64,7.92,-0.02,28.47
10883,0.3278,-0.0294,0.8627,-6.7,7.92,0.0,28.43
10893,0.329,-0.0261,0.8617,-6.61,7.91,-0.05,28.46
10903,0.3274,-0.0253,0.8641,-6.58,7.83,-0.08,28.45
10913,0.3297,-0.0276,0.8624,-6.53,7.86,-0.05,28.44
10923,0.3264,-0.0251,0.8632,-6.63,7.91,-0.05,28.45
10933,0.3286,-0.024,0.8669,-6.53,7.91,0.0,28.44
10943,0.3298,-0.0243,0.8632,-6.66,7.91,0.0,28.45
10953,0.3265,-0.0247,0.8634,-6.61,7.98,-0.03,28.45
10963,0.3285,-0.0293,0.8611,-6.67,7.98,-0.02,28.44
10973,0.3285,-0.0284,0.8638,-6.63,7.91,0.06,28.47
10983,0.3273,-0.0258,0.8646,-6.64,7.94,-0.06,28.45
10993,0.3304,-0.0234,0.8641,-6.63,7.95,0.0,28.44
11003,0.3279,-0.0226,0.8612,-6.6,7.86,-0.03,28.46
11013,0.3295,-0.0249,0.8643,-6.58,7.83,-0.03,28.43
11023,0.3286,-0.0266,0.8649,-6.69,7.89,-0.06,28.44
11033,0.3297,-0.0265,0.8655,-6.64,7.95,-0.12,28.45
11043,0.3258,-0.0302,0.865,-6.61,7.92,-0.08,28.46
11053,0.3265,-0.0275,0.8627,-6.64,7.97,-0.02,28.47
11063,0.3247,-0.0251,0.8624,-6.52,7.94,-0.09,28.44
11073,0.3253,-0.0286,0.8594,-6.61,8.02,-0.05,28.44
11083,0.3241,-0.0262,0.8607,-6.6,7.91,0.02,28.43
11093,0.3263,-0.0234,0.871,-6.61,7.94,-0.06,28.44
11103,0.3257,-0.025,0.8657,-6.63,7.91,-0.02,28.44
11113,0.328,-0.025,0.8671,-6.56,8.0,-0.03,28.45
11123,0.3284,-0.0211,0.861,-6.61,7.97,-0.02,28.48
11133,0.3287,-0.026,0.8654,-6.63,7.91,0.03,28.44
11143,0.33,-0.027,0.8654,-6.6,7.97,-0.09,28.46
11153,0.3307,-0.0275,0.865,-6.58,7.89,-0.03,28.45
11163,0.3284,-0.0253,0.865,-6.66,7.97,-0.12,28.44
11173,0.3286,-0.0247,0.8654,-6.5,7.91,-0.05,28.44
11183,0.3271,-0.0253,0.8654,-6.67,7.97,-0.11,28.44
11193,0.3267,-0.0255,0.8629,-6.55,7.98,-0.09,28.47
11203,0.3285,-0.0237,0.8671,-6.56,7.88,-0.02,28.45
11213,0.3276,-0.0271,0.8602,-6.64,7.95,-0.05,28.46
11223,0.3306,-0.026,0.8607,-6.66,7.95,0.0,28.47
11233,0.3268,-0.0273,0.8627,-6.63,7.98,0.02,28.47
11243,0.3273,-0.0264,0.8595,-6.6,7.92,-0.05,28.48
11253,0.3291,-0.0259,0.8624,-6.58,7.95,0.02,28.46
11263,0.3295,-0.0249,0.8625,-6.63,7.89,-0.05,28.47
11273,0.3302,-0.0275,0.8652,-6.55,7.92,-0.08,28.46
11283,0.3271,-0.0247,0.861,-6.53,7.91,0.02,28.46
11295,0.3275,-0.0247,0.8685,-6.63,7.89,-0.08,28.46
11305,0.3271,-0.0249,0.8611,-6.63,7.95,-0.05,28.47
11315,0.3303,-0.025,0.8645,-6.66,7.89,0.0,28.46
11325,0.3275,-0.0261,0.8668,-6.61,7.91,-0.06,28.44
11335,0.3279,-0.0254,0.8635,-6.63,7.95,-0.08,28.43
11345,0.3276,-0.026,0.8608,-6.55,7.98,-0.14,28.44
11355,0.326,-0.03,0.8622,-6.6,7.89,-0.05,28.46
11365,0.3275,-0.0281,0.8652,-6.64,8.02,-0.02,28.45
11375,0.3289,-0.025,0.8657,-6.58,8.02,-0.09,28.46
11385,0.3269,-0.0244,0.8668,-6.67,7.91,0.0,28.45
11395,0.3281,-0.0258,0.8629,-6.6,7.91,-0.06,28.47
11405,0.3258,-0.027,0.8611,-6.7,7.98,-0.05,28.47
11415,0.329,-0.0297,0.8633,-6.64,7.83,-0.05,28.47
11425,0.3276,-0.0254,0.8641,-6.6,7.94,-0.11,28.47
11435,0.3278,-0.0249,0.8628,-6.61,7.91,0.03,28.45
11445,0.3285,-0.0261,0.8635,-6.61,7.89,-0.05,28.46
11455,0.3289,-0.0275,0.8644,-6.64,7.95,0.03,28.45
11465,0.3298,-0.0261,0.8633,-6.67,7.97,-0.02,28.44
11475,0.3292,-0.022,0.861,-6.64,7.92,-0.11,28.44
11485,0.3303,-0.0276,0.8608,-6.56,7.94,-0.09,28.47
11495,0.33,-0.0251,0.8666,-6.55,7.97,-0.05,28.47
11505,0.3278,-0.0293,0.8632,-6.64,7.94,-0.06,28.45
11515,0.3245,-0.0247,0.8669,-6.64,7.95,-0.03,28.46
11525,0.3267,-0.0242,0.8635,-6.64,7.97,0.02,28.46
11535,0.3289,-0.0238,0.8635,-6.56,7.94,-0.11,28.48
11545,0.3271,-0.0261,0.8651,-6.69,7.88,-0.08,28.49
11555,0.3302,-0.0278,0.8647,-6.61,7.98,-0.09,28.48
11565,0.3276,-0.0269,0.864,-6.67,7.91,-0.05,28.47
11575,0.3275,-0.0245,0.8665,-6.58,7.95,-0.03,28.47
11585,0.3297,-0.0269,0.8647,-6.63,7.91,-0.02,28.47
11595,0.3274,-0.0237,0.8634,-6.6,7.91,-0.11,28.46
11605,0.3269,-0.0261,0.8657,-6.67,7.88,-0.06,28.46
11615,0.3295,-0.0275,0.8668,-6.56,7.94,0.02,28.47
11625,0.3267,-0.0251,0.8636,-6.61,7.95,-0.03,28.47
11635,0.3301,-0.0244,0.8618,-6.58,7.89,0.02,28.46
11645,0.3267,-0.0262,0.8619,-6.61,7.88,0.0,28.47
11655,0.3258,-0.0255,0.8636,-6.58,7.97,0.03,28.46
11665,0.3262,-0.0265,0.8651,-6.58,8.03,-0.08,28.46
11675,0.3285,-0.0247,0.863,-6.61,7.94,0.02,28.46
11685,0.3278,-0.0251,0.8628,-6.58,7.95,0.0,28.48
11695,0.3297,-0.0251,0.8634,-6.56,7.88,-0.06,28.46
11705,0.3275,-0.0234,0.8629,-6.61,7.98,-0.06,28.47
11715,0.3262,-0.0262,0.8619,-6.61,7.89,-0.06,28.45
11725,0.3286,-0.0272,0.8633,-6.58,7.89,-0.06,28.44
11735,0.3254,-0.0291,0.8632,-6.64,7.86,-0.05,28.49
11745,0.3295,-0.0262,0.8634,-6.63,7.94,-0.06,28.48
11755,0.3278,-0.0237,0.8621,-6.56,8.03,0.02,28.45
11765,0.3289,-0.0242,0.8621,-6.63,8.0,0.0,28.47
11775,0.3273,-0.0254,0.8669,-6.55,7.95,0.0,28.45
11785,0.3297,-0.0219,0.8611,-6.63,7.98,-0.05,28.47
11795,0.3286,-0.0237,0.8613,-6.67,7.92,-0.05,28.45
11805,0.3313,-0.0262,0.8615,-6.64,7.91,0.0,28.47
11815,0.3281,-0.0234,0.863,-6.63,7.92,-0.06,28.44
11825,0.3296,-0.0243,0.8655,-6.58,7.91,0.0,28.46
11835,0.3312,-0.0269,0.8628,-6.6,7.89,0.05,28.47
11845,0.3286,-0.0251,0.8636,-6.64,7.94,0.03,28.47
11855,0.332,-0.0261,0.8662,-6.61,7.95,0.02,28.46
11865,0.3254,-0.0253,0.8634,-6.69,8.05,0.0,28.48
11875,0.3263,-0.0223,0.8605,-6.67,8.0,-0.02,28.47
11885,0.3262,-0.026,0.8615,-6.69,8.0,0.0,28.46
11895,0.3287,-0.0262,0.8575,-6.61,7.97,-0.08,28.47
11905,0.3287,-0.0254,0.8622,-6.63,7.95,0.02,28.45
11915,0.3285,-0.0264,0.8625,-6.6,7.95,-0.09,28.47
11925,0.3276,-0.0277,0.8624,-6.66,7.95,-0.06,28.49
11935,0.329,-0.025,0.8654,-6.66,7.95,-0.06,28.47
11945,0.3309,-0.0245,0.8669,-6.55,7.95,-0.02,28.47
11955,0.3268,-0.0238,0.8638,-6.66,7.91,-0.06,28.47
11965,0.3306,-0.0258,0.8687,-6.64,7.98,-0.03,28.46
11975,0.3318,-0.0237,0.864,-6.73,7.98,0.02,28.47
11985,0.3284,-0.0264,0.8617,-6.61,7.94,-0.06,28.47
11995,0.3304,-0.0276,0.8613,-6.64,7.91,-0.06,28.45
12006,0.3274,-0.0292,0.8638,-6.63,7.86,0.02,28.48
12016,0.3285,-0.0292,0.859,-6.64,8.0,-0.06,28.47
12026,0.3275,-0.0249,0.8661,-6.6,7.94,-0.06,28.47
12036,0.3268,-0.0282,0.8617,-6.63,7.97,-0.08,28.47
12046,0.3271,-0.0238,0.8695,-6.64,7.97,-0.02,28.47
12056,0.3276,-0.0262,0.8627,-6.69,7.95,-0.11,28.46
12066,0.3296,-0.024,0.8654,-6.52,7.97,-0.05,28.45
12076,0.3267,-0.026,0.8607,-6.66,7.95,-0.02,28.51
12086,0.3263,-0.0273,0.8593,-6.64,7.92,-0.03,28.46
12096,0.3308,-0.0271,0.8622,-6.6,7.95,-0.02,28.49
12106,0.33,-0.0289,0.8608,-6.61,7.95,-0.05,28.48
12116,0.3281,-0.03,0.8605,-6.6,7.89,-0.02,28.47
12126,0.3291,-0.0248,0.8672,-6.66,7.92,-0.15,28.46
12136,0.3289,-0.025,0.8635,-6.58,7.97,-0.06,28.48
12146,0.332,-0.0254,0.8606,-6.63,7.92,0.0,28.49
12156,0.3292,-0.0284,0.8652,-6.69,7.97,0.02,28.49
12166,0.328,-0.026,0.8666,-6.58,7.91,0.03,28.47
12176,0.3259,-0.0255,0.8654,-6.64,7.88,-0.06,28.49
12186,0.3259,-0.0261,0.8572,-6.7,7.8,-0.02,28.47
12196,0.3282,-0.028,0.861,-6.58,7.92,-0.08,28.46
12206,0.3285,-0.0281,0.8635,-6.67,7.94,-0.08,28.48
12216,0.3284,-0.0298,0.858,-6.63,7.89,-0.02,28.49
12226,0.3308,-0.0273,0.865,-6.6,7.91,-0.03,28.46
12236,0.3324,-0.0287,0.8691,-6.6,7.95,-0.06,28.48
12246,0.3258,-0.0249,0.869,-6.63,7.95,-0.03,28.49
12256,0.3309,-0.0248,0.8649,-6.67,7.97,-0.06,28.48
12266,0.3265,-0.0255,0.8636,-6.66,7.95,0.02,28.47
12276,0.3317,-0.0229,0.8671,-6.63,7.98,-0.12,28.48
12286,0.3264,-0.025,0.865,-6.58,7.89,0.0,28.51
12296,0.3267,-0.027,0.8638,-6.63,8.0,0.02,28.48
12309,0.3281,-0.0269,0.8619,-6.64,7.95,-0.06,28.47
12319,0.3256,-0.0249,0.8635,-6.63,7.94,0.02,28.47
12330,0.3285,-0.0249,0.8657,-6.63,7.97,-0.02,28.49
12340,0.3271,-0.0244,0.8615,-6.55,7.94,-0.02,28.46
12350,0.3276,-0.0265,0.8628,-6.66,7.95,-0.06,28.47
12360,0.3278,-0.0256,0.8685,-6.58,7.92,-0.02,28.47
12370,0.3267,-0.0269,0.8613,-6.56,7.86,-0.03,28.49
12380,0.3262,-0.0261,0.8643,-6.63,7.89,0.0,28.5
12390,0.3289,-0.0248,0.8627,-6.69,7.97,0.02,28.5
12400,0.3273,-0.025,0.8635,-6.7,7.94,0.0,28.47
12410,0.3324,-0.0233,0.8636,-6.61,7.92,-0.08,28.51
12420,0.3313,-0.0234,0.8622,-6.67,7.91,-0.05,28.49
12430,0.3292,-0.0258,0.8639,-6.66,7.95,-0.03,28.49
12440,0.3298,-0.0239,0.8632,-6.7,7.95,-0.05,28.49
12450,0.3287,-0.0243,0.8652,-6.69,7.95,0.02,28.47
12460,0.329,-0.0291,0.8613,-6.6,7.92,0.02,28.47
12470,0.3285,-0.0258,0.8605,-6.69,7.95,-0.08,28.47
12480,0.3275,-0.0261,0.865,-6.58,7.92,-0.02,28.49
12490,0.3269,-0.0253,0.8644,-6.6,7.95,-0.05,28.47
12500,0.3281,-0.0242,0.8682,-6.55,7.94,-0.05,28.47
12510,0.3279,-0.024,0.8622,-6.66,7.89,-0.06,28.5
12520,0.3286,-0.0248,0.8704,-6.64,7.85,-0.05,28.51
12530,0.3286,-0.0229,0.8629,-6.69,7.97,-0.03,28.5
12540,0.3287,-0.0262,0.8611,-6.63,7.92,0.0,28.49
12550,0.3263,-0.0266,0.8621,-6.64,7.89,-0.09,28.48
12560,0.329,-0.0249,0.863,-6.55,7.98,-0.12,28.5
12570,0.3281,-0.0253,0.8608,-6.5,7.91,-0.03,28.49
12580,0.3271,-0.0267,0.8622,-6.66,7.92,0.0,28.49
12590,0.327,-0.0222,0.8669,-6.61,7.86,-0.09,28.48
12600,0.3281,-0.0209,0.8625,-6.55,7.94,-0.03,28.47
12610,0.3308,-0.0251,0.8669,-6.66,7.95,0.02,28.49
12620,0.3306,-0.0237,0.8633,-6.63,7.94,-0.08,28.49
12630,0.3296,-0.0264,0.8611,-6.63,7.88,-0.05,28.48
12640,0.3311,-0.0266,0.8651,-6.66,7.98,-0.02,28.46
12650,0.3285,-0.0271,0.8616,-6.55,7.92,-0.08,28.48
12660,0.3274,-0.027,0.8618,-6.53,7.95,-0.02,28.49
12670,0.3246,-0.0297,0.8628,-6.69,7.91,0.0,28.47
12680,0.3251,-0.0298,0.8596,-6.53,7.94,-0.02,28.47
12690,0.3253,-0.024,0.8658,-6.6,7.89,-0.02,28.46
12700,0.3286,-0.0233,0.8662,-6.66,7.95,-0.03,28.44
12710,0.3269,-0.0206,0.868,-6.64,7.97,-0.15,28.49
12720,0.3281,-0.0197,0.8657,-6.63,7.85,-0.11,28.5
12730,0.3286,-0.0226,0.87,-6.6,7.94,-0.09,28.49
12740,0.3319,-0.0209,0.8668,-6.63,7.92,-0.15,28.5
12750,0.3317,-0.0261,0.8666,-6.69,7.89,-0.09,28.5
12760,0.3311,-0.03,0.8613,-6.64,7.86,-0.12,28.49
12770,0.337,-0.0333,0.8608,-6.53,7.92,-0.05,28.48
12780,0.326,-0.0353,0.8629,-6.58,8.06,-0.11,28.5
12790,0.3143,-0.0332,0.8578,-6.58,8.09,0.0,28.49
12800,0.314,-0.0293,0.8641,-6.63,8.67,0.06,28.48
12810,0.3199,-0.0258,0.8604,-6.6,8.2,0.03,28.48
12820,0.3253,-0.0312,0.8615,-6.49,7.83,0.06,28.48
12830,0.3215,-0.0215,0.8715,-6.56,7.88,-0.02,28.48
12840,0.3273,-0.0149,0.879,-6.63,7.94,0.0,28.47
12850,0.3309,-0.02,0.8712,-6.72,7.91,-0.02,28.49
12860,0.3312,-0.0267,0.8674,-6.64,7.86,-0.11,28.51
12870,0.3295,-0.0249,0.8687,-6.58,7.89,-0.2,28.48
12880,0.3279,-0.0261,0.8591,-6.73,7.97,-0.14,28.48
12890,0.3271,-0.0303,0.8654,-6.64,8.0,-0.08,28.47
12900,0.3251,-0.0308,0.8553,-6.66,7.98,-0.12,28.49
12910,0.3253,-0.0272,0.8573,-6.55,7.98,-0.2,28.48
12920,0.3291,-0.0229,0.864,-6.66,7.94,-0.03,28.51
12930,0.3292,-0.0226,0.8605,-6.7,7.85,-0.06,28.49
12940,0.3307,-0.0273,0.8679,-6.63,7.95,-0.03,28.48
12950,0.3323,-0.0217,0.8708,-6.6,7.92,0.03,28.49
12960,0.3324,-0.024,0.8695,-6.6,7.94,-0.14,28.52
12970,0.3302,-0.0247,0.8672,-6.58,7.97,0.0,28.48
12980,0.3302,-0.0256,0.863,-6.72,7.95,-0.02,28.51
12990,0.3276,-0.0309,0.858,-6.63,7.89,-0.06,28.52
13000,0.329,-0.0305,0.8542,-6.56,7.89,0.0,28.5
13010,0.326,-0.0291,0.8558,-6.6,7.95,-0.05,28.49
13020,0.3265,-0.0225,0.8627,-6.66,7.85,-0.03,28.5
13030,0.3253,-0.027,0.8685,-6.7,7.92,-0.03,28.5
13040,0.328,-0.0261,0.8661,-6.58,7.94,0.0,28.48
13050,0.3295,-0.0234,0.8706,-6.55,7.88,0.05,28.51
13060,0.3286,-0.0214,0.8679,-6.63,7.94,-0.03,28.5
13070,0.3263,-0.0264,0.8647,-6.73,7.92,-0.05,28.51
13080,0.3259,-0.025,0.8619,-6.75,7.86,-0.05,28.5
13090,0.3293,-0.0289,0.8544,-6.56,7.97,-0.02,28.49
13100,0.3285,-0.0267,0.8568,-6.58,7.92,-0.02,28.48
13110,0.3259,-0.0294,0.8606,-6.63,7.94,-0.06,28.48
13120,0.3313,-0.0284,0.8645,-6.69,7.95,-0.05,28.49
13130,0.3295,-0.0289,0.8669,-6.7,7.94,-0.12,28.51
13140,0.3284,-0.0237,0.8688,-6.6,7.88,-0.05,28.51
13150,0.327,-0.0229,0.8687,-6.63,7.97,-0.02,28.52
13160,0.3286,-0.0245,0.8688,-6.64,8.0,-0.08,28.49
13170,0.3267,-0.03,0.8617,-6.67,7.95,-0.05,28.5
13180,0.3273,-0.0276,0.8583,-6.61,7.94,-0.11,28.48
13191,0.3275,-0.0244,0.8611,-6.67,7.92,-0.08,28.49
13201,0.3275,-0.0267,0.8607,-6.66,7.91,-0.06,28.5
13211,0.3262,-0.0262,0.8599,-6.56,7.94,0.06,28.51
13221,0.3267,-0.0272,0.8633,-6.63,7.92,-0.03,28.51
13231,0.3286,-0.0248,0.8674,-6.61,7.89,-0.02,28.49
13241,0.3296,-0.0247,0.8677,-6.53,8.03,-0.09,28.49
13251,0.3303,-0.0256,0.868,-6.7,7.91,-0.14,28.49
13261,0.3267,-0.0283,0.8655,-6.61,7.97,-0.05,28.5
13271,0.3301,-0.0293,0.8602,-6.6,7.94,-0.06,28.49
13281,0.3275,-0.0278,0.8628,-6.64,7.92,-0.12,28.49
13291,0.3265,-0.0261,0.8613,-6.69,7.88,0.0,28.51
13301,0.3252,-0.027,0.8596,-6.63,7.91,-0.02,28.47
13311,0.3273,-0.0255,0.8672,-6.63,7.97,-0.02,28.5
13321,0.3275,-0.0231,0.8629,-6.69,7.89,0.05,28.51
13331,0.332,-0.0271,0.8661,-6.7,8.02,0.05,28.5
13341,0.3291,-0.0258,0.8671,-6.67,7.95,-0.05,28.5
13351,0.3286,-0.027,0.8666,-6.64,7.95,-0.06,28.49
13361,0.3307,-0.0245,0.8667,-6.73,7.89,-0.06,28.49
13371,0.3291,-0.0249,0.8615,-6.63,7.94,-0.05,28.48
13381,0.325,-0.0275,0.8639,-6.61,7.94,0.02,28.47
13391,0.3254,-0.0281,0.8566,-6.66,7.91,-0.05,28.5
13401,0.3287,-0.0242,0.8651,-6.66,7.92,-0.03,28.49
13411,0.3268,-0.0238,0.8606,-6.5,7.97,-0.09,28.52
13421,0.3269,-0.0242,0.8608,-6.6,7.91,-0.05,28.51
13431,0.328,-0.0254,0.8662,-6.53,7.94,-0.06,28.51
13441,0.3298,-0.0286,0.8616,-6.69,7.98,-0.08,28.53
13451,0.3286,-0.0259,0.8617,-6.61,7.97,-0.03,28.48
13461,0.3253,-0.0258,0.8646,-6.66,7.89,-0.05,28.5
13471,0.3267,-0.0277,0.8633,-6.67,7.95,0.0,28.52
13481,0.3281,-0.0278,0.8601,-6.6,8.0,0.0,28.51
13491,0.3292,-0.0295,0.8619,-6.52,7.94,0.05,28.51
13501,0.3271,-0.0256,0.8629,-6.63,7.89,0.03,28.51
13512,0.3279,-0.0259,0.8683,-6.6,7.92,-0.08,28.51
13522,0.3285,-0.0259,0.8679,-6.64,8.03,-0.03,28.51
13532,0.33,-0.0269,0.863,-6.66,7.91,-0.03,28.51
13542,0.3273,-0.0256,0.8641,-6.58,7.94,-0.08,28.5
13552,0.3268,-0.0265,0.8623,-6.66,7.97,-0.03,28.49
13562,0.3269,-0.0294,0.8629,-6.6,7.88,-0.03,28.49
13572,0.3274,-0.027,0.8628,-6.56,7.97,-0.05,28.5
13582,0.3267,-0.0293,0.8596,-6.6,7.92,-0.03,28.49
13592,0.3265,-0.024,0.8634,-6.58,7.98,-0.02,28.52
13602,0.3286,-0.0254,0.8617,-6.63,7.97,0.0,28.51
13612,0.3298,-0.0264,0.8644,-6.64,7.94,0.03,28.49
13622,0.3284,-0.0238,0.8647,-6.64,7.95,-0.09,28.49
13632,0.3268,-0.0265,0.8682,-6.61,7.95,-0.05,28.51
13642,0.3276,-0.027,0.8633,-6.66,7.94,-0.05,28.51
13652,0.3267,-0.0277,0.8624,-6.61,7.98,-0.02,28.5
13662,0.3275,-0.0249,0.8624,-6.53,7.97,-0.05,28.49
13673,0.3284,-0.0272,0.8683,-6.64,7.98,-0.05,28.5
13683,0.3287,-0.0259,0.8616,-6.6,7.92,-0.09,28.49
13693,0.3268,-0.0233,0.8646,-6.67,7.88,0.0,28.51
13703,0.3295,-0.0245,0.8635,-6.63,7.95,-0.08,28.51
13713,0.327,-0.0251,0.8616,-6.64,7.95,-0.02,28.52
13723,0.3289,-0.0272,0.8644,-6.64,7.92,-0.02,28.5
13733,0.3284,-0.0238,0.8639,-6.72,7.92,-0.06,28.49
13743,0.3279,-0.0262,0.8671,-6.63,7.91,-0.12,28.5
13753,0.3296,-0.0264,0.8619,-6.66,7.89,-0.02,28.52
13763,0.3284,-0.0271,0.8677,-6.63,7.95,-0.02,28.5
13773,0.329,-0.027,0.8644,-6.56,7.88,-0.03,28.5
13783,0.3273,-0.025,0.866,-6.63,7.91,-0.05,28.5
13793,0.3303,-0.024,0.8657,-6.61,7.89,-0.03,28.52
13803,0.3281,-0.0262,0.8632,-6.61,7.92,0.0,28.52
13813,0.3279,-0.0248,0.861,-6.6,7.85,-0.08,28.5
13823,0.3278,-0.0209,0.863,-6.66,7.91,-0.03,28.51
13833,0.3293,-0.0251,0.8636,-6.64,7.88,0.03,28.51
13843,0.3262,-0.0282,0.8596,-6.6,7.95,-0.08,28.49
13853,0.3287,-0.0248,0.8613,-6.67,7.98,0.0,28.51
13863,0.3297,-0.0242,0.8618,-6.69,8.0,-0.02,28.51
13873,0.326,-0.0256,0.8656,-6.66,7.95,-0.03,28.51
13883,0.3292,-0.0229,0.8624,-6.6,7.91,0.0,28.5
13893,0.3267,-0.0265,0.8636,-6.58,7.94,-0.05,28.53
13903,0.3275,-0.0269,0.8636,-6.63,7.98,-0.08,28.49
13913,0.3267,-0.024,0.865,-6.64,7.97,-0.06,28.5
13923,0.3308,-0.0258,0.8636,-6.55,7.91,-0.09,28.52
13933,0.3298,-0.0264,0.8658,-6.58,7.94,-0.05,28.51
13943,0.33,-0.025,0.8641,-6.69,7.95,0.02,28.52
13953,0.328,-0.0271,0.8613,-6.66,7.98,-0.03,28.51
13963,0.3297,-0.0248,0.8632,-6.61,7.92,-0.08,28.52
13973,0.3276,-0.0259,0.8644,-6.55,7.98,-0.03,28.53
13983,0.3278,-0.0275,0.8625,-6.52,7.94,-0.03,28.55
13993,0.3271,-0.0245,0.8599,-6.55,7.92,-0.11,28.51
14003,0.3265,-0.0255,0.8604,-6.73,7.94,-0.11,28.52
14013,0.3262,-0.0262,0.8633,-6.64,7.95,0.0,28.52
14023,0.3276,-0.0275,0.8608,-6.67,7.85,-0.06,28.53
14033,0.3298,-0.0271,0.8657,-6.6,7.92,-0.05,28.54
14043,0.3281,-0.0277,0.8625,-6.7,7.83,-0.14,28.51
14053,0.3307,-0.0259,0.8615,-6.69,7.94,-0.09,28.51
14063,0.3273,-0.0261,0.8651,-6.66,7.95,0.0,28.52
14073,0.3296,-0.0249,0.8625,-6.6,7.98,-0.09,28.53
14083,0.3275,-0.0254,0.8634,-6.67,7.92,0.0,28.52
14093,0.3258,-0.0259,0.8657,-6.7,7.98,0.06,28.49
14103,0.3282,-0.0253,0.8632,-6.56,7.91,-0.06,28.49
14113,0.3282,-0.0275,0.8612,-6.61,7.97,-0.09,28.5
14123,0.3273,-0.0254,0.864,-6.64,7.95,0.11,28.54
14133,0.326,-0.0247,0.8649,-6.64,7.95,-0.09,28.56
14143,0.3258,-0.0249,0.8644,-6.67,7.91,-0.03,28.52
14153,0.3279,-0.0255,0.8644,-6.58,7.95,0.05,28.51
14163,0.3256,-0.0247,0.8611,-6.6,8.02,0.02,28.52
14173,0.3307,-0.0234,0.8624,-6.58,7.92,-0.05,28.51
14183,0.3282,-0.0266,0.8619,-6.63,7.91,-0.02,28.51
14193,0.325,-0.0256,0.8661,-6.63,7.98,0.0,28.5
14203,0.3267,-0.0255,0.859,-6.61,7.89,-0.05,28.52
14213,0.3298,-0.0266,0.865,-6.67,7.98,-0.02,28.51
14223,0.3267,-0.0275,0.8646,-6.6,7.92,-0.03,28.53
14233,0.3278,-0.0245,0.8622,-6.64,8.03,0.0,28.5
14243,0.3271,-0.0265,0.86,-6.63,7.98,0.08,28.53
14253,0.3285,-0.0262,0.8657,-6.63,7.94,0.0,28.52
14263,0.3301,-0.0267,0.865,-6.6,7.86,0.0,28.5
14273,0.3293,-0.0255,0.8671,-6.63,7.92,-0.03,28.53
14283,0.3267,-0.0236,0.8605,-6.64,7.94,-0.08,28.53
14293,0.3286,-0.0254,0.8665,-6.73,7.97,-0.08,28.52
14303,0.3274,-0.0262,0.865,-6.64,7.95,0.0,28.49
14313,0.3281,-0.0286,0.863,-6.58,7.94,-0.03,28.51
14323,0.3276,-0.025,0.8635,-6.67,7.95,0.0,28.52
14333,0.3267,-0.0253,0.8647,-6.63,7.92,0.0,28.51
14343,0.3281,-0.026,0.8638,-6.6,7.91,-0.06,28.51
14353,0.3265,-0.0265,0.864,-6.64,7.92,-0.03,28.52
14363,0.3263,-0.0244,0.8599,-6.64,7.92,-0.05,28.54
14373,0.328,-0.0264,0.8628,-6.64,7.92,0.0,28.52
14383,0.3262,-0.0289,0.8613,-6.58,7.91,-0.05,28.54
14393,0.3273,-0.0242,0.8636,-6.58,7.95,0.0,28.5
14403,0.3262,-0.026,0.8641,-6.6,7.94,-0.02,28.53
14413,0.3264,-0.0236,0.8634,-6.61,7.91,-0.02,28.53
14423,0.3273,-0.0267,0.861,-6.64,7.92,-0.06,28.53
14433,0.3278,-0.025,0.8634,-6.64,8.03,-0.02,28.51
14443,0.3293,-0.0253,0.8625,-6.52,7.92,-0.06,28.5
14453,0.3274,-0.0266,0.8673,-6.58,7.92,-0.02,28.52
14463,0.3281,-0.025,0.866,-6.61,7.91,-0.09,28.53
14473,0.3282,-0.0256,0.8652,-6.61,7.95,0.02,28.51
14483,0.3278,-0.0273,0.8634,-6.67,8.0,-0.06,28.51
14493,0.328,-0.0237,0.866,-6.63,7.95,-0.12,28.51
14503,0.3281,-0.0238,0.8627,-6.66,7.97,-0.06,28.5
14513,0.3293,-0.0271,0.8597,-6.66,7.91,0.0,28.5
14523,0.3275,-0.026,0.8604,-6.6,7.92,-0.08,28.55
14533,0.3281,-0.0258,0.8608,-6.7,7.94,0.02,28.51
14543,0.3271,-0.0269,0.8608,-6.61,7.94,-0.02,28.54
14553,0.3289,-0.0249,0.8636,-6.67,7.94,-0.06,28.53
14563,0.3285,-0.0247,0.8636,-6.61,7.94,-0.03,28.52
14573,0.3264,-0.022,0.8645,-6.63,7.94,-0.03,28.54
14583,0.3275,-0.024,0.8628,-6.63,8.03,-0.05,28.55
14594,0.3265,-0.0265,0.8622,-6.63,7.94,-0.03,28.54
14604,0.3289,-0.0258,0.863,-6.63,7.88,0.0,28.54
14614,0.3284,-0.0249,0.8632,-6.6,7.91,-0.03,28.5
14624,0.3282,-0.0254,0.8646,-6.67,7.95,-0.05,28.53
14634,0.3289,-0.0237,0.8639,-6.63,7.98,-0.06,28.54
14644,0.328,-0.0242,0.8617,-6.63,7.97,-0.08,28.52
14654,0.3281,-0.0253,0.8628,-6.67,7.94,-0.08,28.54
14664,0.3279,-0.0244,0.865,-6.63,7.98,-0.03,28.52
14674,0.3246,-0.0269,0.8656,-6.58,7.94,-0.06,28.55
14684,0.3268,-0.0273,0.8636,-6.61,7.95,0.02,28.53
14696,0.3279,-0.0267,0.8613,-6.63,8.02,-0.06,28.55
14706,0.3298,-0.0247,0.8635,-6.69,7.88,-0.05,28.53
14716,0.328,-0.0277,0.8597,-6.63,7.92,-0.08,28.5
14726,0.3309,-0.0267,0.8655,-6.55,7.89,-0.02,28.54
14736,0.3271,-0.0244,0.8625,-6.67,7.94,-0.09,28.51
14746,0.329,-0.0267,0.8638,-6.67,7.98,0.05,28.53
14756,0.3297,-0.0232,0.8616,-6.61,7.94,-0.08,28.56
14766,0.3293,-0.0242,0.8639,-6.63,7.94,-0.02,28.54
14776,0.3296,-0.0236,0.8628,-6.63,7.94,-0.03,28.51
14786,0.3289,-0.0265,0.8593,-6.56,7.89,-0.05,28.51
14797,0.329,-0.0244,0.868,-6.66,7.91,0.03,28.52
14807,0.3285,-0.0276,0.8608,-6.7,7.91,-0.02,28.54
14817,0.3289,-0.028,0.8624,-6.66,7.95,-0.12,28.54
14827,0.3297,-0.0269,0.8615,-6.78,7.98,-0.11,28.53
14837,0.3268,-0.0253,0.8661,-6.66,7.98,-0.08,28.52
14847,0.3286,-0.0277,0.861,-6.66,7.94,0.0,28.54
14857,0.3324,-0.0265,0.8643,-6.63,7.86,-0.05,28.54
14867,0.3306,-0.0277,0.8646,-6.63,7.88,-0.09,28.52
14877,0.3317,-0.0259,0.8622,-6.66,7.89,-0.12,28.54
14887,0.327,-0.0251,0.8616,-6.58,7.85,-0.03,28.53
14897,0.329,-0.0267,0.8652,-6.66,8.0,0.05,28.54
14907,0.3293,-0.0275,0.8636,-6.64,7.91,-0.05,28.52
14917,0.3295,-0.027,0.8622,-6.66,8.03,-0.03,28.53
14927,0.33,-0.0254,0.8647,-6.64,7.94,0.0,28.52
14937,0.328,-0.0249,0.8612,-6.61,8.02,-0.11,28.54
14947,0.3285,-0.0262,0.8649,-6.67,8.02,-0.12,28.52
14957,0.3306,-0.0267,0.8591,-6.64,7.89,-0.03,28.53
14967,0.3269,-0.0231,0.8644,-6.64,7.98,0.02,28.49
14977,0.3268,-0.0259,0.8612,-6.7,7.97,-0.08,28.53
14987,0.328,-0.0244,0.8666,-6.61,7.98,-0.06,28.52
14997,0.327,-0.0234,0.8627,-6.61,7.94,0.0,28.54
15007,0.3268,-0.0242,0.8678,-6.73,7.95,-0.05,28.52
15017,0.3267,-0.027,0.8632,-6.6,7.95,-0.06,28.55
15027,0.3267,-0.0272,0.8641,-6.58,7.97,-0.05,28.52
15037,0.3295,-0.0254,0.8665,-6.72,7.97,-0.02,28.55
15047,0.3278,-0.0277,0.8645,-6.61,7.92,-0.09,28.53
15057,0.3278,-0.0254,0.8649,-6.69,7.91,0.0,28.52
15067,0.3297,-0.027,0.8623,-6.66,7.86,-0.03,28.56
15077,0.3274,-0.025,0.8647,-6.56,7.91,-0.03,28.54
15087,0.3284,-0.0266,0.8656,-6.64,7.91,-0.05,28.51
15097,0.3284,-0.0255,0.8638,-6.63,8.02,-0.08,28.53
15107,0.327,-0.026,0.8646,-6.63,7.94,-0.17,28.51
15117,0.329,-0.0293,0.8641,-6.56,7.95,-0.09,28.52
15127,0.3284,-0.0276,0.8658,-6.64,7.92,-0.02,28.54
15137,0.3307,-0.0258,0.864,-6.55,7.91,-0.03,28.55
15147,0.327,-0.0251,0.8629,-6.58,7.88,-0.09,28.52
15157,0.3273,-0.0273,0.866,-6.63,7.98,-0.03,28.54
15167,0.3289,-0.0247,0.8654,-6.64,7.95,-0.06,28.55
15177,0.3284,-0.0244,0.8604,-6.6,7.91,0.05,28.55
15187,0.3278,-0.0261,0.8621,-6.64,7.97,-0.02,28.52
15197,0.3311,-0.0284,0.8632,-6.66,7.91,-0.11,28.55
15207,0.3284,-0.0266,0.8638,-6.63,7.94,-0.12,28.57
15217,0.3274,-0.0262,0.8607,-6.64,7.91,-0.02,28.54
15228,0.3286,-0.0286,0.8645,-6.64,8.02,-0.08,28.54
15238,0.3271,-0.0238,0.8646,-6.67,7.97,-0.11,28.54
15248,0.3302,-0.0238,0.8655,-6.56,7.95,-0.03,28.54
15258,0.3273,-0.0269,0.8632,-6.63,7.86,-0.11,28.54
15268,0.3278,-0.0269,0.8622,-6.66,8.0,0.0,28.54
15278,0.3275,-0.0253,0.8643,-6.64,7.95,-0.05,28.54
15288,0.3307,-0.0254,0.8647,-6.6,7.95,-0.05,28.54
15298,0.3292,-0.0278,0.8643,-6.63,8.0,-0.14,28.51
15308,0.3298,-0.0264,0.864,-6.58,7.97,-0.02,28.56
15318,0.3312,-0.0261,0.8622,-6.55,7.98,-0.03,28.54
15328,0.3264,-0.0244,0.8656,-6.53,7.94,-0.06,28.53
15338,0.3293,-0.0227,0.8624,-6.61,7.92,-0.08,28.55
15348,0.3298,-0.0258,0.8605,-6.61,7.89,-0.03,28.51
15358,0.3297,-0.0271,0.8629,-6.61,7.89,0.03,28.52
15368,0.3297,-0.0283,0.8677,-6.67,7.83,-0.02,28.52
15378,0.3263,-0.0243,0.8641,-6.58,7.95,-0.12,28.54
15388,0.3296,-0.0249,0.864,-6.61,7.94,-0.02,28.54
15398,0.3265,-0.0247,0.8658,-6.67,7.94,-0.11,28.57
15408,0.3295,-0.0267,0.8649,-6.6,7.94,0.02,28.55
15418,0.3296,-0.0286,0.8619,-6.64,7.89,-0.03,28.53
15428,0.3296,-0.0258,0.863,-6.63,7.89,-0.05,28.55
15438,0.3274,-0.0262,0.8602,-6.66,7.95,-0.02,28.55
15448,0.3291,-0.0295,0.8612,-6.64,7.92,-0.09,28.53
15458,0.3293,-0.0283,0.8646,-6.67,7.91,-0.09,28.57
15468,0.3259,-0.0223,0.8655,-6.64,7.97,0.02,28.55
15478,0.3265,-0.0255,0.8672,-6.63,7.97,-0.02,28.54
15488,0.3274,-0.0245,0.8644,-6.67,7.94,-0.02,28.55
15498,0.328,-0.0266,0.864,-6.64,7.97,0.08,28.52
15509,0.3286,-0.0247,0.8646,-6.66,7.92,0.08,28.52
15519,0.3301,-0.0234,0.8615,-6.69,7.95,0.02,28.55
15529,0.3284,-0.0259,0.8623,-6.66,8.0,-0.05,28.55
15539,0.3264,-0.0237,0.86,-6.72,7.97,-0.03,28.53
15549,0.3273,-0.025,0.8638,-6.56,7.94,-0.03,28.53
15559,0.328,-0.0253,0.8612,-6.73,7.94,-0.08,28.55
15569,0.3293,-0.0245,0.8632,-6.61,7.92,0.0,28.54
15579,0.3285,-0.0261,0.8636,-6.66,7.92,0.0,28.54
15589,0.326,-0.027,0.8651,-6.64,7.97,0.02,28.56
15599,0.3287,-0.0237,0.8624,-6.6,7.98,-0.02,28.57
15609,0.328,-0.0248,0.8651,-6.7,7.92,-0.03,28.55
15619,0.3246,-0.0261,0.8602,-6.56,7.97,-0.06,28.54
15629,0.3306,-0.0253,0.8602,-6.63,7.92,-0.12,28.52
15639,0.3302,-0.0254,0.8612,-6.61,7.94,-0.08,28.54
15649,0.3275,-0.0251,0.8629,-6.67,7.95,-0.02,28.52
15659,0.3248,-0.0265,0.8641,-6.64,8.0,-0.02,28.53
15669,0.3302,-0.024,0.8685,-6.69,7.94,-0.03,28.52
15679,0.3274,-0.0253,0.8639,-6.64,7.91,-0.09,28.56
15689,0.3284,-0.0271,0.8634,-6.67,7.95,-0.08,28.53
15699,0.328,-0.0236,0.8651,-6.58,7.97,-0.06,28.52
15709,0.3274,-0.0253,0.865,-6.56,7.86,-0.02,28.53
15719,0.3268,-0.0247,0.864,-6.64,7.88,-0.12,28.54
15729,0.3278,-0.0278,0.8628,-6.53,7.88,-0.06,28.52
15739,0.3275,-0.026,0.8658,-6.53,7.94,-0.06,28.53
15749,0.327,-0.0262,0.8663,-6.6,7.98,-0.03,28.54
15759,0.3267,-0.0243,0.8633,-6.63,7.94,-0.11,28.54
15769,0.3284,-0.0271,0.8652,-6.7,7.94,0.02,28.54
15779,0.3276,-0.0256,0.8633,-6.63,7.98,-0.06,28.51
15789,0.3286,-0.024,0.8641,-6.61,8.0,-0.09,28.52
15799,0.3289,-0.0294,0.8652,-6.55,7.94,-0.05,28.52
15809,0.3278,-0.0264,0.8672,-6.61,7.92,-0.03,28.54
15819,0.3256,-0.0259,0.864,-6.56,8.0,-0.05,28.55
15829,0.3275,-0.0251,0.8679,-6.6,7.98,0.0,28.56
15840,0.3273,-0.0251,0.8661,-6.5,8.0,-0.08,28.54
15850,0.3278,-0.027,0.8617,-6.64,7.92,-0.03,28.53
15860,0.3276,-0.0248,0.8641,-6.66,7.92,0.0,28.54
15870,0.3303,-0.0269,0.8644,-6.67,7.89,-0.02,28.52
15880,0.3281,-0.0249,0.8612,-6.64,7.91,-0.11,28.55
15890,0.3265,-0.0271,0.8618,-6.61,7.94,-0.09,28.55
15900,0.3276,-0.0239,0.8636,-6.58,7.92,-0.09,28.56
15910,0.3264,-0.0272,0.8591,-6.66,7.91,-0.06,28.52
15920,0.3275,-0.0262,0.864,-6.64,7.95,-0.08,28.57
15930,0.3302,-0.0276,0.8625,-6.61,7.94,-0.06,28.57
15940,0.3297,-0.0258,0.865,-6.58,7.85,-0.06,28.57
15950,0.3273,-0.0267,0.8635,-6.61,7.94,-0.06,28.55
15960,0.3276,-0.0276,0.8661,-6.64,7.91,-0.05,28.54
15970,0.3263,-0.0275,0.869,-6.64,7.91,-0.06,28.55
15980,0.3287,-0.0278,0.8677,-6.69,7.89,-0.05,28.55
15990,0.3269,-0.0259,0.8633,-6.58,7.91,-0.12,28.55
16000,0.3273,-0.0264,0.8672,-6.55,7.92,-0.05,28.54
16010,0.3314,-0.0256,0.8634,-6.67,7.92,-0.03,28.55
16020,0.3304,-0.0267,0.8634,-6.63,7.94,-0.06,28.56
16030,0.3278,-0.028,0.8651,-6.58,7.91,0.0,28.54
16040,0.3317,-0.027,0.8597,-6.6,7.98,-0.06,28.56
16050,0.3302,-0.0256,0.8641,-6.64,7.97,0.03,28.54
16060,0.3282,-0.0264,0.8621,-6.61,7.92,0.02,28.55
16070,0.3285,-0.0226,0.8608,-6.61,7.92,0.0,28.56
16080,0.3296,-0.0251,0.8634,-6.67,7.95,-0.08,28.55
16090,0.3273,-0.0251,0.861,-6.63,7.92,-0.06,28.52
16100,0.3264,-0.0255,0.8639,-6.61,7.95,0.02,28.54
16110,0.3314,-0.0272,0.8661,-6.58,7.95,-0.06,28.53
16121,0.3293,-0.0256,0.864,-6.66,7.98,-0.06,28.54
16131,0.3289,-0.0259,0.8632,-6.7,7.86,0.0,28.56
16141,0.3291,-0.0222,0.8596,-6.6,7.88,-0.05,28.56
16151,0.326,-0.0282,0.8636,-6.58,7.91,-0.08,28.56
16161,0.3279,-0.0269,0.8665,-6.61,7.95,-0.06,28.54
16171,0.3284,-0.0264,0.8621,-6.64,7.91,-0.06,28.55
16181,0.3298,-0.0262,0.8599,-6.7,7.94,-0.02,28.58
16191,0.3293,-0.0259,0.8606,-6.61,7.89,-0.03,28.57
16201,0.3291,-0.0295,0.8625,-6.64,7.97,-0.02,28.56
16211,0.3267,-0.0281,0.8593,-6.61,7.92,-0.08,28.58
16221,0.328,-0.0232,0.8633,-6.61,7.97,-0.03,28.57
16231,0.3281,-0.0249,0.8619,-6.66,7.92,-0.05,28.57
16241,0.3291,-0.0283,0.8604,-6.6,7.92,-0.05,28.56
16251,0.3247,-0.0265,0.8622,-6.69,7.92,0.0,28.55
16261,0.3285,-0.0264,0.8669,-6.64,7.92,-0.02,28.59
16271,0.3268,-0.0265,0.8674,-6.66,7.85,0.0,28.57
16281,0.3282,-0.0243,0.8606,-6.61,7.95,-0.05,28.55
16291,0.3275,-0.0227,0.8628,-6.67,7.91,0.02,28.56
16301,0.3257,-0.0255,0.8652,-6.69,7.91,-0.03,28.58
16311,0.3293,-0.0238,0.861,-6.64,7.92,0.02,28.56
16321,0.3274,-0.0254,0.8625,-6.66,7.89,-0.02,28.56
16331,0.3267,-0.0236,0.8582,-6.67,7.98,0.02,28.55
16341,0.3274,-0.0256,0.8636,-6.58,7.88,0.09,28.59
16351,0.3281,-0.028,0.8602,-6.61,7.88,-0.08,28.56
16361,0.327,-0.0278,0.8629,-6.61,7.92,-0.11,28.53
16371,0.328,-0.0264,0.8632,-6.63,7.95,-0.08,28.57
16381,0.327,-0.0278,0.8643,-6.6,7.91,0.0,28.56
16391,0.3273,-0.0253,0.8639,-6.67,7.95,-0.06,28.57
16401,0.3274,-0.0266,0.8655,-6.58,7.97,-0.06,28.55
16411,0.3281,-0.0249,0.8643,-6.55,7.94,-0.05,28.55
16421,0.3264,-0.024,0.8688,-6.6,7.97,-0.03,28.55
16431,0.3284,-0.0245,0.8634,-6.6,7.94,-0.02,28.55
16441,0.3269,-0.0259,0.8658,-6.64,7.94,-0.03,28.55
16451,0.3258,-0.0245,0.8641,-6.7,7.95,0.03,28.56
16461,0.3306,-0.0254,0.8656,-6.6,7.89,-0.08,28.54
16471,0.3267,-0.0277,0.8656,-6.64,7.92,-0.06,28.54
16481,0.3279,-0.0289,0.8622,-6.56,7.97,-0.02,28.57
16491,0.3279,-0.0271,0.8617,-6.72,7.94,-0.05,28.59
16501,0.3296,-0.0242,0.8651,-6.61,7.92,-0.11,28.57
16511,0.3289,-0.0228,0.8663,-6.61,7.94,-0.02,28.56
16521,0.3263,-0.0251,0.8641,-6.64,7.92,-0.05,28.58
16531,0.3281,-0.0256,0.8634,-6.63,7.95,0.02,28.57
16541,0.3276,-0.0264,0.8628,-6.5,7.94,-0.03,28.56
16551,0.326,-0.028,0.8621,-6.58,7.91,-0.02,28.55
16561,0.328,-0.0264,0.8672,-6.6,7.94,-0.02,28.55
16571,0.3253,-0.0258,0.8665,-6.66,7.94,-0.08,28.57
16581,0.327,-0.0242,0.8667,-6.69,7.94,-0.05,28.56
16591,0.328,-0.0239,0.8646,-6.52,7.85,-0.09,28.57
16601,0.3298,-0.0258,0.8625,-6.58,7.95,-0.06,28.6
16611,0.3291,-0.0275,0.8658,-6.61,7.88,-0.11,28.57
16621,0.3322,-0.0243,0.8632,-6.67,7.92,-0.05,28.6
16631,0.3295,-0.0271,0.8638,-6.63,7.98,-0.08,28.57
16641,0.3275,-0.0269,0.863,-6.63,7.89,-0.06,28.57
16651,0.3279,-0.0254,0.8656,-6.55,7.95,-0.02,28.59
16661,0.3271,-0.0265,0.8618,-6.64,7.94,0.05,28.57
16671,0.3248,-0.0256,0.8607,-6.64,7.94,-0.12,28.55
16681,0.3273,-0.0239,0.8643,-6.63,7.97,-0.05,28.56
16691,0.3281,-0.0238,0.8613,-6.76,7.88,-0.06,28.58
16701,0.3292,-0.0238,0.8649,-6.56,7.92,0.03,28.55
16711,0.3309,-0.0245,0.8629,-6.56,7.88,-0.08,28.57
16721,0.3301,-0.0261,0.8629,-6.6,7.85,0.03,28.57
16731,0.3278,-0.026,0.8651,-6.61,7.91,-0.05,28.57
16741,0.3295,-0.025,0.8633,-6.7,7.91,-0.03,28.54
16751,0.3278,-0.0251,0.8669,-6.7,7.94,-0.06,28.57
16761,0.3301,-0.0267,0.8622,-6.6,7.94,-0.05,28.56
16771,0.3303,-0.0262,0.8657,-6.66,7.89,-0.05,28.57
16781,0.3285,-0.0253,0.8617,-6.63,7.97,-0.03,28.57
16791,0.329,-0.024,0.8639,-6.61,7.92,-0.06,28.58
16801,0.3273,-0.0266,0.8624,-6.64,7.91,-0.02,28.55
16811,0.3278,-0.0284,0.8662,-6.64,7.91,-0.03,28.57
16821,0.3281,-0.025,0.8646,-6.63,7.97,-0.08,28.58
16831,0.3274,-0.0256,0.8683,-6.53,8.03,-0.03,28.55
16841,0.3295,-0.0251,0.8671,-6.61,7.91,-0.06,28.57
16851,0.3269,-0.0259,0.8647,-6.61,7.89,-0.06,28.57
16861,0.3282,-0.0236,0.8665,-6.61,7.95,-0.09,28.6
16871,0.3304,-0.0243,0.8621,-6.64,7.89,-0.06,28.57
16881,0.3259,-0.0225,0.8597,-6.64,7.98,-0.09,28.57
16891,0.3269,-0.0258,0.8643,-6.64,7.92,-0.06,28.57
16901,0.328,-0.0277,0.8649,-6.63,8.03,-0.09,28.55
16911,0.3304,-0.0232,0.8615,-6.67,7.95,0.0,28.54
16921,0.3276,-0.0239,0.8656,-6.6,7.98,-0.03,28.57
16932,0.329,-0.0251,0.8641,-6.67,7.94,0.02,28.56
16942,0.3275,-0.0245,0.8651,-6.56,7.95,-0.12,28.59
16952,0.3257,-0.0253,0.8605,-6.63,7.95,-0.08,28.56
16962,0.3253,-0.0254,0.8655,-6.61,7.95,-0.08,28.57
16972,0.3324,-0.0261,0.8606,-6.6,7.95,-0.09,28.58
16982,0.3303,-0.0259,0.8654,-6.63,7.94,0.0,28.57
16992,0.326,-0.0261,0.8615,-6.58,7.88,0.0,28.56
17002,0.3268,-0.0283,0.8649,-6.66,7.97,-0.03,28.55
17012,0.3263,-0.0256,0.8662,-6.61,7.94,-0.06,28.57
17022,0.3298,-0.0251,0.8666,-6.61,7.92,-0.08,28.55
17032,0.3275,-0.0283,0.8607,-6.66,7.89,-0.06,28.56
17042,0.3279,-0.0242,0.8611,-6.58,7.92,0.0,28.6
17052,0.3282,-0.0264,0.8615,-6.56,7.92,-0.03,28.58
17062,0.3264,-0.0242,0.8629,-6.61,7.91,-0.03,28.59
17072,0.3265,-0.0266,0.865,-6.61,7.98,-0.03,28.57
17082,0.33,-0.0261,0.8641,-6.73,7.97,-0.02,28.57
17092,0.3271,-0.0273,0.865,-6.63,7.94,-0.06,28.58
17102,0.328,-0.0231,0.8612,-6.58,7.94,-0.06,28.57
17112,0.328,-0.0244,0.8624,-6.56,7.91,0.0,28.59
17122,0.3298,-0.0278,0.8668,-6.73,7.98,-0.15,28.57
17132,0.3274,-0.0271,0.8652,-6.64,7.91,-0.03,28.57
17142,0.3264,-0.0229,0.8655,-6.67,7.92,-0.02,28.59
17152,0.3287,-0.0271,0.8634,-6.6,7.94,-0.05,28.58
17162,0.3287,-0.028,0.8654,-6.66,7.91,0.02,28.57
17172,0.3301,-0.0231,0.865,-6.61,7.89,-0.02,28.57
17182,0.3289,-0.0258,0.8633,-6.63,7.89,-0.08,28.57
17192,0.3311,-0.0266,0.8634,-6.6,7.94,-0.03,28.58
17202,0.3279,-0.0226,0.8644,-6.56,7.97,0.0,28.58
17212,0.3287,-0.0239,0.8651,-6.5,7.89,-0.08,28.56
17222,0.3281,-0.0265,0.8656,-6.6,7.91,-0.02,28.57
17232,0.3253,-0.0267,0.8647,-6.61,7.92,-0.05,28.56
17242,0.3273,-0.0249,0.8621,-6.63,8.0,-0.03,28.57
17252,0.3265,-0.0299,0.8636,-6.63,7.97,0.02,28.58
17262,0.3303,-0.0254,0.8616,-6.61,7.97,-0.03,28.59
17272,0.3254,-0.0249,0.8602,-6.64,8.02,0.02,28.57
17282,0.3275,-0.0253,0.8625,-6.64,7.92,-0.08,28.58
17292,0.329,-0.0247,0.8578,-6.63,7.95,-0.09,28.57
17302,0.3281,-0.0251,0.8708,-6.66,7.91,-0.02,28.59
17312,0.3274,-0.0255,0.8671,-6.6,7.92,-0.02,28.59
17322,0.3279,-0.0259,0.8629,-6.56,8.0,-0.02,28.57
17332,0.3287,-0.0277,0.8619,-6.61,7.94,-0.06,28.57
17342,0.3284,-0.0262,0.8627,-6.63,7.91,0.0,28.55
17352,0.3311,-0.0251,0.8621,-6.58,7.91,-0.02,28.57
17362,0.3281,-0.0245,0.8621,-6.69,7.97,-0.02,28.61
17372,0.3298,-0.0255,0.8672,-6.63,7.95,-0.02,28.58
17382,0.3296,-0.0271,0.8649,-6.61,8.0,-0.09,28.59
17392,0.3274,-0.0259,0.8658,-6.52,8.06,-0.11,28.58
17402,0.327,-0.0267,0.8606,-6.69,7.94,-0.03,28.57
17412,0.3287,-0.0231,0.8634,-6.63,7.85,0.0,28.59
17422,0.3285,-0.0237,0.8602,-6.58,7.95,0.0,28.57
17432,0.3268,-0.0248,0.8696,-6.56,8.0,-0.08,28.58
17442,0.328,-0.0258,0.8639,-6.58,8.02,-0.14,28.59
17452,0.3246,-0.0289,0.8646,-6.61,7.92,-0.14,28.55
17462,0.3281,-0.0256,0.8643,-6.6,7.89,-0.05,28.56
17472,0.3302,-0.0253,0.8654,-6.56,7.91,-0.11,28.58
17482,0.3301,-0.028,0.8658,-6.58,7.97,-0.09,28.58
17492,0.3285,-0.0245,0.8655,-6.58,7.94,-0.06,28.59
17502,0.3291,-0.0247,0.8619,-6.6,7.91,-0.05,28.58
17512,0.3291,-0.0267,0.8622,-6.61,7.91,-0.03,28.59
17522,0.327,-0.0253,0.866,-6.67,7.92,-0.09,28.58
17532,0.3245,-0.0254,0.8639,-6.58,7.92,-0.03,28.59
17542,0.3292,-0.0245,0.8668,-6.64,7.89,-0.03,28.57
17552,0.3267,-0.0277,0.865,-6.55,8.0,-0.02,28.58
17562,0.3289,-0.0248,0.8628,-6.61,7.95,-0.05,28.56
17572,0.3279,-0.0259,0.8662,-6.66,7.92,-0.02,28.56
17582,0.3282,-0.028,0.8622,-6.69,8.03,0.05,28.57
17592,0.327,-0.0256,0.8646,-6.61,8.0,-0.03,28.57
17602,0.3268,-0.0254,0.8615,-6.7,7.95,-0.08,28.58
17612,0.3303,-0.0216,0.8647,-6.66,7.92,-0.06,28.58
17622,0.3295,-0.0251,0.8644,-6.64,7.89,-0.02,28.58
17632,0.3295,-0.0249,0.8669,-6.63,7.95,-0.02,28.57
17642,0.3289,-0.0219,0.8634,-6.64,7.94,-0.11,28.58
17652,0.3295,-0.0244,0.8662,-6.61,7.92,-0.02,28.57
17662,0.3276,-0.0297,0.8624,-6.75,7.95,-0.08,28.58
17672,0.3303,-0.0254,0.8635,-6.6,7.97,-0.05,28.57
17682,0.3289,-0.0215,0.8663,-6.53,7.94,-0.11,28.57
17692,0.3302,-0.025,0.869,-6.61,7.95,-0.11,28.58
17702,0.325,-0.026,0.8647,-6.67,7.94,-0.09,28.59
17712,0.3275,-0.0253,0.8647,-6.72,8.03,0.02,28.56
17722,0.3289,-0.0255,0.8622,-6.66,7.92,-0.08,28.57
17732,0.3278,-0.0249,0.8621,-6.61,7.89,-0.12,28.58
17742,0.3268,-0.0253,0.8679,-6.64,7.94,-0.03,28.57
17752,0.3278,-0.0261,0.8667,-6.69,7.92,-0.02,28.58
17762,0.3303,-0.0273,0.8612,-6.63,7.91,-0.06,28.57
17772,0.3282,-0.0245,0.8655,-6.64,7.92,-0.11,28.6
17782,0.3296,-0.0275,0.8639,-6.63,7.94,-0.08,28.58
17792,0.3302,-0.0244,0.8679,-6.66,7.95,-0.06,28.59
17802,0.3309,-0.0259,0.8674,-6.63,7.91,0.02,28.59
17812,0.328,-0.0264,0.8649,-6.61,7.91,-0.06,28.57
17822,0.3262,-0.0239,0.8665,-6.61,7.97,-0.02,28.58
17832,0.3293,-0.0243,0.8632,-6.69,7.94,-0.09,28.56
17842,0.3289,-0.0236,0.8623,-6.7,7.97,-0.06,28.58
17852,0.3286,-0.0254,0.8634,-6.66,7.95,-0.05,28.59
17862,0.3252,-0.0273,0.8632,-6.67,7.97,0.02,28.58
17872,0.329,-0.025,0.8656,-6.69,7.92,-0.08,28.59
17882,0.329,-0.0286,0.8654,-6.61,7.97,-0.06,28.6
17892,0.3253,-0.0228,0.866,-6.6,7.94,0.06,28.57
17902,0.3282,-0.0261,0.8665,-6.6,7.95,-0.15,28.6
17912,0.3271,-0.0258,0.8636,-6.58,7.94,-0.08,28.59
17922,0.3286,-0.0262,0.8649,-6.63,8.03,-0.12,28.57
17932,0.3265,-0.0275,0.866,-6.61,7.91,-0.05,28.58
17942,0.3264,-0.0245,0.8671,-6.6,7.95,-0.08,28.58
17952,0.3267,-0.0245,0.8652,-6.66,7.92,-0.11,28.58
17962,0.327,-0.0243,0.8635,-6.63,7.97,-0.05,28.58
17972,0.3268,-0.0243,0.861,-6.67,7.98,-0.05,28.59
17982,0.3331,-0.0264,0.8628,-6.61,7.97,-0.12,28.61
17992,0.327,-0.0259,0.8647,-6.64,7.95,-0.08,28.59
18002,0.3252,-0.0261,0.8593,-6.61,8.0,-0.02,28.59
18012,0.3301,-0.0276,0.8591,-6.64,7.98,-0.06,28.57
18022,0.3287,-0.0258,0.8635,-6.64,7.95,-0.09,28.59
18032,0.3269,-0.0272,0.8632,-6.6,7.91,-0.03,28.58
18042,0.3273,-0.024,0.8629,-6.55,7.94,-0.02,28.58
18052,0.3252,-0.025,0.8611,-6.6,7.91,0.0,28.59
18062,0.3287,-0.0245,0.8625,-6.61,7.92,-0.02,28.59
18072,0.328,-0.0287,0.8661,-6.64,7.95,-0.05,28.61
18082,0.3269,-0.0253,0.8608,-6.69,7.91,-0.03,28.61
18092,0.3281,-0.0249,0.8673,-6.67,8.0,-0.14,28.58
18102,0.3274,-0.0265,0.8606,-6.69,7.97,-0.05,28.6
18112,0.3263,-0.0261,0.8667,-6.67,7.98,0.06,28.57
18122,0.3287,-0.0277,0.8615,-6.64,7.86,-0.02,28.59
18132,0.3259,-0.0243,0.8625,-6.72,7.92,-0.06,28.59
18142,0.3282,-0.0289,0.8677,-6.61,7.92,-0.02,28.59
18152,0.3273,-0.0273,0.8617,-6.63,7.92,-0.05,28.58
18162,0.3289,-0.0255,0.8663,-6.63,7.94,-0.05,28.62
18172,0.3276,-0.0255,0.8641,-6.63,7.92,-0.08,28.59
18182,0.3274,-0.0255,0.8613,-6.58,7.98,-0.06,28.58
18192,0.3247,-0.026,0.8612,-6.63,7.95,-0.02,28.6
18202,0.3275,-0.0264,0.8635,-6.64,8.0,0.0,28.6
18212,0.3268,-0.0254,0.8645,-6.72,7.91,-0.03,28.58
18222,0.3271,-0.0255,0.864,-6.63,7.94,-0.05,28.58
18232,0.3291,-0.0267,0.8654,-6.56,7.94,-0.09,28.58
18242,0.3279,-0.0248,0.8661,-6.6,7.88,-0.06,28.59
18252,0.3289,-0.0284,0.8633,-6.64,7.85,-0.02,28.59
18262,0.3221,-0.0258,0.8666,-6.61,7.94,-0.02,28.59
18272,0.3282,-0.0262,0.8615,-6.64,7.94,0.05,28.6
18282,0.3297,-0.026,0.8633,-6.69,7.91,-0.02,28.59
18292,0.3285,-0.0247,0.8629,-6.56,7.91,-0.05,28.6
18302,0.3304,-0.0256,0.8633,-6.63,7.95,0.0,28.62
18312,0.3287,-0.0255,0.864,-6.67,7.94,-0.03,28.59
18322,0.329,-0.0249,0.8636,-6.63,7.94,-0.15,28.6
18332,0.3268,-0.025,0.8624,-6.66,7.89,-0.05,28.6
18342,0.3279,-0.0261,0.8615,-6.64,7.94,0.0,28.6
18352,0.3284,-0.0261,0.863,-6.72,7.89,-0.08,28.59
18362,0.329,-0.025,0.8654,-6.64,7.97,-0.06,28.61
18372,0.328,-0.0237,0.8644,-6.66,7.92,0.0,28.58
18382,0.3293,-0.0256,0.865,-6.63,7.94,-0.02,28.61
18392,0.3276,-0.0262,0.8619,-6.61,7.98,-0.08,28.6
18402,0.3287,-0.0233,0.8644,-6.64,7.94,-0.06,28.58
18412,0.33,-0.0266,0.8647,-6.64,7.91,0.05,28.59
18422,0.3302,-0.024,0.8621,-6.73,7.88,-0.02,28.59
18432,0.3267,-0.0277,0.8683,-6.67,7.92,0.0,28.6
18442,0.3311,-0.0248,0.8649,-6.66,7.95,-0.03,28.61
18452,0.3271,-0.0253,0.8654,-6.56,7.95,-0.09,28.59
18462,0.3276,-0.0261,0.864,-6.7,7.94,0.0,28.62
18472,0.3287,-0.0251,0.8644,-6.67,7.92,-0.08,28.61
18482,0.3324,-0.0265,0.858,-6.69,7.92,-0.06,28.59
18492,0.3268,-0.0284,0.8627,-6.61,7.97,-0.08,28.59
18502,0.3268,-0.0275,0.8643,-6.69,7.91,-0.08,28.59
18512,0.3269,-0.0248,0.8586,-6.6,7.91,-0.05,28.59
18522,0.3292,-0.0237,0.8652,-6.64,7.94,-0.03,28.61
18532,0.3268,-0.024,0.8611,-6.67,7.92,-0.11,28.56
18542,0.328,-0.0287,0.8677,-6.67,7.91,-0.03,28.57
18552,0.3275,-0.024,0.8644,-6.64,7.95,-0.14,28.6
18562,0.3284,-0.0266,0.8621,-6.64,8.02,-0.03,28.6
18572,0.3268,-0.0249,0.8645,-6.63,7.95,-0.09,28.61
18582,0.3296,-0.0243,0.8669,-6.56,7.98,-0.03,28.58
18592,0.3275,-0.0262,0.8638,-6.67,7.88,-0.08,28.62
18602,0.3297,-0.0236,0.8639,-6.63,7.89,0.03,28.61
18612,0.3284,-0.0262,0.8624,-6.64,7.97,-0.05,28.59
18622,0.3286,-0.0262,0.8632,-6.64,7.91,-0.02,28.6
18632,0.3306,-0.0277,0.8628,-6.69,7.95,-0.06,28.58
18642,0.3263,-0.0247,0.8678,-6.61,8.02,-0.02,28.62
18652,0.3278,-0.0239,0.8646,-6.67,7.97,-0.06,28.58
18662,0.3297,-0.0273,0.8647,-6.64,7.95,-0.05,28.59
18672,0.3322,-0.0245,0.8638,-6.69,7.88,-0.06,28.61
18682,0.327,-0.0247,0.8625,-6.66,7.92,-0.09,28.61
18692,0.3268,-0.0255,0.863,-6.66,7.98,-0.05,28.6
18702,0.3278,-0.0261,0.864,-6.63,7.95,-0.02,28.62
18712,0.3263,-0.0272,0.863,-6.69,7.94,-0.02,28.58
18722,0.3265,-0.0236,0.863,-6.6,7.98,-0.02,28.59
18732,0.3289,-0.0251,0.8638,-6.6,7.94,-0.08,28.6
18742,0.3274,-0.0244,0.8611,-6.64,8.0,-0.05,28.62
18752,0.3275,-0.0254,0.8639,-6.58,7.97,-0.03,28.6
18762,0.327,-0.0248,0.8644,-6.61,7.98,0.02,28.62
18772,0.3287,-0.025,0.864,-6.56,7.94,-0.03,28.6
18782,0.3295,-0.0259,0.8676,-6.63,7.89,-0.11,28.61
18792,0.3287,-0.027,0.8639,-6.66,7.95,-0.02,28.62
18802,0.3282,-0.0278,0.8662,-6.75,7.97,0.02,28.61
18812,0.3295,-0.0249,0.8629,-6.58,7.86,-0.03,28.59
18822,0.3292,-0.0238,0.8638,-6.64,7.95,-0.05,28.61
18832,0.326,-0.0264,0.8602,-6.73,7.94,-0.08,28.6
18842,0.3309,-0.0236,0.8604,-6.6,7.91,-0.09,28.59
18852,0.3275,-0.027,0.8632,-6.67,7.94,0.03,28.6
18862,0.3289,-0.0237,0.8639,-6.72,7.95,-0.02,28.61
18872,0.3295,-0.0242,0.8639,-6.61,7.85,-0.06,28.61
18882,0.3268,-0.0264,0.8597,-6.63,7.94,-0.05,28.59
18892,0.3251,-0.024,0.8649,-6.58,7.89,-0.09,28.6
18902,0.329,-0.0254,0.8617,-6.53,7.88,0.05,28.59
18912,0.3275,-0.0277,0.8638,-6.63,7.97,-0.05,28.61
18922,0.3296,-0.0253,0.8658,-6.67,7.95,-0.11,28.59
18932,0.3295,-0.0266,0.8636,-6.66,7.98,-0.03,28.63
18942,0.3285,-0.0271,0.8649,-6.63,7.95,-0.06,28.59
18952,0.328,-0.0271,0.8618,-6.7,7.97,-0.02,28.61
18962,0.3265,-0.0251,0.864,-6.61,7.95,-0.03,28.6
18972,0.3246,-0.0248,0.8622,-6.67,7.94,-0.02,28.6
18982,0.3289,-0.0262,0.8661,-6.67,7.94,-0.03,28.6
18992,0.3286,-0.026,0.861,-6.61,7.94,-0.03,28.62
19002,0.3264,-0.0248,0.8628,-6.64,7.92,0.0,28.62
19012,0.3258,-0.024,0.8671,-6.64,7.91,-0.03,28.59
19022,0.3253,-0.0254,0.8612,-6.58,7.89,0.08,28.61
19032,0.3279,-0.0244,0.8618,-6.6,7.97,0.02,28.6
19042,0.3276,-0.0253,0.8604,-6.63,7.94,-0.02,28.63
19052,0.3278,-0.0266,0.8644,-6.61,7.83,-0.08,28.6
19062,0.3258,-0.0242,0.8619,-6.64,7.92,-0.02,28.6
19072,0.3264,-0.0233,0.8636,-6.66,7.97,-0.05,28.58
19082,0.3287,-0.0247,0.8666,-6.78,7.92,-0.05,28.63
19092,0.3292,-0.0287,0.8665,-6.7,8.06,-0.06,28.61
19102,0.3292,-0.028,0.8644,-6.69,7.94,0.0,28.61
19112,0.3293,-0.0245,0.8628,-6.63,7.91,-0.09,28.61
19122,0.3257,-0.0259,0.863,-6.67,7.94,-0.12,28.6
19132,0.3281,-0.0251,0.8673,-6.69,7.86,-0.06,28.6
19142,0.3309,-0.0238,0.8644,-6.7,7.97,0.0,28.59
19152,0.3289,-0.0269,0.8646,-6.63,7.97,-0.05,28.61
19162,0.33,-0.0245,0.861,-6.58,7.94,-0.06,28.59
19172,0.3251,-0.0261,0.8633,-6.63,7.97,-0.08,28.61
19182,0.3279,-0.0244,0.8645,-6.66,7.88,-0.06,28.6
19192,0.3303,-0.0239,0.8671,-6.64,7.89,-0.05,28.62
19202,0.327,-0.0278,0.8624,-6.76,7.95,0.02,28.58
19212,0.3276,-0.026,0.8645,-6.61,7.91,-0.06,28.61
19222,0.3322,-0.0258,0.8602,-6.55,7.95,-0.09,28.61
19232,0.3278,-0.0233,0.8632,-6.64,7.95,-0.08,28.64
19242,0.3263,-0.0258,0.8621,-6.61,7.98,-0.03,28.62
19252,0.3274,-0.0245,0.8599,-6.7,7.94,-0.08,28.6
19262,0.3286,-0.0249,0.8633,-6.61,7.95,-0.03,28.64
19272,0.3259,-0.0272,0.8617,-6.56,7.97,-0.08,28.61
19282,0.3285,-0.0289,0.8606,-6.66,7.86,-0.06,28.62
19292,0.327,-0.0282,0.8645,-6.64,7.94,-0.03,28.59
19302,0.3286,-0.0223,0.8623,-6.61,8.02,-0.11,28.61
19312,0.3296,-0.024,0.8652,-6.61,7.88,-0.09,28.62
19322,0.3267,-0.0261,0.8676,-6.66,7.95,-0.11,28.63
19332,0.3265,-0.0273,0.8652,-6.69,7.88,-0.03,28.59
19342,0.3302,-0.0256,0.8644,-6.66,7.86,-0.03,28.62
19352,0.3285,-0.0266,0.8624,-6.6,7.95,-0.09,28.6
19362,0.3286,-0.0253,0.866,-6.61,7.97,-0.14,28.59
19372,0.3284,-0.027,0.8639,-6.63,7.92,-0.03,28.6
19382,0.3292,-0.0256,0.8615,-6.61,7.91,-0.03,28.61
19392,0.3269,-0.0243,0.8618,-6.63,7.94,-0.05,28.61
19402,0.3262,-0.0272,0.8658,-6.61,7.94,0.0,28.62
19412,0.328,-0.026,0.8645,-6.63,7.92,-0.05,28.61
19422,0.3303,-0.0247,0.8663,-6.72,7.94,-0.08,28.6
19432,0.3282,-0.0255,0.8647,-6.69,7.95,-0.09,28.59
19442,0.3252,-0.0239,0.859,-6.66,7.94,0.0,28.6
19452,0.3276,-0.0256,0.8641,-6.63,7.95,0.02,28.62
19462,0.327,-0.0275,0.865,-6.6,7.95,-0.11,28.63
19473,0.3284,-0.026,0.8594,-6.72,7.98,-0.02,28.6
19483,0.3311,-0.0284,0.8627,-6.7,7.94,-0.05,28.6
19493,0.3275,-0.0258,0.865,-6.69,7.88,0.02,28.6
19503,0.3269,-0.0284,0.8685,-6.63,7.98,-0.09,28.62
19513,0.3269,-0.022,0.8632,-6.63,7.98,0.0,28.63
19523,0.3267,-0.0251,0.8624,-6.67,7.95,0.05,28.62
19533,0.3269,-0.0258,0.8616,-6.63,7.92,0.05,28.61
19543,0.3268,-0.0278,0.8623,-6.64,7.98,-0.05,28.61
19553,0.3252,-0.0253,0.8661,-6.61,7.92,-0.03,28.62
19563,0.3295,-0.0255,0.8633,-6.73,7.88,-0.09,28.59
19573,0.3267,-0.0249,0.8618,-6.55,7.89,-0.06,28.62
19583,0.3285,-0.0244,0.8646,-6.64,7.86,-0.03,28.6
19593,0.3263,-0.0265,0.863,-6.58,7.94,0.06,28.61
19603,0.3276,-0.0243,0.8623,-6.6,7.92,0.0,28.61
19613,0.3282,-0.0266,0.8645,-6.69,7.91,0.02,28.62
19623,0.3287,-0.0281,0.8665,-6.63,7.95,-0.03,28.59
19633,0.3246,-0.0286,0.8661,-6.63,7.89,-0.05,28.63
19643,0.3276,-0.027,0.8621,-6.53,7.92,-0.05,28.61
19653,0.327,-0.026,0.8646,-6.67,7.91,0.0,28.64
19663,0.33,-0.024,0.864,-6.56,7.97,-0.06,28.59
19673,0.3257,-0.0247,0.8629,-6.56,8.0,-0.09,28.62
19683,0.328,-0.0261,0.8646,-6.66,7.95,-0.06,28.59
19693,0.3296,-0.0256,0.8628,-6.6,7.94,-0.06,28.6
19703,0.3267,-0.0249,0.866,-6.63,7.92,-0.05,28.61
19713,0.3312,-0.0258,0.8618,-6.64,7.92,0.02,28.61
19723,0.3308,-0.0233,0.8643,-6.7,7.92,0.02,28.61
19733,0.3285,-0.0266,0.8687,-6.58,7.91,-0.05,28.59
19743,0.3275,-0.0242,0.8656,-6.64,7.89,-0.03,28.59
19753,0.3306,-0.0292,0.8676,-6.55,8.03,-0.02,28.63
19763,0.3284,-0.0258,0.8623,-6.66,7.94,-0.06,28.61
19773,0.3287,-0.0261,0.861,-6.64,7.95,-0.03,28.62
19783,0.329,-0.0258,0.8641,-6.61,7.91,0.0,28.6
19793,0.3291,-0.0275,0.8594,-6.7,8.0,-0.12,28.6
19803,0.3279,-0.027,0.8621,-6.64,7.94,0.05,28.6
19813,0.3286,-0.0225,0.8629,-6.61,7.94,-0.06,28.63
19823,0.3252,-0.0251,0.8622,-6.58,7.92,-0.05,28.66
19833,0.3304,-0.0273,0.8638,-6.63,7.91,-0.09,28.66
19843,0.3313,-0.024,0.8622,-6.6,7.94,-0.02,28.62
19853,0.3281,-0.0264,0.8622,-6.7,7.97,-0.03,28.64
19863,0.3302,-0.0275,0.8671,-6.61,7.95,-0.02,28.61
19873,0.3262,-0.0265,0.8658,-6.6,7.97,-0.05,28.62
19883,0.3271,-0.024,0.865,-6.64,7.91,-0.02,28.62
19893,0.3291,-0.0245,0.8608,-6.66,7.95,-0.03,28.64
19903,0.3278,-0.0236,0.8633,-6.63,8.02,-0.06,28.58
19913,0.3301,-0.025,0.8656,-6.64,7.97,0.0,28.6
19923,0.3257,-0.0269,0.8641,-6.63,8.02,-0.02,28.64
19933,0.3287,-0.0244,0.8654,-6.66,7.94,0.02,28.61
19943,0.3271,-0.0248,0.8625,-6.64,7.92,0.06,28.62
19953,0.328,-0.0259,0.861,-6.66,7.94,-0.06,28.6
19963,0.3253,-0.0249,0.864,-6.7,7.94,-0.09,28.61
19973,0.329,-0.0265,0.868,-6.63,7.95,0.05,28.62
19983,0.3278,-0.026,0.8674,-6.56,7.95,0.02,28.63
19993,0.3301,-0.0261,0.8602,-6.56,7.94,-0.02,28.64
20003,0.3318,-0.0267,0.8673,-6.63,7.88,-0.05,28.62
20013,0.3275,-0.0243,0.8643,-6.61,7.97,0.03,28.62
20023,0.328,-0.024,0.8666,-6.69,7.94,0.0,28.61
20033,0.3285,-0.0267,0.8679,-6.6,7.98,-0.09,28.61
20043,0.3278,-0.0264,0.8652,-6.66,7.91,0.03,28.61
20053,0.3314,-0.0247,0.8652,-6.6,7.91,-0.03,28.59
20063,0.3304,-0.0276,0.8632,-6.63,7.89,-0.03,28.62
20073,0.3282,-0.0233,0.8619,-6.61,7.94,-0.11,28.62
20083,0.3295,-0.0256,0.8662,-6.6,7.97,0.0,28.62
20093,0.328,-0.024,0.8638,-6.66,7.97,-0.06,28.63
20103,0.3271,-0.0249,0.8635,-6.63,7.98,-0.06,28.59
20113,0.3269,-0.0272,0.8613,-6.69,7.97,-0.08,28.63
20123,0.3264,-0.0238,0.8624,-6.66,7.95,-0.06,28.63
20133,0.3252,-0.0282,0.8643,-6.7,7.85,-0.05,28.6
20143,0.3284,-0.025,0.8623,-6.55,8.0,-0.11,28.62
20153,0.3287,-0.0233,0.8666,-6.63,7.92,-0.06,28.64
20163,0.327,-0.0239,0.8611,-6.72,7.94,-0.05,28.63
20173,0.3297,-0.0258,0.8607,-6.58,7.94,0.0,28.61
20183,0.3304,-0.025,0.8596,-6.58,7.86,-0.09,28.62
20193,0.3293,-0.0265,0.8625,-6.66,7.92,-0.11,28.63
20203,0.327,-0.0251,0.8658,-6.6,8.0,0.02,28.63
20213,0.3293,-0.0277,0.861,-6.63,7.91,-0.05,28.63
20223,0.33,-0.0247,0.8643,-6.56,7.89,-0.02,28.62
20233,0.3293,-0.0278,0.869,-6.63,8.0,0.0,28.63
20243,0.3286,-0.027,0.8616,-6.58,7.95,0.0,28.59
20253,0.3271,-0.025,0.8638,-6.55,7.95,0.08,28.61
20263,0.3267,-0.0256,0.8635,-6.61,7.94,-0.03,28.64
20273,0.3268,-0.024,0.8662,-6.61,7.92,0.0,28.62
20283,0.3265,-0.024,0.8633,-6.66,7.94,-0.02,28.62
20293,0.3275,-0.0258,0.8662,-6.61,7.89,-0.02,28.64
20303,0.3278,-0.0262,0.8644,-6.63,7.95,-0.05,28.61
20313,0.327,-0.0277,0.8661,-6.61,7.94,-0.14,28.61
20323,0.3281,-0.0259,0.8654,-6.66,7.94,-0.08,28.62
20333,0.3281,-0.0282,0.8649,-6.61,7.97,-0.06,28.63
20343,0.3264,-0.0272,0.8668,-6.58,7.94,0.02,28.61
20353,0.329,-0.0281,0.8636,-6.69,7.94,0.0,28.62
20363,0.3265,-0.0289,0.8639,-6.66,7.89,-0.03,28.63
20373,0.3285,-0.0245,0.8599,-6.67,7.85,0.0,28.64
20383,0.3298,-0.0286,0.864,-6.61,7.94,-0.09,28.63
20393,0.3281,-0.0238,0.8602,-6.6,7.89,0.02,28.63
20403,0.3291,-0.0245,0.865,-6.69,7.95,-0.03,28.63
20413,0.3284,-0.0271,0.8623,-6.66,7.86,-0.06,28.63
20423,0.3273,-0.0262,0.8669,-6.64,7.94,-0.08,28.62
20433,0.328,-0.0251,0.8627,-6.61,7.94,-0.02,28.63
20443,0.3274,-0.0256,0.8608,-6.72,7.92,-0.06,28.62
20453,0.3265,-0.0266,0.8672,-6.66,7.98,-0.02,28.61
20463,0.3263,-0.0242,0.8667,-6.7,7.97,-0.05,28.64
20473,0.3278,-0.0251,0.8649,-6.66,7.92,0.0,28.64
20483,0.3298,-0.0288,0.8586,-6.67,7.89,-0.08,28.62
20493,0.3282,-0.0289,0.8628,-6.6,7.89,0.02,28.6
20503,0.3291,-0.0289,0.8672,-6.61,7.95,-0.05,28.62
20513,0.3291,-0.0255,0.8639,-6.61,7.98,-0.11,28.62
20523,0.3309,-0.0272,0.8594,-6.66,7.89,-0.03,28.63
20533,0.3269,-0.0254,0.8629,-6.6,7.94,-0.02,28.62
20543,0.3282,-0.0227,0.8668,-6.63,7.98,-0.03,28.62
20553,0.3269,-0.0258,0.866,-6.53,7.89,-0.02,28.63
20563,0.3281,-0.0262,0.8644,-6.64,7.91,-0.03,28.62
20573,0.3278,-0.0255,0.8639,-6.6,7.94,-0.06,28.62
20583,0.3297,-0.0237,0.8649,-6.63,7.95,-0.09,28.64
20593,0.3292,-0.0264,0.8654,-6.66,8.0,-0.09,28.62
20603,0.3279,-0.0278,0.8608,-6.66,7.89,-0.03,28.64
20613,0.329,-0.0267,0.8635,-6.66,7.97,-0.06,28.65
20623,0.328,-0.0264,0.864,-6.75,7.92,-0.08,28.63
20633,0.3306,-0.025,0.8674,-6.73,7.92,-0.05,28.65
20643,0.3262,-0.0275,0.8638,-6.66,7.95,-0.06,28.64
20653,0.3292,-0.0262,0.8613,-6.6,7.94,-0.08,28.65
20663,0.3282,-0.0229,0.8684,-6.58,7.92,-0.02,28.64
20673,0.3289,-0.0284,0.861,-6.58,8.02,0.02,28.64
20683,0.3289,-0.0244,0.8611,-6.66,7.89,-0.03,28.62
20693,0.329,-0.0289,0.8613,-6.6,7.89,-0.02,28.65
20703,0.3254,-0.0226,0.8638,-6.67,7.86,-0.08,28.64
20713,0.3265,-0.0251,0.8676,-6.61,7.92,0.0,28.61
20723,0.3274,-0.0273,0.8638,-6.69,7.98,-0.02,28.64
20733,0.3304,-0.0262,0.8624,-6.61,7.92,-0.05,28.66
20743,0.326,-0.0254,0.863,-6.61,7.97,-0.02,28.62
20753,0.3256,-0.0248,0.8677,-6.63,7.92,-0.02,28.62
20763,0.3289,-0.0259,0.8574,-6.63,7.91,-0.03,28.64
20773,0.327,-0.0251,0.8639,-6.63,7.92,-0.03,28.62
20783,0.3273,-0.0245,0.8627,-6.63,7.91,-0.11,28.66
20793,0.327,-0.0245,0.8634,-6.61,7.88,-0.06,28.63
20803,0.3278,-0.0276,0.8624,-6.61,7.89,-0.09,28.63
20813,0.3246,-0.0239,0.8656,-6.67,7.91,-0.03,28.62
20823,0.3284,-0.027,0.8627,-6.67,7.86,-0.02,28.64
20833,0.3273,-0.0248,0.8657,-6.52,7.89,-0.05,28.65
20843,0.3278,-0.0253,0.865,-6.63,7.97,-0.05,28.63
20853,0.3274,-0.0256,0.8638,-6.58,7.97,-0.06,28.65
20863,0.3295,-0.0236,0.8641,-6.72,7.92,-0.12,28.64
20873,0.3284,-0.0242,0.8607,-6.58,7.94,-0.05,28.63
20883,0.3287,-0.0264,0.8647,-6.69,7.91,0.05,28.64
20893,0.3306,-0.025,0.8629,-6.64,7.95,-0.11,28.64
20903,0.3279,-0.0256,0.8606,-6.66,7.91,-0.06,28.63
20913,0.3273,-0.0258,0.8628,-6.66,7.89,-0.08,28.62
20923,0.3293,-0.0258,0.8654,-6.61,7.92,-0.05,28.64
20933,0.3279,-0.026,0.8608,-6.67,7.94,-0.14,28.62
20943,0.3286,-0.0233,0.8618,-6.66,7.94,-0.03,28.64
20953,0.3265,-0.028,0.8616,-6.63,7.94,0.0,28.63
20963,0.3275,-0.0242,0.8617,-6.66,7.97,-0.05,28.66
20973,0.3289,-0.0236,0.8605,-6.64,7.94,-0.06,28.66
20983,0.329,-0.0236,0.8657,-6.72,7.95,-0.05,28.65
20993,0.3307,-0.028,0.8656,-6.66,7.97,-0.05,28.63
21003,0.329,-0.0277,0.8647,-6.69,7.91,-0.05,28.63
21013,0.3287,-0.028,0.8655,-6.6,7.92,-0.08,28.63
21023,0.3286,-0.0264,0.8633,-6.6,7.95,-0.02,28.61
21033,0.3304,-0.0267,0.8629,-6.64,7.95,0.0,28.63
21043,0.327,-0.0231,0.8629,-6.69,7.95,0.03,28.62
21053,0.3268,-0.0237,0.8602,-6.61,7.85,-0.09,28.64
21063,0.3282,-0.0258,0.8644,-6.6,7.91,-0.12,28.65
21073,0.3284,-0.0255,0.8651,-6.67,7.98,-0.06,28.64
21083,0.3268,-0.0248,0.8668,-6.63,7.89,0.0,28.62
21093,0.3257,-0.025,0.8618,-6.67,7.95,-0.05,28.64
21103,0.3308,-0.0258,0.8662,-6.69,7.98,-0.06,28.65
21113,0.3269,-0.0258,0.869,-6.61,7.88,-0.08,28.64
21123,0.3262,-0.0266,0.8633,-6.67,7.92,-0.05,28.63
21133,0.3284,-0.0261,0.8634,-6.7,7.86,0.06,28.64
21143,0.3287,-0.0225,0.8641,-6.5,7.94,-0.11,28.66
21153,0.329,-0.0262,0.8663,-6.66,7.98,-0.03,28.65
21163,0.3276,-0.0253,0.8649,-6.66,7.94,-0.06,28.62
21173,0.3264,-0.0231,0.8656,-6.72,7.97,-0.03,28.65
21183,0.332,-0.0233,0.8689,-6.7,7.97,-0.08,28.64
21193,0.3269,-0.0282,0.8654,-6.6,7.88,-0.05,28.65
21203,0.3279,-0.0297,0.8611,-6.58,8.0,-0.06,28.63
21213,0.3286,-0.025,0.8647,-6.58,7.97,0.02,28.65
21223,0.3293,-0.0269,0.8651,-6.64,8.03,0.02,28.65
21233,0.329,-0.0253,0.8628,-6.67,7.98,-0.02,28.63
21243,0.33,-0.0247,0.8604,-6.63,8.03,-0.02,28.65
21253,0.329,-0.0273,0.8613,-6.69,7.97,-0.05,28.64
21263,0.324,-0.0254,0.866,-6.6,7.94,-0.06,28.63
21273,0.3257,-0.0264,0.8633,-6.69,7.86,-0.03,28.65
21283,0.3286,-0.0254,0.8616,-6.69,7.94,0.03,28.62
21293,0.3284,-0.0262,0.8638,-6.64,7.94,-0.02,28.66
21303,0.3275,-0.0273,0.8635,-6.61,7.92,-0.08,28.64
21313,0.3293,-0.0284,0.8624,-6.56,7.98,-0.03,28.64
21323,0.3276,-0.0255,0.8618,-6.6,7.94,-0.05,28.66
21333,0.3269,-0.0272,0.864,-6.61,7.92,-0.05,28.66
21343,0.3303,-0.0277,0.8635,-6.58,7.95,0.0,28.63
21353,0.3289,-0.0226,0.8644,-6.66,7.91,-0.02,28.65
21363,0.3265,-0.0247,0.8651,-6.58,7.83,-0.08,28.66
21373,0.3282,-0.0266,0.8647,-6.7,7.89,-0.08,28.67
21383,0.3278,-0.0283,0.8665,-6.69,7.91,0.0,28.64
21393,0.3278,-0.0228,0.8671,-6.63,7.95,-0.02,28.65
21403,0.3256,-0.0256,0.8625,-6.69,7.89,0.02,28.67
21413,0.3297,-0.0255,0.8655,-6.64,7.85,0.03,28.65
21423,0.3281,-0.0254,0.8634,-6.56,7.89,-0.03,28.66
21433,0.3296,-0.0261,0.8639,-6.66,7.95,-0.06,28.66
21443,0.3268,-0.0255,0.8625,-6.6,7.94,-0.05,28.65
21453,0.3254,-0.0251,0.8612,-6.67,7.97,-0.02,28.66
21463,0.328,-0.0278,0.8636,-6.61,7.86,0.0,28.64
21473,0.33,-0.0287,0.8641,-6.63,7.94,-0.03,28.65
21483,0.3287,-0.0272,0.8644,-6.69,7.92,0.0,28.63
21493,0.328,-0.0265,0.8647,-6.6,7.89,-0.02,28.65
21503,0.3287,-0.0251,0.8606,-6.63,7.92,-0.03,28.66
21513,0.3297,-0.0275,0.8599,-6.64,7.95,-0.02,28.65
21524,0.329,-0.0278,0.8624,-6.7,7.92,-0.05,28.63
21534,0.3263,-0.0245,0.8633,-6.67,7.95,-0.05,28.62
21544,0.3281,-0.0266,0.8615,-6.6,7.92,0.0,28.64
21554,0.3252,-0.0278,0.8643,-6.63,7.91,-0.05,28.66
21564,0.3287,-0.0229,0.8646,-6.6,7.95,0.06,28.64
21574,0.3287,-0.0287,0.8636,-6.55,7.92,-0.05,28.64
21584,0.3291,-0.0273,0.8607,-6.64,7.94,-0.11,28.66
21594,0.328,-0.0254,0.8651,-6.72,7.95,-0.03,28.65
21604,0.328,-0.0236,0.8657,-6.64,7.91,-0.03,28.66
21614,0.329,-0.0266,0.8624,-6.6,7.97,-0.11,28.63
21624,0.3279,-0.0259,0.8645,-6.6,7.94,-0.14,28.65
21634,0.3295,-0.0242,0.8611,-6.61,7.92,-0.06,28.63
21644,0.3268,-0.0248,0.8657,-6.69,7.86,0.03,28.64
21654,0.3292,-0.0266,0.8657,-6.61,7.89,-0.14,28.62
21664,0.3263,-0.0253,0.8662,-6.52,7.92,-0.06,28.65
21674,0.3258,-0.0286,0.8654,-6.64,7.91,0.0,28.66
21684,0.3306,-0.0277,0.8661,-6.6,7.97,-0.09,28.66
21694,0.329,-0.0244,0.8679,-6.61,7.91,-0.08,28.63
21704,0.33,-0.0267,0.866,-6.69,7.92,-0.06,28.63
21714,0.3257,-0.0255,0.8619,-6.67,7.91,-0.03,28.64
21724,0.3275,-0.0264,0.863,-6.73,7.97,-0.06,28.66
21734,0.3284,-0.0259,0.8657,-6.69,7.92,-0.05,28.67
21744,0.329,-0.0259,0.8645,-6.67,7.97,-0.02,28.64
21754,0.328,-0.0245,0.8604,-6.63,7.97,-0.06,28.64
21764,0.3301,-0.0259,0.8633,-6.64,7.92,0.02,28.66
21774,0.3273,-0.0281,0.8619,-6.64,7.94,-0.02,28.65
21784,0.3281,-0.0266,0.8649,-6.61,7.95,-0.05,28.64
21794,0.3276,-0.025,0.8634,-6.53,7.91,-0.06,28.64
21804,0.3265,-0.027,0.8632,-6.64,7.91,-0.02,28.65
21814,0.3295,-0.025,0.8599,-6.69,7.92,-0.02,28.64
21824,0.3289,-0.0258,0.8639,-6.66,7.97,-0.02,28.65
21834,0.328,-0.0249,0.864,-6.64,7.91,0.02,28.65
21844,0.3292,-0.0259,0.8622,-6.58,8.0,-0.06,28.65
21854,0.3275,-0.028,0.8656,-6.66,7.97,-0.06,28.65
21864,0.329,-0.0272,0.864,-6.64,7.94,-0.05,28.67
21874,0.3269,-0.0254,0.8623,-6.66,7.94,0.03,28.65
21884,0.3313,-0.0272,0.8644,-6.63,7.91,-0.06,28.68
21894,0.3278,-0.026,0.8584,-6.69,7.91,-0.05,28.65
21904,0.3287,-0.0256,0.8657,-6.69,7.95,-0.05,28.65
21914,0.3282,-0.0264,0.8619,-6.58,7.92,-0.05,28.66
21924,0.3293,-0.0249,0.861,-6.49,7.95,-0.08,28.66
21934,0.3263,-0.0262,0.8635,-6.67,7.95,-0.06,28.66
21944,0.3264,-0.0261,0.8624,-6.67,7.95,0.0,28.66
21954,0.3257,-0.0259,0.8656,-6.7,7.91,-0.05,28.65
21964,0.3267,-0.0248,0.8663,-6.66,7.89,0.0,28.67
21974,0.3287,-0.0291,0.8666,-6.61,7.88,-0.09,28.65
21984,0.3274,-0.0255,0.8669,-6.67,7.98,-0.05,28.68
21994,0.3279,-0.0248,0.8651,-6.6,7.89,-0.03,28.67
22004,0.3289,-0.0245,0.865,-6.66,7.91,-0.09,28.67
22014,0.3257,-0.0256,0.8633,-6.61,7.95,-0.06,28.65
22024,0.3278,-0.0271,0.8656,-6.61,7.95,-0.06,28.65
22034,0.3247,-0.0226,0.8656,-6.69,7.98,-0.09,28.68
22044,0.3278,-0.026,0.8619,-6.61,7.86,-0.06,28.66
22054,0.3291,-0.0269,0.8618,-6.63,7.94,-0.12,28.65
22064,0.3286,-0.0223,0.8608,-6.63,7.94,0.0,28.65
22074,0.3274,-0.0253,0.8634,-6.6,7.92,-0.03,28.66
22084,0.3289,-0.0272,0.8594,-6.61,7.88,0.03,28.66
22094,0.3282,-0.0231,0.8611,-6.64,7.88,-0.06,28.66
22104,0.3284,-0.0249,0.865,-6.61,7.91,-0.06,28.64
22114,0.3275,-0.0231,0.8668,-6.7,7.92,-0.03,28.67
22124,0.3271,-0.0261,0.8677,-6.72,7.94,0.0,28.66
22134,0.3275,-0.0251,0.864,-6.61,7.89,-0.11,28.67
22144,0.3267,-0.0238,0.864,-6.75,7.88,0.02,28.66
22154,0.3254,-0.0261,0.8615,-6.61,7.92,0.0,28.65
22164,0.3296,-0.0264,0.8633,-6.55,7.95,-0.03,28.66
22174,0.3256,-0.026,0.8662,-6.61,7.88,0.02,28.67
22184,0.3291,-0.0258,0.8629,-6.67,7.92,-0.05,28.67
22194,0.3279,-0.0266,0.8666,-6.63,7.95,-0.05,28.65
22204,0.3295,-0.0249,0.8665,-6.69,7.89,-0.03,28.65
22214,0.3269,-0.024,0.8624,-6.63,7.88,-0.05,28.67
22224,0.3287,-0.0261,0.8644,-6.58,7.92,-0.02,28.65
22235,0.3279,-0.0273,0.8676,-6.69,7.95,-0.05,28.62
22245,0.3268,-0.0265,0.8634,-6.55,7.98,-0.06,28.67
22255,0.329,-0.0265,0.8604,-6.52,7.97,-0.12,28.64
22265,0.3268,-0.0262,0.8607,-6.75,7.94,-0.06,28.65
22275,0.327,-0.0253,0.864,-6.75,7.94,-0.05,28.65
22285,0.3312,-0.0231,0.8651,-6.66,7.85,0.05,28.66
22295,0.3293,-0.0244,0.8661,-6.76,7.89,-0.06,28.64
22305,0.3271,-0.0255,0.8644,-6.67,7.97,-0.06,28.67
22315,0.3281,-0.024,0.8622,-6.61,7.95,-0.05,28.67
22325,0.3292,-0.0217,0.8644,-6.69,7.95,-0.05,28.65
22335,0.3293,-0.0233,0.8638,-6.6,7.91,-0.02,28.66
22345,0.3298,-0.0233,0.863,-6.6,7.94,0.06,28.63
22355,0.3273,-0.0238,0.8684,-6.63,7.95,-0.03,28.66
22365,0.3275,-0.026,0.8613,-6.6,8.02,-0.05,28.65
22375,0.3308,-0.0288,0.8617,-6.7,7.92,-0.03,28.65
22385,0.328,-0.0275,0.8613,-6.58,7.94,-0.08,28.69
22395,0.3286,-0.0286,0.8606,-6.61,7.97,-0.05,28.68
22405,0.3264,-0.0271,0.8634,-6.61,7.89,-0.03,28.67
22415,0.33,-0.0248,0.8617,-6.6,7.95,-0.06,28.69
22425,0.329,-0.0261,0.859,-6.61,7.92,-0.02,28.65
22435,0.3298,-0.028,0.8651,-6.61,7.92,0.0,28.65
22445,0.3282,-0.0272,0.8646,-6.55,8.03,0.02,28.66
22455,0.3302,-0.0255,0.8628,-6.58,7.91,-0.06,28.67
22465,0.327,-0.0297,0.8623,-6.69,7.94,-0.06,28.66
22475,0.3284,-0.0247,0.8651,-6.69,7.97,-0.03,28.64
22485,0.3279,-0.0254,0.8623,-6.56,7.98,-0.06,28.67
22495,0.3268,-0.0238,0.8594,-6.67,7.95,-0.09,28.65
22505,0.3303,-0.0247,0.8616,-6.58,8.0,-0.05,28.66
22515,0.3285,-0.0243,0.8613,-6.6,7.91,-0.03,28.66
22525,0.3278,-0.0232,0.8627,-6.63,7.92,-0.11,28.64
22535,0.3286,-0.0262,0.866,-6.64,7.86,-0.08,28.69
22545,0.3275,-0.0248,0.8583,-6.69,7.94,-0.09,28.68
22555,0.3281,-0.0278,0.8647,-6.61,7.89,-0.06,28.65
22565,0.3278,-0.026,0.8641,-6.7,7.98,-0.05,28.68
22575,0.3259,-0.025,0.8652,-6.58,7.95,-0.05,28.67
22585,0.3273,-0.0287,0.8638,-6.61,7.85,-0.03,28.68
22595,0.3276,-0.0275,0.8655,-6.56,7.95,-0.03,28.66
22605,0.3245,-0.0256,0.8625,-6.63,8.0,0.02,28.65
22615,0.3264,-0.0248,0.8607,-6.67,7.98,-0.03,28.65
22626,0.3264,-0.0271,0.8655,-6.67,7.86,-0.02,28.66
22636,0.3286,-0.0281,0.8616,-6.58,7.94,-0.03,28.67
22646,0.3301,-0.0248,0.8593,-6.61,7.95,0.02,28.67
22656,0.3276,-0.0269,0.8602,-6.66,7.91,-0.03,28.66
22666,0.327,-0.0265,0.8677,-6.66,7.85,-0.08,28.67
22676,0.3286,-0.0255,0.8663,-6.63,7.91,-0.05,28.66
22686,0.3278,-0.0267,0.8627,-6.64,7.95,-0.08,28.66
22696,0.3303,-0.0251,0.8624,-6.6,7.94,-0.03,28.68
22706,0.3293,-0.025,0.8667,-6.61,7.94,-0.05,28.65
22716,0.3287,-0.0266,0.8599,-6.66,7.91,-0.05,28.66
22726,0.3311,-0.0249,0.8652,-6.64,7.92,-0.06,28.65
22736,0.326,-0.0227,0.8608,-6.66,7.97,-0.11,28.68
22746,0.3281,-0.0278,0.861,-6.69,7.94,-0.03,28.67
22756,0.3268,-0.0265,0.8613,-6.61,7.89,-0.03,28.67
22766,0.3289,-0.0273,0.8634,-6.61,7.91,-0.09,28.67
22776,0.3285,-0.025,0.864,-6.67,7.95,-0.05,28.67
22786,0.3291,-0.0276,0.8623,-6.6,7.88,-0.09,28.67
22796,0.3258,-0.0283,0.8634,-6.69,7.94,-0.08,28.67
22806,0.3278,-0.0286,0.8615,-6.64,7.91,-0.06,28.66
22816,0.3308,-0.0264,0.8621,-6.52,7.91,-0.05,28.67
22826,0.3326,-0.0251,0.8635,-6.63,7.91,-0.02,28.67
22836,0.33,-0.024,0.865,-6.69,7.91,-0.08,28.67
22847,0.3296,-0.0276,0.8621,-6.64,7.95,-0.11,28.66
22857,0.3297,-0.0265,0.8619,-6.64,7.95,-0.06,28.66
22867,0.3285,-0.026,0.8623,-6.67,7.86,-0.05,28.68
22877,0.3311,-0.0291,0.8649,-6.66,7.94,-0.02,28.67
22887,0.3296,-0.025,0.8633,-6.6,7.89,-0.08,28.67
22897,0.3284,-0.0242,0.8666,-6.63,7.97,-0.03,28.67
22907,0.3287,-0.0258,0.8677,-6.64,7.91,0.02,28.68
22917,0.3307,-0.027,0.8639,-6.67,7.97,-0.05,28.69
22927,0.3301,-0.0244,0.8644,-6.69,7.92,-0.02,28.68
22937,0.3256,-0.0243,0.8668,-6.64,7.95,-0.08,28.68
22947,0.3256,-0.0238,0.866,-6.56,7.92,-0.05,28.68
22957,0.3306,-0.0291,0.8641,-6.64,7.91,-0.02,28.65
22967,0.3279,-0.0259,0.8669,-6.55,7.92,-0.02,28.66
22977,0.3289,-0.0275,0.863,-6.6,7.95,-0.03,28.67
22987,0.3267,-0.0248,0.861,-6.63,7.89,-0.09,28.67
22997,0.3307,-0.0228,0.865,-6.66,7.91,-0.02,28.67
23007,0.3307,-0.0258,0.8621,-6.6,7.98,-0.09,28.68
23017,0.329,-0.0265,0.8618,-6.55,7.95,-0.05,28.69
23027,0.3276,-0.0267,0.8633,-6.53,7.94,-0.03,28.65
23037,0.3284,-0.0271,0.8628,-6.67,7.88,0.0,28.67
23047,0.328,-0.0266,0.8624,-6.6,7.89,0.02,28.69
23058,0.3281,-0.026,0.8643,-6.64,7.95,-0.02,28.67
23068,0.3279,-0.0254,0.8601,-6.61,7.95,-0.08,28.67
23078,0.3268,-0.0271,0.8629,-6.66,7.97,-0.05,28.65
23088,0.3282,-0.0248,0.8613,-6.61,7.94,0.0,28.67
23098,0.3269,-0.0254,0.8649,-6.61,7.92,-0.02,28.67
23108,0.324,-0.0278,0.8596,-6.63,7.92,0.03,28.68
23118,0.3267,-0.0255,0.8625,-6.58,7.95,-0.11,28.67
23128,0.3278,-0.0249,0.8624,-6.61,7.91,-0.05,28.68
23138,0.3275,-0.024,0.8641,-6.64,7.89,0.09,28.67
23148,0.3259,-0.0255,0.865,-6.64,7.91,-0.08,28.67
23158,0.3276,-0.0249,0.8635,-6.58,7.94,-0.06,28.66
23168,0.3281,-0.0244,0.8629,-6.66,7.92,0.05,28.66
23178,0.3291,-0.0282,0.865,-6.64,7.91,-0.09,28.65
23188,0.3304,-0.0262,0.8671,-6.66,7.89,-0.06,28.69
23198,0.3276,-0.0299,0.8673,-6.64,7.92,0.03,28.68
23208,0.33,-0.0259,0.8627,-6.69,7.97,-0.02,28.67
23218,0.3292,-0.0271,0.8661,-6.66,7.92,-0.02,28.66
23228,0.3285,-0.0281,0.8639,-6.61,7.97,-0.03,28.66
23238,0.3254,-0.0233,0.8611,-6.66,7.92,-0.03,28.66
23248,0.3312,-0.0251,0.8597,-6.58,7.97,-0.02,28.67
23258,0.328,-0.0271,0.8649,-6.72,7.92,-0.05,28.64
23268,0.3275,-0.0278,0.8647,-6.63,7.91,-0.06,28.69
23278,0.3253,-0.0242,0.8628,-6.61,7.92,-0.03,28.68
23288,0.3234,-0.0247,0.8661,-6.6,7.95,-0.02,28.66
23298,0.3296,-0.026,0.8663,-6.58,7.95,-0.02,28.66
23308,0.33,-0.0266,0.864,-6.64,7.89,-0.02,28.68
23318,0.3258,-0.0271,0.8629,-6.64,7.95,-0.08,28.67
23328,0.3273,-0.0265,0.8612,-6.6,7.94,-0.05,28.69
23338,0.3275,-0.0259,0.8635,-6.72,7.97,-0.08,28.67
23348,0.3265,-0.0291,0.8601,-6.63,7.95,0.02,28.65
23358,0.3285,-0.0266,0.8629,-6.66,7.91,-0.02,28.67
23368,0.327,-0.0253,0.8635,-6.64,7.94,-0.05,28.67
23378,0.3273,-0.0288,0.8627,-6.69,7.92,-0.02,28.67
23388,0.3291,-0.0234,0.8632,-6.66,7.97,-0.03,28.67
23398,0.3271,-0.0238,0.865,-6.56,7.94,-0.09,28.66
23408,0.3279,-0.0242,0.8628,-6.61,7.89,0.02,28.66
23418,0.3253,-0.0249,0.866,-6.66,7.92,-0.05,28.66
23428,0.3286,-0.0256,0.865,-6.6,7.97,0.03,28.67
23438,0.3258,-0.0254,0.8645,-6.69,7.88,-0.05,28.69
23448,0.3262,-0.0262,0.8641,-6.56,7.92,0.0,28.66
23458,0.3282,-0.0254,0.8596,-6.63,7.85,0.02,28.68
23468,0.3285,-0.0261,0.8639,-6.55,7.95,-0.02,28.69
23478,0.3285,-0.0254,0.8616,-6.61,8.0,-0.08,28.68
23488,0.3284,-0.0256,0.8639,-6.63,7.89,-0.12,28.67
23498,0.3275,-0.0267,0.865,-6.64,7.88,-0.08,28.67
23508,0.3286,-0.0253,0.8635,-6.66,7.92,0.0,28.66
23518,0.328,-0.0265,0.8611,-6.64,7.95,-0.08,28.66
23528,0.3264,-0.0251,0.8602,-6.6,7.94,-0.02,28.68
23538,0.3254,-0.0255,0.8641,-6.69,7.91,-0.05,28.69
23548,0.3268,-0.0253,0.8647,-6.63,7.89,-0.09,28.67
23558,0.3276,-0.0253,0.8646,-6.58,7.89,-0.05,28.67
23568,0.3281,-0.0245,0.8656,-6.63,7.94,-0.12,28.64
23578,0.3273,-0.0247,0.8699,-6.6,7.91,-0.05,28.66
23588,0.3282,-0.0254,0.8665,-6.61,7.94,-0.06,28.68
23599,0.324,-0.0254,0.8662,-6.6,7.91,-0.03,28.65
23609,0.329,-0.0226,0.8634,-6.58,7.88,-0.05,28.66
23619,0.3267,-0.0271,0.8628,-6.67,7.94,-0.09,28.69
23629,0.3297,-0.026,0.864,-6.63,7.88,0.02,28.67
23639,0.3304,-0.0243,0.8683,-6.63,7.82,-0.03,28.67
23649,0.327,-0.0275,0.8646,-6.61,7.88,-0.05,28.69
23659,0.3291,-0.0232,0.8625,-6.61,7.91,-0.08,28.67
23669,0.3287,-0.0254,0.8638,-6.61,7.92,-0.11,28.67
23679,0.3318,-0.0265,0.8619,-6.63,7.91,-0.05,28.67
23689,0.3276,-0.026,0.8623,-6.67,7.95,-0.06,28.7
23699,0.327,-0.0264,0.8645,-6.61,7.95,0.0,28.69
23709,0.3301,-0.0271,0.8699,-6.61,7.95,-0.03,28.67
23719,0.3284,-0.0256,0.8667,-6.64,7.92,-0.09,28.68
23729,0.3298,-0.0265,0.8612,-6.61,7.91,-0.05,28.67
23739,0.3291,-0.0261,0.8623,-6.66,7.91,-0.08,28.68
23749,0.3308,-0.0243,0.8658,-6.7,7.94,-0.06,28.67
23759,0.3268,-0.0259,0.8678,-6.64,7.97,-0.05,28.66
23769,0.3292,-0.0262,0.8649,-6.7,7.95,-0.05,28.68
23779,0.3286,-0.0261,0.8625,-6.64,7.95,-0.11,28.66
23789,0.3291,-0.0243,0.8625,-6.69,7.97,-0.12,28.67
23799,0.3286,-0.0271,0.864,-6.6,7.89,-0.09,28.69
23809,0.329,-0.024,0.8674,-6.61,7.97,-0.06,28.67
23819,0.3273,-0.0271,0.8641,-6.63,7.94,0.02,28.69
23829,0.3254,-0.0247,0.8616,-6.64,7.92,-0.08,28.66
23839,0.3276,-0.025,0.8618,-6.61,7.91,-0.11,28.69
23849,0.33,-0.0256,0.8625,-6.6,7.89,-0.02,28.67
23859,0.3257,-0.0276,0.8636,-6.64,7.89,-0.03,28.69
23869,0.3282,-0.0267,0.8619,-6.66,7.92,-0.09,28.67
23879,0.3308,-0.0258,0.8643,-6.69,7.95,-0.09,28.67
23889,0.3268,-0.0245,0.866,-6.58,7.95,-0.02,28.69
23899,0.3278,-0.0264,0.8632,-6.63,7.89,-0.06,28.68
23909,0.3275,-0.025,0.8636,-6.64,7.94,0.09,28.71
23919,0.3292,-0.0289,0.8683,-6.67,7.97,-0.05,28.69
23929,0.3286,-0.0273,0.8606,-6.63,7.95,-0.09,28.72
23939,0.3232,-0.0225,0.8597,-6.69,7.88,-0.06,28.71
23949,0.3279,-0.0262,0.8628,-6.7,7.97,-0.05,28.69
23959,0.3281,-0.0265,0.8649,-6.66,7.89,-0.05,28.67
23969,0.3286,-0.027,0.8654,-6.66,7.95,0.02,28.68
23979,0.3293,-0.0253,0.8605,-6.55,7.94,-0.06,28.67
23989,0.3268,-0.0255,0.8657,-6.58,7.94,0.0,28.68
23999,0.3276,-0.0243,0.8612,-6.6,7.97,-0.09,28.67
24009,0.3312,-0.0209,0.8646,-6.66,7.95,-0.05,28.66
24019,0.3282,-0.0272,0.8616,-6.66,7.88,-0.12,28.69
24029,0.3301,-0.0271,0.8647,-6.61,7.92,-0.05,28.68
24039,0.3258,-0.0267,0.8646,-6.6,7.95,-0.03,28.69
24049,0.3284,-0.0277,0.8627,-6.63,7.91,-0.05,28.69
24059,0.3286,-0.0254,0.8638,-6.53,7.91,-0.06,28.69
24069,0.3271,-0.0244,0.8654,-6.72,7.89,-0.06,28.68
24079,0.3286,-0.0249,0.8672,-6.69,7.94,-0.08,28.69
24089,0.3273,-0.0248,0.8652,-6.66,7.91,-0.05,28.67
24099,0.3239,-0.0223,0.8671,-6.63,7.88,-0.06,28.69
24109,0.3309,-0.0247,0.8632,-6.69,7.85,-0.05,28.71
24119,0.3296,-0.0253,0.8619,-6.52,7.85,-0.02,28.7
24129,0.329,-0.0228,0.8633,-6.63,7.92,-0.03,28.67
24139,0.3286,-0.0253,0.8643,-6.69,7.95,-0.05,28.67
24149,0.3291,-0.0243,0.8633,-6.67,7.97,-0.11,28.69
24159,0.3253,-0.0249,0.8652,-6.66,7.89,-0.06,28.69
24169,0.3295,-0.0255,0.8656,-6.66,7.91,-0.02,28.69
24179,0.3307,-0.0245,0.8622,-6.64,7.95,-0.03,28.67
24189,0.3265,-0.0247,0.8624,-6.66,7.94,-0.02,28.68
24199,0.3262,-0.025,0.8608,-6.66,7.91,-0.02,28.68
24209,0.3281,-0.0286,0.8652,-6.64,7.92,0.05,28.69
24219,0.3298,-0.0233,0.8596,-6.63,7.94,-0.05,28.71
24229,0.3278,-0.0267,0.8649,-6.6,7.97,-0.02,28.7
24239,0.3273,-0.0236,0.8652,-6.69,7.95,0.02,28.7
24249,0.3279,-0.0267,0.865,-6.64,7.97,-0.06,28.68
24259,0.3273,-0.0266,0.8661,-6.66,7.92,0.0,28.69
24269,0.3302,-0.025,0.866,-6.6,7.95,-0.02,28.67
24279,0.3315,-0.0261,0.8624,-6.6,7.89,-0.03,28.69
24289,0.328,-0.0262,0.8608,-6.63,7.97,-0.05,28.7
24299,0.3312,-0.0271,0.8649,-6.58,7.91,-0.02,28.72
24309,0.3296,-0.0251,0.8627,-6.69,7.97,0.0,28.69
24319,0.3265,-0.0265,0.8643,-6.7,7.91,0.02,28.67
24329,0.3259,-0.0271,0.8595,-6.58,7.88,-0.09,28.71
24339,0.3246,-0.0248,0.8596,-6.56,7.97,-0.11,28.67
24349,0.3271,-0.0284,0.8639,-6.63,7.92,0.03,28.72
24359,0.33,-0.0265,0.8635,-6.58,7.97,0.03,28.7
24369,0.3291,-0.0265,0.8633,-6.64,7.89,-0.06,28.69
24379,0.3307,-0.0247,0.8591,-6.6,7.95,-0.06,28.71
24389,0.3273,-0.0275,0.864,-6.55,7.98,-0.02,28.69
24399,0.3285,-0.025,0.8617,-6.66,7.95,-0.14,28.69
24409,0.329,-0.0267,0.8638,-6.64,7.95,-0.05,28.69
24419,0.3297,-0.0233,0.8651,-6.69,7.89,0.02,28.69
24429,0.3262,-0.024,0.8645,-6.61,7.83,0.0,28.69
24439,0.3264,-0.0243,0.8643,-6.72,7.86,0.02,28.67
24449,0.3275,-0.0271,0.8643,-6.6,7.95,-0.06,28.67
24459,0.3293,-0.0223,0.8665,-6.64,7.92,-0.09,28.68
24469,0.3291,-0.0269,0.8616,-6.58,7.94,-0.05,28.68
24479,0.3274,-0.0286,0.8628,-6.66,7.89,-0.06,28.69
24489,0.3289,-0.0282,0.8667,-6.61,7.89,-0.08,28.67
24499,0.3284,-0.0264,0.8594,-6.72,7.92,-0.02,28.68
24509,0.327,-0.0258,0.864,-6.69,7.94,-0.03,28.71
24519,0.3295,-0.0217,0.8639,-6.67,7.91,-0.03,28.68
24529,0.3278,-0.0261,0.8621,-6.66,7.98,-0.05,28.67
24539,0.3259,-0.0249,0.86,-6.61,8.0,-0.03,28.67
24549,0.3269,-0.0259,0.8604,-6.58,7.97,-0.02,28.69
24559,0.3268,-0.0249,0.8618,-6.7,7.88,-0.05,28.7
24569,0.3269,-0.0253,0.8651,-6.67,7.89,-0.05,28.69
24579,0.3271,-0.028,0.8621,-6.6,7.88,-0.06,28.67
24589,0.3259,-0.0249,0.8616,-6.6,7.97,0.02,28.67
24599,0.3286,-0.0242,0.8663,-6.69,7.97,-0.05,28.69
24609,0.3265,-0.0249,0.8612,-6.6,7.91,-0.05,28.69
24619,0.3274,-0.0283,0.8636,-6.69,7.97,0.0,28.68
24629,0.3269,-0.0271,0.865,-6.7,7.92,-0.02,28.68
24639,0.328,-0.0249,0.8617,-6.63,7.97,-0.02,28.67
24649,0.3251,-0.0229,0.8685,-6.56,7.85,0.03,28.69
24659,0.3296,-0.024,0.8689,-6.66,7.92,-0.03,28.7
24669,0.3291,-0.0262,0.8677,-6.69,7.92,-0.11,28.68
24679,0.3256,-0.0234,0.8605,-6.66,7.97,0.02,28.69
24689,0.326,-0.0228,0.8645,-6.63,7.94,0.0,28.68
24699,0.327,-0.0259,0.8644,-6.67,7.97,-0.05,28.69
24709,0.3302,-0.0237,0.8618,-6.58,7.89,-0.02,28.69
24719,0.3289,-0.0256,0.8607,-6.64,7.97,-0.05,28.72
24729,0.329,-0.0248,0.8632,-6.61,7.98,0.0,28.69
24739,0.3284,-0.0264,0.8667,-6.76,7.92,-0.02,28.67
24750,0.3295,-0.0243,0.8602,-6.58,7.98,-0.06,28.69
24760,0.328,-0.0245,0.8618,-6.67,7.97,-0.05,28.7
24770,0.326,-0.024,0.8651,-6.53,7.95,-0.06,28.69
24780,0.3257,-0.0261,0.8636,-6.56,7.98,-0.05,28.69
24790,0.3293,-0.0254,0.8621,-6.67,7.92,-0.06,28.72
24800,0.3296,-0.0249,0.8638,-6.64,7.98,0.02,28.71
24810,0.3279,-0.026,0.8644,-6.69,7.95,-0.02,28.7
24820,0.3265,-0.026,0.8628,-6.61,7.98,-0.08,28.7
24830,0.3262,-0.0266,0.8596,-6.64,7.91,-0.05,28.71
24840,0.3279,-0.0267,0.8655,-6.63,7.94,0.0,28.72
24850,0.3273,-0.0276,0.8647,-6.66,7.97,0.02,28.69
24860,0.3274,-0.024,0.8635,-6.61,7.89,-0.03,28.69
24870,0.3291,-0.0269,0.8639,-6.64,8.02,-0.02,28.69
24880,0.3286,-0.0245,0.8607,-6.67,7.97,0.03,28.71
24890,0.3276,-0.0251,0.8667,-6.66,7.88,-0.03,28.68
24900,0.3287,-0.0259,0.8632,-6.64,7.94,-0.03,28.69
24910,0.3286,-0.0249,0.8647,-6.64,7.95,-0.09,28.7
24920,0.3276,-0.0255,0.8646,-6.61,7.95,-0.11,28.73
24930,0.3296,-0.0259,0.8625,-6.67,7.98,-0.03,28.71
24940,0.3268,-0.0255,0.8671,-6.52,7.89,0.03,28.72
24950,0.3318,-0.0261,0.8666,-6.58,7.92,-0.05,28.72
24960,0.329,-0.0286,0.8663,-6.69,7.98,-0.08,28.71
24970,0.3265,-0.0256,0.864,-6.55,7.94,-0.03,28.71
24980,0.3273,-0.0269,0.8671,-6.67,7.88,-0.03,28.68
24990,0.3298,-0.0272,0.8645,-6.6,7.91,-0.03,28.71
25000,0.3302,-0.0248,0.8644,-6.69,7.94,-0.03,28.73
25010,0.3258,-0.0269,0.8575,-6.61,7.94,-0.11,28.74
25020,0.3311,-0.0254,0.8618,-6.69,7.91,-0.09,28.7
25030,0.3292,-0.0248,0.8596,-6.7,7.88,0.0,28.69
25040,0.3278,-0.0251,0.8645,-6.6,7.91,-0.03,28.69
25050,0.3275,-0.0249,0.8593,-6.58,7.97,-0.02,28.68
25060,0.326,-0.027,0.8628,-6.75,7.98,-0.03,28.7
25070,0.3285,-0.027,0.8636,-6.73,7.97,0.03,28.72
25080,0.3284,-0.0249,0.8644,-6.61,7.92,-0.12,28.72
25090,0.3293,-0.0261,0.8616,-6.61,7.92,-0.12,28.71
25100,0.3306,-0.0275,0.8689,-6.67,7.97,-0.02,28.72
25110,0.3291,-0.0251,0.861,-6.6,7.92,0.03,28.7
25120,0.3281,-0.0281,0.8613,-6.58,7.98,-0.03,28.71
25130,0.3274,-0.0247,0.8641,-6.61,7.91,-0.03,28.7
25140,0.3296,-0.0254,0.8619,-6.63,7.94,0.02,28.69
25150,0.3304,-0.0256,0.864,-6.63,7.86,-0.06,28.7
25160,0.3282,-0.0266,0.8628,-6.61,7.88,-0.03,28.7
25170,0.3307,-0.0244,0.865,-6.72,7.95,-0.06,28.71
25180,0.3291,-0.0247,0.8639,-6.64,8.0,-0.09,28.73
25190,0.329,-0.027,0.864,-6.6,7.97,0.0,28.71
25200,0.327,-0.0259,0.8588,-6.66,7.95,0.02,28.69
25210,0.3297,-0.0249,0.8627,-6.69,7.97,-0.02,28.69
25220,0.327,-0.0273,0.8654,-6.55,7.98,-0.03,28.7
25230,0.3271,-0.0272,0.8589,-6.64,7.92,-0.03,28.71
25240,0.328,-0.0227,0.8599,-6.63,7.92,0.05,28.7
25250,0.3271,-0.0238,0.8625,-6.69,7.95,-0.05,28.7
25260,0.3275,-0.0253,0.8658,-6.69,7.98,-0.14,28.69
25270,0.3271,-0.027,0.8632,-6.69,7.95,0.0,28.69
25280,0.3252,-0.0222,0.8619,-6.66,7.91,0.08,28.72
25290,0.328,-0.0258,0.8649,-6.6,7.94,-0.06,28.72
25300,0.3292,-0.0265,0.8623,-6.66,7.95,-0.03,28.71
25310,0.3276,-0.024,0.8639,-6.69,7.95,0.0,28.71
25320,0.3267,-0.0253,0.8651,-6.66,7.97,-0.11,28.71
25330,0.3296,-0.0256,0.8627,-6.56,7.92,-0.03,28.69
25340,0.327,-0.0256,0.8612,-6.67,7.89,-0.06,28.72
25350,0.3262,-0.0271,0.8616,-6.67,7.94,-0.08,28.7
25360,0.3285,-0.0234,0.864,-6.6,8.02,-0.12,28.71
25370,0.3276,-0.0237,0.8633,-6.7,8.0,-0.11,28.7
25380,0.3302,-0.0249,0.8599,-6.58,7.92,-0.03,28.72
25390,0.3286,-0.025,0.8639,-6.56,7.94,-0.03,28.71
25400,0.3285,-0.0271,0.8605,-6.69,7.91,-0.03,28.73
25410,0.3275,-0.0255,0.8665,-6.67,7.91,-0.02,28.7
25420,0.328,-0.0264,0.864,-6.69,7.94,-0.06,28.72
25430,0.3307,-0.0275,0.8619,-6.6,7.89,0.02,28.7
25440,0.3271,-0.0248,0.8655,-6.66,7.91,-0.05,28.71
25450,0.3258,-0.0254,0.8666,-6.64,7.94,-0.09,28.72
25460,0.3302,-0.0229,0.8624,-6.63,7.89,-0.05,28.7
25470,0.3285,-0.0249,0.8645,-6.56,7.94,0.03,28.7
25480,0.3282,-0.024,0.866,-6.6,7.91,-0.12,28.69
25490,0.3265,-0.0238,0.8649,-6.75,7.95,-0.11,28.7
25500,0.327,-0.0214,0.861,-6.63,7.89,0.06,28.72
25510,0.3303,-0.0258,0.8646,-6.64,7.89,-0.06,28.71
25520,0.327,-0.0273,0.8632,-6.6,7.88,0.02,28.69
25530,0.3292,-0.0284,0.8645,-6.6,7.92,-0.08,28.71
25540,0.3282,-0.0272,0.8632,-6.63,7.92,-0.03,28.71
25551,0.328,-0.0254,0.8619,-6.63,7.95,0.0,28.72
25561,0.3304,-0.0231,0.8608,-6.67,7.88,0.0,28.7
25571,0.3274,-0.0258,0.8636,-6.6,7.98,0.03,28.72
25581,0.3262,-0.0264,0.8638,-6.64,7.91,-0.05,28.71
25591,0.3258,-0.0236,0.8671,-6.66,7.91,0.0,28.7
25602,0.3304,-0.0265,0.8617,-6.67,7.91,-0.06,28.7
25612,0.3298,-0.0256,0.8655,-6.67,7.95,0.03,28.72
25622,0.3301,-0.028,0.863,-6.64,7.94,0.0,28.73
25632,0.3297,-0.0253,0.8632,-6.6,7.97,-0.02,28.69
25642,0.3253,-0.0242,0.8665,-6.67,7.94,-0.03,28.73
25652,0.3307,-0.0261,0.8663,-6.6,7.92,0.03,28.73
25662,0.3252,-0.0259,0.8605,-6.67,7.95,0.0,28.7
25672,0.327,-0.0251,0.8619,-6.67,7.92,-0.02,28.73
25682,0.3259,-0.0239,0.8624,-6.6,7.86,0.02,28.7
25692,0.3267,-0.0233,0.8669,-6.63,7.89,-0.03,28.72
25702,0.3281,-0.0277,0.864,-6.63,7.91,-0.11,28.72
25712,0.3292,-0.0265,0.8632,-6.56,7.95,-0.09,28.71
25722,0.3275,-0.0262,0.8672,-6.66,7.89,0.0,28.72
25732,0.3275,-0.0276,0.8663,-6.73,7.92,-0.02,28.72
25742,0.33,-0.0253,0.8627,-6.64,7.92,0.02,28.73
25752,0.3287,-0.027,0.865,-6.6,7.91,0.05,28.72
25762,0.3286,-0.0253,0.8656,-6.63,7.89,-0.12,28.72
25772,0.3264,-0.0272,0.8617,-6.55,7.89,-0.05,28.73
25782,0.3268,-0.0242,0.8623,-6.55,7.91,-0.02,28.72
25792,0.328,-0.0242,0.8673,-6.58,7.98,0.0,28.72
25802,0.3276,-0.0255,0.866,-6.64,7.97,-0.08,28.74
25812,0.3264,-0.0251,0.8624,-6.6,7.86,-0.02,28.71
25822,0.3304,-0.0286,0.864,-6.69,7.97,0.02,28.72
25832,0.3279,-0.0243,0.8652,-6.64,7.94,-0.06,28.7
25842,0.3298,-0.0267,0.8629,-6.67,7.95,-0.08,28.72
25852,0.3307,-0.0251,0.8646,-6.56,7.92,-0.03,28.73
25862,0.3276,-0.0253,0.8625,-6.69,7.88,-0.05,28.73
25872,0.327,-0.0248,0.8634,-6.6,8.0,-0.03,28.7
25882,0.3269,-0.0267,0.864,-6.6,8.0,-0.02,28.7
25892,0.3273,-0.0223,0.8646,-6.61,7.95,-0.02,28.72
25902,0.3285,-0.0265,0.8658,-6.64,7.97,-0.06,28.73
25912,0.3286,-0.0234,0.8606,-6.52,7.95,0.06,28.72
25922,0.3281,-0.0264,0.8646,-6.69,7.95,-0.02,28.71
25932,0.3296,-0.0251,0.8657,-6.7,7.89,0.0,28.72
25942,0.328,-0.0254,0.863,-6.69,7.83,0.0,28.74
25952,0.3263,-0.0271,0.8612,-6.66,7.98,-0.03,28.71
25962,0.3257,-0.0249,0.8606,-6.66,7.98,-0.08,28.75
25972,0.3284,-0.0254,0.8643,-6.73,7.95,-0.05,28.72
25982,0.3286,-0.0247,0.8607,-6.67,7.97,-0.09,28.74
25992,0.3279,-0.0256,0.8601,-6.72,7.94,-0.06,28.72
26002,0.3279,-0.0288,0.8597,-6.6,8.0,-0.09,28.72
26012,0.3256,-0.0265,0.8657,-6.64,7.97,0.02,28.72
26022,0.3291,-0.0231,0.863,-6.64,7.94,-0.03,28.72
26032,0.3276,-0.0278,0.8658,-6.63,7.89,-0.08,28.72
26042,0.3292,-0.0267,0.8617,-6.6,7.97,-0.05,28.72
26052,0.3278,-0.0265,0.8682,-6.58,7.91,-0.02,28.74
26062,0.3268,-0.0267,0.8624,-6.61,7.89,-0.06,28.73
26072,0.328,-0.0242,0.8622,-6.66,7.94,-0.09,28.72
26082,0.3285,-0.0262,0.8627,-6.61,7.91,-0.03,28.74
26092,0.3268,-0.0258,0.8611,-6.64,7.92,0.0,28.71
26102,0.3292,-0.0258,0.8618,-6.67,7.94,-0.05,28.74
26112,0.3314,-0.0272,0.8654,-6.63,7.91,-0.06,28.73
26122,0.3256,-0.0247,0.8625,-6.64,7.94,-0.08,28.74
26132,0.3291,-0.0254,0.864,-6.73,7.91,-0.12,28.72
26142,0.3291,-0.0269,0.8633,-6.6,7.97,-0.09,28.72
26152,0.3274,-0.0258,0.8606,-6.63,7.95,-0.03,28.74
26162,0.3286,-0.0259,0.8649,-6.67,7.98,0.0,28.72
26172,0.3252,-0.0258,0.8623,-6.61,7.94,-0.05,28.74
26182,0.3262,-0.0244,0.8624,-6.63,7.97,-0.05,28.72
26192,0.3289,-0.0262,0.8633,-6.63,7.97,-0.05,28.74
26202,0.3267,-0.025,0.8669,-6.64,7.97,-0.03,28.77
26212,0.3286,-0.0262,0.8634,-6.69,7.98,0.02,28.72
26222,0.328,-0.0266,0.8643,-6.67,7.92,-0.09,28.74
26232,0.3269,-0.025,0.8608,-6.72,7.88,-0.08,28.72
26242,0.3284,-0.0253,0.8618,-6.7,7.91,-0.09,28.73
26252,0.333,-0.0255,0.8669,-6.7,7.94,0.0,28.72
26262,0.3259,-0.0237,0.8689,-6.69,7.88,-0.06,28.74
26272,0.329,-0.0239,0.8611,-6.66,7.92,-0.05,28.74
26282,0.3313,-0.0258,0.8612,-6.67,7.95,-0.06,28.74
26292,0.3264,-0.0267,0.865,-6.64,7.98,-0.03,28.73
26302,0.3276,-0.0249,0.8651,-6.67,7.88,-0.06,28.72
26312,0.3289,-0.0261,0.8649,-6.66,7.89,-0.08,28.76
26322,0.3292,-0.0253,0.8684,-6.64,7.98,-0.17,28.72
26332,0.3273,-0.0273,0.8636,-6.66,7.94,-0.06,28.74
26342,0.3287,-0.0265,0.8629,-6.63,7.95,0.03,28.74
26352,0.3253,-0.0261,0.8644,-6.64,7.92,-0.03,28.74
26362,0.3303,-0.0272,0.8683,-6.64,7.92,-0.08,28.74
26372,0.3274,-0.0291,0.8619,-6.64,7.95,0.0,28.74
26382,0.3263,-0.0236,0.8638,-6.64,7.88,-0.06,28.72
26392,0.3306,-0.0223,0.864,-6.67,7.98,0.03,28.7
26402,0.3274,-0.0255,0.8646,-6.7,7.97,-0.05,28.74
26412,0.3274,-0.0253,0.8595,-6.63,7.94,-0.08,28.73
26422,0.3284,-0.0265,0.8624,-6.64,7.89,-0.06,28.72
26432,0.3293,-0.0265,0.8679,-6.63,8.0,-0.02,28.74
26442,0.3269,-0.0271,0.8624,-6.6,7.94,-0.09,28.74
26452,0.3267,-0.0266,0.8634,-6.64,7.91,-0.08,28.74
26462,0.328,-0.0256,0.8661,-6.69,7.97,-0.02,28.74
26472,0.3298,-0.0249,0.8679,-6.64,7.92,-0.05,28.73
26482,0.3263,-0.0243,0.8672,-6.58,7.94,-0.09,28.72
26492,0.3278,-0.0258,0.8641,-6.66,7.88,-0.08,28.72
26502,0.3279,-0.0228,0.8656,-6.7,7.95,-0.09,28.74
26512,0.3289,-0.0258,0.8638,-6.66,7.89,0.0,28.71
26522,0.3284,-0.0271,0.8645,-6.67,8.0,-0.02,28.71
26532,0.3282,-0.026,0.8647,-6.61,7.91,-0.06,28.73
26542,0.3278,-0.0265,0.859,-6.61,7.91,-0.06,28.73
26552,0.326,-0.0256,0.861,-6.67,7.86,0.03,28.74
26562,0.3268,-0.025,0.8632,-6.66,7.89,-0.06,28.72
26572,0.3287,-0.024,0.8643,-6.64,7.88,-0.06,28.74
26582,0.3285,-0.0275,0.8638,-6.61,7.94,-0.05,28.75
26592,0.3296,-0.0283,0.8619,-6.63,8.05,-0.09,28.73
26602,0.3276,-0.0278,0.8655,-6.6,7.92,-0.03,28.74
26612,0.3281,-0.0237,0.8619,-6.64,7.94,-0.03,28.72
26622,0.3254,-0.024,0.8628,-6.64,7.95,0.0,28.76
26632,0.3304,-0.0282,0.8658,-6.61,8.02,0.0,28.73
26642,0.3291,-0.0259,0.8662,-6.7,7.89,-0.14,28.73
26652,0.3267,-0.0255,0.865,-6.73,7.97,-0.03,28.74
26662,0.327,-0.024,0.8636,-6.7,7.95,-0.05,28.69
26672,0.3292,-0.0259,0.8672,-6.58,7.92,0.05,28.74
26682,0.3292,-0.0248,0.8655,-6.69,7.97,-0.08,28.76
26692,0.328,-0.0264,0.8655,-6.69,7.95,-0.03,28.76
26702,0.3295,-0.0259,0.8633,-6.66,7.92,-0.02,28.73
26712,0.3275,-0.0259,0.8684,-6.69,7.88,-0.05,28.72
26722,0.3275,-0.0255,0.8632,-6.64,7.92,-0.09,28.73
26732,0.3308,-0.0249,0.8654,-6.7,7.92,-0.06,28.72
26742,0.3298,-0.0234,0.8665,-6.58,7.94,-0.06,28.72
26752,0.3264,-0.0254,0.8617,-6.64,7.89,-0.05,28.74
26762,0.3293,-0.0278,0.8662,-6.6,7.91,-0.09,28.75
26772,0.3278,-0.0267,0.8645,-6.63,7.97,-0.02,28.74
26782,0.3258,-0.0267,0.8632,-6.75,7.97,-0.05,28.71
26792,0.3289,-0.0273,0.8663,-6.6,7.92,-0.08,28.74
26802,0.3269,-0.0275,0.8665,-6.6,7.91,-0.08,28.74
26812,0.3269,-0.0276,0.8661,-6.6,7.92,0.03,28.76
26822,0.3292,-0.0283,0.8661,-6.63,8.02,-0.02,28.74
26832,0.3273,-0.0248,0.8652,-6.72,7.98,-0.03,28.74
26842,0.328,-0.0254,0.86,-6.63,7.91,-0.06,28.75
26852,0.3267,-0.0286,0.8649,-6.64,7.85,-0.06,28.72
26862,0.329,-0.025,0.8636,-6.63,7.88,-0.11,28.73
26872,0.3247,-0.0232,0.8624,-6.55,7.92,-0.11,28.72
26882,0.3285,-0.0272,0.8615,-6.63,7.94,-0.11,28.75
26892,0.3276,-0.0245,0.8641,-6.58,8.0,-0.08,28.74
26902,0.3284,-0.0247,0.8644,-6.6,7.92,-0.12,28.74
26912,0.3298,-0.0254,0.8644,-6.7,7.88,-0.02,28.73
26922,0.3293,-0.0265,0.8657,-6.64,7.94,-0.06,28.72
26932,0.3276,-0.0266,0.8667,-6.63,7.94,0.0,28.75
26942,0.3282,-0.0272,0.8649,-6.64,7.85,-0.12,28.73
26952,0.3264,-0.0262,0.8646,-6.64,7.98,-0.05,28.72
26962,0.3241,-0.0259,0.8594,-6.6,7.95,-0.02,28.72
26972,0.329,-0.0259,0.8628,-6.69,7.91,-0.05,28.76
26982,0.3295,-0.0255,0.8605,-6.6,7.86,-0.03,28.77
26992,0.3297,-0.0272,0.8618,-6.66,7.86,-0.06,28.74
27002,0.3296,-0.0269,0.8634,-6.69,7.94,0.02,28.72
27012,0.3291,-0.0288,0.8632,-6.72,7.92,-0.09,28.74
27022,0.3285,-0.0256,0.8656,-6.63,7.97,-0.03,28.72
27032,0.3281,-0.0256,0.8615,-6.64,7.88,-0.05,28.71
27042,0.3267,-0.025,0.8651,-6.64,7.95,0.03,28.73
27052,0.3276,-0.0229,0.8582,-6.66,7.94,-0.09,28.73
27062,0.3275,-0.0255,0.8607,-6.69,7.92,-0.05,28.73
27072,0.3269,-0.0251,0.8645,-6.67,7.91,-0.06,28.71
27082,0.3254,-0.0253,0.8629,-6.69,7.88,-0.09,28.74
27092,0.3301,-0.0249,0.8624,-6.61,7.95,-0.08,28.74
27102,0.3301,-0.0249,0.8666,-6.55,7.94,-0.06,28.75
27112,0.3276,-0.0275,0.8618,-6.63,7.89,0.0,28.74
27122,0.3282,-0.0226,0.8649,-6.64,7.92,-0.03,28.73
27132,0.327,-0.0256,0.865,-6.6,7.92,-0.02,28.72
27142,0.3279,-0.0299,0.8638,-6.63,7.95,-0.09,28.72
27152,0.3287,-0.0245,0.8634,-6.67,7.91,-0.05,28.74
27162,0.3307,-0.0255,0.8615,-6.58,7.98,-0.05,28.73
27172,0.3279,-0.0248,0.8639,-6.66,7.91,-0.06,28.73
27182,0.3264,-0.025,0.8623,-6.66,7.98,0.05,28.72
27199,0.3278,-0.0265,0.8632,-6.66,7.95,-0.06,28.73
27209,0.3301,-0.0259,0.8649,-6.66,7.98,-0.05,28.73
27219,0.3276,-0.0251,0.8691,-6.64,7.97,-0.17,28.74
27229,0.3289,-0.0256,0.8634,-6.64,7.91,-0.06,28.73
27239,0.3291,-0.0244,0.8638,-6.69,7.94,-0.08,28.73
27249,0.3292,-0.0266,0.8644,-6.61,7.92,-0.05,28.72
27259,0.329,-0.025,0.8678,-6.61,7.94,-0.11,28.72
27269,0.3269,-0.0249,0.8661,-6.63,7.95,-0.03,28.72
27279,0.3252,-0.0236,0.8655,-6.82,7.94,-0.08,28.73
